file_name,test_id,_program_index,program_index,session_id,index,_index,unixtime,datetime_utc,datetime_jst,rtc_year,rtc_month,rtc_day,rtc_hour,rtc_min,rtc_sec,rtc_msec,gps_hour,gps_min,gps_sec,latitude,longitude,altitude,fix_type,SIV,acc_x,acc_y,acc_z,gyro_x,gyro_y,gyro_z,mag_x,mag_y,mag_z,illuminance,atmopress,water_pressure,water_temp,depth,alt_wps,battery_level,behavior_class,camera_command,camera_recording,camera_count,play_audio,speaker_on,audio_file,prev_sd_write_time_ms,delay_occurred_counter,acc_x_ma,acc_y_ma,acc_z_ma,gyro_x_ma,gyro_y_ma,gyro_z_ma,gyro_x_lowpass,gyro_y_lowpass,gyro_z_lowpass,angle_x,angle_y,angle_z,combined_angle_change,gravity_adjusted_angle,smoothed_angle_change,smoothed_gravity_angle,acc_x_dy,acc_y_dy,acc_z_dy,ODBA,VeDBA,smoothed_VeDBA_1s,smoothed_VeDBA_2s,smoothed_VeDBA_3s
LBP09_S05,LBP09,-1650,1,5,0,-1650,1716541795.0,2024-05-24 09:09:55+00:00,2024-05-24 18:09:55+09:00,2024,5,24,9,9,55,0,9.0,9.0,54.0,40.567356,141.541763,11.257,3.0,15.0,-0.216064,-0.158936,1.606934,22.277832,4.211426,46.630859,-293.0,112.0,248.0,415.0,0.0,1006.0,19.799999,-0.069368,60.501274,3.88125,0.0,1.0,1.0,5.0,0.0,0.0,0.0,5.0,0.0,,,,,,,23.065192545638425,5.698058416277232,46.70546549149811,0.922607701825537,0.22792233665108927,1.8682186196599244,2.096042550583438,,4.256114978283458,,,,,,,,,
LBP09_S05,LBP09,-1649,2,5,1,-1649,1716541795.04,2024-05-24 09:09:55.040000+00:00,2024-05-24 18:09:55.040000+09:00,2024,5,24,9,9,55,40,,,,,,,,,-0.492188,-0.04834,1.6604,-35.827637,-91.491699,8.911133,,,,,,,,,,,0.0,1.0,1.0,5.0,0.0,0.0,0.0,5.0,0.0,,,,,,,17.15992019241446,7.189828697648156,34.21182843206966,1.6090045095221153,0.5155154845570155,3.2366917569427107,3.651140267908294,,4.477852311625054,,,,,,,,,
LBP09_S05,LBP09,-1648,3,5,2,-1648,1716541795.08,2024-05-24 09:09:55.080000+00:00,2024-05-24 18:09:55.080000+09:00,2024,5,24,9,9,55,80,,,,,,,,,-0.007324,-0.039795,1.481445,48.217773,-31.616211,-24.902344,,,,,,,,,,,0.0,1.0,1.0,5.0,0.0,0.0,0.0,5.0,0.0,,,,,,,10.431125004054522,8.289201138325408,22.873298681101527,2.026249509684296,0.8470835300900318,4.151623704186772,4.696724067220804,,4.645170714791907,,,,,,,,,
LBP09_S05,LBP09,-1647,4,5,3,-1647,1716541795.12,2024-05-24 09:09:55.120000+00:00,2024-05-24 18:09:55.120000+09:00,2024,5,24,9,9,55,120,,,,,,,,,-0.222656,0.142334,0.477051,34.484863,142.333984,35.766602,,,,,,,,,,,0.0,1.0,1.0,5.0,0.0,0.0,0.0,5.0,0.0,,,,,,,2.4983685082641647,8.57453460243706,13.73079978795346,2.1261842500148624,1.1900649141875141,4.70085569570491,5.294804834631083,,4.812726557584233,,,,,,,,,
LBP09_S05,LBP09,-1646,5,5,4,-1646,1716541795.16,2024-05-24 09:09:55.160000+00:00,2024-05-24 18:09:55.160000+09:00,2024,5,24,9,9,55,160,,,,,,,,,-0.174561,-0.25708,0.222656,-81.542969,-7.141113,48.76709,,,,,,,,,,,0.0,1.0,1.0,5.0,0.0,0.0,0.0,5.0,0.0,,,,,,,-6.594010662905801,7.709185855286361,7.47442105186583,1.8624238234986303,1.4984323483989685,4.999832537779543,5.541863171073672,,5.027738029505372,,,,,,,,,
LBP09_S05,LBP09,-1645,6,5,5,-1645,1716541795.2,2024-05-24 09:09:55.200000+00:00,2024-05-24 18:09:55.200000+09:00,2024,5,24,9,9,55,200,,,,,,,,,0.357666,-0.243652,0.821777,59.692383,-59.387207,-26.184082,,,,,,,,,,,0.0,1.0,1.0,5.0,0.0,0.0,0.0,5.0,0.0,,,,,,,-16.274151562333103,5.561619147054267,4.378403876315766,1.211457761005306,1.7208971142811391,5.174968692832174,5.586538978333032,,5.311952867534621,,,,,,,,,
LBP09_S05,LBP09,-1644,7,5,6,-1644,1716541795.24,2024-05-24 09:09:55.240000+00:00,2024-05-24 18:09:55.240000+09:00,2024,5,24,9,9,55,240,,,,,,,,,0.30127,0.161377,1.03418,-33.38623,43.334961,3.356934,,,,,,,,,,,0.0,1.0,1.0,5.0,0.0,0.0,0.0,5.0,0.0,,,,,,,-25.455632483877405,2.2705702800379344,4.305553455176334,0.1932324616502099,1.8117199254826566,5.347190831039227,5.649081133793023,,6.0160254552483305,,,,,,,,,
LBP09_S05,LBP09,-1643,8,5,7,-1643,1716541795.28,2024-05-24 09:09:55.280000+00:00,2024-05-24 18:09:55.280000+09:00,2024,5,24,9,9,55,280,,,,,,,,,-0.251221,0.027588,1.422119,-21.66748,20.751953,14.404297,,,,,,,,,,,0.0,1.0,1.0,5.0,0.0,0.0,0.0,5.0,0.0,,,,,,,-32.6878204783058,-1.764420154292768,6.753523589421289,-1.1142803574820221,1.741143119310946,5.617331774616079,5.9856174571305125,,6.682856852637269,,,,,,,,,
LBP09_S05,LBP09,-1642,9,5,8,-1642,1716541795.32,2024-05-24 09:09:55.320000+00:00,2024-05-24 18:09:55.320000+09:00,2024,5,24,9,9,55,320,,,,,,,,,-0.308838,-0.005127,1.734619,-30.700684,-70.800781,6.774902,,,,,,,,,,,0.0,1.0,1.0,5.0,0.0,0.0,0.0,5.0,0.0,,,,,,,-36.44065859829512,-5.945791746024622,10.932482976827062,-2.571906701413827,1.503311449469961,6.054631093689162,6.747829804874486,,7.338861317382177,,,,,,,,,
LBP09_S05,LBP09,-1641,10,5,9,-1641,1716541795.36,2024-05-24 09:09:55.360000+00:00,2024-05-24 18:09:55.360000+09:00,2024,5,24,9,9,55,360,,,,,,,,,0.195801,-0.097412,1.374023,-71.655273,-22.766113,2.380371,,,,,,,,,,,0.0,1.0,1.0,5.0,0.0,0.0,0.0,5.0,0.0,,,,,,,-35.48052855491042,-9.566194705805126,15.873055613557126,-3.9911278436102435,1.120663661237756,6.689553318231447,7.869886409797865,,7.99825980310563,,,,,,,,,
LBP09_S05,LBP09,-1640,11,5,10,-1640,1716541795.4,2024-05-24 09:09:55.400000+00:00,2024-05-24 18:09:55.400000+09:00,2024,5,24,9,9,55,400,,,,,,,,,-0.294434,-0.359863,0.654541,-44.494629,118.591309,39.611816,,,,,,,,,,,0.0,1.0,1.0,5.0,0.0,0.0,0.0,5.0,0.0,,,,,,,-29.24911445472178,-11.907105960325328,20.55832735767312,-5.161092421799115,0.6443794228247429,7.511886412538372,9.136768427720536,,8.669864643280235,,,,,,,,,
LBP09_S05,LBP09,-1639,12,5,11,-1639,1716541795.44,2024-05-24 09:09:55.440000+00:00,2024-05-24 18:09:55.440000+09:00,2024,5,24,9,9,55,440,,,,,,,,,-0.155273,-0.159668,0.100342,-20.385742,-69.091797,33.508301,,,,,,,,,,,0.0,1.0,1.0,5.0,0.0,0.0,0.0,5.0,0.0,,,,,,,-18.136963089665826,-12.350564603969351,24.064839545178938,-5.886570945385748,0.15035683866596888,8.47447999434553,10.319454241797668,,9.358691678858758,,,,,,,,,
LBP09_S05,LBP09,-1638,13,5,12,-1638,1716541795.48,2024-05-24 09:09:55.480000+00:00,2024-05-24 18:09:55.480000+09:00,2024,5,24,9,9,55,480,,,,,,,,,0.557617,0.180176,0.758545,44.677734,-86.669922,-0.061035,,,,,,,,,,,0.0,1.0,1.0,5.0,0.0,0.0,0.0,5.0,0.0,,,,,,,-3.564075238478461,-10.512028031868255,25.69249194414754,-6.029133954924887,-0.2701242826087613,9.502179672111431,11.25676871466989,,10.059054494475166,,,,,,,,,
LBP09_S05,LBP09,-1637,14,5,13,-1637,1716541795.52,2024-05-24 09:09:55.520000+00:00,2024-05-24 18:09:55.520000+09:00,2024,5,24,9,9,55,520,,,,,,,,,0.486084,-0.26001,1.209961,-115.112305,43.823242,32.287598,,,,,,,,,,,0.0,1.0,1.0,5.0,0.0,0.0,0.0,5.0,0.0,,,,,,,12.17201714848249,-6.374052347107817,25.065758436330807,-5.542253268985587,-0.525086376493074,10.504810009564665,11.888789691865613,,10.74484411369281,,,,,,,,,
LBP09_S05,LBP09,-1636,15,5,14,-1636,1716541795.56,2024-05-24 09:09:55.560000+00:00,2024-05-24 18:09:55.560000+09:00,2024,5,24,9,9,55,560,,,,,,,,,-0.283936,-0.442383,1.810059,83.862305,39.672852,27.709961,,,,,,,,,,,0.0,1.0,1.0,5.0,0.0,0.0,0.0,5.0,0.0,,,,,,,26.271355250540747,-0.36399840420273294,22.19604195358413,-4.491399058963958,-0.5396463126611833,11.39265168770803,12.257911572819726,,11.372781995924536,,,,,,,,,
LBP09_S05,LBP09,-1635,16,5,15,-1635,1716541795.6,2024-05-24 09:09:55.600000+00:00,2024-05-24 18:09:55.600000+09:00,2024,5,24,9,9,55,600,,,,,,,,,-0.353271,-0.23291,1.974854,55.175781,-109.863281,16.784668,,,,,,,,,,,0.0,1.0,1.0,5.0,0.0,0.0,0.0,5.0,0.0,,,,,,,35.97612879274447,6.677532309799678,17.497413623997797,-3.0523539072541785,-0.27254502026919625,12.092548232667943,12.474809334118255,,11.902720776381248,,,,,,,,,
LBP09_S05,LBP09,-1634,17,5,16,-1634,1716541795.64,2024-05-24 09:09:55.640000+00:00,2024-05-24 18:09:55.640000+09:00,2024,5,24,9,9,55,640,,,,,,,,,0.309082,-0.242676,1.574707,31.921387,2.746582,30.090332,,,,,,,,,,,0.0,1.0,1.0,5.0,0.0,0.0,0.0,5.0,0.0,,,,,,,39.1775881449623,13.652369219562937,11.74267269642049,-1.4852503814556866,0.27354974851332126,12.562255140524762,12.652709289957103,,12.319108124430851,,,,,,,,,
LBP09_S05,LBP09,-1633,18,5,17,-1633,1716541795.68,2024-05-24 09:09:55.680000+00:00,2024-05-24 18:09:55.680000+09:00,2024,5,24,9,9,55,680,,,,,,,,,-0.365479,0.138428,0.39624,117.06543,174.865723,33.569336,,,,,,,,,,,0.0,1.0,1.0,5.0,0.0,0.0,0.0,5.0,0.0,,,,,,,34.92824532347612,19.456667446630895,5.945340025689886,-0.08812056851664174,1.051816446378557,12.800068741552357,12.843513649306947,,12.642738888338997,,,,,,,,,
LBP09_S05,LBP09,-1632,19,5,18,-1632,1716541795.72,2024-05-24 09:09:55.720000+00:00,2024-05-24 18:09:55.720000+09:00,2024,5,24,9,9,55,720,,,,,,,,,0.172119,0.319336,0.158691,50.842285,-4.882812,-44.006348,,,,,,,,,,,0.0,1.0,1.0,5.0,0.0,0.0,0.0,5.0,0.0,,,,,,,23.698108552903523,23.254702766065463,1.168563421585294,0.8598037735994992,1.9820045570211757,12.84681127841577,13.027208627191754,,12.929750720503947,,,,,,,,,
LBP09_S05,LBP09,-1631,20,5,19,-1631,1716541795.76,2024-05-24 09:09:55.760000+00:00,2024-05-24 18:09:55.760000+09:00,2024,5,24,9,9,55,760,,,,,,,,,0.132812,-0.30957,0.873291,-22.094727,-25.634766,-14.587402,,,,,,,,,,,0.0,1.0,1.0,5.0,0.0,0.0,0.0,5.0,0.0,,,,,,,7.279235211236639,24.667928514065487,-1.7061451335456148,1.1509731820489648,2.968721697583795,12.778565473073945,13.169274214364977,,13.255538905411793,,,,,,,,,
LBP09_S05,LBP09,-1630,21,5,20,-1630,1716541795.8,2024-05-24 09:09:55.800000+00:00,2024-05-24 18:09:55.800000+09:00,2024,5,24,9,9,55,800,,,,,,,,,0.230225,-0.075195,1.331543,-84.04541,56.640625,1.647949,,,,,,,,,,,0.0,1.0,1.0,5.0,0.0,0.0,0.0,5.0,0.0,,,,,,,-11.638838263885724,23.80480678924811,-2.186942643228356,0.6854196514935358,3.9209139691537196,12.691087767344811,13.300641908216589,,13.688745206885182,,,,,,,,,
LBP09_S05,LBP09,-1629,22,5,21,-1629,1716541795.84,2024-05-24 09:09:55.840000+00:00,2024-05-24 18:09:55.840000+09:00,2024,5,24,9,9,55,840,,,,,,,,,-0.419678,-0.299316,1.857422,-24.414062,19.65332,11.71875,,,,,,,,,,,0.0,1.0,1.0,5.0,0.0,0.0,0.0,5.0,0.0,,,,,,,-30.080517495329314,21.14479522018357,-0.2903270741465095,-0.5178010483196367,4.766705777961063,12.67947468437895,13.555761880879105,,14.269557215801711,,,,,,,,,
LBP09_S05,LBP09,-1628,23,5,22,-1628,1716541795.88,2024-05-24 09:09:55.880000+00:00,2024-05-24 18:09:55.880000+09:00,2024,5,24,9,9,55,880,,,,,,,,,-0.055176,0.068359,1.77417,-42.114258,-85.144043,-10.131836,,,,,,,,,,,0.0,1.0,1.0,5.0,0.0,0.0,0.0,5.0,0.0,,,,,,,-45.385678097535894,17.35642276044599,3.464835715437341,-2.3332281722210726,5.460962688378903,12.818068112996444,14.12688703631939,,15.00334135466942,,,,,,,,,
LBP09_S05,LBP09,-1627,24,5,23,-1627,1716541795.92,2024-05-24 09:09:55.920000+00:00,2024-05-24 18:09:55.920000+09:00,2024,5,24,9,9,55,920,,,,,,,,,0.075439,0.123779,1.058105,-50.65918,91.247559,-6.347656,,,,,,,,,,,0.0,1.0,1.0,5.0,0.0,0.0,0.0,5.0,0.0,,,,,,,-55.64497618501265,13.131388778025196,8.183848326620524,-4.559027219621578,5.986218239499911,13.145422046061265,15.146671540944082,,15.869014704251494,,,,,,,,,
LBP09_S05,LBP09,-1626,25,5,24,-1626,1716541795.96,2024-05-24 09:09:55.960000+00:00,2024-05-24 18:09:55.960000+09:00,2024,5,24,9,9,55,960,,,,,,,,,-0.498779,0.417236,-0.050537,-97.900391,80.444336,-7.141113,,,,,,,,,,,0.0,1.0,1.0,5.0,0.0,0.0,0.0,5.0,0.0,,,,,,,-59.90502729200942,9.07259037093166,12.814214216776685,-6.955228311301955,6.349121854337177,13.657990614732332,16.589974587553613,,16.83306233276476,,,,,,,,,
LBP09_S05,LBP09,-1625,26,5,25,-1625,1716541796.0,2024-05-24 09:09:56+00:00,2024-05-24 18:09:56+09:00,2024,5,24,9,9,56,0,9.0,9.0,55.0,40.567371,141.541931,11.807,3.0,14.0,-0.080566,-0.573975,0.420898,-61.401367,-36.499023,88.562012,-292.0,130.0,251.0,405.0,0.0,1005.700012,19.799999,-0.072341,63.012268,3.88125,0.0,1.0,1.0,5.0,0.0,0.0,0.0,5.0,0.0,,,,,,,-58.15821834142644,5.6217087852862075,16.40919767846626,-9.281557044959012,6.5739902057486255,14.314358521870982,18.282929423283555,,17.859344069220715,,,,,,,,,
LBP09_S05,LBP09,-1624,27,5,26,-1624,1716541796.04,2024-05-24 09:09:56.040000+00:00,2024-05-24 18:09:56.040000+09:00,2024,5,24,9,9,56,40,,,,,,,,,0.341797,0.02832,0.622314,61.096191,-85.266113,-5.310059,,,,,,,,,,,0.0,1.0,1.0,5.0,0.0,0.0,0.0,5.0,0.0,,,,,,,-51.17700595402133,2.99645997885264,18.36942885533039,-11.328637283119866,6.6938486049027315,15.049135676084198,19.99055067863419,,18.91047093179762,,,,,,,,,
LBP09_S05,LBP09,-1623,28,5,27,-1623,1716541796.08,2024-05-24 09:09:56.080000+00:00,2024-05-24 18:09:56.080000+09:00,2024,5,24,9,9,56,80,,,,,,,,,0.397949,0.02124,0.905273,-88.867188,36.254883,61.462402,,,,,,,,,,,0.0,1.0,1.0,5.0,0.0,0.0,0.0,5.0,0.0,,,,,,,-40.2768569279362,1.1462421650670425,18.58244807296401,-12.939711560237313,6.739698291505413,15.79243359900276,21.50024714512769,,19.943505953750446,,,,,,,,,
LBP09_S05,LBP09,-1622,29,5,28,-1622,1716541796.12,2024-05-24 09:09:56.120000+00:00,2024-05-24 18:09:56.120000+09:00,2024,5,24,9,9,56,120,,,,,,,,,-0.060059,-0.012695,1.45752,-37.902832,47.058105,2.197266,,,,,,,,,,,0.0,1.0,1.0,5.0,0.0,0.0,0.0,5.0,0.0,,,,,,,-27.087330075683106,-0.22694470018736612,17.40301160098521,-14.023204763264637,6.730620503497919,16.48855406304217,22.667684912324393,,20.907351755033446,,,,,,,,,
LBP09_S05,LBP09,-1621,30,5,29,-1621,1716541796.16,2024-05-24 09:09:56.160000+00:00,2024-05-24 18:09:56.160000+09:00,2024,5,24,9,9,56,160,,,,,,,,,-0.336182,0.134277,1.57666,-63.537598,-31.677246,6.408691,,,,,,,,,,,0.0,1.0,1.0,5.0,0.0,0.0,0.0,5.0,0.0,,,,,,,-13.361564176307747,-1.558047732539408,15.476918374595773,-14.557667330316947,6.668298594196343,17.107630798026,23.432091578924535,,21.748676383508435,,,,,,,,,
LBP09_S05,LBP09,-1620,31,5,30,-1620,1716541796.2,2024-05-24 09:09:56.200000+00:00,2024-05-24 18:09:56.200000+09:00,2024,5,24,9,9,56,200,,,,,,,,,0.01416,0.026123,1.57959,-5.859375,-59.326172,-40.161133,,,,,,,,,,,0.0,1.0,1.0,5.0,0.0,0.0,0.0,5.0,0.0,,,,,,,-0.7934983077491345,-3.2518197834239624,13.478048611592877,-14.589407262626914,6.538225802859384,17.646752742489717,23.811910533985625,,22.42507195139119,,,,,,,,,
LBP09_S05,LBP09,-1619,32,5,31,-1619,1716541796.24,2024-05-24 09:09:56.240000+00:00,2024-05-24 18:09:56.240000+09:00,2024,5,24,9,9,56,240,,,,,,,,,-0.089355,-0.295898,0.926514,48.339844,110.168457,30.090332,,,,,,,,,,,0.0,1.0,1.0,5.0,0.0,0.0,0.0,5.0,0.0,,,,,,,9.19699457896727,-5.520985244612675,11.866180488983437,-14.221527479468223,6.317386393074877,18.121399962049054,23.8861121004074,,22.916095527873928,,,,,,,,,
LBP09_S05,LBP09,-1618,33,5,32,-1618,1716541796.28,2024-05-24 09:09:56.280000+00:00,2024-05-24 18:09:56.280000+09:00,2024,5,24,9,9,56,280,,,,,,,,,-0.214844,0.203125,0.050537,48.522949,-3.173828,-8.666992,,,,,,,,,,,0.0,1.0,1.0,5.0,0.0,0.0,0.0,5.0,0.0,,,,,,,15.694139431246512,-8.287687976384788,10.760832077954818,-13.593761902218363,5.985878874019485,18.551833245167245,23.765345049149378,,23.22586061597992,,,,,,,,,
LBP09_S05,LBP09,-1617,34,5,33,-1617,1716541796.32,2024-05-24 09:09:56.320000+00:00,2024-05-24 18:09:56.320000+09:00,2024,5,24,9,9,56,320,,,,,,,,,0.017334,-0.104492,0.371094,40.95459,-75.561523,34.973145,,,,,,,,,,,0.0,1.0,1.0,5.0,0.0,0.0,0.0,5.0,0.0,,,,,,,18.448691240949167,-11.190139884286085,9.969206196559536,-12.855814252580396,5.538273278648042,18.950601493029627,23.55991782569398,,23.3785639715967,-2.037399597480492,,,,,,,,
LBP09_S05,LBP09,-1616,35,5,34,-1616,1716541796.36,2024-05-24 09:09:56.360000+00:00,2024-05-24 18:09:56.360000+09:00,2024,5,24,9,9,56,360,,,,,,,,,0.567139,0.209229,0.7146,36.92627,-50.048828,1.037598,,,,,,,,,,,0.0,1.0,1.0,5.0,0.0,0.0,0.0,5.0,0.0,,,,,,,17.881815804841334,-13.699082789012493,9.1364242084926,-12.140541620386744,4.990309967087542,19.31605846136933,23.353930266381155,,23.410844141096412,-2.031685657393002,,,,,,,,
LBP09_S05,LBP09,-1615,36,5,35,-1615,1716541796.4,2024-05-24 09:09:56.400000+00:00,2024-05-24 18:09:56.400000+09:00,2024,5,24,9,9,56,400,,,,,,,,,0.140625,-0.072266,1.145264,-55.725098,72.44873,51.757812,,,,,,,,,,,0.0,1.0,1.0,5.0,0.0,0.0,0.0,5.0,0.0,,,,,,,14.904941479937523,-15.29562046169879,7.9395907373192545,-11.544343961189243,4.378485148619591,19.6336420908621,23.19316518811093,,23.36352903134817,-1.9893888768759318,,,,,,,,
LBP09_S05,LBP09,-1614,37,5,36,-1614,1716541796.44,2024-05-24 09:09:56.440000+00:00,2024-05-24 18:09:56.440000+09:00,2024,5,24,9,9,56,440,,,,,,,,,-0.506836,-0.012451,1.54126,-32.165527,-8.361816,9.70459,,,,,,,,,,,0.0,1.0,1.0,5.0,0.0,0.0,0.0,5.0,0.0,,,,,,,10.626839172190842,-15.640078424108234,6.239646512648251,-11.11927039430161,3.7528820116552613,19.88322795136803,23.0882015596941,,23.274080373110642,-1.941257810007682,,,,,,,,
LBP09_S05,LBP09,-1613,38,5,37,-1613,1716541796.48,2024-05-24 09:09:56.480000+00:00,2024-05-24 18:09:56.480000+09:00,2024,5,24,9,9,56,480,,,,,,,,,-0.300293,-0.369385,1.796387,2.563477,-154.418945,-25.146484,,,,,,,,,,,0.0,1.0,1.0,5.0,0.0,0.0,0.0,5.0,0.0,-0.031175119999999997,-0.061975920000000004,1.02919272,-5.0691732,0.6347656533333338,5.611165373333333,6.078911621982793,-14.68268936348102,4.133415126686731,-10.8761139294223,3.1655744371160206,20.0485645564355,23.02728070129554,-2.037399597480492,23.170797260605436,-1.8974615021439085,-0.26911788,-0.30740908,0.76719428,1.34372124,0.8692018402343953,0.8692018402343953,0.8692018402343953,0.8692018402343953
LBP09_S05,LBP09,-1612,39,5,38,-1612,1716541796.52,2024-05-24 09:09:56.520000+00:00,2024-05-24 18:09:56.520000+09:00,2024,5,24,9,9,56,520,,,,,,,,,0.096436,-0.080811,0.791016,44.921875,43.701172,5.737305,,,,,,,,,,,0.0,1.0,1.0,5.0,0.0,0.0,0.0,5.0,0.0,-0.029645173333333334,-0.06065104,1.0086165466666668,-5.407714866666667,0.6136068000000005,5.326334653333333,2.064779426982958,-12.687313072324082,1.8992813424608963,-10.79352275234298,2.6580819142230574,20.12453581013394,22.990486607321486,-2.0259717173055125,23.06991581430811,-1.8766877609477897,0.12608117333333332,-0.02015995999999999,-0.21760054666666673,0.36384168000000006,0.25229523215063704,0.5607485361925162,0.5607485361925162,0.5607485361925162
LBP09_S05,LBP09,-1611,40,5,39,-1611,1716541796.56,2024-05-24 09:09:56.560000+00:00,2024-05-24 18:09:56.560000+09:00,2024,5,24,9,9,56,560,,,,,,,,,-0.375732,0.333008,-0.122559,37.414551,47.790527,-17.578125,,,,,,,,,,,0.0,1.0,1.0,5.0,0.0,0.0,0.0,5.0,0.0,-0.020758453333333333,-0.05991861333333333,0.9923665466666666,-4.013671893333333,0.979003933333334,5.393066426666667,-0.8553062305214046,-10.149509513514857,-0.12163249258099554,-10.827735001563836,2.2521015336824632,20.119670510430698,22.958940481442085,-1.9047953158417907,22.97636023335539,-1.8783710319492966,-0.3549735466666667,0.39292661333333334,-1.1149255466666665,1.8628257066666665,1.234283807278002,0.7852602932210114,0.7852602932210114,0.7852602932210114
LBP09_S05,LBP09,-1610,41,5,40,-1610,1716541796.6,2024-05-24 09:09:56.600000+00:00,2024-05-24 18:09:56.600000+09:00,2024,5,24,9,9,56,600,,,,,,,,,0.016357,-0.16748,0.383301,-0.244141,-28.625488,25.756836,,,,,,,,,,,0.0,1.0,1.0,5.0,0.0,0.0,0.0,5.0,0.0,-0.013570959999999996,-0.05910481333333333,0.9845540533333333,-5.02685548,0.9969075733333337,6.193847679999999,-2.3271144425414203,-7.62632660136419,-1.6479295535213228,-10.920819579265492,1.9470484696278956,20.053753328289844,22.917423951610374,-1.7968646094029332,22.887799356804614,-1.883390141967849,0.029927959999999997,-0.10837518666666665,-0.6012530533333333,0.7395562,0.6116748302958465,0.7418639274897202,0.7418639274897202,0.7418639274897202
LBP09_S05,LBP09,-1609,42,5,41,-1609,1716541796.64,2024-05-24 09:09:56.640000+00:00,2024-05-24 18:09:56.640000+09:00,2024,5,24,9,9,56,640,,,,,,,,,0.324463,0.155273,0.609863,39.794922,-42.297363,-50.048828,,,,,,,,,,,0.0,1.0,1.0,5.0,0.0,0.0,0.0,5.0,0.0,-0.009508466666666665,-0.06240885333333333,0.9963346533333334,-5.6998698,-0.05371090666666608,6.230468773333333,-2.21132135529184,-5.546102391127793,-2.537732545370633,-11.009272433477166,1.7252043739827838,19.952244026475018,22.853280975355325,-1.7222762706888137,22.8003441181774,-1.8897474336857008,0.33397146666666666,0.21768185333333334,-0.38647165333333333,0.9381249733333333,0.555232085391613,0.7045375590700987,0.7045375590700987,0.7045375590700987
LBP09_S05,LBP09,-1608,43,5,42,-1608,1716541796.68,2024-05-24 09:09:56.680000+00:00,2024-05-24 18:09:56.680000+09:00,2024,5,24,9,9,56,680,,,,,,,,,0.281006,-0.184326,1.192627,-93.566895,66.467285,29.663086,,,,,,,,,,,0.0,1.0,1.0,5.0,0.0,0.0,0.0,5.0,0.0,-0.012044266666666666,-0.05889973333333332,1.0157194266666667,-5.069173186666667,-0.2970377333333327,5.7893880399999995,-0.6716328196838255,-4.077449868366168,-2.8076306384302927,-11.036137746264519,1.5621063792481371,19.839938800937805,22.75653058617613,-1.7728190549671958,22.713646388201973,-1.884472480595765,0.29305026666666667,-0.12542626666666667,0.1769075733333334,0.5953841066666667,0.36456343297981897,0.6478752047217188,0.6478752047217188,0.6478752047217188
LBP09_S05,LBP09,-1607,44,5,43,-1607,1716541796.72,2024-05-24 09:09:56.720000+00:00,2024-05-24 18:09:56.720000+09:00,2024,5,24,9,9,56,720,,,,,,,,,-0.419189,-0.045166,1.601318,-20.629883,32.165527,5.249023,,,,,,,,,,,0.0,1.0,1.0,5.0,0.0,0.0,0.0,5.0,0.0,-0.018157546666666666,-0.055292973333333335,1.0292545866666667,-6.483561213333333,-0.44270830666666616,5.743815119999999,1.7210840071417377,-3.1018106396808838,-2.5968404925648634,-10.96729438597885,1.4380339536609017,19.73606518123521,22.624362016166767,-1.888470657958339,22.633834090221523,-1.8614119645572458,-0.4010314533333333,0.010126973333333338,0.5720634133333333,0.9832218399999999,0.6987026055670064,0.6551362619853313,0.6551362619853313,0.6551362619853313
LBP09_S05,LBP09,-1606,45,5,44,-1606,1716541796.76,2024-05-24 09:09:56.760000+00:00,2024-05-24 18:09:56.760000+09:00,2024,5,24,9,9,56,760,,,,,,,,,-0.364258,-0.141846,1.751709,-19.775391,-137.634277,-19.348145,,,,,,,,,,,0.0,1.0,1.0,5.0,0.0,0.0,0.0,5.0,0.0,-0.021136066666666665,-0.058395186666666654,1.02825524,-6.11409508,0.5249023733333339,5.677083346666666,3.9879202253915826,-2.290391914650431,-2.099423184915651,-10.807777576963186,1.3464182770748845,19.652088253838585,22.4683215008734,-1.9185239120977151,22.57404574931298,-1.8269833231434247,-0.34312193333333335,-0.08345081333333335,0.72345376,1.1500265066666666,0.8050354291821801,0.6738736578849374,0.6738736578849374,0.6738736578849374
LBP09_S05,LBP09,-1605,46,5,45,-1605,1716541796.8,2024-05-24 09:09:56.800000+00:00,2024-05-24 18:09:56.800000+09:00,2024,5,24,9,9,56,800,,,,,,,,,0.085693,-0.287354,1.231934,0.244141,29.907227,5.737305,,,,,,,,,,,0.0,1.0,1.0,5.0,0.0,0.0,0.0,5.0,0.0,-0.021490879999999997,-0.055511080000000004,1.00834964,-6.28092452,0.8268229466666671,5.327148453333333,4.934190502965344,-1.2471752887009748,-1.4944094605387916,-10.610409956844572,1.2965312655268455,19.592311875417032,22.31861280183879,-1.9406057674285146,22.553165396148664,-1.8045416201159683,0.10718388000000001,-0.23184292,0.22358436000000004,0.5626111600000001,0.3394546946539264,0.636715995303714,0.636715995303714,0.636715995303714
LBP09_S05,LBP09,-1604,47,5,46,-1604,1716541796.84,2024-05-24 09:09:56.840000+00:00,2024-05-24 18:09:56.840000+09:00,2024,5,24,9,9,56,840,,,,,,,,,-0.61792,0.093018,-0.174805,78.00293,80.871582,20.935059,,,,,,,,,,,0.0,1.0,1.0,5.0,0.0,0.0,0.0,5.0,0.0,-0.016077466666666665,-0.05905925333333333,0.9911198266666668,-5.992024773333333,1.0294596666666673,5.57210288,3.518534672942411,0.34537942481256967,-0.8983984235278006,-10.469668569926876,1.3103464425193483,19.55637593847592,22.221224259939813,-1.836997902786344,22.593269439377792,-1.811820888085424,-0.6018425333333334,0.15207725333333333,-1.1659248266666666,1.9198446133333333,1.3208794900929426,0.7051323447826368,0.7051323447826368,0.7051323447826368
LBP09_S05,LBP09,-1603,48,5,47,-1603,1716541796.88,2024-05-24 09:09:56.880000+00:00,2024-05-24 18:09:56.880000+09:00,2024,5,24,9,9,56,880,,,,,,,,,-0.044678,0.053955,0.350586,46.386719,-32.653809,-9.643555,,,,,,,,,,,0.0,1.0,1.0,5.0,0.0,0.0,0.0,5.0,0.0,-0.014401039999999999,-0.05999024,0.9805664533333334,-4.756673213333333,0.2685547200000006,5.148925800000001,-0.7374761838916685,2.625864638061144,-0.3530884418871174,-10.499167617282543,1.415381028041794,19.542252400800436,22.229157721491056,-1.806794437095297,22.715962226386267,-1.8340681960446659,-0.030276960000000006,0.11394524,-0.6299804533333333,0.7742026533333333,0.640917766649959,0.6992946558614843,0.6992946558614843,0.6992946558614843
LBP09_S05,LBP09,-1602,49,5,48,-1602,1716541796.92,2024-05-24 09:09:56.920000+00:00,2024-05-24 18:09:56.920000+09:00,2024,5,24,9,9,56,920,,,,,,,,,0.384521,0.14209,0.581299,25.634766,-53.405762,-23.742676,,,,,,,,,,,0.0,1.0,1.0,5.0,0.0,0.0,0.0,5.0,0.0,-0.005751946666666664,-0.05172852,0.9865658,-4.50276696,-0.6803385199999994,4.009602893333334,-7.491183680068341,5.5054329113713765,0.15314572282905745,-10.798814964485278,1.635598344496649,19.5483782297136,22.392603198236063,-1.6816853031673022,22.93796510140786,-1.862806499995111,0.3902729466666667,0.19381852,-0.40526680000000004,0.9893582666666667,0.5950796339794476,0.6906100707046479,0.6906100707046479,0.6906100707046479
LBP09_S05,LBP09,-1601,50,5,49,-1601,1716541796.96,2024-05-24 09:09:56.960000+00:00,2024-05-24 18:09:56.960000+09:00,2024,5,24,9,9,56,960,,,,,,,,,0.43335,-0.031738,0.997559,-54.504395,47.790527,1.647949,,,,,,,,,,,0.0,1.0,1.0,5.0,0.0,0.0,0.0,5.0,0.0,-0.005862626666666664,-0.05335937333333333,1.0075814266666667,-4.443359413333334,0.6681315333333339,3.981119813333333,-15.612515303508928,8.663031260567825,0.6445791738961377,-11.423315576625635,1.9821195949193622,19.574161396669446,22.750136949798907,-1.680378285567227,23.266860315283086,-1.8773246194173658,0.43921262666666666,0.021621373333333326,-0.01002242666666675,0.4708564266666667,0.43985868667623335,0.6713215027024622,0.6713215027024622,0.6713215027024622
LBP09_S05,LBP09,-1600,51,5,50,-1600,1716541797.0,2024-05-24 09:09:57+00:00,2024-05-24 18:09:57+09:00,2024,5,24,9,9,57,0,9.0,9.0,56.0,40.567402,141.542084,11.862,3.0,14.0,-0.107178,-0.001709,1.433594,-56.518555,66.101074,29.663086,-286.0,135.0,249.0,306.0,0.0,1005.799988,19.83,-0.07135,62.175373,3.88125,0.0,1.0,1.0,5.0,0.0,0.0,0.0,4.0,0.0,-0.017425119999999995,-0.05663737333333334,1.0217643733333333,-5.1407878,0.5655924666666673,3.588867213333333,-23.51318759994648,11.589084286658679,1.1207352861638766,-12.363843080623495,2.4456829663857094,19.618990808116003,23.318464383901674,-1.8696572890974947,23.698095660055515,-1.890194366486486,-0.08975288000000001,0.054928373333333336,0.4118296266666668,0.5565108800000002,0.42506040402011874,0.6537314242251518,0.6537314242251518,0.6537314242251518
LBP09_S05,LBP09,-1599,52,5,51,-1599,1716541797.04,2024-05-24 09:09:57.040000+00:00,2024-05-24 18:09:57.040000+09:00,2024,5,24,9,9,57,40,,,,,,,,,-0.438232,-0.057861,1.710205,-88.623047,-80.749512,-9.82666,,,,,,,,,,,0.0,1.0,1.0,5.0,0.0,0.0,0.0,4.0,0.0,-0.022545559999999996,-0.05752929333333333,1.02601568,-3.2991536800000003,0.3816732000000005,3.3902995066666666,-29.63218054822464,13.68240403138842,1.5361557593501567,-13.54913030255248,2.992979127641246,19.68043703849001,24.080208845440094,-1.9447493502812316,24.21401957401234,-1.8791218424303129,-0.41568644,-0.0003317066666666743,0.68418932,1.1002074666666666,0.8005687678339998,0.6635205804657418,0.6635205804657418,0.6635205804657418
LBP09_S05,LBP09,-1598,53,5,52,-1598,1716541797.08,2024-05-24 09:09:57.080000+00:00,2024-05-24 18:09:57.080000+09:00,2024,5,24,9,9,57,80,,,,,,,,,0.086426,-0.240479,1.556152,-28.747559,-22.094727,-14.404297,,,,,,,,,,,0.0,1.0,1.0,5.0,0.0,0.0,0.0,4.0,0.0,-0.027617173333333335,-0.051901039999999996,1.0001562933333334,-3.1599935333333335,1.0506185066666671,3.3732096666666664,-32.87377796376593,14.389894812589414,1.79626871906072,-14.864081421103117,3.5685749201448225,19.75228778725244,24.976559336392018,-2.0602020944716446,24.785102483592965,-1.8859129902210903,0.11404317333333333,-0.18857796,0.5559957066666665,0.8586168399999998,0.59807919058722,0.6594304935983342,0.6594304935983342,0.6594304935983342
LBP09_S05,LBP09,-1597,54,5,53,-1597,1716541797.12,2024-05-24 09:09:57.120000+00:00,2024-05-24 18:09:57.120000+09:00,2024,5,24,9,9,57,120,,,,,,,,,-0.339844,0.187012,0.371826,7.080078,158.38623,7.629395,,,,,,,,,,,0.0,1.0,1.0,5.0,0.0,0.0,0.0,4.0,0.0,-0.02305012,-0.046230466666666664,0.9773275066666666,-3.1437174933333334,2.0694987066666672,2.6904297199999996,-32.83949288302806,13.367084008067515,1.7646985203286303,-16.17766113642424,4.103258280467523,19.822875728065583,25.913314154919053,-2.033651852180887,25.37287488482381,-1.9081981696544683,-0.31679387999999997,0.23324246666666668,-0.6055015066666666,1.1555378533333331,0.7220751243726713,0.6631154718791775,0.6631154718791775,0.6631154718791775
LBP09_S05,LBP09,-1596,55,5,54,-1596,1716541797.16,2024-05-24 09:09:57.160000+00:00,2024-05-24 18:09:57.160000+09:00,2024,5,24,9,9,57,160,,,,,,,,,-0.0625,-0.239502,0.224365,-88.256836,-13.061523,19.592285,,,,,,,,,,,0.0,1.0,1.0,5.0,0.0,0.0,0.0,4.0,0.0,-0.021962879999999997,-0.042587879999999995,0.9652995066666666,-3.4342448400000003,1.3020833466666675,2.0434570666666665,-29.80920740903105,10.618291390598332,1.2831757981571639,-17.370029432785483,4.527989936091457,19.87420275999187,26.780674948597692,-2.047221382788918,25.933739852618146,-1.9438387268295432,-0.04053712,-0.19691412,-0.7409345066666666,0.9783857466666666,0.7677254534810249,0.6689271375237246,0.6689271375237246,0.6689271375237246
LBP09_S05,LBP09,-1595,56,5,55,-1595,1716541797.2,2024-05-24 09:09:57.200000+00:00,2024-05-24 18:09:57.200000+09:00,2024,5,24,9,9,57,200,,,,,,,,,0.305908,-0.218506,0.57251,68.054199,-56.82373,-12.939453,,,,,,,,,,,0.0,1.0,1.0,5.0,0.0,0.0,0.0,4.0,0.0,-0.011279279999999997,-0.0425944,0.9756413066666666,-4.803873746666667,-0.5249023333333327,1.154785186666666,-24.536037822951982,6.552509703948902,0.2056014220952073,-18.35147094570356,4.790090324249412,19.88242681687568,27.477851941407046,-1.8298805268667817,26.42298528549593,-1.9833634749180384,0.31718728,-0.1759116,-0.40313130666666663,0.8962301866666667,0.5422799203576806,0.6622614945149854,0.6622614945149854,0.6622614945149854
LBP09_S05,LBP09,-1594,57,5,56,-1594,1716541797.24,2024-05-24 09:09:57.240000+00:00,2024-05-24 18:09:57.240000+09:00,2024,5,24,9,9,57,240,,,,,,,,,0.579834,0.284424,1.070801,8.972168,28.686523,-36.560059,,,,,,,,,,,0.0,1.0,1.0,5.0,0.0,0.0,0.0,4.0,0.0,-0.01563149333333333,-0.04507161333333334,0.9956510799999999,-6.4672852,0.13834636000000064,2.0027669599999998,-17.973268001817893,1.9083725592814809,-1.5575861177226993,-19.070401665776277,4.866425226620672,19.82012337216677,27.93205335574605,-1.9049093806941173,26.798897860767234,-1.9995145299019446,0.5954654933333333,0.3294956133333333,0.07514991999999998,1.0001110266666666,0.6846853462961113,0.6633826871040418,0.6633826871040418,0.6633826871040418
LBP09_S05,LBP09,-1593,58,5,57,-1593,1716541797.28,2024-05-24 09:09:57.280000+00:00,2024-05-24 18:09:57.280000+09:00,2024,5,24,9,9,57,280,,,,,,,,,-0.124023,-0.294189,1.481201,-82.336426,85.693359,58.105469,,,,,,,,,,,0.0,1.0,1.0,5.0,0.0,0.0,0.0,4.0,0.0,-0.020309226666666663,-0.041136066666666665,1.0113118933333334,-8.023274773333332,-0.33935545333333267,2.0979817999999995,-11.041599166044513,-2.4390876898318132,-3.9913515736600864,-19.512065632418057,4.7688617190274,19.660469309220364,28.106881733799476,-2.0296462314290826,27.02712899533832,-2.0037655015921185,-0.10371377333333333,-0.25305293333333334,0.4698891066666666,0.8266558133333333,0.5436801508346985,0.6576825663293111,0.6576825663293111,0.6576825663293111
LBP09_S05,LBP09,-1592,59,5,58,-1592,1716541797.32,2024-05-24 09:09:57.320000+00:00,2024-05-24 18:09:57.320000+09:00,2024,5,24,9,9,57,320,,,,,,,,,-0.681641,-0.032715,1.788086,-25.268555,-89.050293,-33.874512,,,,,,,,,,,0.0,1.0,1.0,5.0,0.0,0.0,0.0,4.0,0.0,-0.021279279999999998,-0.04220052,1.0147982266666669,-7.588704466666668,-0.529785146666666,1.8644205999999997,-4.486353910760066,-5.728773199536691,-6.933799773126281,-19.69151978884846,4.539710791045932,19.383117318295312,28.00125287617947,-2.0380908749180513,27.08492073778795,-1.9616371743535947,-0.66036172,0.009485519999999997,0.7732877733333332,1.4431350133333334,1.0169275080937938,0.6740118818640602,0.6740118818640602,0.6740118818640602
LBP09_S05,LBP09,-1591,60,5,59,-1591,1716541797.36,2024-05-24 09:09:57.360000+00:00,2024-05-24 18:09:57.360000+09:00,2024,5,24,9,9,57,360,,,,,,,,,-0.028564,-0.302246,1.871094,-11.352539,-147.094727,-37.780762,,,,,,,,,,,0.0,1.0,1.0,5.0,0.0,0.0,0.0,4.0,0.0,-0.021764306666666663,-0.03940756,0.9925488800000001,-7.15250656,1.061197933333334,2.1370442933333327,1.1943620730904452,-7.539560464412298,-10.055547520673489,-19.643745305924842,4.23812837246944,18.98089541746837,27.642591278576734,-2.075625766452177,26.96412621294191,-1.9175563027868066,-0.006799693333333336,-0.26283844,0.87854512,1.1481832533333334,0.917045151149536,0.6845785457460376,0.6845785457460376,0.6845785457460376
LBP09_S05,LBP09,-1590,61,5,60,-1590,1716541797.4,2024-05-24 09:09:57.400000+00:00,2024-05-24 18:09:57.400000+09:00,2024,5,24,9,9,57,400,,,,,,,,,-0.088867,-0.070557,0.988525,74.951172,129.882812,34.912109,,,,,,,,,,,0.0,1.0,1.0,5.0,0.0,0.0,0.0,4.0,0.0,-0.02026365333333333,-0.04088868,0.9719857333333334,-5.643717493333334,1.5266927200000004,2.0865885599999996,5.791305837332997,-7.90292227886082,-12.878342305138242,-19.41209307243152,3.922011481315007,18.46576172526284,27.07759013661468,-2.031167838936553,26.67212980720971,-1.8931454977078537,-0.06860334666666668,-0.029668319999999998,0.016539266666666608,0.11481093333333328,0.07655178461251151,0.659244097365474,0.659244097365474,0.659244097365474
LBP09_S05,LBP09,-1589,62,5,61,-1589,1716541797.44,2024-05-24 09:09:57.440000+00:00,2024-05-24 18:09:57.440000+09:00,2024,5,24,9,9,57,440,,,,,,,,,-0.18457,0.166016,-0.00708,48.64502,7.385254,12.756348,,,,,,,,,,,0.0,1.0,1.0,5.0,0.0,0.0,0.0,4.0,0.0,-0.017317679999999995,-0.03917644,0.964336,-4.349772173333333,-0.5493163999999994,2.394205746666666,9.394019342976891,-7.243354385875103,-14.844951666074063,-19.036332298712445,3.632277305880003,17.87196365861988,26.36252019115098,-1.9872590671829704,26.2306731791348,-1.90266104699473,-0.16725232,0.20519244,-0.971416,1.34386076,1.0068397692952618,0.6731479242426655,0.6731479242426655,0.6731479242426655
LBP09_S05,LBP09,-1588,63,5,62,-1588,1716541797.48,2024-05-24 09:09:57.480000+00:00,2024-05-24 18:09:57.480000+09:00,2024,5,24,9,9,57,480,,,,,,,,,0.12085,-0.019043,0.528809,-6.103516,-50.78125,-38.513184,,,,,,,,,,,0.0,1.0,1.0,5.0,0.0,0.0,0.0,4.0,0.0,-0.003033826666666665,-0.04451172,0.9786100933333334,-3.7288411733333335,-1.4314778533333328,2.9280599066666664,12.320635760644162,-6.174005620763245,-15.442753989347887,-18.543506868286677,3.385317081049473,17.254253499045966,25.554476760888306,-1.6389188220864062,25.67323274742244,-1.9083133118954172,0.12388382666666667,0.025468719999999997,-0.4498010933333334,0.59915364,0.46724392106465895,0.6570696074758761,0.6652285395050499,0.6652285395050499
LBP09_S05,LBP09,-1587,64,5,63,-1587,1716541797.52,2024-05-24 09:09:57.520000+00:00,2024-05-24 18:09:57.520000+09:00,2024,5,24,9,9,57,520,,,,,,,,,0.706787,0.003662,1.076172,-13.427734,-0.793457,-77.880859,,,,,,,,,,,0.0,1.0,1.0,5.0,0.0,0.0,0.0,4.0,0.0,-0.0008560933333333317,-0.03885416,0.9922559333333334,-3.5498047200000005,-0.4313150933333327,2.1118164133333326,14.939312177927274,-5.25127370365251,-14.36085115749709,-17.945934381169586,3.1752661329033725,16.67981945274608,24.70536890645866,-1.5928431365130091,25.041492058384172,-1.8943551225824273,0.7076430933333334,0.04251616,0.08391606666666651,0.83407532,0.7138685296665758,0.6755325393765135,0.6670300206221433,0.6670300206221433
LBP09_S05,LBP09,-1586,65,5,64,-1586,1716541797.56,2024-05-24 09:09:57.560000+00:00,2024-05-24 18:09:57.560000+09:00,2024,5,24,9,9,57,560,,,,,,,,,0.000977,-0.442871,1.436523,-53.283691,93.322754,29.418945,,,,,,,,,,,0.0,1.0,1.0,5.0,0.0,0.0,0.0,4.0,0.0,-0.009361959999999997,-0.0395996,1.0049545066666667,-5.385742213333333,0.15950521333333378,2.061360693333333,17.43609300765727,-4.793399474170358,-11.624019343833876,-17.248490660863297,2.983530153936558,16.214858678992726,23.8607108912757,-1.8031133319993902,24.381148276386284,-1.8711050693325575,0.010338959999999998,-0.4032714,0.43156849333333325,0.8451788533333333,0.5907504385016104,0.6497912046254578,0.6643057498321243,0.6643057498321243
LBP09_S05,LBP09,-1585,66,5,65,-1585,1716541797.6,2024-05-24 09:09:57.600000+00:00,2024-05-24 18:09:57.600000+09:00,2024,5,24,9,9,57,600,,,,,,,,,-0.538574,0.05957,1.702393,40.466309,-58.105469,-53.833008,,,,,,,,,,,0.0,1.0,1.0,5.0,0.0,0.0,0.0,4.0,0.0,-0.014641906666666664,-0.03961586666666666,1.013698,-4.027506533333334,-0.6046549466666662,0.5004883066666665,19.65314875919985,-4.818749784083911,-7.629999681099857,-16.462364710495304,2.790780162573202,15.909658691748731,23.063285660657918,-1.9250360197355432,23.73745362044843,-1.826881937544145,-0.5239320933333333,0.09918586666666665,0.6886950000000001,1.3118129600000001,0.87100142226983,0.6601642683044173,0.6714331868127349,0.6714331868127349
LBP09_S05,LBP09,-1584,67,5,66,-1584,1716541797.64,2024-05-24 09:09:57.640000+00:00,2024-05-24 18:09:57.640000+09:00,2024,5,24,9,9,57,640,,,,,,,,,-0.088623,-0.377197,1.82666,-24.719238,-101.257324,3.051758,,,,,,,,,,,0.0,1.0,1.0,5.0,0.0,0.0,0.0,4.0,0.0,-0.016699186666666664,-0.040579413333333335,1.00308276,-3.264973986666667,0.6575520933333339,0.6518554933333331,21.10765390280386,-5.106039982594916,-3.049707984319886,-15.61805855438315,2.5865385632694053,15.787670372375937,22.357649038622494,-1.96143202970099,23.151345896140736,-1.7840090052622295,-0.07192381333333334,-0.3366175866666667,0.8235772399999999,1.23211864,0.8926163256538144,0.6736596379149052,0.6788059581074375,0.6788059581074375
LBP09_S05,LBP09,-1583,68,5,67,-1583,1716541797.68,2024-05-24 09:09:57.680000+00:00,2024-05-24 18:09:57.680000+09:00,2024,5,24,9,9,57,680,,,,,,,,,-0.102783,-0.032959,0.706055,91.73584,106.506348,48.583984,,,,,,,,,,,0.0,1.0,1.0,5.0,0.0,0.0,0.0,4.0,0.0,-0.014567026666666667,-0.0441048,0.9844499466666667,-2.8906250266666667,0.7503255333333337,0.3922526399999997,21.206161981414343,-5.3309341904482075,1.3837595724628393,-14.769812075126577,2.373301195651477,15.84302075527445,21.789474843416777,-1.8900643382991817,22.65703417973607,-1.7636356084279392,-0.08821597333333334,0.011145799999999997,-0.27839494666666675,0.3777567200000001,0.292249949766161,0.670767098586359,0.6663364094512674,0.6663364094512674
LBP09_S05,LBP09,-1582,69,5,68,-1582,1716541797.72,2024-05-24 09:09:57.720000+00:00,2024-05-24 18:09:57.720000+09:00,2024,5,24,9,9,57,720,,,,,,,,,-0.055664,0.139404,0.022705,90.393066,-34.667969,30.761719,,,,,,,,,,,0.0,1.0,1.0,5.0,0.0,0.0,0.0,4.0,0.0,-0.010800746666666665,-0.045198546666666665,0.9715625733333332,-1.806640653333333,0.612792986666667,0.4964193066666664,19.553100210098602,-5.208671479389471,5.113374010567246,-13.987688066722633,2.164954336475898,16.04755571569714,21.397815056200585,-1.8055903424193518,22.281255684355436,-1.7896444926892343,-0.04486325333333333,0.18460254666666667,-0.9488575733333332,1.1783233733333331,0.9676887444873437,0.6815265441431724,0.6757536699211447,0.6757536699211447
LBP09_S05,LBP09,-1581,70,5,69,-1581,1716541797.76,2024-05-24 09:09:57.760000+00:00,2024-05-24 18:09:57.760000+09:00,2024,5,24,9,9,57,760,,,,,,,,,0.194092,0.166992,0.524658,19.104004,-45.10498,-3.417969,,,,,,,,,,,0.0,1.0,1.0,5.0,0.0,0.0,0.0,4.0,0.0,-0.0024218533333333317,-0.038668600000000004,0.9753613999999999,-2.0817057599999997,-0.47200518666666635,-0.26367184000000016,16.187266878344914,-4.590917033014982,7.920568208505853,-13.340197391588836,1.9813176551552987,16.364378444037374,21.205644719198204,-1.6333944485680534,22.04363430939454,-1.8262259486801462,0.19651385333333332,0.2056606,-0.4507034,0.8528778533333333,0.532961097750891,0.6706435708859209,0.6714266222796219,0.6714266222796219
LBP09_S05,LBP09,-1580,71,5,70,-1580,1716541797.8,2024-05-24 09:09:57.800000+00:00,2024-05-24 18:09:57.800000+09:00,2024,5,24,9,9,57,800,,,,,,,,,0.616211,-0.200439,1.080322,-20.141602,-9.155273,-0.915527,,,,,,,,,,,0.0,1.0,1.0,5.0,0.0,0.0,0.0,4.0,0.0,-0.0014322666666666654,-0.0452962,0.9946875733333334,-3.981119813333333,0.31901044000000034,0.5826823199999999,11.611509259185032,-3.5003203095013675,9.941111621181077,-12.875737021221434,1.8413048427752439,16.762022908884617,21.216512893537725,-1.6024385161173986,21.95718913466647,-1.8350028294534604,0.6176432666666666,-0.1551428,0.08563442666666665,0.8584204933333333,0.6425618633882965,0.6827678576352958,0.6705776587828182,0.6705776587828182
LBP09_S05,LBP09,-1579,72,5,71,-1579,1716541797.84,2024-05-24 09:09:57.840000+00:00,2024-05-24 18:09:57.840000+09:00,2024,5,24,9,9,57,840,,,,,,,,,0.010498,-0.303711,1.396729,-32.287598,81.176758,34.973145,,,,,,,,,,,0.0,1.0,1.0,5.0,0.0,0.0,0.0,4.0,0.0,-0.009622373333333333,-0.044589826666666665,1.0126628266666666,-5.659179706666667,0.13183596000000022,-0.4288736800000002,6.596259533924498,-2.105235933295371,11.533156909027099,-12.611886639864455,1.7570954054434291,17.223349185245702,21.419403027104323,-1.7835250988400662,22.028218083921356,-1.8257627697931589,0.020120373333333334,-0.25912117333333334,0.3840661733333335,0.6633077200000002,0.46374070059854167,0.6484823060555196,0.6646680314061246,0.6646680314061246
LBP09_S05,LBP09,-1578,73,5,72,-1578,1716541797.88,2024-05-24 09:09:57.880000+00:00,2024-05-24 18:09:57.880000+09:00,2024,5,24,9,9,57,880,,,,,,,,,-0.324219,0.137939,1.69043,8.972168,-62.988281,-31.860352,,,,,,,,,,,0.0,1.0,1.0,5.0,0.0,0.0,0.0,4.0,0.0,-0.017304666666666666,-0.050872386666666665,1.0263021466666666,-6.328938826666667,-0.5476887866666664,-1.1319986800000001,1.863988278789941,-0.6492054163573092,13.061963291630551,-12.537327108712857,1.7311271887891369,17.745827716910924,21.79669180708199,-1.8990076646993599,22.255441340080353,-1.8033171498139353,-0.3069143333333333,0.18881138666666666,0.6641278533333335,1.1598535733333333,0.7555871579861423,0.653069081708967,0.667193562700014,0.667193562700014
LBP09_S05,LBP09,-1577,74,5,73,-1577,1716541797.92,2024-05-24 09:09:57.920000+00:00,2024-05-24 18:09:57.920000+09:00,2024,5,24,9,9,57,920,,,,,,,,,-0.005371,-0.075928,1.786133,-49.621582,-55.114746,-17.76123,,,,,,,,,,,0.0,1.0,1.0,5.0,0.0,0.0,0.0,4.0,0.0,-0.020960266666666665,-0.05135741333333333,1.0188965466666666,-4.798990906666666,-0.451660133333333,-1.5348307066666667,-2.182784493264325,0.6366788195951225,14.696461868501665,-12.62463848844343,1.7565943415729417,18.33368619165099,22.329155156849698,-1.9586576964221283,22.629089315351997,-1.767211616915501,0.015589266666666664,-0.024570586666666665,0.7672364533333333,0.8073963066666667,0.7677880659972912,0.6599774189896808,0.6699123330593998,0.6699123330593998
LBP09_S05,LBP09,-1576,75,5,74,-1576,1716541797.96,2024-05-24 09:09:57.960000+00:00,2024-05-24 18:09:57.960000+09:00,2024,5,24,9,9,57,960,,,,,,,,,-0.199219,-0.249756,0.731689,-6.713867,127.807617,39.123535,,,,,,,,,,,0.0,1.0,1.0,5.0,0.0,0.0,0.0,4.0,0.0,-0.016285786666666666,-0.04918293333333333,0.9978093066666666,-3.8867187733333335,-0.2905273199999997,-1.6870116933333335,-5.563479723022529,1.608659282789768,16.303854925548777,-12.847177677364332,1.8209407128845325,18.98584038867294,22.996259143994997,-1.8908821397325304,23.130911321078525,-1.7453387147351258,-0.18293321333333334,-0.2005730666666667,-0.26612030666666653,0.6496265866666666,0.380150145643653,0.6575890773483775,0.6622870123379329,0.6622870123379329
LBP09_S05,LBP09,-1575,76,5,75,-1575,1716541798.0,2024-05-24 09:09:58+00:00,2024-05-24 18:09:58+09:00,2024,5,24,9,9,58,0,9.0,9.0,57.0,40.567432,141.542221,13.364,3.0,15.0,-0.101318,-0.05957,0.063721,-3.112793,2.624512,25.268555,-288.0,137.0,249.0,329.0,0.0,1005.5,19.9,-0.074323,64.686775,3.88125,0.0,1.0,1.0,5.0,0.0,0.0,0.0,4.0,0.0,-0.011715479999999999,-0.043756493333333334,0.9770638666666668,-3.5872396133333337,0.9041341333333338,-1.4331054533333334,-8.614064758656646,2.2465999781037382,17.485635289748362,-13.191740267710598,1.910804712008682,19.685265800262876,23.77357515320679,-1.8326354231325286,23.735464356191905,-1.753555856088095,-0.08960252,-0.015813506666666664,-0.9133428666666668,1.0187588933333334,0.9178637538732705,0.6773012113425035,0.6688402621208902,0.6688402621208902
LBP09_S05,LBP09,-1574,77,5,76,-1574,1716541798.04,2024-05-24 09:09:58.040000+00:00,2024-05-24 18:09:58.040000+09:00,2024,5,24,9,9,58,40,,,,,,,,,0.174316,0.006592,0.44165,68.725586,-64.086914,13.916016,,,,,,,,,,,0.0,1.0,1.0,5.0,0.0,0.0,0.0,4.0,0.0,-0.007620439999999999,-0.04548174666666666,0.9754948533333334,-4.48567712,-0.7307942533333329,-2.153320306666667,-11.732063443899401,2.628392196962642,17.735683234994532,-13.661022805466574,2.015940399887188,20.394693129662656,24.62988160021246,-1.7369758299087532,24.41203792062182,-1.7684278869607222,0.18193644,0.05207374666666666,-0.5338448533333334,0.7678550400000002,0.5663946245527637,0.6679342456112543,0.666279121181687,0.666279121181687
LBP09_S05,LBP09,-1573,78,5,77,-1573,1716541798.08,2024-05-24 09:09:58.080000+00:00,2024-05-24 18:09:58.080000+09:00,2024,5,24,9,9,58,80,,,,,,,,,0.531738,0.02124,0.895508,-27.770996,-30.273438,35.15625,,,,,,,,,,,0.0,1.0,1.0,5.0,0.0,0.0,0.0,4.0,0.0,0.0020377600000000017,-0.04879554666666666,0.9913509733333332,-4.776204466666666,-0.8837890399999996,-2.5244140533333335,-15.096657558576577,2.8449496495498097,16.64923797068363,-14.264889107809637,2.1297383858691803,21.060662648490002,25.52595459613318,-1.529009009314843,25.126228586964636,-1.770168493164137,0.52970024,0.07003554666666666,-0.09584297333333325,0.69557876,0.5428380951907581,0.6657246017953956,0.6632683644502009,0.6632683644502009
LBP09_S05,LBP09,-1572,79,5,78,-1572,1716541798.12,2024-05-24 09:09:58.120000+00:00,2024-05-24 18:09:58.120000+09:00,2024,5,24,9,9,58,120,,,,,,,,,0.082031,-0.105469,1.360596,-15.991211,63.537598,38.513184,,,,,,,,,,,0.0,1.0,1.0,5.0,0.0,0.0,0.0,4.0,0.0,-0.0008333333333333319,-0.051936826666666665,1.0088639866666667,-4.885253946666667,-0.10253903999999944,-2.543945306666667,-18.49647819212035,2.906912419453909,14.096429985246543,-15.004748235494452,2.2460148826473367,21.624519847899865,26.41603511346588,-1.5868613206155964,25.840829570455252,-1.7492804608317827,0.08286433333333335,-0.05353217333333333,0.35173201333333326,0.48812851999999995,0.3653048049562008,0.6514537890187369,0.6561739939860581,0.6561739939860581
LBP09_S05,LBP09,-1571,80,5,79,-1571,1716541798.16,2024-05-24 09:09:58.160000+00:00,2024-05-24 18:09:58.160000+09:00,2024,5,24,9,9,58,160,,,,,,,,,-0.364746,0.006104,1.676514,-34.240723,-25.390625,15.686035,,,,,,,,,,,0.0,1.0,1.0,5.0,0.0,0.0,0.0,4.0,0.0,-0.007991533333333332,-0.05489254666666666,1.0244141199999999,-4.81038416,-0.6982421733333329,-1.995442706666667,-21.337845992823684,2.711379810250904,10.294514945245128,-15.8582620752074,2.354470075057373,22.03630044570967,27.251175070332035,-1.715565862097746,26.516604271789742,-1.7204308405578204,-0.35675446666666666,0.06099654666666666,0.6520998800000002,1.0698508933333335,0.7458073355015297,0.650577064299557,0.6582584903003713,0.6582584903003713
LBP09_S05,LBP09,-1570,81,5,80,-1570,1716541798.2,2024-05-24 09:09:58.200000+00:00,2024-05-24 18:09:58.200000+09:00,2024,5,24,9,9,58,200,,,,,,,,,-0.10083,0.026855,1.836914,-46.386719,-70.3125,-29.602051,,,,,,,,,,,0.0,1.0,1.0,5.0,0.0,0.0,0.0,4.0,0.0,-0.010221346666666666,-0.05613604,1.02785488,-3.5953776399999993,-1.1246744666666662,-1.965332026666667,-22.816144144486707,2.097746537041985,5.755081180629487,-16.77090784098687,2.4383799365390524,22.26650369293485,27.98224853783685,-1.751158824843671,27.113846926437464,-1.6607079798787887,-0.09060865333333334,0.08299104,0.8090591199999999,0.9826588133333333,0.8183361781287297,0.661619314610399,0.6618966195691978,0.6618966195691978
LBP09_S05,LBP09,-1569,82,5,81,-1569,1716541798.24,2024-05-24 09:09:58.240000+00:00,2024-05-24 18:09:58.240000+09:00,2024,5,24,9,9,58,240,,,,,,,,,0.077881,-0.071289,0.959229,-5.67627,115.905762,-1.647949,,,,,,,,,,,0.0,1.0,1.0,5.0,0.0,0.0,0.0,4.0,0.0,-0.013430986666666665,-0.05741533333333333,1.0074447333333332,-2.478027373333333,-0.12695310666666615,-1.7114257733333338,-22.170249943834516,0.9660784843336792,1.1331636703307626,-17.65771783874025,2.4770230759123995,22.311830239748083,28.561309690532493,-1.8009311608742156,27.5952914507117,-1.6081111656834814,0.09131198666666668,-0.013873666666666673,-0.04821573333333318,0.15340138666666653,0.1041878806611517,0.6383994159850006,0.6495030920379078,0.6495030920379078
LBP09_S05,LBP09,-1568,83,5,82,-1568,1716541798.28,2024-05-24 09:09:58.280000+00:00,2024-05-24 18:09:58.280000+09:00,2024,5,24,9,9,58,280,,,,,,,,,-0.277832,0.243896,-0.070801,-34.179688,43.395996,-11.84082,,,,,,,,,,,0.0,1.0,1.0,5.0,0.0,0.0,0.0,4.0,0.0,-0.006116533333333333,-0.05108069333333333,0.9864942133333333,-0.6445312799999999,0.8935547066666671,-2.0084635333333334,-18.930593233007684,-0.6060641863989262,-2.95694316188202,-18.41494156806056,2.4527805084564425,22.193552513272802,28.94270164198819,-1.6901273413758156,27.930254401957438,-1.5842380734865356,-0.2717154666666667,0.2949766933333333,-1.0572952133333333,1.6239873733333332,1.130802242911346,0.6618842996680665,0.6599661170568956,0.6599661170568956
LBP09_S05,LBP09,-1567,84,5,83,-1567,1716541798.32,2024-05-24 09:09:58.320000+00:00,2024-05-24 18:09:58.320000+09:00,2024,5,24,9,9,58,320,,,,,,,,,0.097168,-0.27124,0.442383,-9.033203,-55.603027,25.146484,,,,,,,,,,,0.0,1.0,1.0,5.0,0.0,0.0,0.0,4.0,0.0,-0.0046939999999999985,-0.04713862666666666,0.9762793599999999,-0.08789065333333317,-0.4361979066666662,-2.1769205733333337,-13.09869591028082,-2.3232222456509777,-6.091690788283331,-18.93888940447179,2.3598516186304033,21.94988488174147,29.086902170194563,-1.6701614936825016,28.099197317173786,-1.5920868881641188,0.10186200000000001,-0.22410137333333333,-0.53389636,0.8598597333333333,0.5879137826204923,0.6447237506491345,0.6584330886646317,0.6584330886646317
LBP09_S05,LBP09,-1566,85,5,84,-1566,1716541798.36,2024-05-24 09:09:58.360000+00:00,2024-05-24 18:09:58.360000+09:00,2024,5,24,9,9,58,360,,,,,,,,,0.321533,-0.167236,0.58252,20.996094,-79.833984,-29.35791,,,,,,,,,,,0.0,1.0,1.0,5.0,0.0,0.0,0.0,4.0,0.0,0.012906906666666669,-0.04541662666666667,0.9906120399999999,-0.6363932666666666,-1.8164062399999996,-2.634277346666667,-5.229436701697182,-3.7472210791199245,-8.115344508463785,-19.14806687253968,2.2099627754656064,21.625271101402916,28.968685690472174,-1.293653532942214,28.097456678848186,-1.5891136504537822,0.30862609333333335,-0.12181937333333333,-0.4080920399999999,0.8385375066666665,0.5259554527874798,0.6290801627146522,0.6556731379171911,0.6556731379171911
LBP09_S05,LBP09,-1565,86,5,85,-1565,1716541798.4,2024-05-24 09:09:58.400000+00:00,2024-05-24 18:09:58.400000+09:00,2024,5,24,9,9,58,400,,,,,,,,,0.354248,0.259766,1.104492,-25.45166,47.424316,-45.837402,,,,,,,,,,,0.0,1.0,1.0,5.0,0.0,0.0,0.0,4.0,0.0,0.01376302666666667,-0.05095048,1.0041146399999998,-2.146809933333333,-0.5794270666666661,-1.34602864,3.592342004957288,-4.45021648761847,-9.136321183344705,-19.004373192341387,2.0319541159608674,21.259818254069128,28.588020395949158,-1.306667281179457,27.937059758751314,-1.5676660666130615,0.34048497333333333,0.31071648,0.1003773600000002,0.7515788133333335,0.47175243763012054,0.6448881888353566,0.651919654237863,0.651919654237863
LBP09_S05,LBP09,-1564,87,5,86,-1564,1716541798.44,2024-05-24 09:09:58.440000+00:00,2024-05-24 18:09:58.440000+09:00,2024,5,24,9,9,58,440,,,,,,,,,-0.163574,-0.281982,1.676514,-15.930176,32.043457,31.37207,,,,,,,,,,,0.0,1.0,1.0,5.0,0.0,0.0,0.0,4.0,0.0,0.0037988400000000025,-0.0523372,1.019655,-1.8676758266666669,-0.5102538799999995,-1.6560872266666669,11.885440900414556,-4.157594628289175,-9.450081803910697,-18.528955556324803,1.8656503308293004,20.8818149819127,27.979511112669876,-1.4982449079392952,27.64632530550453,-1.5378633971194582,-0.16737284,-0.2296448,0.6568590000000001,1.0538766400000001,0.7156913773531897,0.6332422531576737,0.6531950887001696,0.6531950887001696
LBP09_S05,LBP09,-1563,88,5,87,-1563,1716541798.48,2024-05-24 09:09:58.480000+00:00,2024-05-24 18:09:58.480000+09:00,2024,5,24,9,9,58,480,,,,,,,,,-0.30957,-0.065674,1.822266,-7.629395,-94.360352,-29.47998,,,,,,,,,,,0.0,1.0,1.0,5.0,0.0,0.0,0.0,4.0,0.0,-0.0020019466666666643,-0.05459957333333333,1.0307031733333332,-1.0457357199999997,-1.692708306666666,-1.5649413866666668,18.022534813974097,-2.816607730421904,-9.406759466818016,-17.80805416376584,1.7529860216124242,20.50554460323998,27.215383748296674,-1.6074971560906766,27.267666205619566,-1.483890277934086,-0.30756805333333337,-0.011074426666666665,0.7915628266666668,1.1102053066666668,0.8492893846727246,0.6485240717019964,0.6527968395889361,0.6570400748957098
LBP09_S05,LBP09,-1562,89,5,88,-1562,1716541798.52,2024-05-24 09:09:58.520000+00:00,2024-05-24 18:09:58.520000+09:00,2024,5,24,9,9,58,520,,,,,,,,,0.102051,-0.326904,1.528809,23.010254,30.029297,17.39502,,,,,,,,,,,0.0,1.0,1.0,5.0,0.0,0.0,0.0,4.0,0.0,0.0007714933333333357,-0.056529906666666664,1.0256641066666667,0.32552080000000017,-0.7812499733333327,-1.5144856533333335,20.5871347179252,-0.5835480654075981,-9.262293595332856,-16.98456877504883,1.7296440989961204,20.135052859426665,26.398628730209868,-1.5571289435122277,26.853930097598806,-1.440020398072194,0.10127950666666667,-0.2703740933333333,0.5031448933333333,0.8747984933333333,0.5800986747992766,0.6431732775073042,0.6593529084419089,0.655560432586163
LBP09_S05,LBP09,-1561,90,5,89,-1561,1716541798.56,2024-05-24 09:09:58.560000+00:00,2024-05-24 18:09:58.560000+09:00,2024,5,24,9,9,58,560,,,,,,,,,-0.664307,-0.020264,-0.129395,94.299316,89.84375,26.428223,,,,,,,,,,,0.0,1.0,1.0,5.0,0.0,0.0,0.0,4.0,0.0,0.0038151066666666693,-0.05472326666666667,1.0035514799999998,2.4381510133333335,0.35074873333333395,-1.1783854000000002,18.775690226434236,2.242645103653186,-9.070447021598392,-16.23354116599146,1.8193499031422478,19.77223497856273,25.647205869363283,-1.5010900236905411,26.46308047796824,-1.4158194041561705,-0.6681221066666666,0.03445926666666667,-1.1329464799999998,1.835527853333333,1.31572881591166,0.6721724126037063,0.6609818086145822,0.6680164398187196
LBP09_S05,LBP09,-1560,91,5,90,-1560,1716541798.6,2024-05-24 09:09:58.600000+00:00,2024-05-24 18:09:58.600000+09:00,2024,5,24,9,9,58,600,,,,,,,,,-0.010742,0.192383,0.262695,56.396484,-33.447266,-34.423828,,,,,,,,,,,0.0,1.0,1.0,5.0,0.0,0.0,0.0,4.0,0.0,0.005852866666666669,-0.04957352,0.9900000533333334,2.798665346666667,0.1066081200000006,-1.0131835733333336,12.716329013666098,5.299591523757357,-8.666867557909864,-15.724888005444818,2.031333564092542,19.425560276246333,25.074904005369007,-1.4531321299076367,26.15125306604046,-1.4413765315356262,-0.01659486666666667,0.24195652,-0.7273050533333334,0.9858564400000001,0.7666752818334486,0.6679993669862511,0.6640818176453341,0.669843455411585
LBP09_S05,LBP09,-1559,92,5,91,-1559,1716541798.64,2024-05-24 09:09:58.640000+00:00,2024-05-24 18:09:58.640000+09:00,2024,5,24,9,9,58,640,,,,,,,,,0.390625,0.030518,0.672607,10.131836,-54.80957,-18.432617,,,,,,,,,,,0.0,1.0,1.0,5.0,0.0,0.0,0.0,4.0,0.0,0.01731772,-0.05420894666666667,1.0011589066666666,2.3429361866666665,-1.861165306666666,-1.375325506666667,3.5503017478722674,8.216585181416407,-7.758871487031456,-15.582875935529927,2.359996971349198,19.115205416765075,24.774718691682857,-1.2611999690204945,25.965396737958894,-1.4690972036606726,0.37330728,0.08472694666666666,-0.32855190666666667,0.7865861333333334,0.5044634141013168,0.6524732505241512,0.6630664442195282,0.66683654556958
LBP09_S05,LBP09,-1558,93,5,92,-1558,1716541798.68,2024-05-24 09:09:58.680000+00:00,2024-05-24 18:09:58.680000+09:00,2024,5,24,9,9,58,680,,,,,,,,,0.435791,0.137939,1.171875,14.343262,37.841797,-33.081055,,,,,,,,,,,0.0,1.0,1.0,5.0,0.0,0.0,0.0,4.0,0.0,0.018271493333333333,-0.055325479999999996,1.0189160666666666,3.076985666666667,-1.016438746666666,-1.235351546666667,-6.815955723193551,10.641063862577205,-6.083169421960944,-15.855514164457668,2.7856395258522864,18.87187863988664,24.8053405617806,-1.251428542756897,25.93739589588596,-1.458263473640764,0.41751950666666665,0.19326448000000002,0.15295893333333344,0.7637429200000001,0.4848403169738654,0.6601768652124593,0.6654719818994091,0.6635866129160852
LBP09_S05,LBP09,-1557,94,5,93,-1557,1716541798.72,2024-05-24 09:09:58.720000+00:00,2024-05-24 18:09:58.720000+09:00,2024,5,24,9,9,58,720,,,,,,,,,-0.154297,0.133545,1.659424,-73.913574,44.86084,19.592285,,,,,,,,,,,0.0,1.0,1.0,5.0,0.0,0.0,0.0,4.0,0.0,0.007340506666666666,-0.05117182666666666,1.03382492,2.227376293333333,-1.1816405733333326,-1.3297525866666668,-16.244346549150098,12.268525093394468,-3.5602969556854958,-16.50528802642367,3.276380529588065,18.729466761659218,25.17840597388893,-1.4281515545222652,26.080888217561885,-1.4291831229521184,-0.16163750666666665,0.18471682666666667,0.62559908,0.9719534133333333,0.6720276768943869,0.6483504225087411,0.6649384833259567,0.6637347017578098
LBP09_S05,LBP09,-1556,95,5,94,-1556,1716541798.76,2024-05-24 09:09:58.760000+00:00,2024-05-24 18:09:58.760000+09:00,2024,5,24,9,9,58,760,,,,,,,,,-0.218018,-0.014404,2.047852,-138.793945,-61.462402,-7.446289,,,,,,,,,,,0.0,1.0,1.0,5.0,0.0,0.0,0.0,4.0,0.0,0.001123053333333335,-0.05211909333333333,1.0398372933333333,2.4202473866666665,-1.9856770266666657,-1.284993466666667,-22.998666099832114,12.903691602456409,-0.3813862742481389,-17.425234670416955,3.792528193686321,18.714211310689294,25.850411571194332,-1.5492248067367698,26.390817360263362,-1.3863936969414905,-0.21914105333333334,0.03771509333333333,1.0080147066666665,1.264870853333333,1.0322494264360096,0.6683219556561458,0.6694827632710333,0.670088403907434
LBP09_S05,LBP09,-1555,96,5,95,-1555,1716541798.8,2024-05-24 09:09:58.800000+00:00,2024-05-24 18:09:58.800000+09:00,2024,5,24,9,9,58,800,,,,,,,,,0.157471,-0.155029,1.593018,-51.452637,42.358398,-15.869141,,,,,,,,,,,0.0,1.0,1.0,5.0,0.0,0.0,0.0,4.0,0.0,-0.0006542933333333319,-0.050087853333333335,1.0275619066666666,3.0395507733333336,-1.4217121733333324,-1.547851546666667,-26.22399470106009,12.540976410753073,3.000417267833174,-18.47419445845936,4.294167250116444,18.83422800140262,26.729457115133517,-1.5838740024299238,26.845172521737698,-1.339352764482554,0.15812529333333333,-0.10494114666666667,0.5654560933333335,0.8285225333333335,0.5964535574068304,0.6664776234168872,0.6746227405260915,0.668840355661661
LBP09_S05,LBP09,-1554,97,5,96,-1554,1716541798.84,2024-05-24 09:09:58.840000+00:00,2024-05-24 18:09:58.840000+09:00,2024,5,24,9,9,58,840,,,,,,,,,-0.456055,-0.089844,0.188721,8.300781,138.977051,32.165527,,,,,,,,,,,0.0,1.0,1.0,5.0,0.0,0.0,0.0,4.0,0.0,0.009039720000000001,-0.04948564,1.0042741466666667,3.543294266666667,-0.45979810666666593,-0.8935546666666668,-26.073643553566395,11.416980587848546,5.965247461777969,-19.517140200602014,4.750846473630386,19.07283789987374,27.69950269194055,-1.3899076077402082,27.408355378554973,-1.3085469057862316,-0.46509471999999996,-0.040358359999999996,-0.8155531466666667,1.3210062266666667,0.9397174207343767,0.6855166922223206,0.6669994991389201,0.673354973412873
LBP09_S05,LBP09,-1553,98,5,97,-1553,1716541798.88,2024-05-24 09:09:58.880000+00:00,2024-05-24 18:09:58.880000+09:00,2024,5,24,9,9,58,880,,,,,,,,,0.057373,-0.042725,0.231934,71.044922,-50.231934,-13.916016,,,,,,,,,,,0.0,1.0,1.0,5.0,0.0,0.0,0.0,4.0,0.0,0.01140950666666667,-0.043971319999999994,0.9858073466666667,3.2698567599999997,0.3645834133333341,-0.09521481333333351,-23.45656423262307,9.977335741264907,7.879156759263301,-20.455402769906936,5.149939903280982,19.388004170244272,28.650306965055915,-1.3166936492042183,28.035730327885055,-1.3177455758288232,0.04596349333333333,0.0012463199999999952,-0.7538733466666667,0.80108316,0.7552742673011877,0.6855041765949224,0.6692866291519447,0.6746979126569437
LBP09_S05,LBP09,-1552,99,5,98,-1552,1716541798.92,2024-05-24 09:09:58.920000+00:00,2024-05-24 18:09:58.920000+09:00,2024,5,24,9,9,58,920,,,,,,,,,0.296387,0.252197,0.484375,46.386719,-64.453125,16.723633,,,,,,,,,,,0.0,1.0,1.0,5.0,0.0,0.0,0.0,4.0,0.0,0.021155600000000004,-0.04479162666666666,0.9861393866666667,1.7879231600000003,-1.6349282933333327,-0.18717444000000014,-19.572193515854156,8.729002814679042,8.264276307626703,-21.238290510541102,5.499100015868144,19.71857522254934,29.49792015722461,-1.1292346834059503,28.67906249725209,-1.3203458165661142,0.2752314,0.29698862666666664,-0.5017643866666667,1.0739844133333332,0.6447651259507519,0.6805832589930608,0.6702803389913708,0.6742151257745858
LBP09_S05,LBP09,-1551,100,5,99,-1551,1716541798.96,2024-05-24 09:09:58.960000+00:00,2024-05-24 18:09:58.960000+09:00,2024,5,24,9,9,58,960,,,,,,,,,0.57251,0.01709,1.02002,-51.330566,14.282227,32.897949,,,,,,,,,,,0.0,1.0,1.0,5.0,0.0,0.0,0.0,4.0,0.0,0.027610680000000005,-0.04608069333333333,1.0019694666666668,0.06266273333333344,-0.7657876666666659,-0.05777990666666682,-15.487088974391666,8.022198406766119,6.940166841983188,-21.85777406951677,5.8199879521387885,19.996181896228666,30.190757484106676,-1.0306806991011743,29.292597124244416,-1.3030398565579664,0.54489932,0.06317069333333333,0.018050533333333174,0.6261205466666665,0.54884572257265,0.6873310820702208,0.6724600797092991,0.6722251352475709
LBP09_S05,LBP09,-1550,101,5,100,-1550,1716541799.0,2024-05-24 09:09:59+00:00,2024-05-24 18:09:59+09:00,2024,5,24,9,9,59,0,9.0,9.0,58.0,40.567471,141.542358,13.603,3.0,15.0,0.082764,-0.149658,1.444336,-47.973633,38.513184,27.34375,-288.0,143.0,251.0,230.0,0.0,1006.099976,19.969999,-0.068377,59.664581,3.88125,0.0,1.0,1.0,5.0,0.0,0.0,0.0,5.0,0.0,0.020735680000000003,-0.04576493333333333,1.0184278,-0.5639648666666666,0.232747493333334,0.44921879999999986,-11.929761315342411,7.871556210688044,4.08974705280937,-22.334964522130466,6.13485020056631,20.159771778341042,30.706732573541768,-1.1450735429444137,29.839019774578777,-1.2697077783914752,0.06202832,-0.10389306666666669,0.42590820000000007,0.5918295866666667,0.44276300275730684,0.6683270520255821,0.6728141316840428,0.6686397894274105
LBP09_S05,LBP09,-1549,102,5,101,-1549,1716541799.04,2024-05-24 09:09:59.040000+00:00,2024-05-24 18:09:59.040000+09:00,2024,5,24,9,9,59,40,,,,,,,,,-0.296143,-0.027588,1.574707,-76.599121,-40.95459,-9.094238,,,,,,,,,,,0.0,1.0,1.0,5.0,0.0,0.0,0.0,5.0,0.0,0.01092122666666667,-0.049446573333333334,1.0305990266666667,-1.0636393466666665,-0.736490786666666,1.3745117599999999,-9.306647129271182,7.916207985728503,0.21748564370119217,-22.707230407301314,6.45149851999545,20.16847120408909,31.04846818498368,-1.3531866694464119,30.293679273298732,-1.211876245405581,-0.30706422666666666,0.021858573333333332,0.5441079733333334,0.8730307733333333,0.6251557591284544,0.6706774974086099,0.6693058715099319,0.6679708043458881
LBP09_S05,LBP09,-1548,103,5,102,-1548,1716541799.08,2024-05-24 09:09:59.080000+00:00,2024-05-24 18:09:59.080000+09:00,2024,5,24,9,9,59,80,,,,,,,,,0.001953,0.02002,1.561035,13.000488,-21.057129,-55.603027,,,,,,,,,,,0.0,1.0,1.0,5.0,0.0,0.0,0.0,5.0,0.0,0.013102213333333336,-0.043408159999999994,1.0289551466666667,-0.22216799999999992,-1.045735573333333,0.8512370266666665,-7.809575516703209,7.543492485750226,-3.9960824472848517,-23.019613427969443,6.75323821942546,20.008627906197695,31.238662255450905,-1.2774309501298065,30.64550186574229,-1.1669136192752994,-0.011149213333333336,0.06342816,0.5320798533333333,0.6066572266666667,0.5359630647368895,0.670402496190455,0.6680635489929253,0.665970687079085
LBP09_S05,LBP09,-1547,104,5,103,-1547,1716541799.12,2024-05-24 09:09:59.120000+00:00,2024-05-24 18:09:59.120000+09:00,2024,5,24,9,9,59,120,,,,,,,,,-0.214355,-0.084961,0.661377,19.287109,141.723633,13.549805,,,,,,,,,,,0.0,1.0,1.0,5.0,0.0,0.0,0.0,5.0,0.0,0.013453773333333334,-0.041220653333333336,1.00633796,-1.12467452,0.9676107866666673,1.7871094266666667,-7.478073679603809,6.124673145493253,-7.891834310521021,-23.318736375153595,6.99822514524519,19.692954533776856,31.313752243812235,-1.255091954440788,30.894477924213646,-1.1463757837069513,-0.22780877333333333,-0.04374034666666666,-0.34496096,0.61651008,0.4157019594111625,0.6724183823686536,0.6619360856936953,0.6622353329347878
LBP09_S05,LBP09,-1546,105,5,104,-1546,1716541799.16,2024-05-24 09:09:59.160000+00:00,2024-05-24 18:09:59.160000+09:00,2024,5,24,9,9,59,160,,,,,,,,,-0.17627,-0.130127,0.179199,-35.461426,-24.719238,-13.061523,,,,,,,,,,,0.0,1.0,1.0,5.0,0.0,0.0,0.0,5.0,0.0,0.014983720000000004,-0.040462186666666664,0.9867220800000002,-0.5794271333333334,1.7057292666666672,2.1761068133333334,-8.172251954224457,3.2659327709243025,-11.003915537161365,-23.645626453322574,7.128862456082162,19.2527979122904,31.314638074537918,-1.215904025071858,31.047228550445983,-1.1638692838017664,-0.19125372000000002,-0.08966481333333333,-0.8075230800000002,1.0884416133333334,0.8346923318784153,0.675973782223729,0.663275423261643,0.664771465272194
LBP09_S05,LBP09,-1545,106,5,105,-1545,1716541799.2,2024-05-24 09:09:59.200000+00:00,2024-05-24 18:09:59.200000+09:00,2024,5,24,9,9,59,200,,,,,,,,,0.296631,-0.055908,0.613037,75.439453,-69.641113,-32.348633,,,,,,,,,,,0.0,1.0,1.0,5.0,0.0,0.0,0.0,5.0,0.0,0.02259113333333334,-0.035631453333333334,0.98516608,-1.3712565600000002,-0.9301756799999993,1.43554692,-9.512658140851904,-1.0272383946479764,-13.145398476220793,-24.02613277895665,7.087772920296243,18.726981973241568,31.2760521023331,-1.0055586725709782,31.11256767017516,-1.190956839651159,0.27403986666666663,-0.020276546666666666,-0.37212908,0.6664454933333332,0.46258949301627716,0.6617439148192308,0.661681614714815,0.6618412917612386
LBP09_S05,LBP09,-1544,107,5,106,-1544,1716541799.24,2024-05-24 09:09:59.240000+00:00,2024-05-24 18:09:59.240000+09:00,2024,5,24,9,9,59,240,,,,,,,,,0.539062,0.193848,1.211426,27.709961,28.808594,-26.916504,,,,,,,,,,,0.0,1.0,1.0,5.0,0.0,0.0,0.0,5.0,0.0,0.027473946666666672,-0.037652933333333326,1.00147468,-3.6897786933333325,0.2652995866666674,1.5161133199999999,-10.88294140563537,-6.3289619410273605,-14.390412878826062,-24.461450435182066,6.834614442655148,18.151365458088524,31.217728616376117,-0.940281346437396,31.098155270463003,-1.2084525734764235,0.5115880533333333,0.23150093333333333,0.20995131999999983,0.9530403066666665,0.599495267051656,0.6815562102748511,0.6599778131299259,0.6609506342653875
LBP09_S05,LBP09,-1543,108,5,107,-1543,1716541799.28,2024-05-24 09:09:59.280000+00:00,2024-05-24 18:09:59.280000+09:00,2024,5,24,9,9,59,280,,,,,,,,,-0.140625,-0.293945,1.5,-93.933105,56.152344,54.80957,,,,,,,,,,,0.0,1.0,1.0,5.0,0.0,0.0,0.0,5.0,0.0,0.021116520000000007,-0.04270501333333333,1.0178548933333331,-4.678548226666667,1.294759213333334,1.6031901466666667,-11.555140914932535,-11.90326028334685,-14.975482364741513,-24.923656071779366,6.358484031321274,17.552346163498864,31.140067549769466,-1.1113152935207378,31.008314214951827,-1.2054269971511262,-0.16174152,-0.2512399866666667,0.4821451066666669,0.8951266133333335,0.5672263693401329,0.6590131753320025,0.6604487375000346,0.6596305741960177
LBP09_S05,LBP09,-1542,109,5,108,-1542,1716541799.32,2024-05-24 09:09:59.320000+00:00,2024-05-24 18:09:59.320000+09:00,2024,5,24,9,9,59,320,,,,,,,,,-0.596924,-0.051514,1.719238,-84.899902,-89.599609,-40.893555,,,,,,,,,,,0.0,1.0,1.0,5.0,0.0,0.0,0.0,5.0,0.0,0.011168600000000004,-0.040921160000000005,1.02791024,-4.046224,0.5696615466666674,1.1458333733333332,-10.908609893728665,-16.894366559791887,-15.167978639799806,-25.36000046752851,5.682709368929599,16.945627017906872,31.025426419547916,-1.3041696843540989,30.842705408668827,-1.192956210006085,-0.6080926,-0.010592839999999992,0.6913277600000001,1.3100132,0.9207729851492404,0.6723275434331524,0.6585256470411435,0.6632575521259236
LBP09_S05,LBP09,-1541,110,5,109,-1541,1716541799.36,2024-05-24 09:09:59.360000+00:00,2024-05-24 18:09:59.360000+09:00,2024,5,24,9,9,59,360,,,,,,,,,-0.009033,-0.261963,1.737549,-13.305664,-101.013184,-51.696777,,,,,,,,,,,0.0,1.0,1.0,5.0,0.0,0.0,0.0,5.0,0.0,0.01193682666666667,-0.0432942,1.0276693466666666,-3.4480794666666665,0.24007170666666725,1.132812533333333,-8.628119315988636,-20.538905339708382,-15.15472536201632,-25.70512524016806,4.861153155341263,16.33943800342622,30.844148681398526,-1.3015562575951019,30.595835399536128,-1.1643819427520583,-0.02096982666666667,-0.2186688,0.7098796533333334,0.94951828,0.7430914478989269,0.6810129832376103,0.6550465729761312,0.6643511671365127
LBP09_S05,LBP09,-1540,111,5,110,-1540,1716541799.4,2024-05-24 09:09:59.400000+00:00,2024-05-24 18:09:59.400000+09:00,2024,5,24,9,9,59,400,,,,,,,,,-0.133545,-0.108643,0.589844,59.020996,79.650879,21.54541,,,,,,,,,,,0.0,1.0,1.0,5.0,0.0,0.0,0.0,5.0,0.0,0.011279280000000004,-0.044072186666666666,1.00455736,-2.771809933333333,2.014974053333334,1.8937174933333327,-4.761565164082614,-22.339462951416095,-14.984104024813051,-25.895587846731363,3.9675746372846197,15.740073842433699,30.562608576420153,-1.3200308811970578,30.257742506502,-1.1569149436950439,-0.14482428,-0.06457081333333334,-0.4147133599999999,0.6241084533333332,0.4439939560112684,0.6799026439728562,0.6623954164041064,0.6613733669861716
LBP09_S05,LBP09,-1539,112,5,111,-1539,1716541799.44,2024-05-24 09:09:59.440000+00:00,2024-05-24 18:09:59.440000+09:00,2024,5,24,9,9,59,440,,,,,,,,,-0.15625,0.150635,-0.040283,36.254883,3.723145,-1.708984,,,,,,,,,,,0.0,1.0,1.0,5.0,0.0,0.0,0.0,5.0,0.0,0.010768213333333337,-0.042587813333333335,0.98276048,-1.1848958666666667,1.9287110266666674,1.2703450933333331,0.3850934087360788,-22.153436625900984,-14.56683312094493,-25.88018411038192,3.08143717224858,15.157400517595901,30.1500576298719,-1.3229309061934391,29.81619374595207,-1.192344433555908,-0.16701821333333333,0.19322281333333333,-1.0230434800000001,1.3832845066666668,1.054442080508938,0.6934526720990861,0.66334746262838,0.6666142831664751
LBP09_S05,LBP09,-1538,113,5,112,-1538,1716541799.48,2024-05-24 09:09:59.480000+00:00,2024-05-24 18:09:59.480000+09:00,2024,5,24,9,9,59,480,,,,,,,,,0.04248,0.037598,0.240479,25.024414,-64.819336,-6.103516,,,,,,,,,,,0.0,1.0,1.0,5.0,0.0,0.0,0.0,5.0,0.0,0.017145173333333336,-0.038616453333333335,0.9787044933333334,-1.1043294666666665,-1.1905923599999995,-0.3645832933333336,6.420368041082506,-20.195620727898504,-13.727602740456868,-25.623369388738617,2.2736123431326396,14.608296407977626,29.58257419262097,-1.1527230786793958,29.2602826176092,-1.240221427678464,0.02533482666666666,0.07621445333333333,-0.7382254933333334,0.8397747733333334,0.7425815614101743,0.6891843591685841,0.6688542154352903,0.6649260127821521
LBP09_S05,LBP09,-1537,114,5,113,-1537,1716541799.52,2024-05-24 09:09:59.520000+00:00,2024-05-24 18:09:59.520000+09:00,2024,5,24,9,9,59,520,,,,,,,,,0.403564,-0.210205,0.67334,-22.460938,-78.918457,-48.278809,,,,,,,,,,,0.0,1.0,1.0,5.0,0.0,0.0,0.0,5.0,0.0,0.026822906666666667,-0.039101479999999994,0.9928939466666666,-1.2532552533333332,-1.2101236133333328,-1.8554687200000004,12.979950313302309,-16.982633304321578,-12.294709991895978,-25.104171376206523,1.5943070109597763,14.116508008301787,28.845052152485195,-0.969349281900519,28.584700880490537,-1.2655000688939726,0.37674109333333333,-0.17110352,-0.3195539466666666,0.8673985599999999,0.5228049261365357,0.6868926092220745,0.6650329433646894,0.6685328087019642
LBP09_S05,LBP09,-1536,115,5,114,-1536,1716541799.56,2024-05-24 09:09:59.560000+00:00,2024-05-24 18:09:59.560000+09:00,2024,5,24,9,9,59,560,,,,,,,,,0.348633,0.084473,1.06665,15.625,36.315918,-45.410156,,,,,,,,,,,0.0,1.0,1.0,5.0,0.0,0.0,0.0,5.0,0.0,0.022278640000000002,-0.04867830666666667,1.0091244266666668,-1.9091797333333334,0.10335294666666717,-1.6398111733333338,19.72317646589205,-13.229715643833325,-10.196962354994753,-24.31524431757084,1.0651183852064432,13.708629514101997,27.933709144196627,-1.1412340345017136,27.793470174665906,-1.2649501830398835,0.32635436,0.1331513066666667,0.0575255733333333,0.51703124,0.3571353109752367,0.6485488690246176,0.660360640814162,0.6568374954179272
LBP09_S05,LBP09,-1535,116,5,115,-1535,1716541799.6,2024-05-24 09:09:59.600000+00:00,2024-05-24 18:09:59.600000+09:00,2024,5,24,9,9,59,600,,,,,,,,,-0.198975,-0.403076,1.696777,-8.422852,29.968262,24.291992,,,,,,,,,,,0.0,1.0,1.0,5.0,0.0,0.0,0.0,5.0,0.0,0.009895826666666668,-0.04625968,1.0215365333333333,-1.1328125466666668,-0.571288973333333,-2.626139293333334,26.256164766177395,-9.692327494555897,-7.519059731452844,-23.264997726923745,0.6774252854242073,13.407867124843882,26.860564496833803,-1.359853571179619,26.901831004718066,-1.256464429951791,-0.20887082666666668,-0.35681631999999996,0.6752404666666667,1.2409276133333333,0.7917667562325265,0.6495525280005806,0.6587759474934158,0.659238721097083
LBP09_S05,LBP09,-1534,117,5,116,-1534,1716541799.64,2024-05-24 09:09:59.640000+00:00,2024-05-24 18:09:59.640000+09:00,2024,5,24,9,9,59,640,,,,,,,,,-0.212402,-0.066406,1.776123,45.410156,-86.975098,-8.911133,,,,,,,,,,,0.0,1.0,1.0,5.0,0.0,0.0,0.0,5.0,0.0,0.007955720000000003,-0.05208976,1.0327507200000001,-1.0253906666666666,-1.809895746666666,-2.9215494533333337,32.07406426505406,-6.971009734629864,-4.4816347061494115,-21.982035156321583,0.39858489603901276,13.228601736597906,25.65861733294742,-1.419051287662958,25.9354826077441,-1.2400181035968456,-0.22035772,-0.014316240000000008,0.7433722799999998,0.9780462399999998,0.7754771603108206,0.6603930778489608,0.6564331641865561,0.6621753220960058
LBP09_S05,LBP09,-1533,118,5,117,-1533,1716541799.68,2024-05-24 09:09:59.680000+00:00,2024-05-24 18:09:59.680000+09:00,2024,5,24,9,9,59,680,,,,,,,,,0.11377,-0.277588,1.450684,-2.441406,34.484863,31.921387,,,,,,,,,,,0.0,1.0,1.0,5.0,0.0,0.0,0.0,5.0,0.0,0.010657546666666668,-0.05088533333333334,1.024336,1.9742838133333331,1.0481771733333338,-2.6114908533333336,36.59479620585239,-5.337453200817663,-1.36047458927572,-20.518243308087488,0.18508676800630625,13.174182753026876,24.38425017858287,-1.3641017056758225,24.92739041434346,-1.2311154733702754,0.10311245333333333,-0.22670266666666666,0.42634800000000017,0.7561631200000002,0.4937599560618467,0.6607498634124801,0.6604633643124699,0.6638979424037661
LBP09_S05,LBP09,-1532,119,5,118,-1532,1716541799.72,2024-05-24 09:09:59.720000+00:00,2024-05-24 18:09:59.720000+09:00,2024,5,24,9,9,59,720,,,,,,,,,-0.659912,-0.141113,0.070557,63.171387,106.994629,24.291992,,,,,,,,,,,0.0,1.0,1.0,5.0,0.0,0.0,0.0,5.0,0.0,0.013984373333333334,-0.05017244,1.00266608,4.525553346666667,1.5388998266666671,-1.3354491866666671,39.29515465323012,-4.649714549644051,1.5993612954508107,-18.946437121958283,-0.0009018139794557956,13.238157204844908,23.11311936130159,-1.298670825813207,23.913435581592715,-1.2477766996104112,-0.6738963733333334,-0.09094055999999999,-0.93210908,1.6969460133333334,1.153791074875941,0.6800203993317422,0.6641854109202417,0.6699657886612186
LBP09_S05,LBP09,-1531,120,5,119,-1531,1716541799.76,2024-05-24 09:09:59.760000+00:00,2024-05-24 18:09:59.760000+09:00,2024,5,24,9,9,59,760,,,,,,,,,0.184326,0.333252,0.18042,117.736816,-61.096191,-41.625977,,,,,,,,,,,0.0,1.0,1.0,5.0,0.0,0.0,0.0,5.0,0.0,0.01779948,-0.04819653333333333,1.0019596933333335,4.97965492,-0.4711913199999994,-1.4404296533333336,39.89323391804787,-4.406449770555051,4.221472380197423,-17.35070776523637,-0.17715980480165786,13.407016100052806,21.92775698192011,-1.2166987267141778,22.928508515294233,-1.2929362319440707,0.16652651999999998,0.38144853333333334,-0.8215396933333334,1.3695147466666668,0.9209568573867557,0.6755686965697721,0.671945326112959,0.6715114077039462
LBP09_S05,LBP09,-1530,121,5,120,-1530,1716541799.8,2024-05-24 09:09:59.800000+00:00,2024-05-24 18:09:59.800000+09:00,2024,5,24,9,9,59,800,,,,,,,,,0.192383,0.008301,0.46582,41.992188,-69.824219,-6.896973,,,,,,,,,,,0.0,1.0,1.0,5.0,0.0,0.0,0.0,5.0,0.0,0.024069013333333333,-0.05465812,1.0229037066666669,4.235839826666667,-0.22298167999999938,-0.7918294000000005,38.47809865049635,-3.946508885733444,6.378937927921874,-15.811583819216514,-0.3350201602309956,13.66217361716968,20.89912460668049,-1.1555676176476037,22.00394665795719,-1.3289389921454788,0.16831398666666667,0.06295912,-0.5570837066666668,0.7883568133333335,0.5853509247727163,0.6751245912644075,0.6708011073406474,0.6747900241055301
LBP09_S05,LBP09,-1529,122,5,121,-1529,1716541799.84,2024-05-24 09:09:59.840000+00:00,2024-05-24 18:09:59.840000+09:00,2024,5,24,9,9,59,840,,,,,,,,,0.702148,0.222168,0.900146,36.865234,-22.644043,-13.366699,,,,,,,,,,,0.0,1.0,1.0,5.0,0.0,0.0,0.0,5.0,0.0,0.018600266666666667,-0.05316724,1.0424219333333333,4.418131493333334,0.8593750800000005,-0.9497070000000004,35.49745687039102,-2.727139836853624,7.956357591642207,-14.391685544400874,-0.4441057537051406,13.980427920835368,20.069135695865533,-1.2339046039277375,21.166142826757216,-1.3348133303283123,0.6835477333333333,0.27533524,-0.14227593333333333,1.1011589066666665,0.7505261083645701,0.6675569387696153,0.676536815495968,0.6671853123491518
LBP09_S05,LBP09,-1528,123,5,122,-1528,1716541799.88,2024-05-24 09:09:59.880000+00:00,2024-05-24 18:09:59.880000+09:00,2024,5,24,9,9,59,880,,,,,,,,,0.019531,-0.361084,1.363281,-66.894531,60.119629,86.975098,,,,,,,,,,,0.0,1.0,1.0,5.0,0.0,0.0,0.0,5.0,0.0,0.013466800000000004,-0.0524804,1.0620052666666666,3.090006493333334,1.541341226666667,-0.2880859066666671,31.58864969498719,-0.556367600208171,8.841184297103478,-13.128139556601386,-0.46636045771346746,14.334075292719508,19.4430258651135,-1.3193353410807542,20.43566003398781,-1.3234736860892755,0.006064199999999995,-0.30860360000000003,0.30127573333333335,0.6159435333333334,0.43132357221712075,0.6545989109662526,0.6700515437805875,0.6643907230900474
LBP09_S05,LBP09,-1527,124,5,123,-1527,1716541799.92,2024-05-24 09:09:59.920000+00:00,2024-05-24 18:09:59.920000+09:00,2024,5,24,9,9,59,920,,,,,,,,,-0.362793,0.038086,1.746826,46.569824,-48.217773,-46.99707,,,,,,,,,,,0.0,1.0,1.0,5.0,0.0,0.0,0.0,5.0,0.0,0.008248706666666668,-0.054703706666666664,1.0636556533333335,2.95898436,2.2143555600000004,0.5118815333333329,27.33708171049571,2.325743035373888,8.958771781094043,-12.034656288181559,-0.37333073629851193,14.692426163963269,18.995781489500388,-1.4209446052371162,19.826527519599217,-1.2871395050159105,-0.37104170666666664,0.09278970666666667,0.6831703466666665,1.1470017599999998,0.7829454644571691,0.6601261245065093,0.670354691749785,0.6668956008297502
LBP09_S05,LBP09,-1526,125,5,124,-1526,1716541799.96,2024-05-24 09:09:59.960000+00:00,2024-05-24 18:09:59.960000+09:00,2024,5,24,9,9,59,960,,,,,,,,,-0.001709,-0.201416,1.826172,7.141113,-40.893555,8.483887,,,,,,,,,,,0.0,1.0,1.0,5.0,0.0,0.0,0.0,5.0,0.0,0.0034440133333333363,-0.049505146666666666,1.04138352,2.33072916,2.526041760000001,0.7299804933333328,23.092145769644652,5.34123537352557,8.326776272522508,-11.110970457395773,-0.15968132135748914,15.025497214864169,18.688090570826194,-1.5012616365157918,19.34602882832268,-1.2609585283259435,-0.005153013333333336,-0.15191085333333335,0.78478848,0.9418523466666667,0.799372515944591,0.670147196241387,0.6787391391558039,0.6716891185533284
LBP09_S05,LBP09,-1525,126,5,125,-1525,1716541800.0,2024-05-24 09:10:00+00:00,2024-05-24 18:10:00+09:00,2024,5,24,9,10,0,0,9.0,9.0,59.0,40.567509,141.542511,13.614,3.0,14.0,0.10083,-0.146484,1.055664,46.325684,134.460449,33.447266,-286.0,132.0,248.0,282.0,0.0,1006.200012,20.040001,-0.067386,58.827442,3.832031,0.0,1.0,1.0,5.0,0.0,0.0,0.0,12.0,0.0,0.007705080000000003,-0.050292906666666665,1.0207617733333334,3.2910156266666672,2.686360773333334,1.005045586666666,18.9243726309225,7.79259774754732,7.095700716106105,-10.353995552158873,0.15202258854440365,15.309325243508413,18.48252618483408,-1.4185969530079543,18.995595436407136,-1.2536913916686978,0.09312492,-0.09619109333333334,0.034902226666666536,0.22421823999999987,0.1383587459756694,0.6579710259701215,0.6631490389978518,0.6678664297794025
LBP09_S05,LBP09,-1524,127,5,126,-1524,1716541800.04,2024-05-24 09:10:00.040000+00:00,2024-05-24 18:10:00.040000+09:00,2024,5,24,9,10,0,40,,,,,,,,,-0.209961,0.077637,0.051758,69.824219,4.150391,15.380859,,,,,,,,,,,0.0,1.0,1.0,5.0,0.0,0.0,0.0,12.0,0.0,0.011552733333333336,-0.04258132,1.0070247866666666,3.0289713600000003,1.0432943600000009,0.7234700533333329,14.709936185262979,9.113061504778054,5.55466520644213,-9.765598104748353,0.5165450487355259,15.531511851766098,18.35378940525331,-1.3056548452725927,18.773117212187906,-1.2685030683392713,-0.22151373333333335,0.12021831999999999,-0.9552667866666666,1.29699884,0.987955167114051,0.6724830022895454,0.6715802498490775,0.6703649151031364
LBP09_S05,LBP09,-1523,128,5,127,-1523,1716541800.08,2024-05-24 09:10:00.080000+00:00,2024-05-24 18:10:00.080000+09:00,2024,5,24,9,10,0,80,,,,,,,,,0.239258,0.145752,0.539795,-1.708984,-40.405273,-2.01416,,,,,,,,,,,0.0,1.0,1.0,5.0,0.0,0.0,0.0,12.0,0.0,0.027454426666666667,-0.04285149333333334,1.0211881999999999,0.4443359466666669,-0.3873697066666658,0.9440104133333329,10.258354330282936,9.048828222436482,4.091471800045852,-9.355263931537035,0.8784981776329852,15.695170723767932,18.292925034697,-1.000759894942169,18.676190327959603,-1.2768171493831635,0.21180357333333333,0.18860349333333332,-0.48139319999999985,0.8818002666666664,0.5587230480126493,0.6733934016205757,0.6718979489055154,0.6698401665354754
LBP09_S05,LBP09,-1522,129,5,128,-1522,1716541800.12,2024-05-24 09:10:00.120000+00:00,2024-05-24 18:10:00.120000+09:00,2024,5,24,9,10,0,120,,,,,,,,,0.52002,-0.160645,1.20874,-27.099609,10.803223,-19.53125,,,,,,,,,,,0.0,1.0,1.0,5.0,0.0,0.0,0.0,12.0,0.0,0.02930989333333334,-0.04961256,1.0367578666666666,-1.0034179599999997,0.6315105066666675,1.7203775999999997,5.402376352549824,7.710378650722933,3.106621939330832,-9.139168877435042,1.1869133236619025,15.819435601341166,18.308132448536192,-1.036861058913539,18.70502494522176,-1.2829816905473472,0.4907101066666667,-0.11103244000000001,0.17198213333333334,0.77372468,0.5316977202349559,0.6780332320535274,0.6752258072110905,0.6673018011469726
LBP09_S05,LBP09,-1521,130,5,129,-1521,1716541800.16,2024-05-24 09:10:00.160000+00:00,2024-05-24 18:10:00.160000+09:00,2024,5,24,9,10,0,160,,,,,,,,,0.009033,-0.323242,1.556152,-33.203125,50.292969,30.090332,,,,,,,,,,,0.0,1.0,1.0,5.0,0.0,0.0,0.0,12.0,0.0,0.021910800000000005,-0.04822585333333334,1.05140956,-1.037597653333333,0.7177735200000008,1.5974934799999996,0.030146523408240825,5.500555847370581,2.902018916085263,-9.137963016498713,1.4069355575567257,15.935516357984577,18.423423062764687,-1.1440273601417201,18.863614214094913,-1.2735139391684311,-0.012877800000000005,-0.2750161466666666,0.50474244,0.7926363866666666,0.5749475188200878,0.6676434395311943,0.6718086108774615,0.6647314286848267
LBP09_S05,LBP09,-1520,131,5,130,-1520,1716541800.2,2024-05-24 09:10:00.200000+00:00,2024-05-24 18:10:00.200000+09:00,2024,5,24,9,10,0,200,,,,,,,,,-0.513916,0.093018,1.690674,4.333496,-69.213867,-20.019531,,,,,,,,,,,0.0,1.0,1.0,5.0,0.0,0.0,0.0,12.0,0.0,0.014967440000000005,-0.05476230666666667,1.0637044800000002,-1.9637044266666666,0.2766927866666675,2.289225253333333,-5.900481226676239,2.9783199937266764,3.5842873835130615,-9.373982265565763,1.5260683573057927,16.0788878533251,18.674342364488147,-1.3036843843533377,19.158604520440665,-1.233728802514509,-0.5288834400000001,0.14778030666666667,0.6269695199999998,1.3036332666666666,0.8334551524549824,0.6824780659087425,0.6721109903639868,0.6686137651127908
LBP09_S05,LBP09,-1519,132,5,131,-1519,1716541800.24,2024-05-24 09:10:00.240000+00:00,2024-05-24 18:10:00.240000+09:00,2024,5,24,9,10,0,240,,,,,,,,,0.113525,0.213379,1.521729,23.4375,-31.616211,-33.203125,,,,,,,,,,,0.0,1.0,1.0,5.0,0.0,0.0,0.0,12.0,0.0,0.015485013333333335,-0.05979812,1.05679692,-0.19775390666666642,1.6072591866666677,2.4210611866666665,-12.32041748080217,0.7209271574069563,5.024011476526399,-9.86679896479785,1.554905443602071,16.279848312386154,19.099866853582554,-1.3170454143666617,19.59651926566485,-1.2095409148306382,0.09803998666666666,0.27317712,0.4649320800000001,0.8361491866666667,0.5480870522920798,0.6804217373183594,0.6809889737966053,0.6667924545260704
LBP09_S05,LBP09,-1518,133,5,132,-1518,1716541800.28,2024-05-24 09:10:00.280000+00:00,2024-05-24 18:10:00.280000+09:00,2024,5,24,9,10,0,280,,,,,,,,,-0.257324,-0.141846,0.560547,-35.888672,127.990723,38.391113,,,,,,,,,,,0.0,1.0,1.0,5.0,0.0,0.0,0.0,12.0,0.0,0.01124998666666667,-0.058645786666666665,1.0300814133333334,2.634277333333334,2.9500326133333346,2.915852853333333,-18.982837928770774,-0.7785480947050196,6.896079467611769,-10.626112481948681,1.5237635198138704,16.555691491090624,19.731372037735024,-1.3809807527225886,20.180639898111387,-1.2150404689379033,-0.26857398666666665,-0.08320021333333333,-0.46953441333333334,0.8213086133333334,0.5472813052873418,0.6796239347562478,0.6693185550441251,0.6668404699187723
LBP09_S05,LBP09,-1517,134,5,133,-1517,1716541800.32,2024-05-24 09:10:00.320000+00:00,2024-05-24 18:10:00.320000+09:00,2024,5,24,9,10,0,320,,,,,,,,,0.04541,0.012451,0.041504,12.512207,-16.906738,15.197754,,,,,,,,,,,0.0,1.0,1.0,5.0,0.0,0.0,0.0,12.0,0.0,0.012949200000000003,-0.05195958666666667,1.0154232,3.623860666666667,1.536458400000001,2.6326497333333325,-25.421849870768153,-1.1777438960708098,8.796776590743342,-11.642986476779408,1.476653763971038,16.907562554720357,20.581674178231953,-1.3262670914479564,20.908594112858253,-1.2636513095020963,0.0324608,0.06441058666666667,-0.9739192000000001,1.0707905866666667,0.9765864198011481,0.681856472142324,0.6770920077877384,0.6663025887415369
LBP09_S05,LBP09,-1516,135,5,134,-1516,1716541800.36,2024-05-24 09:10:00.360000+00:00,2024-05-24 18:10:00.360000+09:00,2024,5,24,9,10,0,360,,,,,,,,,0.14917,0.111328,0.486084,-31.860352,-85.266113,22.094727,,,,,,,,,,,0.0,1.0,1.0,5.0,0.0,0.0,0.0,12.0,0.0,0.025911440000000004,-0.05138992,1.0279980666666666,2.091471346666667,-0.150553319999999,1.8155924399999996,-30.99144434617392,-0.3390783185874522,10.39552041801666,-12.882644250626365,1.4630906312275398,17.323383371441025,21.6379936342837,-1.1034102699765707,21.77096876778221,-1.313824402398242,0.12325855999999999,0.16271792,-0.5419140666666666,0.8278905466666666,0.5790860469339634,0.6752962561037257,0.6781546196706679,0.661796467351996
LBP09_S05,LBP09,-1515,136,5,135,-1515,1716541800.4,2024-05-24 09:10:00.400000+00:00,2024-05-24 18:10:00.400000+09:00,2024,5,24,9,10,0,400,,,,,,,,,0.64209,-0.13208,1.013428,-36.193848,-20.080566,28.015137,,,,,,,,,,,0.0,1.0,1.0,5.0,0.0,0.0,0.0,12.0,0.0,0.02486326666666667,-0.05987298666666666,1.0449284,0.5249023333333336,1.315104240000001,2.63997396,-35.002439268630916,1.623913796504963,11.55324541253396,-14.282741821371602,1.5280471830877382,17.785513187942385,22.86167363707592,-1.1767180761692473,22.75066297075247,-1.3492029741506535,0.6172267333333333,-0.07220701333333335,-0.031500400000000095,0.7209341466666668,0.6222338533992007,0.6824258519992428,0.6811642479860496,0.6690722282691519
LBP09_S05,LBP09,-1514,137,5,136,-1514,1716541800.44,2024-05-24 09:10:00.440000+00:00,2024-05-24 18:10:00.440000+09:00,2024,5,24,9,10,0,440,,,,,,,,,0.299561,0.069336,1.180176,-80.749512,72.570801,22.460938,,,,,,,,,,,0.0,1.0,1.0,5.0,0.0,0.0,0.0,12.0,0.0,0.013382146666666669,-0.06284498666666667,1.0612923333333333,0.14567056000000028,1.3728841866666677,1.881510413333333,-36.921217708083915,4.344393059718827,12.347484272148108,-15.759590529694957,1.7018229054764913,18.27941255882831,24.194995729718688,-1.3606503863452426,23.822523015456696,-1.3690222104225147,0.28617885333333337,0.13218098666666667,0.11888366666666661,0.5372435066666666,0.336902768661028,0.6537242795253264,0.6735884758122063,0.6601397349273621
LBP09_S05,LBP09,-1513,138,5,137,-1513,1716541800.48,2024-05-24 09:10:00.480000+00:00,2024-05-24 18:10:00.480000+09:00,2024,5,24,9,10,0,480,,,,,,,,,-0.394775,0.004639,1.763184,-53.100586,24.108887,-0.488281,,,,,,,,,,,0.0,1.0,1.0,5.0,0.0,0.0,0.0,12.0,0.0,0.0053906133333333365,-0.06419264000000001,1.0694336,1.3256835733333336,0.1806641333333342,0.9195963600000001,-36.55044860837963,7.2781564835270895,12.985052765726966,-17.22160847403014,1.992949164817575,18.798814669457386,25.572467182165667,-1.4868683005840986,24.953018536735616,-1.372791897602907,-0.40016561333333334,0.06883164000000001,0.6937504000000001,1.1627476533333334,0.8038407368749686,0.6561746465439182,0.6726795028562512,0.6646276924714996
LBP09_S05,LBP09,-1512,139,5,138,-1512,1716541800.52,2024-05-24 09:10:00.520000+00:00,2024-05-24 18:10:00.520000+09:00,2024,5,24,9,10,0,520,,,,,,,,,-0.029297,-0.272461,1.989014,-50.90332,-73.486328,-8.483887,,,,,,,,,,,0.0,1.0,1.0,5.0,0.0,0.0,0.0,12.0,0.0,0.0020637866666666704,-0.06417962666666667,1.0578776133333334,2.2810872266666666,1.3989258400000009,0.8284505199999999,-34.103604385586756,9.838710697250995,13.636223145881726,-18.58575264945361,2.386497592707615,19.344263595292656,26.931878997775776,-1.5385919878749954,26.10012305630651,-1.359591274612844,-0.03136078666666667,-0.20828137333333335,0.9311363866666666,1.1707785466666667,0.9546620344355523,0.6734489308758789,0.6801707700489767,0.6678382725350859
LBP09_S05,LBP09,-1511,140,5,139,-1511,1716541800.56,2024-05-24 09:10:00.560000+00:00,2024-05-24 18:10:00.560000+09:00,2024,5,24,9,10,0,560,,,,,,,,,0.164551,0.01001,1.313232,9.82666,70.129395,-9.82666,,,,,,,,,,,0.0,1.0,1.0,5.0,0.0,0.0,0.0,12.0,0.0,0.00440102666666667,-0.060296159999999994,1.0356347733333333,3.4350585733333334,1.7773438133333344,0.79996744,-30.126294853001035,11.534066326145357,14.26560597284633,-19.790804443573652,2.847860245753429,19.91488783420651,28.220365092467247,-1.4978130776658354,27.21390922615919,-1.3582056251153447,0.16014997333333333,0.07030615999999999,0.27759722666666664,0.5080533599999999,0.32810240832038656,0.6722876147696849,0.6604182418971511,0.6643362987993363
LBP09_S05,LBP09,-1510,141,5,140,-1510,1716541800.6,2024-05-24 09:10:00.600000+00:00,2024-05-24 18:10:00.600000+09:00,2024,5,24,9,10,0,600,,,,,,,,,-0.512207,0.223633,0.006104,-27.22168,92.895508,16.357422,,,,,,,,,,,0.0,1.0,1.0,5.0,0.0,0.0,0.0,12.0,0.0,0.004319653333333337,-0.06269525333333333,1.0188639466666667,3.35042316,0.930175840000001,1.8929036399999999,-25.29207889045238,12.054347248597152,14.543937198861101,-20.802487599191746,3.330034135697315,20.496645322160955,29.39294281153043,-1.5018767470719525,28.238449003568565,-1.3993059642559307,-0.5165266533333333,0.28632825333333334,-1.0127599466666666,1.8156148533333332,1.172376373795088,0.6875119994721873,0.6685322637363841,0.6683546314863398
LBP09_S05,LBP09,-1509,142,5,141,-1509,1716541800.64,2024-05-24 09:10:00.640000+00:00,2024-05-24 18:10:00.640000+09:00,2024,5,24,9,10,0,640,,,,,,,,,0.026123,-0.320312,0.355469,16.174316,-45.898438,32.226562,,,,,,,,,,,0.0,1.0,1.0,5.0,0.0,0.0,0.0,12.0,0.0,0.013479800000000004,-0.06152337333333333,1.0196354266666667,3.2755533733333335,-2.0914712933333326,2.0776367066666666,-20.164943133845703,11.283105942726696,13.892928463127939,-21.609085324545575,3.781358373406383,21.052362460686073,30.404822066371736,-1.3547422861705816,29.115305741727617,-1.4277673631779098,0.012643199999999997,-0.25878862666666663,-0.6641664266666667,0.9355982533333334,0.7129154550922767,0.6850095312634455,0.6727013045562031,0.6659586198788525
LBP09_S05,LBP09,-1508,143,5,142,-1508,1716541800.68,2024-05-24 09:10:00.680000+00:00,2024-05-24 18:10:00.680000+09:00,2024,5,24,9,10,0,680,,,,,,,,,0.467773,0.329346,0.589355,32.348633,-91.186523,-6.958008,,,,,,,,,,,0.0,1.0,1.0,5.0,0.0,0.0,0.0,12.0,0.0,0.019342440000000002,-0.058095640000000004,1.0291601733333333,3.0314127466666667,-1.218261666666666,2.9117838399999996,-15.03610460924486,9.238261668366968,11.657795024864203,-22.210529508915368,4.150888840141062,21.51867426168064,31.202417233444027,-1.2489745228219598,29.788307135843915,-1.428642793900867,0.44843056,0.38744164000000003,-0.43980517333333335,1.2756773733333335,0.7379902316687983,0.6947787422877236,0.6777643028501019,0.6719018236375544
LBP09_S05,LBP09,-1507,144,5,143,-1507,1716541800.72,2024-05-24 09:10:00.720000+00:00,2024-05-24 18:10:00.720000+09:00,2024,5,24,9,10,0,720,,,,,,,,,0.310547,-0.012207,1.24585,-83.496094,54.992676,36.804199,,,,,,,,,,,0.0,1.0,1.0,5.0,0.0,0.0,0.0,12.0,0.0,0.01497394666666667,-0.05673496,1.03901044,1.3354492133333333,0.047200573333334335,3.522949213333333,-9.900191593413684,5.997731585570675,7.350897909590345,-22.606537172651915,4.390798103563888,21.812710178064254,31.71953587675868,-1.3124105964729644,30.20870005627977,-1.418143722417105,0.29557305333333334,0.04452796,0.20683955999999992,0.5469405733333332,0.36349521683172764,0.6631669079659551,0.6715936536488488,0.6638459099354795
LBP09_S05,LBP09,-1506,145,5,144,-1506,1716541800.76,2024-05-24 09:10:00.760000+00:00,2024-05-24 18:10:00.760000+09:00,2024,5,24,9,10,0,760,,,,,,,,,-0.282715,-0.211914,1.753174,-55.053711,32.104492,3.112793,,,,,,,,,,,0.0,1.0,1.0,5.0,0.0,0.0,0.0,12.0,0.0,0.0034212133333333364,-0.06071608,1.0448274933333335,-0.42643229333333316,-0.8862304133333324,3.9070638,-4.556942494852531,1.6878354229723571,0.8873482773903125,-22.788814872446018,4.458311520482782,21.848204109159866,31.88339140837744,-1.514413661382431,30.33957713950569,-1.3962055613717785,-0.28613621333333333,-0.15119791999999999,0.7083465066666665,1.14568064,0.7787743685432483,0.6574796084122149,0.6665241524909935,0.667123420212711
LBP09_S05,LBP09,-1505,146,5,145,-1505,1716541800.8,2024-05-24 09:10:00.800000+00:00,2024-05-24 18:10:00.800000+09:00,2024,5,24,9,10,0,800,,,,,,,,,-0.129883,-0.06665,1.834473,27.282715,-63.537598,-35.217285,,,,,,,,,,,0.0,1.0,1.0,5.0,0.0,0.0,0.0,12.0,0.0,0.0063769466666666694,-0.05811192,1.0434993733333335,0.4687499866666667,-1.6650390133333322,2.6660156266666664,1.243778285641436,-3.4356725317095718,-7.261063896937685,-22.73906374102036,4.320884619214399,21.557761553282358,31.630241018666446,-1.4613320653890365,30.158915266711023,-1.3647362218935304,-0.13625994666666666,-0.008538080000000003,0.7909736266666665,0.9357716533333331,0.8026698885332054,0.6661723669626345,0.670648479113521,0.6692581938813097
LBP09_S05,LBP09,-1504,147,5,146,-1504,1716541800.84,2024-05-24 09:10:00.840000+00:00,2024-05-24 18:10:00.840000+09:00,2024,5,24,9,10,0,840,,,,,,,,,0.068115,-0.481689,1.378662,12.573242,56.45752,33.996582,,,,,,,,,,,0.0,1.0,1.0,5.0,0.0,0.0,0.0,12.0,0.0,0.011669920000000005,-0.05724602666666667,1.02624352,1.8408202933333333,1.313476600000001,3.5335286533333328,7.701111099413095,-8.867251444138297,-16.04652429138211,-22.431019297043836,3.966194561448867,20.915900581627074,30.92500967088171,-1.3694046935748143,29.661683985171333,-1.3307823185205996,0.05644507999999999,-0.4244429733333333,0.3524184800000001,0.8333065333333334,0.5545598883022081,0.65833371816014,0.6629453284648776,0.6704691163840253
LBP09_S05,LBP09,-1503,148,5,147,-1503,1716541800.88,2024-05-24 09:10:00.880000+00:00,2024-05-24 18:10:00.880000+09:00,2024,5,24,9,10,0,880,,,,,,,,,-0.373535,0.07959,-0.042969,59.692383,70.129395,25.20752,,,,,,,,,,,0.0,1.0,1.0,5.0,0.0,0.0,0.0,12.0,0.0,0.010670573333333336,-0.05589185333333333,1.0051074533333333,1.7211913866666668,2.513834680000001,4.316406253333333,14.92838154630594,-13.791726827869669,-23.988513948677262,-21.8338840351916,3.4145254883340805,19.956360023679984,29.77639638652418,-1.3818775857464762,28.862615013079857,-1.3264759655223792,-0.38420557333333333,0.13548185333333332,-1.0480764533333333,1.56776388,1.1244703229497919,0.6860595881894467,0.6703292495778497,0.6753875585835405
LBP09_S05,LBP09,-1502,149,5,148,-1502,1716541800.92,2024-05-24 09:10:00.920000+00:00,2024-05-24 18:10:00.920000+09:00,2024,5,24,9,10,0,920,,,,,,,,,-0.043701,0.0354,0.151367,69.396973,-61.584473,-64.51416,,,,,,,,,,,0.0,1.0,1.0,5.0,0.0,0.0,0.0,12.0,0.0,0.014332680000000002,-0.05584301333333334,1.0023372666666668,1.7740885200000003,0.498046920000001,3.7792968799999995,22.929902618355847,-17.170140873253615,-29.477154338026548,-20.916687930457364,2.727719853403936,18.777273850158924,28.240649830035018,-1.3192103774217336,27.80099084481966,-1.3437112189633873,-0.05803368,0.09124301333333334,-0.8509702666666668,1.0002469600000001,0.857813260708429,0.6890543000394972,0.6745902122730031,0.6765878945130225
LBP09_S05,LBP09,-1501,150,5,149,-1501,1716541800.96,2024-05-24 09:10:00.960000+00:00,2024-05-24 18:10:00.960000+09:00,2024,5,24,9,10,0,960,,,,,,,,,0.279053,0.048096,0.42749,-0.671387,-106.140137,-83.496094,,,,,,,,,,,0.0,1.0,1.0,5.0,0.0,0.0,0.0,12.0,0.0,0.022578120000000004,-0.055361240000000006,1.01122724,1.5397135199999998,-0.14892574666666566,3.5335286399999997,31.52015169717831,-17.98902755658909,-31.182770638773164,-19.655881862570233,2.0081587511403725,17.529963024607998,26.413746364520552,-1.183119682883354,26.54599010616016,-1.3443087893640828,0.25647488,0.10345724,-0.58373724,0.9436693600000001,0.6459349270183876,0.6829167964824491,0.676531996361918,0.6801316915980189
LBP09_S05,LBP09,-1500,151,5,150,-1500,1716541801.0,2024-05-24 09:10:01+00:00,2024-05-24 18:10:01+09:00,2024,5,24,9,10,1,0,9.0,10.0,0.0,40.567543,141.542648,13.842,3.0,14.0,0.624512,-0.095947,1.12793,-14.282227,1.159668,-86.547852,-287.0,139.0,251.0,242.0,0.0,1005.900024,20.110001,-0.070359,61.338036,3.832031,0.0,1.0,1.0,5.0,0.0,0.0,0.0,9.0,0.0,0.024674480000000002,-0.057083253333333334,1.0238834799999998,0.20914711999999971,1.3321940400000012,4.089355466666666,40.17915550090034,-15.594179366461288,-28.45149370282804,-18.04871564253422,1.3843915764819208,16.391903276494876,24.420629996133535,-1.1623377133426442,25.196626135880773,-1.3320358278271256,0.5998375199999999,-0.03886374666666667,0.10404652000000025,0.7427477866666669,0.6100337036007368,0.7017837947874517,0.6798774103787867,0.6760272909277184
LBP09_S05,LBP09,-1499,152,5,151,-1499,1716541801.04,2024-05-24 09:10:01.040000+00:00,2024-05-24 18:10:01.040000+09:00,2024,5,24,9,10,1,40,,,,,,,,,-0.166504,-0.71167,1.658936,19.53125,34.423828,30.090332,,,,,,,,,,,0.0,1.0,1.0,5.0,0.0,0.0,0.0,9.0,0.0,0.014628906666666669,-0.05526033333333333,1.0361425866666667,-0.24576824000000025,2.517089866666668,4.70052084,47.93036072421039,-9.966414342194547,-21.53516750954996,-16.131501213565805,0.985735002794139,15.530496576112878,22.414132345457016,-1.3116787561883787,23.869598802244205,-1.3282364009304033,-0.18113290666666668,-0.6564096666666667,0.6227934133333333,1.4603359866666668,0.9227970611474355,0.6991774705487872,0.6858302364191663,0.6807793234156474
LBP09_S05,LBP09,-1498,153,5,152,-1498,1716541801.08,2024-05-24 09:10:01.080000+00:00,2024-05-24 18:10:01.080000+09:00,2024,5,24,9,10,1,80,,,,,,,,,-0.396973,0.202637,1.826416,30.456543,-80.871582,-38.818359,,,,,,,,,,,0.0,1.0,1.0,5.0,0.0,0.0,0.0,9.0,0.0,0.008863933333333336,-0.05895174666666667,1.0458268400000001,-0.25878906666666696,0.9415690266666676,4.558105466666666,53.37403225865764,-1.8199325726694329,-11.554604270144788,-13.9965399232195,0.9129376998873616,15.068312405307086,20.586175550841986,-1.4213270572320402,22.67752754740208,-1.3077013623085016,-0.40583693333333337,0.2615887466666667,0.7805891599999999,1.44801484,0.9178516903887836,0.7135426162438325,0.6934680089322041,0.6857795046849544
LBP09_S05,LBP09,-1497,154,5,153,-1497,1716541801.12,2024-05-24 09:10:01.120000+00:00,2024-05-24 18:10:01.120000+09:00,2024,5,24,9,10,1,120,,,,,,,,,-0.063477,-0.542725,2.20166,-7.93457,-29.35791,16.357422,,,,,,,,,,,0.0,1.0,1.0,5.0,0.0,0.0,0.0,9.0,0.0,0.013750000000000004,-0.053378826666666664,1.0377669466666666,-0.4125976533333336,1.6227213733333343,4.020182293333333,54.963436306566464,7.514298053704519,-0.20635377118246837,-11.79800247095684,1.2135096220355424,15.060058254459788,19.16952849016373,-1.318386300479918,21.710404319444013,-1.279093397615269,-0.077227,-0.48934617333333336,1.1638930533333334,1.7304662266666666,1.2649390208553795,0.7428722682686494,0.7104527501610883,0.6977746275636102
LBP09_S05,LBP09,-1496,155,5,154,-1496,1716541801.16,2024-05-24 09:10:01.160000+00:00,2024-05-24 18:10:01.160000+09:00,2024,5,24,9,10,1,160,,,,,,,,,-0.162109,0.096436,1.04541,190.734863,188.964844,38.94043,,,,,,,,,,,0.0,1.0,1.0,5.0,0.0,0.0,0.0,9.0,0.0,0.008756506666666667,-0.04841789333333334,1.0125781466666668,-0.6038411333333334,3.8810221600000014,3.910319013333333,51.48741178738133,16.379860354046336,10.67777693731263,-9.738505999461587,1.868704036197396,15.487169331952293,18.38975170558356,-1.39168404601286,21.02890589384012,-1.2671177149327937,-0.17086550666666667,0.14485389333333332,0.03283185333333316,0.34855125333333314,0.2263970016930059,0.7289302475835662,0.6982868435573802,0.6908491564461631
LBP09_S05,LBP09,-1495,156,5,155,-1495,1716541801.2,2024-05-24 09:10:01.200000+00:00,2024-05-24 18:10:01.200000+09:00,2024,5,24,9,10,1,200,,,,,,,,,0.148682,0.080322,0.21167,144.958496,-33.508301,66.101074,,,,,,,,,,,0.0,1.0,1.0,5.0,0.0,0.0,0.0,9.0,0.0,0.006923813333333335,-0.046663333333333334,0.9975813999999998,-0.9138997333333335,3.224283880000001,3.2820638,42.58409659495414,23.16720437634323,19.56906612917737,-8.035142135663422,2.795392211251125,16.269931977119388,18.359967682300784,-1.4233377964218141,20.666929752355017,-1.2928939436753488,0.14175818666666667,0.12698533333333334,-0.7859113999999998,1.05465492,0.8086268527687903,0.7279371155961184,0.7052075907524304,0.6907196987746973
LBP09_S05,LBP09,-1494,157,5,156,-1494,1716541801.24,2024-05-24 09:10:01.240000+00:00,2024-05-24 18:10:01.240000+09:00,2024,5,24,9,10,1,240,,,,,,,,,0.364014,0.076904,0.90625,28.381348,-34.851074,-9.521484,,,,,,,,,,,0.0,1.0,1.0,5.0,0.0,0.0,0.0,9.0,0.0,0.019895813333333335,-0.04622713333333334,1.00493816,-2.0312500000000004,1.2809245066666677,2.678222653333333,29.040020245336212,26.652939603859284,25.54679716444787,-6.873541325849974,3.8615097954054964,17.291803863697304,19.00429712246041,-1.1640543073557994,20.636795520693667,-1.3192412235329556,0.34411818666666666,0.12313113333333334,-0.09868816000000002,0.56593748,0.3785735797898363,0.7211565766960287,0.700789157007194,0.6943781747630797
LBP09_S05,LBP09,-1493,158,5,157,-1493,1716541801.28,2024-05-24 09:10:01.280000+00:00,2024-05-24 18:10:01.280000+09:00,2024,5,24,9,10,1,280,,,,,,,,,0.192383,-0.240723,1.5,-89.96582,62.011719,36.804199,,,,,,,,,,,0.0,1.0,1.0,5.0,0.0,0.0,0.0,9.0,0.0,0.025345040000000003,-0.04932609333333333,1.0175455866666667,-3.889160146666667,2.679036480000001,2.6985677066666667,12.696903008447977,26.228012739700464,28.39842969846165,-6.365665205512055,4.910630304993515,18.42774105163577,20.105164106943512,-1.095797938814148,20.932307344277017,-1.3365876894676199,0.16703795999999999,-0.19139690666666667,0.4824544133333333,0.84088928,0.5452492245820632,0.7210752934678176,0.7003496141120327,0.686570801185356
LBP09_S05,LBP09,-1492,159,5,158,-1492,1716541801.32,2024-05-24 09:10:01.320000+00:00,2024-05-24 18:10:01.320000+09:00,2024,5,24,9,10,1,320,,,,,,,,,-0.312988,-0.159424,1.90625,4.638672,25.57373,13.305664,,,,,,,,,,,0.0,1.0,1.0,5.0,0.0,0.0,0.0,9.0,0.0,0.019749333333333337,-0.05076816,1.0327832266666668,-5.0187174400000005,4.336751333333334,2.7807617199999997,-4.018780609588796,22.0040790153667,28.52252063455365,-6.526416429895607,5.790793465608183,19.568641877017917,21.42566557399609,-1.1994535505969808,21.52749960647897,-1.3434491331801517,-0.33273733333333333,-0.10865584,0.8734667733333332,1.3148599466666666,0.9409911947926123,0.7196514844674762,0.7007539783049002,0.6912785000143176
LBP09_S05,LBP09,-1491,160,5,159,-1491,1716541801.36,2024-05-24 09:10:01.360000+00:00,2024-05-24 18:10:01.360000+09:00,2024,5,24,9,10,1,360,,,,,,,,,-0.063477,-0.115723,2.05127,-78.613281,-28.686523,20.263672,,,,,,,,,,,0.0,1.0,1.0,5.0,0.0,0.0,0.0,9.0,0.0,0.006982413333333337,-0.05351230666666666,1.045693386666667,-6.5348307199999995,3.397623733333334,2.48453776,-18.73785993314046,14.817968614539316,26.703855012834477,-7.2759308272212255,6.383512210189756,20.636796077531297,22.79398494966953,-1.440881970308904,22.372540907483103,-1.3573551812220657,-0.07045941333333335,-0.062210693333333345,1.0055766133333333,1.13824672,1.0099599123604994,0.7368864390845377,0.7060913475941316,0.6977318928086245
LBP09_S05,LBP09,-1490,161,5,160,-1490,1716541801.4,2024-05-24 09:10:01.400000+00:00,2024-05-24 18:10:01.400000+09:00,2024,5,24,9,10,1,400,,,,,,,,,-0.037109,0.093018,1.228271,-35.27832,97.900391,14.160156,,,,,,,,,,,0.0,1.0,1.0,5.0,0.0,0.0,0.0,9.0,0.0,0.007845053333333338,-0.05379876000000001,1.0473795866666669,-5.679524733333334,2.9484049866666675,1.1140950533333331,-29.698579876667996,6.131991444728971,23.849720836855695,-8.463874022287946,6.628791867978915,21.590784911005525,24.119287679520056,-1.4258105119187123,23.393113389161737,-1.3454575460843399,-0.04495405333333334,0.14681676000000002,0.18089141333333303,0.3726622266666664,0.2372714296870243,0.7214879421360506,0.7019568970676469,0.6946054793693832
LBP09_S05,LBP09,-1489,162,5,161,-1489,1716541801.44,2024-05-24 09:10:01.440000+00:00,2024-05-24 18:10:01.440000+09:00,2024,5,24,9,10,1,440,,,,,,,,,-0.523926,0.10791,0.006104,-63.049316,55.419922,47.729492,,,,,,,,,,,0.0,1.0,1.0,5.0,0.0,0.0,0.0,9.0,0.0,0.004576826666666671,-0.05337558666666666,1.0245638400000001,-5.240885413333333,5.167643266666667,1.7179361999999996,-36.0274958166073,-2.198787405367427,20.759020125986027,-9.904973854952239,6.540840371764218,22.421145716044965,25.369250581290522,-1.4851434155350227,24.50059494092834,-1.3457306173679677,-0.5285028266666667,0.16128558666666667,-1.01845984,1.7082482533333334,1.158701309205221,0.7543598837578184,0.7040420816415724,0.7005122784607436
LBP09_S05,LBP09,-1488,163,5,162,-1488,1716541801.48,2024-05-24 09:10:01.480000+00:00,2024-05-24 18:10:01.480000+09:00,2024,5,24,9,10,1,480,,,,,,,,,0.01001,-0.124756,0.275635,64.39209,-82.336426,-8.850098,,,,,,,,,,,0.0,1.0,1.0,5.0,0.0,0.0,0.0,9.0,0.0,0.004225266666666671,-0.05221347999999999,1.00426436,-4.928385413333334,5.524088586666667,1.9295247333333332,-37.72170442358601,-8.306606796167705,17.96533260494086,-11.41384203189568,6.20857609991751,23.1397590202426,26.53809817286149,-1.4899414943573568,25.611191278359815,-1.3977883726701028,0.005784733333333329,-0.07254252000000001,-0.72862936,0.8069566133333334,0.7322544807658726,0.7514964335134543,0.7038355400286862,0.698951813075319
LBP09_S05,LBP09,-1487,164,5,163,-1487,1716541801.52,2024-05-24 09:10:01.520000+00:00,2024-05-24 18:10:01.520000+09:00,2024,5,24,9,10,1,520,,,,,,,,,0.390625,0.251465,0.498535,3.356934,-93.200684,-3.723145,,,,,,,,,,,0.0,1.0,1.0,5.0,0.0,0.0,0.0,9.0,0.0,0.00551758666666667,-0.04852533333333333,0.9994108399999999,-4.200846360000001,3.245442760000001,1.1767577999999999,-35.42945702933588,-10.783099031783888,15.670061149042375,-12.831020313069114,5.777252138646154,23.766561466204294,27.619941500205076,-1.4574467808990592,26.66144872058174,-1.4484701796000918,0.3851074133333333,0.2999903333333333,-0.50087584,1.1859735866666665,0.6994129874354928,0.7412864716334521,0.7073677012546655,0.7005426705771353
LBP09_S05,LBP09,-1486,165,5,164,-1486,1716541801.56,2024-05-24 09:10:01.560000+00:00,2024-05-24 18:10:01.560000+09:00,2024,5,24,9,10,1,560,,,,,,,,,0.52832,-0.040527,0.932861,-99.54834,-17.456055,42.96875,,,,,,,,,,,0.0,1.0,1.0,5.0,0.0,0.0,0.0,9.0,0.0,0.01410482666666667,-0.04595046666666667,1.0127083600000002,-4.9495442800000005,3.6881510933333344,0.6917317599999998,-30.17788287341412,-9.09747736067785,13.76669256583495,-14.03813562800568,5.41335304421904,24.31722916883769,28.59547652236991,-1.2727076946356017,27.611639472397293,-1.492768343869366,0.5142151733333333,0.005423466666666668,-0.07984736000000014,0.5994860000000002,0.5204058602436027,0.7489786097103807,0.7106331122400329,0.6899383645015611
LBP09_S05,LBP09,-1485,166,5,165,-1485,1716541801.6,2024-05-24 09:10:01.600000+00:00,2024-05-24 18:10:01.600000+09:00,2024,5,24,9,10,1,600,,,,,,,,,0.128418,-0.314697,1.43042,-52.185059,42.96875,23.803711,,,,,,,,,,,0.0,1.0,1.0,5.0,0.0,0.0,0.0,9.0,0.0,0.007122400000000004,-0.048922466666666664,1.0276204666666666,-5.6526692800000005,4.680175826666668,0.7438150933333333,-23.152986264215258,-3.7857067710034165,11.94308840835642,-14.96425507857429,5.261924773378903,24.794952705171948,29.434783199966816,-1.4260685092580911,28.44003485128264,-1.5161766065255633,0.1212956,-0.26577453333333334,0.4027995333333334,0.7898696666666667,0.49759038294712077,0.721987170076462,0.7047495847743247,0.6863505658497434
LBP09_S05,LBP09,-1484,167,5,166,-1484,1716541801.64,2024-05-24 09:10:01.640000+00:00,2024-05-24 18:10:01.640000+09:00,2024,5,24,9,10,1,640,,,,,,,,,-0.164307,0.134521,1.771484,7.568359,-48.339844,-27.648926,,,,,,,,,,,0.0,1.0,1.0,5.0,0.0,0.0,0.0,9.0,0.0,-0.005624999999999996,-0.04925449333333333,1.0371386933333333,-4.941406266666667,2.298177120000001,0.14973957333333335,-15.542103467213904,3.6840382473477558,9.8314247205796,-15.585939217262846,5.409286303272813,25.18820969399513,30.110260496775133,-1.6846318603771506,29.135070592895914,-1.5270983929613875,-0.15868200000000002,0.18377549333333332,0.7343453066666668,1.0768028,0.7734445283905439,0.7244083330083927,0.7047089321359192,0.689936980706933
LBP09_S05,LBP09,-1483,168,5,167,-1483,1716541801.68,2024-05-24 09:10:01.680000+00:00,2024-05-24 18:10:01.680000+09:00,2024,5,24,9,10,1,680,,,,,,,,,-0.084961,-0.352295,2.093994,-55.114746,4.760742,18.798828,,,,,,,,,,,0.0,1.0,1.0,5.0,0.0,0.0,0.0,9.0,0.0,-0.0015755199999999963,-0.04955397333333334,1.0346907866666668,-4.201660173333334,1.7805989866666676,0.0016275999999999632,-8.39210125617325,11.328475650237252,7.165790344181146,-15.921623267509776,5.862425329282303,25.474841307762375,30.607738529162777,-1.6026160081140393,29.690110391094926,-1.5245538572819721,-0.08338548,-0.3027410266666667,1.059303213333333,1.44542972,1.104865858500634,0.7390833580816661,0.7169310501846948,0.69820398792729
LBP09_S05,LBP09,-1482,169,5,168,-1482,1716541801.72,2024-05-24 09:10:01.720000+00:00,2024-05-24 18:10:01.720000+09:00,2024,5,24,9,10,1,720,,,,,,,,,-0.115479,-0.244141,1.141357,58.532715,144.65332,29.47998,,,,,,,,,,,0.0,1.0,1.0,5.0,0.0,0.0,0.0,9.0,0.0,-0.003629559999999996,-0.05064121333333333,1.0097656533333335,-3.335774760000001,3.5449219066666675,0.7128906133333334,-2.461869349948662,17.20414411453639,3.9102250451997613,-16.020098041507723,6.550591093863758,25.631250309570365,30.92757309215157,-1.64243519328972,30.10251559742598,-1.5319616611139713,-0.11184944000000001,-0.19349978666666667,0.1315913466666665,0.4369405733333332,0.259362193054242,0.7349180371305667,0.6990424725482609,0.692701781476088
LBP09_S05,LBP09,-1481,170,5,169,-1481,1716541801.76,2024-05-24 09:10:01.760000+00:00,2024-05-24 18:10:01.760000+09:00,2024,5,24,9,10,1,760,,,,,,,,,-0.535645,0.072021,0.044189,73.608398,39.245605,29.663086,,,,,,,,,,,0.0,1.0,1.0,5.0,0.0,0.0,0.0,9.0,0.0,-0.004951173333333329,-0.047412053333333336,0.9911230666666665,-3.484700546666667,3.3748372666666677,-0.020345066666666866,1.8863214096878251,19.915838547829257,0.32367531940569555,-15.94464518512021,7.347224635776929,25.644197322346592,31.077938738523066,-1.6749645968708802,30.376441764139418,-1.56487943131016,-0.5306938266666668,0.11943305333333334,-0.9469340666666665,1.5970609466666665,1.0920550895007557,0.747449265968867,0.7024644371905409,0.6934991903169513
LBP09_S05,LBP09,-1480,171,5,170,-1480,1716541801.8,2024-05-24 09:10:01.800000+00:00,2024-05-24 18:10:01.800000+09:00,2024,5,24,9,10,1,800,,,,,,,,,0.284912,0.346436,0.493652,22.766113,-63.659668,-37.109375,,,,,,,,,,,0.0,1.0,1.0,5.0,0.0,0.0,0.0,9.0,0.0,0.001800120000000004,-0.05037104,0.9917024933333333,-4.947916693333334,1.2866211200000008,-1.255696626666667,4.676991407497737,18.918447454969236,-3.0670392865393574,-15.757565528820301,8.103962533975698,25.52151575088502,31.069645095652763,-1.5350283762769525,30.527044510801865,-1.6166208961532689,0.28311188,0.39680704,-0.4980504933333333,1.1779694133333334,0.6968948683268321,0.7432182651606121,0.7046953160616232,0.6948384077958846
LBP09_S05,LBP09,-1479,172,5,171,-1479,1716541801.84,2024-05-24 09:10:01.840000+00:00,2024-05-24 18:10:01.840000+09:00,2024,5,24,9,10,1,840,,,,,,,,,0.516113,-0.047119,1.131836,-106.628418,12.451172,-29.11377,,,,,,,,,,,0.0,1.0,1.0,5.0,0.0,0.0,0.0,9.0,0.0,0.005989573333333338,-0.05376622666666666,1.0049739733333334,-4.991862,2.230631533333334,-2.86865236,6.154166078688683,14.542791690930867,-5.592127545009141,-15.511398885672754,8.685674201612933,25.297830649084652,30.919648563280617,-1.4596980587408703,30.583000406677105,-1.6551997777849565,0.5101234266666667,0.0066472266666666585,0.12686202666666668,0.64363268,0.5257034048458067,0.742064005822356,0.7001988619912478,0.6893182209173704
LBP09_S05,LBP09,-1478,173,5,172,-1478,1716541801.88,2024-05-24 09:10:01.880000+00:00,2024-05-24 18:10:01.880000+09:00,2024,5,24,9,10,1,880,,,,,,,,,-0.02124,-0.678955,1.501709,-46.447754,59.692383,47.912598,,,,,,,,,,,0.0,1.0,1.0,5.0,0.0,0.0,0.0,9.0,0.0,0.0004101466666666709,-0.06062820000000001,1.0195833466666666,-4.69726564,4.258626320000001,-2.8702799733333335,6.522774848494475,7.794451604774881,-6.628336333283939,-15.250487891732975,8.997452265803929,25.032697195753293,30.662150236172106,-1.5640195326773474,30.585088627766748,-1.668048765235519,-0.02165014666666667,-0.6183268,0.48212565333333335,1.1221025999999998,0.784373575569079,0.7284601359271276,0.7072598620582872,0.6897062116942756
LBP09_S05,LBP09,-1477,174,5,173,-1477,1716541801.92,2024-05-24 09:10:01.920000+00:00,2024-05-24 18:10:01.920000+09:00,2024,5,24,9,10,1,920,,,,,,,,,-0.564697,0.029297,1.71167,17.944336,-60.119629,-40.161133,,,,,,,,,,,0.0,1.0,1.0,5.0,0.0,0.0,0.0,9.0,0.0,-0.012194026666666665,-0.055696560000000006,1.0270898533333332,-4.169108080000001,3.1860351733333343,-4.172363306666667,5.754165932112008,0.04273354359420142,-5.794115448018925,-15.020321254448495,8.999161607547697,24.800932577832537,30.359203167339437,-1.7866244828609472,30.580751945494704,-1.6854070510571746,-0.5525029733333333,0.08499356000000001,0.6845801466666668,1.3220766800000001,0.8838175252809839,0.7295003065100297,0.7092773032747633,0.6928935770186787
LBP09_S05,LBP09,-1476,175,5,174,-1476,1716541801.96,2024-05-24 09:10:01.960000+00:00,2024-05-24 18:10:01.960000+09:00,2024,5,24,9,10,1,960,,,,,,,,,-0.026855,-0.083984,1.630615,37.17041,-75.134277,-39.245605,,,,,,,,,,,0.0,1.0,1.0,5.0,0.0,0.0,0.0,9.0,0.0,-0.013496119999999995,-0.06064448,1.02906576,-3.550618493333334,2.399902360000001,-4.590657586666667,3.5917507156359547,-7.291518205620402,-3.0927981287144033,-14.876651225823057,8.70750087932288,24.67722065268396,30.101503988994356,-1.7901223430666893,30.616659473212234,-1.6716671013933493,-0.013358880000000005,-0.023339520000000002,0.60154924,0.63824764,0.6021500485869468,0.7277489113727721,0.7053328539276106,0.693604301365536
LBP09_S05,LBP09,-1475,176,5,175,-1475,1716541802.0,2024-05-24 09:10:02+00:00,2024-05-24 18:10:02+09:00,2024,5,24,9,10,2,0,9.0,10.0,1.0,40.567589,141.542786,13.325,3.0,14.0,-0.166748,-0.148682,0.577637,23.681641,129.882812,20.507812,-292.0,137.0,254.0,194.0,0.0,1006.200012,20.18,-0.067386,58.827442,3.832031,0.0,1.0,1.0,5.0,0.0,0.0,0.0,4.0,0.0,-0.014876333333333332,-0.06061518666666667,1.00507812,-1.725260413333334,3.3072916800000005,-4.53043624,-0.23497763022532117,-12.985786678859654,1.0407544440373953,-14.88605033103207,8.188069412168495,24.718850830445458,29.994342158719256,-1.811857325574969,30.731916130434154,-1.6600092727515565,-0.15187166666666668,-0.08806681333333334,-0.4274411200000001,0.6673796000000001,0.4620894694901127,0.7218311420083471,0.7118074683978993,0.69386198758864
LBP09_S05,LBP09,-1474,177,5,176,-1474,1716541802.04,2024-05-24 09:10:02.040000+00:00,2024-05-24 18:10:02.040000+09:00,2024,5,24,9,10,2,40,,,,,,,,,-0.12085,0.263672,-0.093506,9.94873,-12.573242,-11.230469,,,,,,,,,,,0.0,1.0,1.0,5.0,0.0,0.0,0.0,4.0,0.0,-0.015019559999999996,-0.060872346666666674,0.9826041600000001,0.04150390666666605,3.3935546933333347,-3.6832682666666665,-5.713012079882742,-16.189743683852846,5.815890655067808,-15.11457081422738,7.540479664814382,24.95148645664817,30.131142707671582,-1.8131217348827755,30.95351975668562,-1.6826230060942915,-0.10583044,0.3245443466666667,-1.07611016,1.5064849466666668,1.1289562398246944,0.7300775091554373,0.7146274898521123,0.7005793273312565
LBP09_S05,LBP09,-1473,178,5,177,-1473,1716541802.08,2024-05-24 09:10:02.080000+00:00,2024-05-24 18:10:02.080000+09:00,2024,5,24,9,10,2,80,,,,,,,,,-0.00415,-0.159912,0.303223,6.652832,-84.594727,26.367188,,,,,,,,,,,0.0,1.0,1.0,5.0,0.0,0.0,0.0,4.0,0.0,-0.011611359999999998,-0.05582026666666667,0.9726106800000001,1.0961914133333328,1.5755208266666678,-3.2666016,-12.334524098228465,-16.544234446545705,10.275140278433541,-15.607951778156519,6.878710286952553,25.36249206778551,30.564371706442277,-1.776198866330595,31.294130722587944,-1.7139178593871924,0.007461359999999998,-0.10409173333333333,-0.66938768,0.7809407733333333,0.6774737094361447,0.7204623899173319,0.7170025030805821,0.7024661359272467
LBP09_S05,LBP09,-1472,179,5,178,-1472,1716541802.12,2024-05-24 09:10:02.120000+00:00,2024-05-24 18:10:02.120000+09:00,2024,5,24,9,10,2,120,,,,,,,,,0.472656,0.00293,0.719238,13.671875,-84.899902,27.404785,,,,,,,,,,,0.0,1.0,1.0,5.0,0.0,0.0,0.0,4.0,0.0,0.0038280933333333348,-0.05822912,0.9875748666666666,1.8619791733333326,0.8105468666666675,-3.1111654000000004,-19.091576219039588,-14.252864544527604,13.542040464616496,-16.3716148269181,6.308595705171449,25.90417368637017,31.28664836932689,-1.505035696651466,31.75145502030141,-1.7361818464912098,0.4688279066666667,0.061159120000000004,-0.26833686666666656,0.7983238933333332,0.5436402468922876,0.6916104389588082,0.7172413536137288,0.7041719797603284
LBP09_S05,LBP09,-1471,180,5,179,-1471,1716541802.16,2024-05-24 09:10:02.160000+00:00,2024-05-24 18:10:02.160000+09:00,2024,5,24,9,10,2,160,,,,,,,,,0.263428,0.126953,0.893555,-53.771973,40.771484,49.499512,,,,,,,,,,,0.0,1.0,1.0,5.0,0.0,0.0,0.0,4.0,0.0,0.0006640266666666679,-0.05358069333333333,1.0040136666666666,1.0872395999999993,2.2078450533333345,-3.2226562800000003,-24.70229367336032,-10.06242848635298,15.043782785066236,-17.359706573852513,5.90609856571733,26.50592499777282,32.23050531074225,-1.5583863104529532,32.3087408540992,-1.7334127768508156,0.26276397333333334,0.18053369333333336,-0.1104586666666666,0.5537563333333333,0.33739952156497277,0.6960505397536869,0.7124903936686267,0.6975414089561491
LBP09_S05,LBP09,-1470,181,5,180,-1470,1716541802.2,2024-05-24 09:10:02.200000+00:00,2024-05-24 18:10:02.200000+09:00,2024,5,24,9,10,2,200,,,,,,,,,-0.031006,0.046143,1.351807,-51.757812,25.268555,13.48877,,,,,,,,,,,0.0,1.0,1.0,5.0,0.0,0.0,0.0,4.0,0.0,-0.010934279999999998,-0.056826133333333334,1.0214225333333333,0.06673178666666596,2.3437500000000013,-3.7491862266666667,-27.996763378409046,-5.097598931580296,14.628955539410562,-18.479577108988874,5.702194608454118,27.09108321934924,33.28568135816743,-1.7611657097043032,32.93642804500702,-1.7264503085906076,-0.02007172,0.10296913333333334,0.33038446666666665,0.45342532,0.34664017680845066,0.6775710727152733,0.7027540941556958,0.6959954180733781
LBP09_S05,LBP09,-1469,182,5,181,-1469,1716541802.24,2024-05-24 09:10:02.240000+00:00,2024-05-24 18:10:02.240000+09:00,2024,5,24,9,10,2,240,,,,,,,,,-0.327393,-0.104736,1.647705,-104.431152,-41.19873,1.89209,,,,,,,,,,,0.0,1.0,1.0,5.0,0.0,0.0,0.0,4.0,0.0,-0.013053426666666666,-0.06390621333333334,1.0278222666666665,0.505371106666666,1.987304680000001,-4.261881533333334,-28.31705554577673,-0.5612912716083887,12.540595342841089,-19.612259330819942,5.679742957589782,27.592707033062883,34.32575822230388,-1.7726465916698777,33.595292090176514,-1.6982150788007448,-0.31433957333333334,-0.04082978666666666,0.6198827333333334,0.9750520933333334,0.6962262864381322,0.6902771809812052,0.705716878838617,0.6972851649985311
LBP09_S05,LBP09,-1468,183,5,182,-1468,1716541802.28,2024-05-24 09:10:02.280000+00:00,2024-05-24 18:10:02.280000+09:00,2024,5,24,9,10,2,280,,,,,,,,,0.081055,-0.098633,1.400391,-26.794434,-2.258301,-38.269043,,,,,,,,,,,0.0,1.0,1.0,5.0,0.0,0.0,0.0,4.0,0.0,-0.013681679999999998,-0.06250647999999999,1.0141080666666669,1.8766276133333326,3.8883463466666672,-4.10156252,-25.764665685765564,2.608313952714903,9.26668785431594,-20.642845958250565,5.784075515698378,27.96337454723552,35.235393213306736,-1.7866594037175214,34.241300738797904,-1.6766993865305495,0.09473668,-0.03612652000000001,0.3862829333333331,0.5171461333333331,0.39936783617279076,0.6844419254448342,0.7027586094563258,0.6950470512229665
