file_name,test_id,_program_index,program_index,session_id,index,_index,unixtime,datetime_utc,datetime_jst,rtc_year,rtc_month,rtc_day,rtc_hour,rtc_min,rtc_sec,rtc_msec,gps_hour,gps_min,gps_sec,latitude,longitude,altitude,fix_type,SIV,acc_x,acc_y,acc_z,gyro_x,gyro_y,gyro_z,mag_x,mag_y,mag_z,illuminance,atmopress,water_pressure,water_temp,depth,alt_wps,battery_level,behavior_class,camera_command,camera_recording,camera_count,play_audio,speaker_on,audio_file,prev_sd_write_time_ms,delay_occurred_counter,acc_x_ma,acc_y_ma,acc_z_ma,gyro_x_ma,gyro_y_ma,gyro_z_ma,gyro_x_lowpass,gyro_y_lowpass,gyro_z_lowpass,angle_x,angle_y,angle_z,combined_angle_change,gravity_adjusted_angle,smoothed_angle_change,smoothed_gravity_angle,acc_x_dy,acc_y_dy,acc_z_dy,ODBA,VeDBA,smoothed_VeDBA_1s,smoothed_VeDBA_2s,smoothed_VeDBA_3s
LBP09_S02,LBP09,-1650,1,2,0,-1650,1716537824.0,2024-05-24 08:03:44+00:00,2024-05-24 17:03:44+09:00,2024,5,24,8,3,44,0,8.0,3.0,43.0,40.544762,141.51384,-2.245,3.0,14.0,0.317627,-0.22583,0.748779,-40.527344,-95.214844,5.859375,-281.0,141.0,249.0,163.0,0.0,1008.099976,25.219999,-0.048558,42.940746,3.909375,0.0,1.0,1.0,2.0,0.0,0.0,0.0,5.0,0.0,,,,,,,-40.29503916529753,-94.81650680296649,5.723462267404243,-1.6118015666119012,-3.7926602721186597,0.22893849069616973,4.127298034109241,,6.662233835358618,,,,,,,,,
LBP09_S02,LBP09,-1649,2,2,1,-1649,1716537824.04,2024-05-24 08:03:44.040000+00:00,2024-05-24 17:03:44.040000+09:00,2024,5,24,8,3,44,40,,,,,,,,,0.42041,-0.118896,1.256592,-48.583984,22.521973,13.366699,,,,,,,,,,,0.0,1.0,1.0,2.0,0.0,0.0,0.0,5.0,0.0,,,,,,,-22.64091160908923,-58.196482124278944,7.433143999065543,-2.5174380309754705,-6.120519557089818,0.5262642506587915,6.638916172843429,,6.580891293921826,,,,,,,,,
LBP09_S02,LBP09,-1648,3,2,2,-1648,1716537824.08,2024-05-24 08:03:44.080000+00:00,2024-05-24 17:03:44.080000+09:00,2024,5,24,8,3,44,80,,,,,,,,,-0.166016,-0.31958,1.855469,18.127441,52.67334,17.272949,,,,,,,,,,,0.0,1.0,1.0,2.0,0.0,0.0,0.0,5.0,0.0,,,,,,,-7.182211005823483,-25.67613522689862,8.870547258837146,-2.8047264712084097,-7.1475649661657625,0.8810861410122772,7.728550207622466,,6.406534927881736,,,,,,,,,
LBP09_S02,LBP09,-1647,4,2,3,-1647,1716537824.12,2024-05-24 08:03:44.120000+00:00,2024-05-24 17:03:44.120000+09:00,2024,5,24,8,3,44,120,,,,,,,,,-0.290771,-0.116699,2.031006,25.512695,-29.968262,-0.976562,,,,,,,,,,,0.0,1.0,1.0,2.0,0.0,0.0,0.0,5.0,0.0,,,,,,,4.368320861553419,-0.37814780929806574,9.908745662818271,-2.629993636746273,-7.162690878537685,1.2774359675250082,7.736462357042745,,6.212047756480481,,,,,,,,,
LBP09_S02,LBP09,-1646,5,2,4,-1646,1716537824.16,2024-05-24 08:03:44.160000+00:00,2024-05-24 17:03:44.160000+09:00,2024,5,24,8,3,44,160,,,,,,,,,0.009521,-0.143311,1.637939,49.804688,66.650391,8.300781,,,,,,,,,,,0.0,1.0,1.0,2.0,0.0,0.0,0.0,5.0,0.0,,,,,,,11.11069342130901,16.156986965622895,10.529297038505582,-2.1855658998939123,-6.516411399912769,1.6986078490652314,7.079942405175214,,6.044824710080121,,,,,,,,,
LBP09_S02,LBP09,-1645,6,2,5,-1645,1716537824.2,2024-05-24 08:03:44.200000+00:00,2024-05-24 17:03:44.200000+09:00,2024,5,24,8,3,44,200,,,,,,,,,-0.519043,0.196777,0.160156,26.733398,97.839355,30.944824,,,,,,,,,,,0.0,1.0,1.0,2.0,0.0,0.0,0.0,5.0,0.0,,,,,,,13.097032296877096,24.129766233900547,10.821960193759043,-1.6616846080188283,-5.551220750556747,2.131486256815593,6.174178586737854,,5.928770633719649,,,,,,,,,
LBP09_S02,LBP09,-1644,7,2,6,-1644,1716537824.24,2024-05-24 08:03:44.240000+00:00,2024-05-24 17:03:44.240000+09:00,2024,5,24,8,3,44,240,,,,,,,,,0.048828,-0.001953,0.269287,1.220703,-55.053711,-0.427246,,,,,,,,,,,0.0,1.0,1.0,2.0,0.0,0.0,0.0,5.0,0.0,,,,,,,11.212251666572953,25.152421116666126,10.957788932922586,-1.2131945413559102,-4.545123905890103,2.5697978141324964,5.360396731641198,,6.046617582962411,,,,,,,,,
LBP09_S02,LBP09,-1643,8,2,7,-1643,1716537824.28,2024-05-24 08:03:44.280000+00:00,2024-05-24 17:03:44.280000+09:00,2024,5,24,8,3,44,280,,,,,,,,,0.259033,-0.219238,0.686768,-47.668457,-103.088379,5.493164,,,,,,,,,,,0.0,1.0,1.0,2.0,0.0,0.0,0.0,5.0,0.0,,,,,,,6.8377528529889595,21.59214905103374,11.140284255154866,-0.9396844272363518,-3.6814379438487532,3.015409184338691,4.850637556671698,,5.973040658139043,,,,,,,,,
LBP09_S02,LBP09,-1642,9,2,8,-1642,1716537824.32,2024-05-24 08:03:44.320000+00:00,2024-05-24 17:03:44.320000+09:00,2024,5,24,8,3,44,320,,,,,,,,,0.45459,0.063721,1.140869,-12.084961,10.009766,10.192871,,,,,,,,,,,0.0,1.0,1.0,2.0,0.0,0.0,0.0,5.0,0.0,,,,,,,1.423498523151437,15.853061630730409,11.544552750170253,-0.8827444863102943,-3.047315478619537,3.4771912943455012,4.707040338877243,,5.8617216532114025,,,,,,,,,
LBP09_S02,LBP09,-1641,10,2,9,-1641,1716537824.36,2024-05-24 08:03:44.360000+00:00,2024-05-24 17:03:44.360000+09:00,2024,5,24,8,3,44,360,,,,,,,,,-0.086914,-0.299072,1.759521,-28.259277,55.297852,26.733398,,,,,,,,,,,0.0,1.0,1.0,2.0,0.0,0.0,0.0,5.0,0.0,,,,,,,-3.8746117225840973,9.86085339926375,12.259332679044011,-1.0377289552136582,-2.6528813426489872,3.9675646015072616,4.884283946475409,,5.826291836286825,,,,,,,,,
LBP09_S02,LBP09,-1640,11,2,10,-1640,1716537824.4,2024-05-24 08:03:44.400000+00:00,2024-05-24 17:03:44.400000+09:00,2024,5,24,8,3,44,400,,,,,,,,,-0.240723,-0.128662,2.055176,15.014648,-21.179199,4.150391,,,,,,,,,,,0.0,1.0,1.0,2.0,0.0,0.0,0.0,5.0,0.0,,,,,,,-8.377826610758623,4.881239293642087,13.24564358203844,-1.3728420196440032,-2.4576317709033035,4.4973903447887995,5.305767526536858,,5.9330119742413086,,,,,,,,,
LBP09_S02,LBP09,-1639,12,2,11,-1639,1716537824.44,2024-05-24 08:03:44.440000+00:00,2024-05-24 17:03:44.440000+09:00,2024,5,24,8,3,44,440,,,,,,,,,0.05957,-0.140869,1.49707,5.187988,83.129883,10.070801,,,,,,,,,,,0.0,1.0,1.0,2.0,0.0,0.0,0.0,5.0,0.0,,,,,,,-11.866351997376295,1.6150360120682552,14.321177171775979,-1.847496099539055,-2.393030330420573,5.070237431659839,5.903146924609736,,6.202325928696024,,,,,,,,,
LBP09_S02,LBP09,-1638,13,2,12,-1638,1716537824.48,2024-05-24 08:03:44.480000+00:00,2024-05-24 17:03:44.480000+09:00,2024,5,24,8,3,44,480,,,,,,,,,-0.510498,0.255615,-0.081543,21.057129,85.876465,4.272461,,,,,,,,,,,0.0,1.0,1.0,2.0,0.0,0.0,0.0,5.0,0.0,,,,,,,-14.426322212061578,0.39104611004769485,15.178415705644731,-2.424548988021518,-2.377388486018665,5.677374059885628,6.615360158346068,,6.618394475248516,,,,,,,,,
LBP09_S02,LBP09,-1637,14,2,13,-1637,1716537824.52,2024-05-24 08:03:44.520000+00:00,2024-05-24 17:03:44.520000+09:00,2024,5,24,8,3,44,520,,,,,,,,,-0.01416,-0.026123,0.170898,-28.320312,-59.997559,11.535645,,,,,,,,,,,0.0,1.0,1.0,2.0,0.0,0.0,0.0,5.0,0.0,,,,,,,-16.26608249214278,1.2824366854835085,15.444254622007627,-3.075192287707229,-2.3260910185993247,6.295144244765933,7.382164187796971,,7.143969940929578,,,,,,,,,
LBP09_S02,LBP09,-1636,15,2,14,-1636,1716537824.56,2024-05-24 08:03:44.560000+00:00,2024-05-24 17:03:44.560000+09:00,2024,5,24,8,3,44,560,,,,,,,,,0.402344,-0.08667,0.637939,-35.522461,-111.328125,16.601562,,,,,,,,,,,0.0,1.0,1.0,2.0,0.0,0.0,0.0,5.0,0.0,,,,,,,-17.581720210811596,4.082450499412638,14.779587918649181,-3.7784610961396927,-2.162792998622819,6.8863277615119,8.14714378472005,,7.735959148411178,,,,,,,,,
LBP09_S02,LBP09,-1635,16,2,15,-1635,1716537824.6,2024-05-24 08:03:44.600000+00:00,2024-05-24 17:03:44.600000+09:00,2024,5,24,8,3,44,600,,,,,,,,,0.417236,-0.090576,1.15625,-33.26416,18.066406,38.574219,,,,,,,,,,,0.0,1.0,1.0,2.0,0.0,0.0,0.0,5.0,0.0,,,,,,,-18.49229339716371,8.217043531565354,12.996575215342498,-4.518152832026241,-1.834111257360205,7.4061907701256,8.867318131285007,,8.354908580363187,,,,,,,,,
LBP09_S02,LBP09,-1634,17,2,16,-1634,1716537824.64,2024-05-24 08:03:44.640000+00:00,2024-05-24 17:03:44.640000+09:00,2024,5,24,8,3,44,640,,,,,,,,,-0.156006,-0.197266,1.715088,-35.583496,65.917969,32.348633,,,,,,,,,,,0.0,1.0,1.0,2.0,0.0,0.0,0.0,5.0,0.0,,,,,,,-19.01660485803737,12.740897862148454,10.150859943852401,-5.2788170263477365,-1.3244753428742668,7.812225167879697,9.52108219716612,,8.965908671555086,,,,,,,,,
LBP09_S02,LBP09,-1633,18,2,17,-1633,1716537824.68,2024-05-24 08:03:44.680000+00:00,2024-05-24 17:03:44.680000+09:00,2024,5,24,8,3,44,680,,,,,,,,,-0.191895,0.018555,1.876953,19.104004,-33.691406,-19.470215,,,,,,,,,,,0.0,1.0,1.0,2.0,0.0,0.0,0.0,5.0,0.0,,,,,,,-19.05825388539007,16.502913216083392,6.56427269987702,-6.041147181763339,-0.6643588142309311,8.074796075874778,10.106392213482325,,9.536268605247045,,,,,,,,,
LBP09_S02,LBP09,-1632,19,2,18,-1632,1716537824.72,2024-05-24 08:03:44.720000+00:00,2024-05-24 17:03:44.720000+09:00,2024,5,24,8,3,44,720,,,,,,,,,-0.028076,-0.184082,1.51001,1.89209,80.627441,-8.972168,,,,,,,,,,,0.0,1.0,1.0,2.0,0.0,0.0,0.0,5.0,0.0,,,,,,,-18.398618716659392,18.439043089278613,2.7598839753432456,-6.777091930429715,0.07320290934021345,8.185191434888507,10.62693241369322,,10.035379379221405,,,,,,,,,
LBP09_S02,LBP09,-1631,20,2,19,-1631,1716537824.76,2024-05-24 08:03:44.760000+00:00,2024-05-24 17:03:44.760000+09:00,2024,5,24,8,3,44,760,,,,,,,,,-0.639893,0.262451,-0.076416,-9.887695,98.937988,13.244629,,,,,,,,,,,0.0,1.0,1.0,2.0,0.0,0.0,0.0,5.0,0.0,,,,,,,-16.730765455410513,17.863971259643943,-0.668580927693434,-7.446322548646135,0.7877617597259712,8.15844819778077,11.073778265995518,,10.43760948282715,,,,,,,,,
LBP09_S02,LBP09,-1630,21,2,20,-1630,1716537824.8,2024-05-24 08:03:44.800000+00:00,2024-05-24 17:03:44.800000+09:00,2024,5,24,8,3,44,800,,,,,,,,,0.013428,-0.189697,0.270264,-27.770996,-43.334961,-4.821777,,,,,,,,,,,0.0,1.0,1.0,2.0,0.0,0.0,0.0,5.0,0.0,,,,,,,-13.763581681405014,14.636122331883284,-3.2060530008981214,-7.996865815902336,1.3732066530013025,8.030206077744845,11.415768438455846,,10.726433038123789,,,,,,,,,
LBP09_S02,LBP09,-1629,22,2,21,-1629,1716537824.84,2024-05-24 08:03:44.840000+00:00,2024-05-24 17:03:44.840000+09:00,2024,5,24,8,3,44,840,,,,,,,,,0.291748,-0.048584,0.742432,-17.944336,-82.15332,-18.615723,,,,,,,,,,,0.0,1.0,1.0,2.0,0.0,0.0,0.0,5.0,0.0,,,,,,,-9.380449453204179,9.145163068116494,-4.540019850189821,-8.372083794030504,1.7390131757259621,7.848605283737252,11.606746261529327,,10.897367274300677,,,,,,,,,
LBP09_S02,LBP09,-1628,23,2,22,-1628,1716537824.88,2024-05-24 08:03:44.880000+00:00,2024-05-24 17:03:44.880000+09:00,2024,5,24,8,3,44,880,,,,,,,,,0.41748,-0.24292,1.389404,-82.519531,45.715332,2.624512,,,,,,,,,,,0.0,1.0,1.0,2.0,0.0,0.0,0.0,5.0,0.0,,,,,,,-3.7838652304510396,2.16983283222004,-4.630415975329816,-8.523438403248544,1.8258064890147638,7.663388644724059,11.606467898089676,,10.957677224734857,,,,,,,,,
LBP09_S02,LBP09,-1627,24,2,23,-1627,1716537824.92,2024-05-24 08:03:44.920000+00:00,2024-05-24 17:03:44.920000+09:00,2024,5,24,8,3,44,920,,,,,,,,,-0.384033,-0.221436,1.86792,47.241211,33.447266,-27.954102,,,,,,,,,,,0.0,1.0,1.0,2.0,0.0,0.0,0.0,5.0,0.0,,,,,,,2.4600984807887345,-5.293704402018733,-3.7093633495054266,-8.425034464016996,1.6140583129340145,7.515014110743842,11.404465223854409,,10.922273856083777,,,,,,,,,
LBP09_S02,LBP09,-1626,25,2,24,-1626,1716537824.96,2024-05-24 08:03:44.960000+00:00,2024-05-24 17:03:44.960000+09:00,2024,5,24,8,3,44,960,,,,,,,,,-0.390625,-0.262451,2.098633,8.850098,-88.134766,-3.112793,,,,,,,,,,,0.0,1.0,1.0,2.0,0.0,0.0,0.0,5.0,0.0,,,,,,,8.524573095851778,-12.166496791882372,-2.2064933424825486,-8.084051540182925,1.1273984412587197,7.42675437704454,11.035379337686438,,10.807832287804164,,,,,,,,,
LBP09_S02,LBP09,-1625,26,2,25,-1625,1716537825.0,2024-05-24 08:03:45+00:00,2024-05-24 17:03:45+09:00,2024,5,24,8,3,45,0,8.0,3.0,44.0,40.544857,141.513824,-2.585,3.0,14.0,0.093262,-0.067383,1.33252,41.320801,58.532715,26.550293,-282.0,159.0,248.0,155.0,0.0,1008.099976,25.200001,-0.048558,42.940746,3.909375,0.0,1.0,1.0,2.0,0.0,0.0,0.0,4.0,0.0,,,,,,,13.541244880293696,-17.39213755464771,-0.6155781781514137,-7.542401744971177,0.4317129390728113,7.402131249918484,10.576660493053888,,10.629138835753759,,,,,,,,,
LBP09_S02,LBP09,-1624,27,2,26,-1624,1716537825.04,2024-05-24 08:03:45.040000+00:00,2024-05-24 17:03:45.040000+09:00,2024,5,24,8,3,45,40,,,,,,,,,-0.319092,0.13501,-0.094238,59.875488,60.241699,15.50293,,,,,,,,,,,0.0,1.0,1.0,2.0,0.0,0.0,0.0,4.0,0.0,,,,,,,16.839007394037317,-20.062938503363544,0.655792673114654,-6.868841449209684,-0.3708046010617305,7.4283629568430705,10.124181701507924,,10.400193635544472,,,,,,,,,
LBP09_S02,LBP09,-1623,28,2,27,-1623,1716537825.08,2024-05-24 08:03:45.080000+00:00,2024-05-24 17:03:45.080000+09:00,2024,5,24,8,3,45,80,,,,,,,,,-0.049316,0.043213,0.087158,2.01416,-70.617676,8.056641,,,,,,,,,,,0.0,1.0,1.0,2.0,0.0,0.0,0.0,4.0,0.0,,,,,,,18.095291945671853,-19.604349880479784,1.3957269084750252,-6.14502977138281,-1.1549785962809218,7.4841920331820715,9.75235852697152,,10.138339632505563,,,,,,,,,
LBP09_S02,LBP09,-1622,29,2,28,-1622,1716537825.12,2024-05-24 08:03:45.120000+00:00,2024-05-24 17:03:45.120000+09:00,2024,5,24,8,3,45,120,,,,,,,,,0.345947,-0.134521,0.395996,-30.517578,-134.82666,-5.310059,,,,,,,,,,,0.0,1.0,1.0,2.0,0.0,0.0,0.0,4.0,0.0,,,,,,,17.3468577854173,-15.993534924865825,1.6112687179999308,-5.4511554599661185,-1.7947199932755549,7.5486427819020685,9.48251673089711,,9.867035712284476,,,,,,,,,
LBP09_S02,LBP09,-1621,30,2,29,-1621,1716537825.16,2024-05-24 08:03:45.160000+00:00,2024-05-24 17:03:45.160000+09:00,2024,5,24,8,3,45,160,,,,,,,,,0.560791,0.058594,0.832275,38.696289,-47.180176,-13.85498,,,,,,,,,,,0.0,1.0,1.0,2.0,0.0,0.0,0.0,4.0,0.0,,,,,,,14.885751613846558,-9.903334481534355,1.4607546476656847,-4.855725395412256,-2.190853372536929,7.607072967808696,9.286843745491455,,9.614083537597054,,,,,,,,,
LBP09_S02,LBP09,-1620,31,2,30,-1620,1716537825.2,2024-05-24 08:03:45.200000+00:00,2024-05-24 17:03:45.200000+09:00,2024,5,24,8,3,45,200,,,,,,,,,0.22583,0.358398,1.35376,-9.399414,52.124023,-12.817383,,,,,,,,,,,0.0,1.0,1.0,2.0,0.0,0.0,0.0,4.0,0.0,,,,,,,11.118767021328054,-2.631278452532818,1.135841747826375,-4.410974714559134,-2.2961045106382416,7.652506637721751,9.126316436362963,,9.405639941941793,,,,,,,,,
LBP09_S02,LBP09,-1619,32,2,31,-1619,1716537825.24,2024-05-24 08:03:45.240000+00:00,2024-05-24 17:03:45.240000+09:00,2024,5,24,8,3,45,240,,,,,,,,,-0.350098,-0.413086,1.954102,-24.902344,27.954102,2.502441,,,,,,,,,,,0.0,1.0,1.0,2.0,0.0,0.0,0.0,4.0,0.0,,,,,,,6.466852327327936,4.236915927620752,0.754549976917721,-4.152300621466017,-2.1266278735334114,7.68268863679846,8.988206231140254,,9.259433133969939,,,,,,,,,
LBP09_S02,LBP09,-1618,33,2,32,-1618,1716537825.28,2024-05-24 08:03:45.280000+00:00,2024-05-24 17:03:45.280000+09:00,2024,5,24,8,3,45,280,,,,,,,,,-0.066162,-0.110352,1.698486,20.812988,48.950195,-0.244141,,,,,,,,,,,0.0,1.0,1.0,2.0,0.0,0.0,0.0,4.0,0.0,,,,,,,1.3375487909398647,9.315220185500863,0.31316988607024204,-4.0987986698284224,-1.754019066113377,7.69521543224127,8.89342869587881,,9.181277066009816,,,,,,,,,
LBP09_S02,LBP09,-1617,34,2,33,-1617,1716537825.32,2024-05-24 08:03:45.320000+00:00,2024-05-24 17:03:45.320000+09:00,2024,5,24,8,3,45,320,,,,,,,,,-0.338867,0.000244,0.556885,77.392578,129.211426,4.02832,,,,,,,,,,,0.0,1.0,1.0,2.0,0.0,0.0,0.0,4.0,0.0,,,,,,,-3.8508954050175754,11.832686050607682,-0.29024048039720113,-4.252834486029125,-1.2807116240890697,7.683605813025381,8.874943476980173,,9.167093508625282,-1.5944117708215677,,,,,,,,
LBP09_S02,LBP09,-1616,35,2,34,-1616,1716537825.36,2024-05-24 08:03:45.360000+00:00,2024-05-24 17:03:45.360000+09:00,2024,5,24,8,3,45,360,,,,,,,,,-0.023682,-0.013184,0.00708,-6.713867,-35.339355,11.108398,,,,,,,,,,,0.0,1.0,1.0,2.0,0.0,0.0,0.0,4.0,0.0,,,,,,,-8.654529937759664,11.779314906421776,-1.1826272749472655,-4.599015683539512,-0.8095390278321986,7.6363007220274906,8.950943381133827,,9.209175771051537,-1.6524799818104698,,,,,,,,
LBP09_S02,LBP09,-1615,36,2,35,-1615,1716537825.4,2024-05-24 08:03:45.400000+00:00,2024-05-24 17:03:45.400000+09:00,2024,5,24,8,3,45,400,,,,,,,,,0.197998,0.168213,0.349609,-67.382812,-102.233887,-4.821777,,,,,,,,,,,0.0,1.0,1.0,2.0,0.0,0.0,0.0,4.0,0.0,,,,,,,-12.653916089056407,9.73076831346247,-2.432799406627446,-5.105172327101768,-0.4203082952936998,7.538988745762393,9.114592413335355,,9.302274166686889,-1.6936410383087495,,,,,,,,
LBP09_S02,LBP09,-1614,37,2,36,-1614,1716537825.44,2024-05-24 08:03:45.440000+00:00,2024-05-24 17:03:45.440000+09:00,2024,5,24,8,3,45,440,,,,,,,,,0.653809,-0.431152,0.928467,-77.148438,-46.75293,6.103516,,,,,,,,,,,0.0,1.0,1.0,2.0,0.0,0.0,0.0,4.0,0.0,,,,,,,-15.563703044441077,6.480158576464395,-3.9960068311385597,-5.727720448879412,-0.16110195223512397,7.37914847251685,9.342621021906705,,9.445202654130572,-1.701418235088964,,,,,,,,
LBP09_S02,LBP09,-1613,38,2,37,-1613,1716537825.48,2024-05-24 08:03:45.480000+00:00,2024-05-24 17:03:45.480000+09:00,2024,5,24,8,3,45,480,,,,,,,,,0.154541,-0.202637,1.322266,8.728027,30.700684,-8.544922,,,,,,,,,,,0.0,1.0,1.0,2.0,0.0,0.0,0.0,4.0,0.0,-0.0020019999999999986,-0.08500973333333334,1.1046745066666668,0.5769856533333333,2.9484049466666664,1.9458007733333333,-17.322652281604874,2.7058160985020616,-5.707015400973946,-6.420626540143607,-0.052869308295041495,7.150867856477893,9.61052295312616,-1.5944117708215677,9.63735530420116,-1.6768349836697145,0.15654300000000002,-0.11762726666666667,0.21759149333333316,0.4917617599999998,0.29272502913741605,0.29272502913741605,0.29272502913741605,0.29272502913741605
LBP09_S02,LBP09,-1612,39,2,38,-1612,1716537825.52,2024-05-24 08:03:45.520000+00:00,2024-05-24 17:03:45.520000+09:00,2024,5,24,8,3,45,520,,,,,,,,,-0.250244,-0.074707,1.713379,-14.282227,25.146484,-16.235352,,,,,,,,,,,0.0,1.0,1.0,2.0,0.0,0.0,0.0,4.0,0.0,-0.011770879999999997,-0.08391598666666666,1.1006836266666666,1.2833658666666665,5.98144532,2.2729492133333333,-18.077974368489997,-1.150486225206314,-7.319714402917925,-7.143745514883206,-0.09888875730329405,6.858079280361176,9.90333935515966,-1.710548192799372,9.873195942769422,-1.6619003804394696,-0.23847312000000004,0.009208986666666669,0.6126953733333333,0.86037748,0.6575331587851931,0.4751290939613046,0.4751290939613046,0.4751290939613046
LBP09_S02,LBP09,-1611,40,2,39,-1611,1716537825.56,2024-05-24 08:03:45.560000+00:00,2024-05-24 17:03:45.560000+09:00,2024,5,24,8,3,45,560,,,,,,,,,-0.029541,0.046143,1.449463,20.446777,3.845215,-31.738281,,,,,,,,,,,0.0,1.0,1.0,2.0,0.0,0.0,0.0,4.0,0.0,-0.017181039999999998,-0.08279294666666667,1.0854687866666668,1.3956705466666666,5.0512695333333335,2.15657552,-18.05289217432963,-4.787088656208657,-8.571822031189084,-7.865861201856392,-0.29037230355164034,6.515206399113612,10.217827701844973,-1.7759631513053085,10.138636410984123,-1.6454958465984908,-0.012359960000000003,0.1289359466666667,0.36399421333333315,0.5052901199999998,0.38635350948863295,0.44553723247041405,0.44553723247041405,0.44553723247041405
LBP09_S02,LBP09,-1610,41,2,40,-1610,1716537825.6,2024-05-24 08:03:45.600000+00:00,2024-05-24 17:03:45.600000+09:00,2024,5,24,8,3,45,600,,,,,,,,,-0.194336,-0.0625,0.595703,7.873535,112.609863,9.82666,,,,,,,,,,,0.0,1.0,1.0,2.0,0.0,0.0,0.0,4.0,0.0,-0.012366586666666665,-0.07990882666666667,1.06726892,0.10009763999999999,2.95247396,2.20214844,-17.37612753897655,-7.868158546793898,-9.246142899088722,-8.560906303415454,-0.6050986454233963,6.145360683150064,10.555601310799792,-1.7247498254296076,10.41135868500063,-1.6315534383630244,-0.18196941333333333,0.01740882666666667,-0.4715659200000001,0.6709441600000001,0.5057572061179495,0.4605922258822979,0.4605922258822979,0.4605922258822979
LBP09_S02,LBP09,-1609,42,2,41,-1609,1716537825.64,2024-05-24 08:03:45.640000+00:00,2024-05-24 17:03:45.640000+09:00,2024,5,24,8,3,45,640,,,,,,,,,-0.161621,-0.037109,-0.056152,-37.902832,-26.489258,13.244629,,,,,,,,,,,0.0,1.0,1.0,2.0,0.0,0.0,0.0,4.0,0.0,-0.0006022666666666657,-0.07837237333333333,1.0562630533333333,-0.11474610666666672,3.0916341199999997,2.370605466666667,-15.982043183499762,-9.945076256889973,-9.21060167325186,-9.200188030755445,-1.0029016956989953,5.77693661621999,10.909732731846136,-1.5785019779927167,10.664434166469793,-1.6350890918781813,-0.16101873333333333,0.041263373333333325,-1.1124150533333332,1.31469716,1.1247652863356514,0.5934268379729686,0.5934268379729686,0.5934268379729686
LBP09_S02,LBP09,-1608,43,2,42,-1608,1716537825.68,2024-05-24 08:03:45.680000+00:00,2024-05-24 17:03:45.680000+09:00,2024,5,24,8,3,45,680,,,,,,,,,0.080566,-0.017334,0.31958,15.869141,-104.125977,-12.817383,,,,,,,,,,,0.0,1.0,1.0,2.0,0.0,0.0,0.0,4.0,0.0,-0.0012793466666666657,-0.07806637333333333,1.0575032933333333,-2.2526041866666664,3.1949869733333327,2.855631506666667,-13.647082192841278,-10.560011653940558,-8.43995982776743,-9.746071318469097,-1.4253021618566177,5.439338223109292,11.251835081561445,-1.587227364288245,10.871135032640675,-1.6448418202842554,0.08184534666666667,0.060732373333333325,-0.7379232933333333,0.8805010133333333,0.7449280963862209,0.6186770477085107,0.6186770477085107,0.6186770477085107
LBP09_S02,LBP09,-1607,44,2,43,-1607,1716537825.72,2024-05-24 08:03:45.720000+00:00,2024-05-24 17:03:45.720000+09:00,2024,5,24,8,3,45,720,,,,,,,,,0.634277,0.056152,0.598877,-29.785156,-95.76416,-33.691406,,,,,,,,,,,0.0,1.0,1.0,2.0,0.0,0.0,0.0,4.0,0.0,0.0019791200000000017,-0.08364254666666666,1.0824544666666667,-3.1844075599999995,1.947428386666666,2.597656253333333,-10.150591551218241,-9.47142475011326,-7.031317567952068,-10.152094980517827,-1.8041591518611482,5.158085520391209,11.529348159127169,-1.547068643552617,11.00904027111758,-1.6546046556834164,0.63229788,0.13979454666666666,-0.4835774666666667,1.2556698933333332,0.8082018872769257,0.6457520247897127,0.6457520247897127,0.6457520247897127
LBP09_S02,LBP09,-1606,45,2,44,-1606,1716537825.76,2024-05-24 08:03:45.760000+00:00,2024-05-24 17:03:45.760000+09:00,2024,5,24,8,3,45,760,,,,,,,,,0.245361,-0.312744,1.05127,-85.266113,43.09082,3.845215,,,,,,,,,,,0.0,1.0,1.0,2.0,0.0,0.0,0.0,4.0,0.0,0.003105426666666668,-0.08450517333333334,1.10037764,-2.4707031333333336,3.6612955733333328,2.07845052,-5.4812818635739555,-6.834753081588949,-5.212164113611785,-10.371346255060786,-2.077549275124706,4.949598955846738,11.678166121298913,-1.533956580714761,11.062424734535785,-1.6437834713418145,0.24225557333333333,-0.22823882666666667,-0.04910764000000012,0.5196020400000001,0.33644061157299127,0.6070880981376227,0.6070880981376227,0.6070880981376227
LBP09_S02,LBP09,-1605,46,2,45,-1605,1716537825.8,2024-05-24 08:03:45.800000+00:00,2024-05-24 17:03:45.800000+09:00,2024,5,24,8,3,45,800,,,,,,,,,-0.201172,-0.006348,1.675781,40.649414,36.010742,-22.460938,,,,,,,,,,,0.0,1.0,1.0,2.0,0.0,0.0,0.0,4.0,0.0,-0.007242879999999999,-0.07820959999999999,1.09284508,-1.7016601599999996,6.774902346666666,1.9042968799999997,0.018122457230352523,-3.1932410644554206,-3.3212522648234404,-10.370621356771572,-2.205278917702923,4.8167488652538,11.645347228026967,-1.6633743199994375,11.022890753771444,-1.632451226679597,-0.19392911999999998,0.07186159999999998,0.5829359199999999,0.84872664,0.618536078143208,0.6083600959160209,0.6083600959160209,0.6083600959160209
LBP09_S02,LBP09,-1604,47,2,46,-1604,1716537825.84,2024-05-24 08:03:45.840000+00:00,2024-05-24 17:03:45.840000+09:00,2024,5,24,8,3,45,840,,,,,,,,,-0.250977,-0.286621,1.984619,-19.897461,-25.878906,11.413574,,,,,,,,,,,0.0,1.0,1.0,2.0,0.0,0.0,0.0,4.0,0.0,-0.01348637333333333,-0.08284828,1.0823991199999998,-2.03125,6.158854159999999,1.8513997466666667,5.6532644095231985,0.7309985135281727,-1.7442438210277522,-10.144490780390644,-2.176038977161796,4.746979112412689,11.409629683615526,-1.732616375938921,10.889101818684514,-1.6231591842649276,-0.23749062666666668,-0.20377272000000002,0.9022198800000001,1.3434832266666668,0.9549480776659739,0.6430188940910162,0.6430188940910162,0.6430188940910162
LBP09_S02,LBP09,-1603,48,2,47,-1603,1716537825.88,2024-05-24 08:03:45.880000+00:00,2024-05-24 17:03:45.880000+09:00,2024,5,24,8,3,45,880,,,,,,,,,0.012939,-0.049316,1.593018,27.46582,58.776855,-2.563477,,,,,,,,,,,0.0,1.0,1.0,2.0,0.0,0.0,0.0,4.0,0.0,-0.00965173333333333,-0.07943032,1.0698926133333333,-2.273763026666667,4.445800773333332,1.60237632,10.544557519513283,4.322712600310196,-0.8102173363164417,-9.722708479610112,-2.003130473149388,4.714570418960032,10.98957533789523,-1.6920401248131767,10.666775791628979,-1.6280607082615304,0.02259073333333333,0.03011432,0.5231253866666667,0.57583044,0.5244782013360991,0.6322424674769329,0.6322424674769329,0.6322424674769329
LBP09_S02,LBP09,-1602,49,2,48,-1602,1716537825.92,2024-05-24 08:03:45.920000+00:00,2024-05-24 17:03:45.920000+09:00,2024,5,24,8,3,45,920,,,,,,,,,-0.598145,0.085693,0.183594,48.339844,100.341797,33.752441,,,,,,,,,,,0.0,1.0,1.0,2.0,0.0,0.0,0.0,4.0,0.0,-0.0025325866666666653,-0.08050128,1.0613086266666667,-2.98177084,5.401204413333333,1.8310547066666667,13.893794184585023,7.275456316356936,-0.6828146091494759,-9.166956712226712,-1.7121122204951107,4.687257834594053,10.437183989341685,-1.6023363493833545,10.369229885678852,-1.6451044738719645,-0.5956124133333334,0.16619428,-0.8777146266666667,1.63952132,1.073665521233723,0.6690277219566654,0.6690277219566654,0.6690277219566654
LBP09_S02,LBP09,-1601,50,2,49,-1601,1716537825.96,2024-05-24 08:03:45.960000+00:00,2024-05-24 17:03:45.960000+09:00,2024,5,24,8,3,45,960,,,,,,,,,0.099365,0.084229,0.245117,72.08252,-77.148438,-13.305664,,,,,,,,,,,0.0,1.0,1.0,2.0,0.0,0.0,0.0,4.0,0.0,-0.007311226666666665,-0.07959958666666668,1.0662207466666669,-2.869466146666667,4.667154933333333,1.5372721466666668,15.238338724110545,9.606820962839151,-1.2918976620009168,-8.55742316326229,-1.3278393819815446,4.635581928114017,9.82248789420157,-1.662640704683134,10.01724266106817,-1.6739769855205868,0.10667622666666667,0.16382858666666666,-0.8211037466666669,1.09160856,0.844056269412812,0.682491456376369,0.682491456376369,0.682491456376369
LBP09_S02,LBP09,-1600,51,2,50,-1600,1716537826.0,2024-05-24 08:03:46+00:00,2024-05-24 17:03:46+09:00,2024,5,24,8,3,46,0,8.0,3.0,45.0,40.544956,141.513809,-2.8,3.0,14.0,0.462646,0.12793,0.781494,-41.259766,-84.533691,-9.033203,-282.0,158.0,249.0,164.0,0.0,1007.799988,25.200001,-0.051531,45.447506,3.909375,0.0,1.0,1.0,2.0,0.0,0.0,0.0,4.0,0.0,-0.005078159999999998,-0.08333981333333335,1.0943164533333334,-3.53027344,2.487792946666666,1.1596679733333333,14.588524223028026,11.493772987132417,-2.3393419384633996,-7.9738821943411695,-0.8680884624962479,4.542008250575481,9.217711959930512,-1.6318294012829122,9.63652277500989,-1.6948800037494425,0.46772416,0.21126981333333333,-0.31282245333333336,0.9918164266666667,0.6010480107138635,0.6766740674004758,0.6766740674004758,0.6766740674004758
LBP09_S02,LBP09,-1599,52,2,51,-1599,1716537826.04,2024-05-24 08:03:46.040000+00:00,2024-05-24 17:03:46.040000+09:00,2024,5,24,8,3,46,40,,,,,,,,,0.278076,-0.35791,1.496094,-21.911621,51.635742,-2.075195,,,,,,,,,,,0.0,1.0,1.0,2.0,0.0,0.0,0.0,4.0,0.0,-0.004781933333333332,-0.0844596,1.10773768,-2.5089518266666664,4.358723946666666,0.9326171866666667,12.405688903351582,13.04420579721082,-3.3811678781011336,-7.477654638207106,-0.34632023060781514,4.406761535451436,8.686472461290762,-1.6275172179587443,9.252635128356003,-1.6948471999720816,0.2828579333333333,-0.2734504,0.38835632,0.9446646533333333,0.5528149446186371,0.6684167925483532,0.6684167925483532,0.6684167925483532
LBP09_S02,LBP09,-1598,53,2,52,-1598,1716537826.08,2024-05-24 08:03:46.080000+00:00,2024-05-24 17:03:46.080000+09:00,2024,5,24,8,3,46,80,,,,,,,,,-0.414307,-0.097412,1.984619,27.46582,26.062012,-8.361816,,,,,,,,,,,0.0,1.0,1.0,2.0,0.0,0.0,0.0,4.0,0.0,-0.015276733333333332,-0.08100908000000001,1.0981152933333334,-2.40478516,6.337890613333333,0.5192057333333334,9.458589915073873,14.157752295185277,-3.9564353968712704,-7.099311041604151,0.21998986119959596,4.248504119576585,8.276376022060164,-1.757665020392588,8.885325373016682,-1.6886127723648907,-0.39903026666666663,-0.016402919999999988,0.8865037066666666,1.301936893333333,0.9723080949135087,0.6874099989461754,0.6874099989461754,0.6874099989461754
LBP09_S02,LBP09,-1597,54,2,53,-1597,1716537826.12,2024-05-24 08:03:46.120000+00:00,2024-05-24 17:03:46.120000+09:00,2024,5,24,8,3,46,120,,,,,,,,,-0.123779,-0.115723,2.307861,2.990723,-35.705566,-19.836426,,,,,,,,,,,0.0,1.0,1.0,2.0,0.0,0.0,0.0,4.0,0.0,-0.021422559999999997,-0.07913408,1.08383144,-2.298177093333333,5.19287108,-0.1424153599999999,6.6388087268502645,14.557849806464315,-3.719447546451882,-6.833758692530141,0.8023038534581686,4.099726217718509,8.009475913020378,-1.8357937600388385,8.544705826817374,-1.6775726670891768,-0.10235644,-0.03658892000000001,1.22402956,1.36297492,1.2288465948319316,0.719259210468867,0.719259210468867,0.719259210468867
LBP09_S02,LBP09,-1596,55,2,54,-1596,1716537826.16,2024-05-24 08:03:46.160000+00:00,2024-05-24 17:03:46.160000+09:00,2024,5,24,8,3,46,160,,,,,,,,,-0.044678,0.028564,1.279541,26.062012,124.816895,10.681152,,,,,,,,,,,0.0,1.0,1.0,2.0,0.0,0.0,0.0,4.0,0.0,-0.013427759999999997,-0.07740556,1.0697428933333333,-2.3380534,2.9996744666666664,-0.8154296799999999,4.795415350074646,13.956885521012037,-2.538306001126534,-6.641942078527156,1.36057927429865,3.998193977673448,7.870967260716113,-1.7429867630033213,8.230751188565618,-1.6780458339579956,-0.031250240000000006,0.10596955999999999,0.20979810666666676,0.34701790666666676,0.23711046098299687,0.692473168830763,0.692473168830763,0.692473168830763
LBP09_S02,LBP09,-1595,56,2,55,-1595,1716537826.2,2024-05-24 08:03:46.200000+00:00,2024-05-24 17:03:46.200000+09:00,2024,5,24,8,3,46,200,,,,,,,,,-0.373535,-0.087891,0.114746,-8.239746,49.865723,21.606445,,,,,,,,,,,0.0,1.0,1.0,2.0,0.0,0.0,0.0,4.0,0.0,-0.0072884266666666635,-0.07900061333333333,1.0579134666666665,-3.441569026666667,3.873697906666666,-0.37679036,4.600390923601237,12.238387278125307,-0.5401649762366053,-6.457926441583107,1.8501147654236623,3.976587378623984,7.806470761488092,-1.6630462822258243,7.936170872753349,-1.6823154463581496,-0.3662465733333333,-0.008890386666666666,-0.9431674666666665,1.3183044266666664,1.0118203702396533,0.7092809162733362,0.7092809162733362,0.7092809162733362
LBP09_S02,LBP09,-1594,57,2,56,-1594,1716537826.24,2024-05-24 08:03:46.240000+00:00,2024-05-24 17:03:46.240000+09:00,2024,5,24,8,3,46,240,,,,,,,,,0.014893,0.129395,0.480225,51.574707,-70.861816,-21.606445,,,,,,,,,,,0.0,1.0,1.0,2.0,0.0,0.0,0.0,4.0,0.0,-0.0075390799999999975,-0.07572913333333334,1.0584212800000001,-2.7547200666666662,3.54899088,-0.59733072,6.429824044873247,9.54427813662386,1.9001684825508374,-6.200733479788177,2.2318858908886168,4.052594117926017,7.736532130222314,-1.6702720998670124,7.651472912757802,-1.6989294408430304,0.022432079999999997,0.20512413333333335,-0.5781962800000001,0.8057524933333334,0.6139137125807795,0.7045125560887084,0.7045125560887084,0.7045125560887084
LBP09_S02,LBP09,-1593,58,2,57,-1593,1716537826.28,2024-05-24 08:03:46.280000+00:00,2024-05-24 17:03:46.280000+09:00,2024,5,24,8,3,46,280,,,,,,,,,0.772217,-0.071533,1.083252,-24.047852,-46.081543,-39.18457,,,,,,,,,,,0.0,1.0,1.0,2.0,0.0,0.0,0.0,4.0,0.0,-0.0008658933333333307,-0.08007484000000001,1.0810677599999998,-2.312825533333333,1.9995117199999992,-1.1962890533333332,10.256482038397623,6.229628222828741,4.226446717881292,-5.790474198252272,2.4810710198017665,4.221651986641269,7.583379875902145,-1.5816390720560376,7.370010556335572,-1.7036155983105374,0.7730828933333334,0.008541840000000009,0.0021842400000002815,0.7838089733333337,0.7731331669897503,0.7077802042268532,0.7077802042268532,0.7077802042268532
LBP09_S02,LBP09,-1592,59,2,58,-1592,1716537826.32,2024-05-24 08:03:46.320000+00:00,2024-05-24 17:03:46.320000+09:00,2024,5,24,8,3,46,320,,,,,,,,,-0.010254,-0.60498,1.70459,-35.766602,61.096191,35.339355,,,,,,,,,,,0.0,1.0,1.0,2.0,0.0,0.0,0.0,4.0,0.0,-0.002763679999999997,-0.07634762666666665,1.08755864,-1.9059244933333337,3.620605466666666,-1.34358724,15.581040110379359,2.741530140575122,5.823328071715215,-5.167232593837098,2.5907322254247713,4.454585109509877,7.297637606824141,-1.6070680180715438,7.090379699999668,-1.6780025513918997,-0.007490320000000002,-0.5286323733333333,0.6170313600000001,1.1531540533333335,0.8125490694433075,0.7125424253730557,0.7125424253730557,0.7125424253730557
LBP09_S02,LBP09,-1591,60,2,59,-1591,1716537826.36,2024-05-24 08:03:46.360000+00:00,2024-05-24 17:03:46.360000+09:00,2024,5,24,8,3,46,360,,,,,,,,,-0.560547,-0.231934,2.100342,9.216309,-45.410156,9.887695,,,,,,,,,,,0.0,1.0,1.0,2.0,0.0,0.0,0.0,4.0,0.0,-0.010081386666666664,-0.07465492,1.0765299866666667,-2.2208658933333334,4.98942056,-1.2475585866666667,21.45652996450713,-0.4830671567417649,6.186987139029645,-4.308971395256813,2.5714095391551006,4.702064595071064,6.876684736078868,-1.7053368286846744,6.814710480283028,-1.6471391854862234,-0.5504656133333333,-0.15727908000000002,1.0238120133333333,1.7315567066666666,1.1730047481207153,0.7325625263620844,0.7325625263620844,0.7325625263620844
LBP09_S02,LBP09,-1590,61,2,60,-1590,1716537826.4,2024-05-24 08:03:46.400000+00:00,2024-05-24 17:03:46.400000+09:00,2024,5,24,8,3,46,400,,,,,,,,,0.031738,-0.149902,2.119629,42.236328,1.953125,27.160645,,,,,,,,,,,0.0,1.0,1.0,2.0,0.0,0.0,0.0,4.0,0.0,-0.016331386666666663,-0.07079749333333334,1.0606738666666669,-1.6756185066666667,3.578287746666666,-1.5161132800000001,26.652717374922933,-3.0521433481916067,5.103606187296363,-3.242862700259895,2.4493238052274364,4.9062088425629184,6.370732359975051,-1.79796934613172,6.545015916956672,-1.6277289278979068,0.048069386666666665,-0.07910450666666667,1.0589551333333334,1.1861290266666666,1.0629930212952972,0.7463304636509682,0.7463304636509682,0.7463304636509682
LBP09_S02,LBP09,-1589,62,2,61,-1589,1716537826.44,2024-05-24 08:03:46.440000+00:00,2024-05-24 17:03:46.440000+09:00,2024,5,24,8,3,46,440,,,,,,,,,-0.36792,0.097168,0.516113,79.040527,128.234863,42.785645,,,,,,,,,,,0.0,1.0,1.0,2.0,0.0,0.0,0.0,4.0,0.0,-0.007070319999999996,-0.06815752,1.0414323333333333,-3.0704752799999997,1.7089843599999994,-1.5258788933333336,29.948366228617264,-4.61486613512069,2.7637781157144117,-2.0449280511152046,2.264729159822609,5.016759967191495,5.871848897068441,-1.674378792633811,6.2824316203547586,-1.6158336800688506,-0.36084968,0.16532552,-0.5253193333333332,1.0514945333333332,0.658411285666604,0.7428136965315937,0.7428136965315937,0.7428136965315937
LBP09_S02,LBP09,-1588,63,2,62,-1588,1716537826.48,2024-05-24 08:03:46.480000+00:00,2024-05-24 17:03:46.480000+09:00,2024,5,24,8,3,46,480,,,,,,,,,0.099609,0.088623,0.106445,66.40625,-56.640625,-14.221191,,,,,,,,,,,0.0,1.0,1.0,2.0,0.0,0.0,0.0,4.0,0.0,0.004472653333333337,-0.06459957333333334,1.0270410533333334,-3.88264976,3.062337226666666,-2.0157877466666667,30.460903772976003,-4.886877189924048,-0.25351353327679316,-0.8264919001961644,2.069254072225647,5.006619425860424,5.480067458701147,-1.5015345512062133,6.030894955237277,-1.6142423853743335,0.09513634666666666,0.15322257333333333,-0.9205960533333334,1.1689549733333333,0.9380965701082583,0.7686285581704274,0.7503245762845423,0.7503245762845423
LBP09_S02,LBP09,-1587,64,2,63,-1587,1716537826.52,2024-05-24 08:03:46.520000+00:00,2024-05-24 17:03:46.520000+09:00,2024,5,24,8,3,46,520,,,,,,,,,0.337891,-0.05542,0.8125,-9.58252,-104.003906,-37.658691,,,,,,,,,,,0.0,1.0,1.0,2.0,0.0,0.0,0.0,4.0,0.0,0.003069653333333337,-0.07046545333333333,1.0311002933333333,-4.383951840000001,3.2088216,-2.329915346666667,27.888114501961923,-3.743100091173035,-3.141919297313804,0.2890326798823126,1.9195300685787258,4.880942653967872,5.252783715853979,-1.5271601009820754,5.801675482361164,-1.6314896128999457,0.3348213466666667,0.015045453333333333,-0.2186002933333333,0.5684670933333333,0.4001472080311258,0.7583331201402647,0.7373550441270084,0.7373550441270084
LBP09_S02,LBP09,-1586,65,2,64,-1586,1716537826.56,2024-05-24 08:03:46.560000+00:00,2024-05-24 17:03:46.560000+09:00,2024,5,24,8,3,46,560,,,,,,,,,0.417725,-0.145508,1.379395,3.234863,13.427734,-30.273438,,,,,,,,,,,0.0,1.0,1.0,2.0,0.0,0.0,0.0,4.0,0.0,0.0016536400000000035,-0.07564774666666667,1.0567773733333332,-4.517415373333333,2.3689778533333326,-2.59684244,22.577568075856448,-1.3377556947198088,-5.11739955227935,1.1921354029165705,1.8660198407899333,4.676246671876698,5.17402162745254,-1.5488841871201555,5.61434012017596,-1.6442104071049275,0.41607136,-0.06986025333333333,0.3226176266666667,0.8085492400000001,0.5311101247802379,0.7641233847519289,0.7299891541503379,0.7299891541503379
LBP09_S02,LBP09,-1585,66,2,65,-1585,1716537826.6,2024-05-24 08:03:46.600000+00:00,2024-05-24 17:03:46.600000+09:00,2024,5,24,8,3,46,600,,,,,,,,,-0.114258,-0.331787,1.848633,36.254883,25.939941,8.850098,,,,,,,,,,,0.0,1.0,1.0,2.0,0.0,0.0,0.0,4.0,0.0,0.0020800666666666704,-0.07808264,1.0792936533333333,-3.962402346666666,3.0151367066666666,-2.8125,15.421668580380082,1.8486598632510245,-5.6549123200167974,1.8090021461317738,1.9399662353199743,4.450050179076026,5.1806277954689515,-1.5440938039352639,5.492285821164891,-1.6349674878783482,-0.11633806666666667,-0.25370436,0.7693393466666667,1.1393817733333333,0.818403004862666,0.7766292167017176,0.7330379076231769,0.7330379076231769
LBP09_S02,LBP09,-1584,67,2,66,-1584,1716537826.64,2024-05-24 08:03:46.640000+00:00,2024-05-24 17:03:46.640000+09:00,2024,5,24,8,3,46,640,,,,,,,,,-0.227783,0.006104,2.230713,7.568359,-53.344727,-8.544922,,,,,,,,,,,0.0,1.0,1.0,2.0,0.0,0.0,0.0,4.0,0.0,-0.006331386666666663,-0.07577470666666666,1.0840137066666666,-3.3227539066666667,6.86523436,-2.504069,7.6343674475069285,5.109029612719091,-4.621522935959858,2.114376844032051,2.144327419828738,4.265189261637632,5.221165479047497,-1.654359152921838,5.454619832021438,-1.6238271357812972,-0.22145161333333335,0.08187870666666666,1.1466992933333335,1.4500296133333337,1.1707536927059032,0.7784687529565275,0.747628433792601,0.747628433792601
LBP09_S02,LBP09,-1583,68,2,67,-1583,1716537826.68,2024-05-24 08:03:46.680000+00:00,2024-05-24 17:03:46.680000+09:00,2024,5,24,8,3,46,680,,,,,,,,,0.032471,-0.321533,1.563721,8.422852,86.608887,-8.056641,,,,,,,,,,,0.0,1.0,1.0,2.0,0.0,0.0,0.0,4.0,0.0,-0.013854173333333329,-0.07490232,1.0748144933333332,-3.57910156,7.000325506666665,-2.6790364533333335,0.4728457439876837,7.73338237656394,-2.2708242665976957,2.1332906737915582,2.4536627148912955,4.174356290973724,5.291185147141014,-1.7541113473121621,5.5089732608474895,-1.6245147316303115,0.04632517333333333,-0.24663068000000002,0.4889065066666667,0.7818623600000001,0.5495473466978339,0.770653522968992,0.7412387213056731,0.7412387213056731
LBP09_S02,LBP09,-1582,69,2,68,-1582,1716537826.72,2024-05-24 08:03:46.720000+00:00,2024-05-24 17:03:46.720000+09:00,2024,5,24,8,3,46,720,,,,,,,,,-0.44165,0.178223,0.014648,9.460449,107.299805,6.835938,,,,,,,,,,,0.0,1.0,1.0,2.0,0.0,0.0,0.0,4.0,0.0,-0.012812506666666662,-0.07787432,1.06951176,-3.4269205733333337,5.467936186666666,-3.01757812,-5.047536959737556,9.248864485236757,0.8782591072244386,1.931389195402056,2.8236172943007656,4.209486655262701,5.424283984972113,-1.7342759601213635,5.649769656326585,-1.637766064644404,-0.4288374933333333,0.25609731999999996,-1.05486376,1.7397985733333332,1.1671439436337476,0.7850112052232648,0.7545482595034254,0.7545482595034254
LBP09_S02,LBP09,-1581,70,2,69,-1581,1716537826.76,2024-05-24 08:03:46.760000+00:00,2024-05-24 17:03:46.760000+09:00,2024,5,24,8,3,46,760,,,,,,,,,-0.095215,-0.045898,0.254395,-53.955078,-45.898438,25.024414,,,,,,,,,,,0.0,1.0,1.0,2.0,0.0,0.0,0.0,4.0,0.0,-0.0032942666666666625,-0.07839189333333334,1.0665006799999999,-3.382975253333333,6.0351562266666665,-3.2104492133333333,-8.397636123988033,9.550800073092244,4.222254283587161,1.5954837504425345,3.2056492972244555,4.378376826606187,5.656141745968172,-1.61290763641888,5.863651343818415,-1.6560940867311351,-0.09192073333333334,0.032493893333333336,-0.8121056799999999,0.9365203066666666,0.8179369840084003,0.8042710601206814,0.7564691299429701,0.7564691299429701
LBP09_S02,LBP09,-1580,71,2,70,-1580,1716537826.8,2024-05-24 08:03:46.800000+00:00,2024-05-24 17:03:46.800000+09:00,2024,5,24,8,3,46,800,,,,,,,,,0.38501,-0.254883,0.768799,-45.288086,-107.849121,3.723145,,,,,,,,,,,0.0,1.0,1.0,2.0,0.0,0.0,0.0,4.0,0.0,-0.008841146666666662,-0.07621741333333333,1.0690592800000003,-2.1118164000000004,5.719401026666666,-3.9249674400000005,-9.675606685198998,8.864300791786993,7.248961974155167,1.2084594830345745,3.5602213288959352,4.668335305572394,5.9940724685405185,-1.6865658251612123,6.139022205337031,-1.6862658544327522,0.3938511466666667,-0.1786655866666667,-0.30026028000000027,0.8727770133333337,0.526494400098682,0.8005893929989003,0.7497051673004911,0.7497051673004911
LBP09_S02,LBP09,-1579,72,2,71,-1579,1716537826.84,2024-05-24 08:03:46.840000+00:00,2024-05-24 17:03:46.840000+09:00,2024,5,24,8,3,46,840,,,,,,,,,0.428711,-0.056885,1.442627,-25.32959,42.419434,29.11377,,,,,,,,,,,0.0,1.0,1.0,2.0,0.0,0.0,0.0,4.0,0.0,-0.00855469333333333,-0.07732418666666667,1.0877604533333332,-1.6943359333333332,2.38199868,-4.545084626666667,-9.578625134637328,7.588825947156626,9.652323946492515,0.8253144776490814,3.8637743667822004,5.0544282634320945,6.4153831853289605,-1.68125475112395,6.473077056553121,-1.7134392878236295,0.4372656933333333,0.02043918666666667,0.35486654666666695,0.8125714266666669,0.5635151398684877,0.7849320754870008,0.7443854522310053,0.7443854522310053
LBP09_S02,LBP09,-1578,73,2,72,-1578,1716537826.88,2024-05-24 08:03:46.880000+00:00,2024-05-24 17:03:46.880000+09:00,2024,5,24,8,3,46,880,,,,,,,,,-0.342529,-0.319336,1.993164,29.35791,39.855957,7.568359,,,,,,,,,,,0.0,1.0,1.0,2.0,0.0,0.0,0.0,4.0,0.0,-0.00451497333333333,-0.07143550666666668,1.10021488,-2.15576172,3.8281249733333325,-4.892578106666667,-9.177529681293114,6.149688283462393,11.354748416787798,0.4582132903973568,4.109761898120696,5.508618200103607,6.888031413492109,-1.6340478813471393,6.872222713001889,-1.7175081043998621,-0.33801402666666663,-0.24790049333333333,0.8929491199999999,1.47886364,0.9864412135181185,0.8034105959742817,0.7511092233778696,0.7511092233778696
LBP09_S02,LBP09,-1577,74,2,73,-1577,1716537826.92,2024-05-24 08:03:46.920000+00:00,2024-05-24 17:03:46.920000+09:00,2024,5,24,8,3,46,920,,,,,,,,,-0.305664,-0.147949,2.135742,9.765625,-39.428711,0.0,,,,,,,,,,,0.0,1.0,1.0,2.0,0.0,0.0,0.0,4.0,0.0,-0.010504559999999996,-0.07490556000000001,1.0946908,-2.63997396,6.247558573333333,-4.42871092,-9.546767477167474,4.943461994121193,12.441487054655648,0.07634259131065785,4.307500377885543,6.0062776822898325,7.391600590772275,-1.7104403218493875,7.347345624491733,-1.71278226529565,-0.29515944,-0.07304343999999999,1.0410512,1.4092540800000002,1.0845469285234215,0.8038458522658695,0.7601210532466682,0.7601210532466682
LBP09_S02,LBP09,-1576,75,2,74,-1576,1716537826.96,2024-05-24 08:03:46.960000+00:00,2024-05-24 17:03:46.960000+09:00,2024,5,24,8,3,46,960,,,,,,,,,0.046387,0.014648,1.876221,29.418945,36.92627,-18.554688,,,,,,,,,,,0.0,1.0,1.0,2.0,0.0,0.0,0.0,4.0,0.0,-0.01985352,-0.06922197333333333,1.0857324666666666,-2.5065104133333334,6.3582356666666655,-5.20996092,-11.381026335925963,4.362536858127768,13.047305268434144,-0.3788984621263807,4.482001852210654,6.528169893027198,7.927730242638697,-1.8506018641363262,7.907909081398039,-1.710251265518588,0.06624052,0.08386997333333332,0.7904885333333334,0.9405990266666666,0.7976804499599378,0.8019908194877545,0.7611094584233332,0.7611094584233332
LBP09_S02,LBP09,-1575,76,2,75,-1575,1716537827.0,2024-05-24 08:03:47+00:00,2024-05-24 17:03:47+09:00,2024,5,24,8,3,47,0,8.0,3.0,46.0,40.545055,141.513779,-2.634,3.0,14.0,-0.415039,-0.143799,0.449463,12.451172,132.263184,30.395508,-287.0,152.0,252.0,167.0,0.0,1007.5,25.24,-0.054504,47.954868,3.909375,0.0,1.0,1.0,2.0,0.0,0.0,0.0,4.0,0.0,-0.016923826666666662,-0.06780596,1.0756641066666666,-4.404296866666667,5.112304666666667,-5.822753893333333,-14.752519952437263,4.81315923287519,13.254444734172548,-0.9689992602238712,4.674528221525662,7.0583476823941,8.521176307629858,-1.8158281378440357,8.558238387135688,-1.7178034938451276,-0.39811517333333335,-0.07599304000000001,-0.6262011066666666,1.10030932,0.7459212152481183,0.8077857476691248,0.7607200162906355,0.7607200162906355
LBP09_S02,LBP09,-1574,77,2,76,-1574,1716537827.04,2024-05-24 08:03:47.040000+00:00,2024-05-24 17:03:47.040000+09:00,2024,5,24,8,3,47,40,,,,,,,,,0.014648,-0.034668,0.115479,-40.161133,-47.241211,4.638672,,,,,,,,,,,0.0,1.0,1.0,2.0,0.0,0.0,0.0,4.0,0.0,-0.008356119999999996,-0.06703448,1.0705892399999999,-5.337727853333333,5.604654933333333,-5.966796853333333,-19.108334104114,6.642983358248263,13.050405705142468,-1.733332624388431,4.940247555855593,7.580363910599798,9.21262204353518,-1.6950473186841628,9.296791496562586,-1.726362274635667,0.023004119999999996,0.032366479999999996,-0.9551102399999999,1.0104808399999998,0.9559353268487478,0.8239105629583292,0.7656003990545882,0.7656003990545882
LBP09_S02,LBP09,-1573,78,2,77,-1573,1716537827.08,2024-05-24 08:03:47.080000+00:00,2024-05-24 17:03:47.080000+09:00,2024,5,24,8,3,47,80,,,,,,,,,0.195068,-0.103271,0.490479,-79.040527,-104.736328,20.690918,,,,,,,,,,,0.0,1.0,1.0,2.0,0.0,0.0,0.0,4.0,0.0,-0.009414066666666662,-0.06890297333333334,1.0761003066666666,-6.1678059733333335,6.169433573333333,-5.432942693333334,-23.50221080754927,9.962415038409938,12.358301296199725,-2.673421056690402,5.33874415739199,8.074695962447787,10.042414262039449,-1.7068529562700425,10.116625012880982,-1.7460152385273713,0.20448206666666666,-0.03436802666666666,-0.5856213066666666,0.8244713999999999,0.6212458383500091,0.8098680726957892,0.7620795561105741,0.7620795561105741
LBP09_S02,LBP09,-1572,79,2,78,-1572,1716537827.12,2024-05-24 08:03:47.120000+00:00,2024-05-24 17:03:47.120000+09:00,2024,5,24,8,3,47,120,,,,,,,,,0.591553,-0.001465,1.205566,9.399414,-19.53125,11.657715,,,,,,,,,,,0.0,1.0,1.0,2.0,0.0,0.0,0.0,4.0,0.0,-0.010143226666666663,-0.07310218666666668,1.0973893733333333,-8.452962226666667,4.042968733333333,-5.245768213333333,-26.953517931071254,14.44936797019336,11.11341771732695,-3.7515617739332523,5.916718876199725,8.519232671140866,11.02991855403517,-1.7089659623507427,11.005313120186687,-1.7708146230241026,0.6016962266666667,0.07163718666666669,0.10817662666666661,0.7815100399999999,0.6155261312530922,0.7853352541526357,0.7585901888520625,0.7585901888520625
LBP09_S02,LBP09,-1571,80,2,79,-1571,1716537827.16,2024-05-24 08:03:47.160000+00:00,2024-05-24 17:03:47.160000+09:00,2024,5,24,8,3,47,160,,,,,,,,,-0.04126,-0.120361,1.730957,-110.534668,74.401855,44.677734,,,,,,,,,,,0.0,1.0,1.0,2.0,0.0,0.0,0.0,4.0,0.0,-0.009485679999999996,-0.08046873333333333,1.1213769999999998,-7.83447264,5.2392578,-5.298665346666667,-28.778983122374363,19.290539168729108,9.338326969700677,-4.902721098828227,6.688340442948889,8.892765749928893,12.159434803344668,-1.6884299196842762,11.944388644426516,-1.7777556854728693,-0.03177432,-0.03989226666666666,0.6095800000000002,0.6812465866666669,0.6117097160837542,0.800319224356666,0.7551743639039624,0.7551743639039624
LBP09_S02,LBP09,-1570,81,2,80,-1570,1716537827.2,2024-05-24 08:03:47.200000+00:00,2024-05-24 17:03:47.200000+09:00,2024,5,24,8,3,47,200,,,,,,,,,-0.274658,-0.221436,2.031494,-43.151855,4.272461,11.59668,,,,,,,,,,,0.0,1.0,1.0,2.0,0.0,0.0,0.0,4.0,0.0,-0.01688801333333333,-0.08295245333333334,1.1174772666666666,-6.375325506666667,7.8108723866666665,-5.05452472,-28.768751278895458,23.355705512963674,7.17176770713791,-6.053471149984046,7.622568663467436,9.179636458214409,13.379603562809477,-1.7721536330666066,12.909198001519092,-1.7669949554476623,-0.2577699866666667,-0.13848354666666665,0.9140167333333333,1.3102702666666666,0.9597133152857942,0.7982349421585115,0.7598229764353678,0.7598229764353678
LBP09_S02,LBP09,-1569,82,2,81,-1569,1716537827.24,2024-05-24 08:03:47.240000+00:00,2024-05-24 17:03:47.240000+09:00,2024,5,24,8,3,47,240,,,,,,,,,0.133301,-0.06665,1.613525,54.748535,73.486328,-39.367676,,,,,,,,,,,0.0,1.0,1.0,2.0,0.0,0.0,0.0,4.0,0.0,-0.025397119999999995,-0.08030270666666668,1.1108822133333334,-5.4386393066666665,8.519694,-4.451497373333333,-27.158515999989422,25.555616034764533,4.831783094213218,-7.139811789983622,8.644793304858018,9.372907781982939,14.61371834851293,-1.8777843900409932,13.86964162822917,-1.766739603427909,0.15869812,0.01365270666666668,0.5026427866666667,0.6749936133333334,0.5272772142610495,0.7947694822257225,0.7546552928314939,0.7546552928314939
LBP09_S02,LBP09,-1568,83,2,82,-1568,1716537827.28,2024-05-24 08:03:47.280000+00:00,2024-05-24 17:03:47.280000+09:00,2024,5,24,8,3,47,280,,,,,,,,,-0.51709,0.25293,0.121826,10.009766,130.432129,-7.568359,,,,,,,,,,,0.0,1.0,1.0,2.0,0.0,0.0,0.0,4.0,0.0,-0.024462866666666666,-0.07620439999999999,1.1040723066666667,-4.033203106666667,6.58203124,-4.7290038800000005,-24.447459347275174,25.21661712942642,2.533530944183393,-8.11771016387463,9.653457990035076,9.474249019750275,15.774912486549159,-1.8820417263144542,14.791937969626977,-1.7682447733912643,-0.4926271333333334,0.3291344,-0.9822463066666667,1.8040078400000001,1.147091431717579,0.8097278128148356,0.763186513242061,0.763186513242061
LBP09_S02,LBP09,-1567,84,2,83,-1567,1716537827.32,2024-05-24 08:03:47.320000+00:00,2024-05-24 17:03:47.320000+09:00,2024,5,24,8,3,47,320,,,,,,,,,-0.013672,-0.28418,0.357422,-36.804199,-36.193848,6.225586,,,,,,,,,,,0.0,1.0,1.0,2.0,0.0,0.0,0.0,4.0,0.0,-0.016149066666666663,-0.07629554666666667,1.09543624,-4.121093733333333,6.162109373333333,-4.48160804,-21.180398000120384,22.29563475252373,0.4128280803966897,-8.964926083879446,10.545283380136025,9.490762142966142,16.782355833170573,-1.779850946337055,15.64163802404812,-1.7781877218560502,0.002477066666666663,-0.20788445333333333,-0.7380142399999999,0.9483757599999999,0.7667379606095862,0.8078953684614868,0.7632620759520083,0.7632620759520083
LBP09_S02,LBP09,-1566,85,2,84,-1566,1716537827.36,2024-05-24 08:03:47.360000+00:00,2024-05-24 17:03:47.360000+09:00,2024,5,24,8,3,47,360,,,,,,,,,0.200684,-0.042725,0.821533,-46.447754,-73.181152,8.056641,,,,,,,,,,,0.0,1.0,1.0,2.0,0.0,0.0,0.0,4.0,0.0,-0.01240557333333333,-0.07147784,1.0886849333333333,-3.3569335733333334,7.25423176,-4.676920533333333,-17.80563338744731,17.351669921653333,-1.4999255979906991,-9.677151419377338,11.239350177002159,9.430765119046514,17.575823813564465,-1.7429945638842534,16.387859119487707,-1.7948895777175218,0.21308957333333334,0.02875284,-0.2671519333333333,0.5089943466666667,0.34293446539417033,0.7746925571524248,0.7545052507320534,0.7545052507320534
LBP09_S02,LBP09,-1565,86,2,85,-1565,1716537827.4,2024-05-24 08:03:47.400000+00:00,2024-05-24 17:03:47.400000+09:00,2024,5,24,8,3,47,400,,,,,,,,,0.293213,-0.208984,1.411377,-38.085938,50.476074,21.30127,,,,,,,,,,,0.0,1.0,1.0,2.0,0.0,0.0,0.0,4.0,0.0,-0.017597626666666664,-0.07128904,1.0890364933333332,-4.344075493333333,6.139322906666666,-4.561360626666667,-14.64230628505705,11.322407490171488,-3.2513284846566815,-10.26284367077962,11.692246476609018,9.300711979660246,18.125612574730624,-1.8132746176465036,17.00791434725548,-1.8178211476712611,0.31081062666666665,-0.13769496,0.3223405066666669,0.7708460933333335,0.46847257112498186,0.7509117391456123,0.7486678491074192,0.7486678491074192
LBP09_S02,LBP09,-1564,87,2,86,-1564,1716537827.44,2024-05-24 08:03:47.440000+00:00,2024-05-24 17:03:47.440000+09:00,2024,5,24,8,3,47,440,,,,,,,,,-0.298828,-0.073242,1.865479,13.61084,28.076172,-11.962891,,,,,,,,,,,0.0,1.0,1.0,2.0,0.0,0.0,0.0,4.0,0.0,-0.01053381333333333,-0.07529945333333332,1.1042090133333333,-5.5086262800000005,5.385742173333333,-5.467936146666667,-11.912873489132414,5.238539798991679,-4.915585406051998,-10.739358610344917,11.901788068568685,9.104088563418166,18.435585457513273,-1.7100990183177154,17.49109845554487,-1.8146546123571359,-0.2882941866666667,0.00205745333333332,0.7612699866666668,1.051621626666667,0.8140330237646878,0.7571366086695356,0.7499751526005646,0.7499751526005646
LBP09_S02,LBP09,-1563,88,2,87,-1563,1716537827.48,2024-05-24 08:03:47.480000+00:00,2024-05-24 17:03:47.480000+09:00,2024,5,24,8,3,47,480,,,,,,,,,-0.343018,-0.024902,2.025635,-28.503418,-77.575684,-24.047852,,,,,,,,,,,0.0,1.0,1.0,2.0,0.0,0.0,0.0,4.0,0.0,-0.018528599999999996,-0.07740232,1.1005306266666668,-6.512858053333334,7.499186186666666,-5.607096306666667,-9.780126408146256,-0.007195839882481098,-6.561004724292922,-11.130563666670767,11.901500234973385,8.84164837444645,18.539414806250885,-1.8062824409179024,17.84080667945305,-1.7940826625032424,-0.3244894,0.052500319999999996,0.9251043733333331,1.302094093333333,0.981767668989421,0.7588834526247821,0.7637560053976048,0.754520103902307
LBP09_S02,LBP09,-1562,89,2,88,-1562,1716537827.52,2024-05-24 08:03:47.520000+00:00,2024-05-24 17:03:47.520000+09:00,2024,5,24,8,3,47,520,,,,,,,,,0.008057,-0.110107,1.17749,48.278809,80.322266,-5.493164,,,,,,,,,,,0.0,1.0,1.0,2.0,0.0,0.0,0.0,4.0,0.0,-0.025152946666666665,-0.08003578666666668,1.0924186533333333,-5.60384112,8.045247373333334,-5.590006466666666,-8.36529490293778,-3.7949422732879787,-8.24274911855353,-11.465175462788277,11.749702544041867,8.511938409704308,18.492129508431034,-1.8759845209654569,18.07474667713523,-1.7780169138437685,0.03320994666666666,-0.03007121333333332,0.0850713466666666,0.14835250666666658,0.09614734761095521,0.7467234582079754,0.7525282891741201,0.7418590893582425
LBP09_S02,LBP09,-1561,90,2,89,-1561,1716537827.56,2024-05-24 08:03:47.560000+00:00,2024-05-24 17:03:47.560000+09:00,2024,5,24,8,3,47,560,,,,,,,,,-0.384766,0.172119,-0.08374,-27.709961,37.109375,-14.404297,,,,,,,,,,,0.0,1.0,1.0,2.0,0.0,0.0,0.0,4.0,0.0,-0.026197866666666663,-0.07259764,1.077539093333333,-4.9430338266666665,5.95947264,-5.971679653333334,-7.7613018514873,-5.8367508258457335,-10.005292086689941,-11.77562753684777,11.516232511008038,8.11172672623671,18.359987081022386,-1.9177456192216713,18.22320492121118,-1.7697490011082646,-0.3585681333333333,0.24471663999999999,-1.161279093333333,1.7645638666666663,1.23976871744214,0.7750698019144514,0.7695965933331901,0.7512536106428443
LBP09_S02,LBP09,-1560,91,2,90,-1560,1716537827.6,2024-05-24 08:03:47.600000+00:00,2024-05-24 17:03:47.600000+09:00,2024,5,24,8,3,47,600,,,,,,,,,-0.043701,0.050049,0.084961,-25.268555,-67.810059,-11.047363,,,,,,,,,,,0.0,1.0,1.0,2.0,0.0,0.0,0.0,4.0,0.0,-0.012473906666666663,-0.07296873333333333,1.0622168266666667,-6.267903613333333,5.2408854,-6.04248044,-8.056328752870515,-6.1952083574658126,-11.873329707150294,-12.09788068696259,11.268424176709406,7.636793537950699,18.211444645703345,-1.7404882799253514,18.325348212433948,-1.7665215952172588,-0.031227093333333334,0.12301773333333332,-0.9772558266666668,1.1315006533333334,0.9854630611171938,0.7817522041646324,0.779190710433175,0.7555908226886656
LBP09_S02,LBP09,-1559,92,2,91,-1559,1716537827.64,2024-05-24 08:03:47.640000+00:00,2024-05-24 17:03:47.640000+09:00,2024,5,24,8,3,47,640,,,,,,,,,0.443604,-0.067627,0.658447,-38.574219,-98.571777,-18.127441,,,,,,,,,,,0.0,1.0,1.0,2.0,0.0,0.0,0.0,4.0,0.0,-0.00767573333333333,-0.07573239999999999,1.0455143599999999,-7.019856746666666,6.55354816,-5.926920546666666,-9.351422308021728,-5.269026035941809,-13.825306967463524,-12.471937579283459,11.057663135271733,7.083781259252158,18.110800587594756,-1.6720648915020604,18.423705572357076,-1.7719229583282696,0.4512797333333333,0.008105399999999985,-0.38706735999999986,0.8464524933333332,0.5945924960878114,0.758705756299909,0.7685872546282182,0.7526635803868319
LBP09_S02,LBP09,-1558,93,2,92,-1558,1716537827.68,2024-05-24 08:03:47.680000+00:00,2024-05-24 17:03:47.680000+09:00,2024,5,24,8,3,47,680,,,,,,,,,0.268555,-0.101074,0.989746,-63.659668,31.860352,13.427734,,,,,,,,,,,0.0,1.0,1.0,2.0,0.0,0.0,0.0,4.0,0.0,-0.011721959999999997,-0.07745765333333333,1.0486035466666668,-7.0247395599999995,5.44514972,-6.3419596,-11.726969194440672,-3.708087303210392,-15.762729601845347,-12.941016347061087,10.909339643143317,6.453272075178344,18.114312463370982,-1.7213842397197177,18.557312513948606,-1.7909319100307637,0.28027695999999996,-0.023616346666666663,-0.05885754666666676,0.3627508533333334,0.2873623443256625,0.748218356205022,0.7594359395870072,0.7443546297428825
LBP09_S02,LBP09,-1557,94,2,93,-1557,1716537827.72,2024-05-24 08:03:47.720000+00:00,2024-05-24 17:03:47.720000+09:00,2024,5,24,8,3,47,720,,,,,,,,,-0.046875,0.061279,1.548096,53.405762,56.274414,-25.512695,,,,,,,,,,,0.0,1.0,1.0,2.0,0.0,0.0,0.0,4.0,0.0,-0.009973919999999995,-0.07871090666666666,1.0702148800000002,-6.67805988,4.136555959999999,-7.067057253333332,-15.126028714607981,-2.2195674107999706,-17.498331350132304,-13.546057495645407,10.820556946711319,5.753338821173052,18.26693827393005,-1.6971718189820106,18.754475978545635,-1.7871592939483598,-0.03690108,0.13998990666666666,0.4778811199999997,0.6547721066666664,0.49932877798717207,0.721505749579159,0.7532584774012119,0.7400559305892734
LBP09_S02,LBP09,-1556,95,2,94,-1556,1716537827.76,2024-05-24 08:03:47.760000+00:00,2024-05-24 17:03:47.760000+09:00,2024,5,24,8,3,47,760,,,,,,,,,-0.139404,-0.063477,1.62207,23.254395,-17.272949,-31.677246,,,,,,,,,,,0.0,1.0,1.0,2.0,0.0,0.0,0.0,4.0,0.0,-0.01222653333333333,-0.08708656000000001,1.07672204,-6.9767252399999995,5.974934866666667,-6.43554684,-19.185976298720576,-1.3009175476122423,-18.7816161742856,-14.31349654759423,10.76852024480683,5.002074174201628,18.59725672579215,-1.7107205049741971,19.02668872959456,-1.768610443311364,-0.12717746666666668,0.02360956,0.54534796,0.6961349866666666,0.560478292913567,0.7112074019353656,0.7577392310280235,0.736959764422451
LBP09_S02,LBP09,-1555,96,2,95,-1555,1716537827.8,2024-05-24 08:03:47.800000+00:00,2024-05-24 17:03:47.800000+09:00,2024,5,24,8,3,47,800,,,,,,,,,-0.128906,0.089844,0.75708,2.746582,78.24707,-15.869141,,,,,,,,,,,0.0,1.0,1.0,2.0,0.0,0.0,0.0,4.0,0.0,-0.025784479999999995,-0.08464516,1.0606966533333333,-5.27506508,6.662597626666667,-6.051432266666668,-23.120881047802914,-1.022437348065617,-19.362596922081934,-15.238331789506347,10.727622750884205,4.22757029731835,19.109186173961895,-1.8672882487566125,19.365496539544647,-1.7382868388274535,-0.10312152,0.17448915999999998,-0.3036166533333333,0.5812273333333333,0.3650528551127213,0.7047497401359273,0.7526695665674137,0.7306562574849979
LBP09_S02,LBP09,-1554,97,2,96,-1554,1716537827.84,2024-05-24 08:03:47.840000+00:00,2024-05-24 17:03:47.840000+09:00,2024,5,24,8,3,47,840,,,,,,,,,-0.25708,0.078369,-0.084717,-41.564941,20.507812,-11.413574,,,,,,,,,,,0.0,1.0,1.0,2.0,0.0,0.0,0.0,4.0,0.0,-0.025738906666666662,-0.07546873333333333,1.0400749066666666,-4.361979133333333,4.818522106666666,-6.5755208000000005,-25.76911700877825,-0.9925209561719849,-19.075309083799734,-16.269096469857477,10.687921912637325,3.4645579339663612,19.77165487342856,-1.9001885353426589,19.743586860823786,-1.731493096696343,-0.2313410933333333,0.15383773333333334,-1.1247919066666665,1.5099707333333332,1.1585946586121632,0.7285529208856742,0.7567424981863375,0.7377885641704507
LBP09_S02,LBP09,-1553,98,2,97,-1553,1716537827.88,2024-05-24 08:03:47.880000+00:00,2024-05-24 17:03:47.880000+09:00,2024,5,24,8,3,47,880,,,,,,,,,-0.05127,0.046387,0.200195,-41.625977,-60.119629,-17.51709,,,,,,,,,,,0.0,1.0,1.0,2.0,0.0,0.0,0.0,4.0,0.0,-0.014374973333333329,-0.07191078666666666,1.0171972933333335,-4.0039062266666665,3.8216145466666664,-7.331542933333333,-25.84757790030855,-0.5543959529342851,-17.915260057853985,-17.30299958586982,10.665746074519953,2.7479475316522017,20.511049452221172,-1.7685562800938612,20.12011700458622,-1.739133697279789,-0.03689502666666668,0.11829778666666665,-0.8170022933333335,0.9721951066666669,0.8263463902231876,0.7221491279538769,0.7627798619640792,0.7392403318106594
LBP09_S02,LBP09,-1552,99,2,98,-1552,1716537827.92,2024-05-24 08:03:47.920000+00:00,2024-05-24 17:03:47.920000+09:00,2024,5,24,8,3,47,920,,,,,,,,,0.310547,-0.023438,0.424805,-57.373047,-106.750488,-28.686523,,,,,,,,,,,0.0,1.0,1.0,2.0,0.0,0.0,0.0,4.0,0.0,-0.00836585333333333,-0.06972329333333334,0.9980989866666666,-4.095052053333333,3.2893879866666667,-8.150227840000001,-22.341513345121353,0.8653056720778752,-16.088128660627977,-18.196660119674675,10.700358301403067,2.1044223852270827,21.2142570189203,-1.690496014595498,20.44907325777766,-1.752556640704579,0.31891285333333336,0.04628529333333334,-0.5732939866666666,0.9384921333333334,0.6576577617182976,0.705073561281672,0.7544597067737707,0.7379244839059439
LBP09_S02,LBP09,-1551,100,2,99,-1551,1716537827.96,2024-05-24 08:03:47.960000+00:00,2024-05-24 17:03:47.960000+09:00,2024,5,24,8,3,47,960,,,,,,,,,0.475098,0.004395,1.019287,-52.062988,13.366699,-39.855957,,,,,,,,,,,0.0,1.0,1.0,2.0,0.0,0.0,0.0,4.0,0.0,-0.003225879999999995,-0.07394856,1.0045345333333333,-4.829101533333334,2.08821612,-8.517252586666666,-14.883119389198752,3.4334282012513517,-14.010036871318231,-18.791984895242624,10.837695429453122,1.5440209103743534,21.748065180523284,-1.6145095743825655,20.688851822688612,-1.7718575778782863,0.47832388000000003,0.07834355999999999,0.014752466666666741,0.5714199066666668,0.48492172857532295,0.6925632124262875,0.747277015957021,0.7339085671546642
LBP09_S02,LBP09,-1550,101,2,100,-1550,1716537828.0,2024-05-24 08:03:48+00:00,2024-05-24 17:03:48+09:00,2024,5,24,8,3,48,0,8.0,3.0,47.0,40.545143,141.513748,-1.663,3.0,14.0,-0.011963,-0.507324,1.636963,3.723145,69.519043,2.990723,-287.0,171.0,245.0,145.0,0.0,1007.400024,25.280001,-0.055495,48.790623,3.909375,0.0,1.0,1.0,2.0,0.0,0.0,0.0,5.0,0.0,-0.007659466666666663,-0.07521483999999999,1.0217708666666667,-4.5222981466666665,3.2828775733333333,-8.648274733333333,-3.974408964740765,6.786012204957618,-12.243229556944756,-18.950961253832254,11.109135917651427,1.0542917280965631,21.992347858494718,-1.6725508586142472,20.81119988487638,-1.7824347051064773,-0.004303533333333337,-0.43210916,0.6151921333333332,1.0516048266666664,0.7517966530055015,0.6927982299365827,0.7502919888028537,0.7341880684960835
LBP09_S02,LBP09,-1549,102,2,101,-1549,1716537828.04,2024-05-24 08:03:48.040000+00:00,2024-05-24 17:03:48.040000+09:00,2024,5,24,8,3,48,40,,,,,,,,,-0.425293,-0.253662,1.831543,49.865723,-2.746582,-4.516602,,,,,,,,,,,0.0,1.0,1.0,2.0,0.0,0.0,0.0,5.0,0.0,-0.012994759999999996,-0.07254230666666667,1.0238900133333333,-4.2594400666666665,4.891764293333333,-8.458658853333333,9.019150875636202,10.161507315534687,-11.36718257910955,-18.590195218806805,11.515596210272815,0.5996044249321811,21.8761020252191,-1.7484708973365222,20.807781280529888,-1.766614469440163,-0.41229824,-0.18111969333333333,0.8076529866666666,1.40107092,0.9247148365262909,0.6915494103236846,0.7577299866410069,0.7371192495427021
LBP09_S02,LBP09,-1548,103,2,102,-1548,1716537828.08,2024-05-24 08:03:48.080000+00:00,2024-05-24 17:03:48.080000+09:00,2024,5,24,8,3,48,80,,,,,,,,,-0.017334,-0.139404,1.775879,43.640137,-22.155762,-8.117676,,,,,,,,,,,0.0,1.0,1.0,2.0,0.0,0.0,0.0,5.0,0.0,-0.02013994666666666,-0.06893553333333333,1.0103841466666668,-3.331705693333333,5.920410133333333,-8.34635416,22.08242563587166,12.708969326710324,-11.815234449896717,-17.706898193371938,12.023954983341227,0.12699504693631242,21.403874995285342,-1.8556136739676163,20.693154949858403,-1.7346341158150316,0.002805946666666663,-0.07046846666666667,0.7654948533333332,0.8387692666666666,0.7687366575172988,0.697449043090376,0.7536585578930827,0.7375983011786809
LBP09_S02,LBP09,-1547,104,2,103,-1547,1716537828.12,2024-05-24 08:03:48.120000+00:00,2024-05-24 17:03:48.120000+09:00,2024,5,24,8,3,48,120,,,,,,,,,-0.284912,0.038574,0.75,17.456055,153.930664,17.822266,,,,,,,,,,,0.0,1.0,1.0,2.0,0.0,0.0,0.0,5.0,0.0,-0.021015599999999995,-0.06366534666666668,0.9861914399999999,-3.8907877333333327,5.0976562266666665,-8.97054036,32.88627282410151,13.818191191604228,-13.73200847878414,-16.391447280407878,12.576682631005395,-0.42228529221505323,20.66472392303959,-1.8901811907190837,20.504553468125213,-1.7288721394849709,-0.26389640000000003,0.10223934666666668,-0.23619143999999992,0.6023271866666666,0.3686198451915746,0.6875727916479154,0.7364540229002755,0.732091160044545
LBP09_S02,LBP09,-1546,105,2,104,-1546,1716537828.16,2024-05-24 08:03:48.160000+00:00,2024-05-24 17:03:48.160000+09:00,2024,5,24,8,3,48,160,,,,,,,,,-0.003418,0.124023,0.142334,19.470215,-37.04834,-26.977539,,,,,,,,,,,0.0,1.0,1.0,2.0,0.0,0.0,0.0,5.0,0.0,-0.015800759999999994,-0.06313801333333333,0.9623372666666667,-3.789876266666667,4.699707013333334,-9.42626952,39.16106690674619,13.334786096489077,-16.90676722830547,-14.82500460413803,13.110074074864958,-1.098555981347272,19.820737347669837,-1.8164917772561089,20.300529184406656,-1.7403597082040885,0.012382759999999993,0.18716101333333332,-0.8200032666666668,1.0195470400000002,0.8411824623713826,0.6967517014994205,0.7485354629280433,0.7336954439022927
LBP09_S02,LBP09,-1545,106,2,105,-1545,1716537828.2,2024-05-24 08:03:48.200000+00:00,2024-05-24 17:03:48.200000+09:00,2024,5,24,8,3,48,200,,,,,,,,,0.303955,0.135498,0.956055,2.01416,-62.805176,-38.208008,,,,,,,,,,,0.0,1.0,1.0,2.0,0.0,0.0,0.0,5.0,0.0,-0.008343079999999996,-0.06006184000000001,0.9539192933333334,-4.719238253333333,2.7791340933333335,-9.705403626666667,39.07194020513084,11.588598163167315,-20.80948776788884,-13.262126995932796,13.573618001391651,-1.9309354920628257,19.075000130497006,-1.7090858920934695,20.15906587781704,-1.7723917711158474,0.31229808,0.19555984,0.002135706666666626,0.5099936266666666,0.36848107554592,0.6731024119098257,0.7356686770341685,0.7284024820420553
LBP09_S02,LBP09,-1544,107,2,106,-1544,1716537828.24,2024-05-24 08:03:48.240000+00:00,2024-05-24 17:03:48.240000+09:00,2024,5,24,8,3,48,240,,,,,,,,,0.36377,-0.451904,1.728271,-21.606445,70.495605,-11.962891,,,,,,,,,,,0.0,1.0,1.0,2.0,0.0,0.0,0.0,5.0,0.0,-0.0006184799999999946,-0.06464192,0.9708919600000001,-5.630696586666667,2.6652017999999997,-9.883626293333334,31.59574816001583,9.248179428075659,-24.714738014233387,-11.998297069532162,13.943545178514677,-2.9195250126321612,18.625391566713674,-1.580384999091346,20.171427853067055,-1.7953841081536006,0.36438847999999996,-0.38726207999999995,0.7573790399999998,1.5090295999999996,0.9254047185928749,0.6890275120830985,0.7418984971544106,0.7312167997070671
LBP09_S02,LBP09,-1543,108,2,107,-1543,1716537828.28,2024-05-24 08:03:48.280000+00:00,2024-05-24 17:03:48.280000+09:00,2024,5,24,8,3,48,280,,,,,,,,,-0.482178,0.052734,1.890381,116.149902,25.268555,-53.833008,,,,,,,,,,,0.0,1.0,1.0,2.0,0.0,0.0,0.0,5.0,0.0,-0.009225253333333327,-0.06553710666666668,0.9915136933333334,-4.877929666666667,2.91178384,-10.618489573333335,16.87764225568415,7.082245503436294,-27.865785303681996,-11.323191379304797,14.226834998652128,-4.034156424779441,18.625034634889268,-1.7109365167932502,20.42757192544686,-1.8014982035662725,-0.47295274666666665,0.11827110666666668,0.8988673066666667,1.49009116,1.0225628539341185,0.6840463689717601,0.7468870908932979,0.7353202652595607
LBP09_S02,LBP09,-1542,109,2,108,-1542,1716537828.32,2024-05-24 08:03:48.320000+00:00,2024-05-24 17:03:48.320000+09:00,2024,5,24,8,3,48,320,,,,,,,,,-0.317383,-0.082764,1.959473,108.703613,-121.09375,-42.480469,,,,,,,,,,,0.0,1.0,1.0,2.0,0.0,0.0,0.0,5.0,0.0,-0.01594074666666666,-0.06684244,1.0095508000000002,-4.903157533333333,2.57080076,-10.887858066666666,-3.529713636288834,5.725459620611804,-29.62385505736326,-11.46437992475635,14.455853383476601,-5.219110627073972,19.174014181734737,-1.805371701786677,20.995283385953858,-1.7842477836787523,-0.30144225333333335,-0.01592156,0.9499221999999998,1.2672860133333332,0.996731214631282,0.6932460991326279,0.7505707337970574,0.7389509728897236
LBP09_S02,LBP09,-1541,110,2,109,-1541,1716537828.36,2024-05-24 08:03:48.360000+00:00,2024-05-24 17:03:48.360000+09:00,2024,5,24,8,3,48,360,,,,,,,,,0.279297,0.428467,0.941162,-41.320801,73.120117,-14.953613,,,,,,,,,,,0.0,1.0,1.0,2.0,0.0,0.0,0.0,5.0,0.0,-0.02601886666666666,-0.06842446666666667,1.0011035333333334,-4.41243488,4.095865853333333,-10.837402346666668,-26.702289979205055,5.519347225147335,-29.565648290252184,-12.532471523924553,14.676627272482495,-6.4017365586840596,20.3334321146271,-1.934830203500155,21.9010890978286,-1.7593647225119167,0.30531586666666666,0.49689146666666667,-0.0599415333333333,0.8621488666666666,0.586269473453053,0.7029794994549833,0.7388360283037041,0.7368594455001801
LBP09_S02,LBP09,-1540,111,2,110,-1540,1716537828.4,2024-05-24 08:03:48.400000+00:00,2024-05-24 17:03:48.400000+09:00,2024,5,24,8,3,48,400,,,,,,,,,-0.251221,-0.092041,-0.064697,-103.69873,79.223633,29.968262,,,,,,,,,,,0.0,1.0,1.0,2.0,0.0,0.0,0.0,5.0,0.0,-0.02227538666666666,-0.06480467999999999,0.9742643466666667,-4.440104146666667,3.3170572533333336,-10.646972653333334,-48.77497344880341,6.459057701403745,-27.52522843435743,-14.483470461876689,14.934989580538645,-7.502745696058357,22.115967610994883,-1.9024742289917769,23.120464022064336,-1.750620219842548,-0.22894561333333335,-0.02723632000000001,-1.0389613466666667,1.29514328,1.0642361537079692,0.7268100427583029,0.7388608909519574,0.7412834550705556
LBP09_S02,LBP09,-1539,112,2,111,-1539,1716537828.44,2024-05-24 08:03:48.440000+00:00,2024-05-24 17:03:48.440000+09:00,2024,5,24,8,3,48,440,,,,,,,,,-0.047363,-0.004883,0.256592,-67.138672,-38.452148,-52.490234,,,,,,,,,,,0.0,1.0,1.0,2.0,0.0,0.0,0.0,5.0,0.0,-0.015117186666666662,-0.06221678666666667,0.9539583599999999,-4.35058592,3.0037434533333336,-10.872395826666667,-65.72999151547612,8.232933552343972,-23.6050880025001,-17.112670122495732,15.264306922632404,-8.44694921615836,24.437542749017133,-1.8096118514632435,24.580544669245004,-1.7539344092788471,-0.03224581333333334,0.05733378666666667,-0.69736636,0.7869459599999999,0.7004618445216817,0.7222671955885825,0.7397019021290591,0.7407391669299039
LBP09_S02,LBP09,-1538,113,2,112,-1538,1716537828.48,2024-05-24 08:03:48.480000+00:00,2024-05-24 17:03:48.480000+09:00,2024,5,24,8,3,48,480,,,,,,,,,0.374268,-0.096436,0.567139,-133.605957,-62.744141,-54.504395,,,,,,,,,,,0.0,1.0,1.0,2.0,0.0,0.0,0.0,5.0,0.0,-0.006998706666666662,-0.06218422666666667,0.9459147333333332,-5.235188786666667,2.8816731333333334,-11.38020832,-74.33405053668594,10.31515951342754,-18.18093454088683,-20.08603214396317,15.676913303169506,-9.174186597793835,27.080989600355352,-1.6831094750924125,26.174344637719987,-1.7882785933114875,0.3812667066666667,-0.034251773333333325,-0.37877573333333325,0.7942942133333333,0.5385244114718741,0.7045374652878807,0.7317104589563315,0.7440164920276967
LBP09_S02,LBP09,-1537,114,2,113,-1537,1716537828.52,2024-05-24 08:03:48.520000+00:00,2024-05-24 17:03:48.520000+09:00,2024,5,24,8,3,48,520,,,,,,,,,0.392334,-0.016846,1.332764,-84.289551,62.072754,-27.038574,,,,,,,,,,,0.0,1.0,1.0,2.0,0.0,0.0,0.0,5.0,0.0,-0.004459639999999996,-0.06323890666666666,0.9632812666666666,-5.148925773333333,2.0621744266666666,-11.988118479999999,-72.9396241437891,12.086649646588096,-11.89138937812654,-23.003617109714735,16.16037928903303,-9.649842172918897,29.722781041786995,-1.6413505790507292,27.781643708937896,-1.806759279806964,0.39679364,0.046392906666666664,0.3694827333333335,0.8126692800000002,0.5441644831895066,0.7224581507110227,0.734590804459499,0.7425049096864209
LBP09_S02,LBP09,-1536,115,2,114,-1536,1716537828.56,2024-05-24 08:03:48.560000+00:00,2024-05-24 17:03:48.560000+09:00,2024,5,24,8,3,48,560,,,,,,,,,-0.108887,-0.093994,1.862793,-41.809082,46.203613,8.300781,,,,,,,,,,,0.0,1.0,1.0,2.0,0.0,0.0,0.0,5.0,0.0,-0.010559893333333329,-0.06631508,0.99162436,-5.273437493333334,1.6259765066666665,-11.857910146666669,-61.91472759955379,12.984035922412536,-5.574594436257932,-25.48020621369689,16.679740725929534,-9.872825950369213,32.01448659002723,-1.729046750562421,29.288976851391233,-1.80837495504537,-0.09832710666666666,-0.027678919999999996,0.8711686399999999,0.9971746666666665,0.8771369002825351,0.7079528780246386,0.741511339969545,0.7490486882303397
LBP09_S02,LBP09,-1535,116,2,115,-1535,1716537828.6,2024-05-24 08:03:48.600000+00:00,2024-05-24 17:03:48.600000+09:00,2024,5,24,8,3,48,600,,,,,,,,,-0.249023,-0.377441,2.192383,-163.513184,-46.875,23.864746,,,,,,,,,,,0.0,1.0,1.0,2.0,0.0,0.0,0.0,5.0,0.0,-0.013460279999999996,-0.07796873333333335,1.0144270933333333,-4.258626306666667,3.018391866666667,-11.362304680000001,-43.5822868984823,12.661848622918212,-0.12968676610442345,-27.22349768963618,17.18621467084626,-9.87801342101339,33.67580660230365,-1.7422277864564608,30.60292354406078,-1.7866951680859362,-0.23556272,-0.2994722666666667,1.1779559066666667,1.7129908933333335,1.2380442446080666,0.7180561253642734,0.7499041647644529,0.7588125154102078
LBP09_S02,LBP09,-1534,117,2,116,-1534,1716537828.64,2024-05-24 08:03:48.640000+00:00,2024-05-24 17:03:48.640000+09:00,2024,5,24,8,3,48,640,,,,,,,,,-0.112305,-0.5896,1.74292,8.483887,63.232422,9.277344,,,,,,,,,,,0.0,1.0,1.0,2.0,0.0,0.0,0.0,5.0,0.0,-0.027594399999999998,-0.0750716,1.0010449333333333,-2.1468098933333333,4.923502546666667,-10.697428373333334,-21.67812410074821,11.115734505938159,3.6677429279477307,-28.09062265366611,17.630844051083788,-9.731303703895481,34.563391251463536,-1.9238268394177493,31.657266434424645,-1.7586042284133303,-0.0847106,-0.5145284,0.7418750666666667,1.3411140666666665,0.9068042648226744,0.730544596113668,0.7446251762067884,0.7559063684567014
LBP09_S02,LBP09,-1533,118,2,117,-1533,1716537828.68,2024-05-24 08:03:48.680000+00:00,2024-05-24 17:03:48.680000+09:00,2024,5,24,8,3,48,680,,,,,,,,,-0.474609,-0.203613,0.0271,125.305176,88.745117,5.493164,,,,,,,,,,,0.0,1.0,1.0,2.0,0.0,0.0,0.0,5.0,0.0,-0.024309893333333332,-0.07233397333333334,0.9801757866666666,1.67317708,2.9353840666666673,-11.39811196,-0.45882389297233334,8.703990868799057,5.33054958044049,-28.108975609385002,17.97900368583575,-9.518081720677861,34.69802534706836,-1.8957433817480134,32.41831472631829,-1.7522219619265766,-0.45029910666666667,-0.13127902666666663,-0.9530757866666666,1.5346539199999998,1.0622414619273863,0.7615397608177369,0.7548790585113794,0.7601372133305837
LBP09_S02,LBP09,-1532,119,2,118,-1532,1716537828.72,2024-05-24 08:03:48.720000+00:00,2024-05-24 17:03:48.720000+09:00,2024,5,24,8,3,48,720,,,,,,,,,-0.003906,0.254883,0.104248,40.466309,-42.602539,11.535645,,,,,,,,,,,0.0,1.0,1.0,2.0,0.0,0.0,0.0,5.0,0.0,-0.01626953333333333,-0.06365232,0.9623242266666667,3.778483066666666,1.6560871866666667,-12.292480453333335,16.29979568090712,6.032932284452029,4.747966415985845,-27.45698378214872,18.22032097721383,-9.328163064038428,34.24734560626804,-1.821528454170737,32.889432815738814,-1.7579171435717647,0.01236353333333333,0.31853532,-0.8580762266666667,1.18897508,0.9153755610756121,0.7781816321412746,0.7498436908602167,0.7615661956478994
LBP09_S02,LBP09,-1531,120,2,119,-1531,1716537828.76,2024-05-24 08:03:48.760000+00:00,2024-05-24 17:03:48.760000+09:00,2024,5,24,8,3,48,760,,,,,,,,,0.31543,-0.005371,0.540527,20.141602,-102.233887,-16.967773,,,,,,,,,,,0.0,1.0,1.0,2.0,0.0,0.0,0.0,5.0,0.0,-0.008824879999999995,-0.05961586666666667,0.9577213733333334,3.50097656,0.5940754666666666,-12.38199868,26.12255427979445,3.730644794173305,2.1782843328770447,-26.41208161095694,18.36954676898076,-9.241031690723347,33.472899041322584,-1.718032333905819,33.11143525403448,-1.7833736649662424,0.32425487999999997,0.05424486666666667,-0.4171943733333334,0.7956941200000001,0.5311637016066626,0.7770090484889984,0.7441082252121819,0.7641625035150151
LBP09_S02,LBP09,-1530,121,2,120,-1530,1716537828.8,2024-05-24 08:03:48.800000+00:00,2024-05-24 17:03:48.800000+09:00,2024,5,24,8,3,48,800,,,,,,,,,0.422363,-0.013184,1.028076,34.057617,4.516602,-3.90625,,,,,,,,,,,0.0,1.0,1.0,2.0,0.0,0.0,0.0,5.0,0.0,-0.0035872533333333274,-0.07078124,0.9813379066666668,1.3907877466666665,-0.15625005333333358,-11.293945293333335,28.24789984150691,2.2063263810235014,-1.8340207748227415,-25.282165617296663,18.457799824221702,-9.314392521716256,32.65939651463358,-1.6215648322657166,33.155756849638756,-1.795978149386741,0.4259502533333333,0.057597239999999994,0.04673809333333323,0.5302855866666665,0.43236039335117615,0.7797013500185365,0.7422255450772319,0.7616801610511214
LBP09_S02,LBP09,-1529,122,2,121,-1529,1716537828.84,2024-05-24 08:03:48.840000+00:00,2024-05-24 17:03:48.840000+09:00,2024,5,24,8,3,48,840,,,,,,,,,0.029785,0.074707,1.478271,37.414551,56.030273,-3.234863,,,,,,,,,,,0.0,1.0,1.0,2.0,0.0,0.0,0.0,5.0,0.0,-0.012669279999999995,-0.07183592,1.0036165466666667,2.2151692533333334,-0.5924479600000002,-11.184082013333335,23.56990807950113,1.5217354792728524,-6.5795595447197535,-24.33936929411662,18.518669243392615,-9.577574903505045,32.04802566795359,-1.7457891865957078,33.11041586910337,-1.7945949544146917,0.04245428,0.14654292,0.4746544533333332,0.6636516533333332,0.49857200418957565,0.753300443841633,0.7409266823636536,0.7555951467381027
LBP09_S02,LBP09,-1528,123,2,122,-1528,1716537828.88,2024-05-24 08:03:48.880000+00:00,2024-05-24 17:03:48.880000+09:00,2024,5,24,8,3,48,880,,,,,,,,,-0.376465,-0.035156,1.619385,-46.569824,-24.841309,6.103516,,,,,,,,,,,0.0,1.0,1.0,2.0,0.0,0.0,0.0,5.0,0.0,-0.01127930666666666,-0.06613604,1.0120247466666665,4.881184880000001,0.256347613333333,-11.516113266666666,14.206050067605828,1.4377036292017096,-11.311058218841413,-23.771127291412384,18.576177388560684,-10.030017232258702,31.792170494560615,-1.7400612915442915,33.06152310223908,-1.7604019640480946,-0.36518569333333334,0.030980039999999993,0.6073602533333335,1.0035259866666668,0.7093707287609774,0.7486214173831446,0.735385272668511,0.7580603804371011
LBP09_S02,LBP09,-1527,124,2,123,-1527,1716537828.92,2024-05-24 08:03:48.920000+00:00,2024-05-24 17:03:48.920000+09:00,2024,5,24,8,3,48,920,,,,,,,,,-0.068359,-0.215088,1.321533,-39.001465,43.823242,-34.240723,,,,,,,,,,,0.0,1.0,1.0,2.0,0.0,0.0,0.0,5.0,0.0,-0.020693373333333327,-0.061494120000000006,0.9933984400000001,6.20442708,1.1254882399999997,-11.682128893333333,2.8774344737207556,1.5843070802899601,-15.358399394161484,-23.656029912463552,18.639549671772283,-10.644353208025162,31.942805424743646,-1.8959157929955077,33.07467759471733,-1.7178605509418134,-0.047665626666666676,-0.15359388,0.32813455999999996,0.5293940666666667,0.3654249326542649,0.7369321042205833,0.7210028327511278,0.748617172589375
LBP09_S02,LBP09,-1526,125,2,124,-1526,1716537828.96,2024-05-24 08:03:48.960000+00:00,2024-05-24 17:03:48.960000+09:00,2024,5,24,8,3,48,960,,,,,,,,,-0.500244,-0.073486,-0.030762,-3.234863,81.359863,-23.742676,,,,,,,,,,,0.0,1.0,1.0,2.0,0.0,0.0,0.0,5.0,0.0,-0.017291679999999993,-0.05927732,0.9655598933333333,5.1025390533333335,0.2783202666666663,-11.2589518,-7.701802276087171,1.6332705686992566,-18.22340880461971,-23.96410200350704,18.704880494520253,-11.373289560209951,32.45770254606994,-1.8550915947674063,33.18100683757329,-1.6828496085161948,-0.48295232000000005,-0.014208679999999994,-0.9963218933333332,1.4934828933333333,1.1072949675294486,0.7618270337787485,0.7271951231025179,0.7521270218975968
LBP09_S02,LBP09,-1525,126,2,125,-1525,1716537829.0,2024-05-24 08:03:49+00:00,2024-05-24 17:03:49+09:00,2024,5,24,8,3,49,0,8.0,3.0,48.0,40.545227,141.513748,-0.039,3.0,14.0,-0.03418,-0.06958,0.173096,26.916504,-43.579102,-7.751465,-290.0,170.0,246.0,139.0,0.0,1007.5,25.33,-0.054504,47.954868,3.909375,0.0,1.0,1.0,2.0,0.0,0.0,0.0,4.0,0.0,-0.00942058666666666,-0.05939450666666666,0.9420279866666665,4.515787746666668,-0.2954102000000004,-10.99527992,-15.286929024353674,1.369551054849116,-19.64516473236967,-24.575579164481187,18.759662536714217,-12.159096149504737,33.222396796949816,-1.728395836735967,33.37162257916314,-1.6735822693998088,-0.02475941333333334,-0.010185493333333344,-0.7689319866666665,0.8038768933333332,0.769397928865292,0.76253108481314,0.7276646573748613,0.7543716874729491
LBP09_S02,LBP09,-1524,127,2,126,-1524,1716537829.04,2024-05-24 08:03:49.040000+00:00,2024-05-24 17:03:49.040000+09:00,2024,5,24,8,3,49,40,,,,,,,,,0.199707,0.199951,0.380127,27.648926,-104.797363,-30.700684,,,,,,,,,,,0.0,1.0,1.0,2.0,0.0,0.0,0.0,4.0,0.0,-0.0006738533333333274,-0.060830053333333335,0.93479492,2.4641926933333336,-2.446289106666667,-10.623372373333334,-18.375617517926145,0.6443060117572946,-19.625208145507653,-25.31060386519823,18.78543477718451,-12.944104475325043,34.07446358282065,-1.5818969357517805,33.60196623998649,-1.6822721040326407,0.20038085333333333,0.26078105333333335,-0.55466792,1.0158298266666668,0.6448377669130152,0.751336002028609,0.7214427061761467,0.7555986584368742
LBP09_S02,LBP09,-1523,128,2,127,-1523,1716537829.08,2024-05-24 08:03:49.080000+00:00,2024-05-24 17:03:49.080000+09:00,2024,5,24,8,3,49,80,,,,,,,,,0.61499,-0.125244,0.835449,-71.899414,-27.832031,-13.671875,,,,,,,,,,,0.0,1.0,1.0,2.0,0.0,0.0,0.0,4.0,0.0,0.0067284933333333396,-0.06691078666666667,0.9486262933333334,1.763509106666667,-2.3999023866666667,-10.152994773333335,-16.328861675933634,-0.7092146800499616,-18.40861466111988,-25.963758332235578,18.75706618998251,-13.680449061769838,34.829570271850855,-1.4703292506851988,33.80463730691003,-1.6862819358149168,0.6082615066666667,-0.05833321333333333,-0.11317729333333337,0.7797720133333333,0.6214450289417842,0.7454443368855884,0.7214466899879821,0.7509204842239179
LBP09_S02,LBP09,-1522,129,2,128,-1522,1716537829.12,2024-05-24 08:03:49.120000+00:00,2024-05-24 17:03:49.120000+09:00,2024,5,24,8,3,49,120,,,,,,,,,0.236084,-0.322998,1.055176,-53.405762,62.744141,-11.169434,,,,,,,,,,,0.0,1.0,1.0,2.0,0.0,0.0,0.0,4.0,0.0,0.006826146666666672,-0.06863280000000001,0.9688183466666668,1.8961588533333333,-0.903320346666667,-9.951985666666667,-9.385754030408574,-2.877011590846734,-16.42694465097779,-26.33918849345192,18.64198572634864,-14.33752684780895,35.310638034827676,-1.4714190299145518,33.9069186558258,-1.6888233349640323,0.22925785333333332,-0.2543652,0.08635765333333312,0.5699807066666664,0.35315501210557426,0.7448257435621484,0.7161992676050317,0.739244596454233
LBP09_S02,LBP09,-1521,130,2,129,-1521,1716537829.16,2024-05-24 08:03:49.160000+00:00,2024-05-24 17:03:49.160000+09:00,2024,5,24,8,3,49,160,,,,,,,,,-0.348145,-0.10083,1.51123,25.695801,41.687012,-20.446777,,,,,,,,,,,0.0,1.0,1.0,2.0,0.0,0.0,0.0,4.0,0.0,-0.004042999999999994,-0.07423501333333334,0.9828841066666666,2.6497395866666666,0.4101562133333329,-9.394531240000001,1.4244968204210613,-5.9338297814729835,-14.215024712987079,-26.28220862063508,18.40463253508972,-14.906127836328434,35.37905645722103,-1.6253589427419595,33.84827732721043,-1.6629887630084177,-0.34410199999999996,-0.026594986666666667,0.5283458933333335,0.8990428800000001,0.631080710148867,0.7364216734732477,0.7165866874863341,0.7444975331097781
LBP09_S02,LBP09,-1520,131,2,130,-1520,1716537829.2,2024-05-24 08:03:49.200000+00:00,2024-05-24 17:03:49.200000+09:00,2024,5,24,8,3,49,200,,,,,,,,,-0.242432,-0.181885,1.735596,17.76123,-48.278809,-32.775879,,,,,,,,,,,0.0,1.0,1.0,2.0,0.0,0.0,0.0,4.0,0.0,-0.010270213333333326,-0.07433593333333333,0.9870930933333333,5.755208333333333,1.0253905866666664,-9.265950506666668,14.49197115620362,-9.65813694346492,-12.314557580001056,-25.70252977438693,18.018307057351123,-15.398710139528475,34.9628331228671,-1.708463178594035,33.59384214677314,-1.6359132068752522,-0.23216178666666668,-0.10754906666666667,0.7485029066666666,1.08821376,0.7910262310553163,0.7533234796936235,0.7132129458017245,0.7415536112539869
LBP09_S02,LBP09,-1519,132,2,131,-1519,1716537829.24,2024-05-24 08:03:49.240000+00:00,2024-05-24 17:03:49.240000+09:00,2024,5,24,8,3,49,240,,,,,,,,,-0.154053,-0.498779,0.968262,29.174805,67.016602,25.756836,,,,,,,,,,,0.0,1.0,1.0,2.0,0.0,0.0,0.0,4.0,0.0,-0.016041693333333325,-0.07362954666666666,0.9671451733333334,6.777343746666667,0.9521483999999998,-8.337402333333335,27.93973470557951,-13.437954056704022,-11.178039010636942,-24.58494038616375,17.480788895082963,-15.845831699953953,34.07473633718897,-1.7858875044184699,33.14149552146666,-1.6249025674747255,-0.13801130666666667,-0.4251494533333333,0.0011168266666665705,0.5642775866666665,0.4469904090014418,0.7341869073099663,0.7116072096965325,0.7393279672062625
LBP09_S02,LBP09,-1518,133,2,132,-1518,1716537829.28,2024-05-24 08:03:49.280000+00:00,2024-05-24 17:03:49.280000+09:00,2024,5,24,8,3,49,280,,,,,,,,,-0.244629,0.111572,-0.118652,103.57666,5.493164,-10.375977,,,,,,,,,,,0.0,1.0,1.0,2.0,0.0,0.0,0.0,4.0,0.0,-0.013626333333333325,-0.06928384,0.9498600266666667,8.23893228,-0.12044274666666695,-8.857421866666668,39.967309915488876,-16.37337087696525,-11.090481338508342,-22.986247989544196,16.825854060004353,-16.28945095349429,32.81498398371826,-1.765475283035447,32.52184843568996,-1.6341981081104688,-0.2310026666666667,0.18085584,-1.0685120266666668,1.4803705333333335,1.1080564146290224,0.7376066497377625,0.7108265093547612,0.7437936105081193
LBP09_S02,LBP09,-1517,134,2,133,-1517,1716537829.32,2024-05-24 08:03:49.320000+00:00,2024-05-24 17:03:49.320000+09:00,2024,5,24,8,3,49,320,,,,,,,,,-0.006836,0.083252,0.157959,32.714844,-77.209473,-3.967285,,,,,,,,,,,0.0,1.0,1.0,2.0,0.0,0.0,0.0,4.0,0.0,-0.00478518666666666,-0.07175780000000001,0.9530273466666667,6.7220052,-1.7106120133333336,-8.943684880000001,49.12671037075628,-17.57645961021756,-12.129912239660207,-21.021179574713944,16.12279567559565,-16.774647443080696,31.35639213859002,-1.637570073439362,31.791877594354037,-1.667229878737615,-0.0020508133333333404,0.15500980000000003,-0.7950683466666667,0.95212896,0.8100406902141615,0.7301390287610776,0.7116925639468528,0.7437601654517307
LBP09_S02,LBP09,-1516,135,2,134,-1516,1716537829.36,2024-05-24 08:03:49.360000+00:00,2024-05-24 17:03:49.360000+09:00,2024,5,24,8,3,49,360,,,,,,,,,0.291748,0.034912,0.384521,36.071777,-120.178223,-46.813965,,,,,,,,,,,0.0,1.0,1.0,2.0,0.0,0.0,0.0,4.0,0.0,-0.0011295866666666606,-0.08373045333333333,0.9736523466666667,6.992187480000001,-1.3435872666666668,-8.710937493333335,54.465132095971285,-16.555687034256582,-14.177913323740977,-18.842574290875092,15.460568194225388,-17.341763976030336,29.913350741696995,-1.5843360334357517,31.024571114435464,-1.7019737000895432,0.2928775866666667,0.11864245333333333,-0.5891313466666667,1.0006513866666666,0.6685275283261888,0.7334293509560029,0.7182044252054931,0.737033802521137
LBP09_S02,LBP09,-1515,136,2,135,-1515,1716537829.4,2024-05-24 08:03:49.400000+00:00,2024-05-24 17:03:49.400000+09:00,2024,5,24,8,3,49,400,,,,,,,,,0.482422,0.01416,0.687256,35.400391,-37.963867,-34.240723,,,,,,,,,,,0.0,1.0,1.0,2.0,0.0,0.0,0.0,4.0,0.0,-0.003889999999999994,-0.08212238666666667,0.9955273466666665,9.636230453333335,-1.5527344,-9.531249986666667,55.534061110218694,-13.49634509156447,-16.966869661646527,-16.621211846466345,14.920714390562809,-18.020438762496198,28.698930543885023,-1.6182894427306995,30.29778765292906,-1.70816692844824,0.486312,0.09628238666666668,-0.30827134666666656,0.8908657333333333,0.5837815366229988,0.7142111662726042,0.7205106045154536,0.7306443160588397
LBP09_S02,LBP09,-1514,137,2,136,-1514,1716537829.44,2024-05-24 08:03:49.440000+00:00,2024-05-24 17:03:49.440000+09:00,2024,5,24,8,3,49,440,,,,,,,,,0.017578,-0.219727,0.998779,23.986816,38.146973,15.258789,,,,,,,,,,,0.0,1.0,1.0,2.0,0.0,0.0,0.0,4.0,0.0,-0.008518906666666663,-0.08183266666666666,1.01873372,10.071614573333333,-0.3816732000000001,-9.265136706666667,52.323863140000604,-9.267178432961732,-20.13282174883971,-14.52825732086632,14.55002725324434,-18.825751632449787,27.87799272505366,-1.674852342109213,29.684697226193997,-1.698754091013912,0.026096906666666662,-0.13789433333333334,-0.01995471999999998,0.18394596,0.14175361213489962,0.6918628369771329,0.7070650162828578,0.723755547078417
LBP09_S02,LBP09,-1513,138,2,137,-1513,1716537829.48,2024-05-24 08:03:49.480000+00:00,2024-05-24 17:03:49.480000+09:00,2024,5,24,8,3,49,480,,,,,,,,,-0.23291,-0.006348,1.39917,89.416504,32.958984,-24.047852,,,,,,,,,,,0.0,1.0,1.0,2.0,0.0,0.0,0.0,4.0,0.0,-0.02063805333333333,-0.08851561333333333,1.0198697866666666,11.0994466,1.9506835733333332,-8.42854816,45.19655902545174,-5.116145526719588,-23.253261707351093,-12.72039495984825,14.345381432175556,-19.755882100743833,27.5298618584916,-1.800646956956663,29.246326134340592,-1.6817374276520969,-0.21227194666666668,0.08216761333333332,0.3793002133333334,0.6737397733333335,0.44235681056954984,0.6880161329410399,0.6962767991144603,0.7171456836179009
LBP09_S02,LBP09,-1512,139,2,138,-1512,1716537829.52,2024-05-24 08:03:49.520000+00:00,2024-05-24 17:03:49.520000+09:00,2024,5,24,8,3,49,520,,,,,,,,,-0.062256,0.14502,0.971436,10.131836,16.662598,-23.4375,,,,,,,,,,,0.0,1.0,1.0,2.0,0.0,0.0,0.0,4.0,0.0,-0.020862666666666665,-0.08263345333333333,1.0002311066666667,11.66666664,0.4508463333333333,-8.406575506666666,34.851634107209904,-2.190027576718041,-25.877785954248434,-11.326329595559853,14.257780329106835,-20.79099353891377,27.637573235642,-1.818857243433831,29.025601731109372,-1.6640005753201272,-0.04139333333333334,0.22765345333333334,-0.028795106666666737,0.29784189333333344,0.2331708837461945,0.6755763889633074,0.6990172698371652,0.7149193326274352
LBP09_S02,LBP09,-1511,140,2,139,-1511,1716537829.56,2024-05-24 08:03:49.560000+00:00,2024-05-24 17:03:49.560000+09:00,2024,5,24,8,3,49,560,,,,,,,,,-0.118164,0.125,0.366455,72.814941,90.576172,-21.850586,,,,,,,,,,,0.0,1.0,1.0,2.0,0.0,0.0,0.0,4.0,0.0,-0.008987666666666661,-0.07703124,0.98812824,12.890624973333333,-0.6127929866666667,-8.090820293333334,22.305244350343173,-1.1063961709345669,-27.574261051688573,-10.434119821546126,14.213524482269452,-21.893963980981315,28.11122184215695,-1.6872912263289281,29.042546639964268,-1.6680254272138932,-0.10917633333333335,0.20203124,-0.62167324,0.9328808133333334,0.6627320054351882,0.6670001931694135,0.6874765355970262,0.7166742910361679
LBP09_S02,LBP09,-1510,141,2,140,-1510,1716537829.6,2024-05-24 08:03:49.600000+00:00,2024-05-24 17:03:49.600000+09:00,2024,5,24,8,3,49,600,,,,,,,,,-0.179932,0.063477,0.03418,-5.67627,-35.766602,-37.963867,,,,,,,,,,,0.0,1.0,1.0,2.0,0.0,0.0,0.0,4.0,0.0,-0.003346386666666661,-0.07704426666666667,0.9887467333333334,12.256673146666666,0.3564452933333333,-7.019856746666668,8.834472353989735,-1.769587780512156,-27.999523980322003,-10.080740927386536,14.142740971048966,-23.013944940194197,28.831928855516466,-1.614334804250754,29.29120979718086,-1.6875356185303967,-0.17658561333333334,0.14052126666666667,-0.9545667333333334,1.2716736133333333,0.9808803971986519,0.656713639273037,0.6873848823186551,0.7188406562673143
LBP09_S02,LBP09,-1509,142,2,141,-1509,1716537829.64,2024-05-24 08:03:49.640000+00:00,2024-05-24 17:03:49.640000+09:00,2024,5,24,8,3,49,640,,,,,,,,,0.16333,0.045654,0.44165,15.136719,-83.190918,-42.724609,,,,,,,,,,,0.0,1.0,1.0,2.0,0.0,0.0,0.0,4.0,0.0,-0.003580759999999994,-0.07990233333333334,1.0069563733333333,13.291829386666667,-2.2753906400000004,-6.910807266666668,-4.148220866276568,-3.4897835518959006,-26.977362604176285,-10.246669762037598,14.00314962897313,-24.09303944436125,29.691025418654927,-1.6157208708003206,29.739559460428268,-1.693434310068748,0.16691076,0.12555633333333333,-0.5653063733333333,0.8577734666666667,0.6026565276964772,0.6445477297879891,0.6875461629508286,0.711266027400522
LBP09_S02,LBP09,-1508,143,2,142,-1508,1716537829.68,2024-05-24 08:03:49.680000+00:00,2024-05-24 17:03:49.680000+09:00,2024,5,24,8,3,49,680,,,,,,,,,0.591797,-0.09082,0.932373,-61.279297,-57.434082,-28.991699,,,,,,,,,,,0.0,1.0,1.0,2.0,0.0,0.0,0.0,4.0,0.0,-0.0013834933333333277,-0.08015297333333332,1.0366634,11.53238928,-2.15332032,-6.5543619600000005,-15.281694518301354,-5.313710076542324,-24.55032499533327,-10.857937542769653,13.790601225911438,-25.07505244417458,30.60773995140612,-1.5881067597157474,30.333325146401165,-1.682478415966942,0.5931804933333333,-0.010667026666666676,-0.1042903999999999,0.7081379199999999,0.6023731158187955,0.6261529959436455,0.6938463783806911,0.7119703709888014
LBP09_S02,LBP09,-1507,144,2,143,-1507,1716537829.72,2024-05-24 08:03:49.720000+00:00,2024-05-24 17:03:49.720000+09:00,2024,5,24,8,3,49,720,,,,,,,,,0.137695,-0.165283,1.287598,-58.898926,98.754883,-6.530762,,,,,,,,,,,0.0,1.0,1.0,2.0,0.0,0.0,0.0,4.0,0.0,-0.009550813333333326,-0.08922198666666667,1.0419335733333335,10.430501266666667,1.7374674399999999,-6.331380186666667,-23.44873506171181,-6.3914813548051725,-20.976422005237374,-11.795886945238125,13.534941971719231,-25.914109324384075,31.52584122713898,-1.6778185923770237,31.003559264817632,-1.6674889636186172,0.14724581333333334,-0.07606101333333334,0.24566442666666655,0.4689712533333332,0.296340374945687,0.6013915884984484,0.6897866103198615,0.7003596567396273
LBP09_S02,LBP09,-1506,145,2,144,-1506,1716537829.76,2024-05-24 08:03:49.760000+00:00,2024-05-24 17:03:49.760000+09:00,2024,5,24,8,3,49,760,,,,,,,,,-0.740723,-0.113037,1.801025,2.502441,-27.404785,-30.090332,,,,,,,,,,,0.0,1.0,1.0,2.0,0.0,0.0,0.0,4.0,0.0,-0.018590533333333326,-0.08811848,1.0199348799999999,7.601725226666668,0.7641601599999999,-6.180013000000001,-27.90072778808532,-6.2318346538592335,-16.664143988106016,-12.911916056761537,13.285668585564862,-26.580675083908314,32.39998231386285,-1.7794379466007864,31.676056832176215,-1.6513875201944963,-0.7221324666666666,-0.02491852,0.7810901200000002,1.5281411066666668,1.0640479348293899,0.6227069578273575,0.6998580031581778,0.7036411360839071
LBP09_S02,LBP09,-1505,146,2,145,-1505,1716537829.8,2024-05-24 08:03:49.800000+00:00,2024-05-24 17:03:49.800000+09:00,2024,5,24,8,3,49,800,,,,,,,,,-0.118652,-0.352783,2.121582,-47.180176,-133.422852,-16.479492,,,,,,,,,,,0.0,1.0,1.0,2.0,0.0,0.0,0.0,4.0,0.0,-0.010680373333333326,-0.1004134,1.0081770666666667,6.12060544,-0.5517578133333334,-4.860839826666667,-28.269750358817024,-4.792441122418965,-12.066360815229409,-14.042706071114218,13.093970940668104,-27.06332951651749,33.18242717635911,-1.677276358114211,32.280130235127324,-1.6444697781802997,-0.10797162666666667,-0.2523696,1.1134049333333333,1.4737461600000001,1.1467427055535215,0.6512822503154514,0.715491800166994,0.7119111134899717
LBP09_S02,LBP09,-1504,147,2,146,-1504,1716537829.84,2024-05-24 08:03:49.840000+00:00,2024-05-24 17:03:49.840000+09:00,2024,5,24,8,3,49,840,,,,,,,,,-0.327148,-0.175537,0.809082,11.474609,156.799316,32.897949,,,,,,,,,,,0.0,1.0,1.0,2.0,0.0,0.0,0.0,4.0,0.0,0.0004980133333333396,-0.09087238666666667,0.9990852666666667,5.7731119600000005,1.5584309866666664,-3.5017903466666667,-24.487965853475554,-2.4253634620579763,-7.572284439881746,-15.02222470525324,12.996956402185784,-27.36622089411276,33.815649584782676,-1.565293401091153,32.7554756541062,-1.6561102440370559,-0.3276460133333333,-0.08466461333333333,-0.19000326666666678,0.6023138933333334,0.3880995338158939,0.6468633515005041,0.7000818976710685,0.7095722387426038
LBP09_S02,LBP09,-1503,148,2,147,-1503,1716537829.88,2024-05-24 08:03:49.880000+00:00,2024-05-24 17:03:49.880000+09:00,2024,5,24,8,3,49,880,,,,,,,,,-0.061768,-0.047852,-0.019775,27.282715,-18.554688,21.850586,,,,,,,,,,,0.0,1.0,1.0,2.0,0.0,0.0,0.0,4.0,0.0,-0.007861359999999994,-0.09857421333333333,1.0103320133333333,4.524739573333334,1.5551757866666667,-2.2469075333333337,-16.692332041883624,0.27388344055513114,-3.4419393237342795,-15.689917986928585,13.007911739807989,-27.503898467062132,34.23220304265623,-1.6507524334734192,33.057669641882754,-1.673526892688055,-0.053906640000000006,0.05072221333333333,-1.0301070133333334,1.1347358666666667,1.032762861299748,0.659799036802055,0.7042102270925997,0.7101898607130255
LBP09_S02,LBP09,-1502,149,2,148,-1502,1716537829.92,2024-05-24 08:03:49.920000+00:00,2024-05-24 17:03:49.920000+09:00,2024,5,24,8,3,49,920,,,,,,,,,0.231201,0.046143,0.612793,16.479492,-62.927246,-16.906738,,,,,,,,,,,0.0,1.0,1.0,2.0,0.0,0.0,0.0,4.0,0.0,-0.00877606666666666,-0.10103514666666666,1.0404459466666667,5.2433268,-0.8024088533333334,-2.353515613333334,-5.205556820941347,2.6522543192379513,0.18525925686110917,-15.898140259766238,13.114001912577507,-27.496488096787687,34.36254890922781,-1.6578428091926183,33.16299967784985,-1.688239228995468,0.23997706666666666,0.14717814666666668,-0.42765294666666664,0.81480816,0.5119935958338302,0.6656617833292375,0.7012969437749105,0.7025558162771643
LBP09_S02,LBP09,-1501,150,2,149,-1501,1716537829.96,2024-05-24 08:03:49.960000+00:00,2024-05-24 17:03:49.960000+09:00,2024,5,24,8,3,49,960,,,,,,,,,0.655273,0.01709,1.272949,-36.92627,27.770996,-56.640625,,,,,,,,,,,0.0,1.0,1.0,2.0,0.0,0.0,0.0,4.0,0.0,-0.00465822666666666,-0.09880206666666666,1.0551855333333333,5.775553360000001,0.5851236933333333,-1.5185546800000005,9.361287572512236,4.161420256684093,3.2153222423120402,-15.523688756865749,13.280458722844871,-27.367875207095206,34.151955871668065,-1.6181138061869627,33.07152106037094,-1.6845389674591509,0.6599312266666667,0.11589206666666665,0.2177634666666668,0.9935867600000001,0.7045290075367565,0.6495511449295299,0.7056890893541392,0.7013137970448552
LBP09_S02,LBP09,-1500,151,2,150,-1500,1716537830.0,2024-05-24 08:03:50+00:00,2024-05-24 17:03:50+09:00,2024,5,24,8,3,50,0,8.0,3.0,49.0,40.545307,141.513779,-0.591,3.0,14.0,-0.224609,-0.2229,1.751953,18.920898,70.800781,-15.197754,-281.0,152.0,249.0,150.0,0.0,1007.700012,25.360001,-0.052522,46.283058,3.909375,0.0,1.0,1.0,2.0,0.0,0.0,0.0,4.0,0.0,-0.015423199999999996,-0.09599931999999999,1.0428482933333334,7.854817679999999,2.1411132799999995,-0.8772786266666672,25.927331023544895,4.466074533411286,5.517516461351195,-14.486595515923952,13.459101704181323,-27.147174548641157,33.58538304530521,-1.7307394628183164,32.8055028216791,-1.6737190952515704,-0.2091858,-0.12690068,0.7091047066666667,1.0451911866666665,0.7501279667649526,0.6487803464455163,0.705655715629328,0.7013698870650796
LBP09_S02,LBP09,-1499,152,2,151,-1499,1716537830.04,2024-05-24 08:03:50.040000+00:00,2024-05-24 17:03:50.040000+09:00,2024,5,24,8,3,50,40,,,,,,,,,-0.442871,-0.265381,2.241211,-49.499512,-79.956055,14.404297,,,,,,,,,,,0.0,1.0,1.0,2.0,0.0,0.0,0.0,4.0,0.0,-0.021132839999999993,-0.09529618666666667,1.0269270666666668,8.920898413333333,0.26692707999999965,-0.3955078000000005,42.81024780822938,3.4938797548124403,6.914257905193873,-12.774185603594777,13.59885689437382,-26.8706042324334,32.712965296420535,-1.789887357310312,32.40154368234733,-1.6725494050388487,-0.42173816000000003,-0.1700848133333333,1.214283933333333,1.8061069066666664,1.296640809969473,0.6748524681677747,0.7130942350981918,0.7059126268400227
LBP09_S02,LBP09,-1498,153,2,152,-1498,1716537830.08,2024-05-24 08:03:50.080000+00:00,2024-05-24 17:03:50.080000+09:00,2024,5,24,8,3,50,80,,,,,,,,,-0.022461,-0.977295,2.200684,-2.929688,-0.305176,57.861328,,,,,,,,,,,0.0,1.0,1.0,2.0,0.0,0.0,0.0,4.0,0.0,-0.01528322666666666,-0.09248042666666667,1.0095182133333334,8.330078106666667,-1.617838546666667,-0.17985024000000052,57.79712928645445,1.4278000336382388,7.274578806074131,-10.4623004321366,13.65596889571935,-26.579621080190435,31.661040311077016,-1.7352301227898783,31.898960758391684,-1.6791503115571107,-0.0071777733333333385,-0.8848145733333334,1.1911657866666665,2.0831581333333333,1.4838545349657062,0.7093488484087314,0.72739659264716,0.7174140761282319
LBP09_S02,LBP09,-1497,154,2,153,-1497,1716537830.12,2024-05-24 08:03:50.120000+00:00,2024-05-24 17:03:50.120000+09:00,2024,5,24,8,3,50,120,,,,,,,,,-0.468506,0.21582,0.201904,167.785645,123.352051,61.523438,,,,,,,,,,,0.0,1.0,1.0,2.0,0.0,0.0,0.0,4.0,0.0,-0.006337919999999994,-0.09074214666666666,0.9941536266666666,9.963378893333333,-0.47688802666666685,-0.1603189866666671,68.49718453046395,-1.3567914812903705,6.655602623807424,-7.722413050918041,13.601697236467736,-26.31339697523814,30.611055052349876,-1.6408159770138535,31.330504591741423,-1.6908186186525167,-0.46216808,0.3065621466666667,-0.7922496266666667,1.5609798533333334,0.9670776364352729,0.7339057533819193,0.7393657484720338,0.722101429530661
LBP09_S02,LBP09,-1496,155,2,154,-1496,1716537830.16,2024-05-24 08:03:50.160000+00:00,2024-05-24 17:03:50.160000+09:00,2024,5,24,8,3,50,160,,,,,,,,,0.205078,0.084961,0.165771,175.964355,-74.707031,-7.873535,,,,,,,,,,,0.0,1.0,1.0,2.0,0.0,0.0,0.0,4.0,0.0,-0.008144559999999993,-0.08108067999999999,0.9913964666666667,9.196777333333333,-0.165201826666667,-0.3995768000000005,72.90333600265075,-4.401350121454339,5.384025933935424,-4.806279610812011,13.425643231609563,-26.09803593788072,29.73979992694444,-1.67123922452498,30.719773554325606,-1.7070848761850108,0.21322256,0.16604167999999997,-0.8256254666666667,1.2048897066666666,0.8687295959035396,0.7434117088121063,0.7399166911426769,0.7255283612615915
LBP09_S02,LBP09,-1495,156,2,155,-1495,1716537830.2,2024-05-24 08:03:50.200000+00:00,2024-05-24 17:03:50.200000+09:00,2024,5,24,8,3,50,200,,,,,,,,,0.328369,0.429688,0.692627,114.746094,-91.674805,-55.480957,,,,,,,,,,,0.0,1.0,1.0,2.0,0.0,0.0,0.0,4.0,0.0,-0.0074414399999999945,-0.07850581333333333,1.0167317466666665,6.834309879999999,-1.934407546666667,-0.7356770533333338,69.94464792161433,-7.296908167642092,4.003234094707264,-2.0084936939474374,13.13376690490388,-25.93790657409243,29.14283578304147,-1.665579455986994,30.08459563563049,-1.723599199879084,0.33581044000000004,0.5081938133333334,-0.32410474666666655,1.1681089999999998,0.6899807898305087,0.7393698911631141,0.7463466854283688,0.7219319275888543
LBP09_S02,LBP09,-1494,157,2,156,-1494,1716537830.24,2024-05-24 08:03:50.240000+00:00,2024-05-24 17:03:50.240000+09:00,2024,5,24,8,3,50,240,,,,,,,,,0.69165,0.236084,1.268311,33.935547,-6.164551,-46.081543,,,,,,,,,,,0.0,1.0,1.0,2.0,0.0,0.0,0.0,4.0,0.0,-0.005384146666666661,-0.08920242666666665,1.0387402133333332,5.66243488,-1.3883463466666668,-0.7877603866666673,59.789113314606944,-9.788604488805928,3.1072637397166494,0.38307083863684044,12.742222725351642,-25.813616024503766,28.78982034522618,-1.6313024662737725,29.441996590829017,-1.7162461294929734,0.6970341466666666,0.32528642666666663,0.22957078666666675,1.2518913600000001,0.8027269816591747,0.7535993540694232,0.7438931306896948,0.7256045911541626
LBP09_S02,LBP09,-1493,158,2,157,-1493,1716537830.28,2024-05-24 08:03:50.280000+00:00,2024-05-24 17:03:50.280000+09:00,2024,5,24,8,3,50,280,,,,,,,,,-0.124268,-0.584473,1.893066,-148.254395,74.157715,74.035645,,,,,,,,,,,0.0,1.0,1.0,2.0,0.0,0.0,0.0,4.0,0.0,-0.017584666666666658,-0.08858068000000001,1.03448892,6.154785133333333,1.8644205866666663,0.33365887999999944,43.79778127547173,-11.787696076004027,3.156998121847929,2.1349820896557095,12.27071488231148,-25.68733609962985,28.547641376153617,-1.7674355044274788,28.81006562733654,-1.7055109339620294,-0.10668333333333335,-0.49589232,0.8585770799999999,1.4611527333333332,0.9972186966495462,0.7491658453502442,0.7433862475440033,0.7236062880199223
LBP09_S02,LBP09,-1492,159,2,158,-1492,1716537830.32,2024-05-24 08:03:50.320000+00:00,2024-05-24 17:03:50.320000+09:00,2024,5,24,8,3,50,320,,,,,,,,,-0.694824,-0.363281,2.02832,25.024414,-68.908691,14.465332,,,,,,,,,,,0.0,1.0,1.0,2.0,0.0,0.0,0.0,4.0,0.0,-0.022112653333333326,-0.08699863999999999,1.02196288,7.236328106666667,0.4777018266666662,-0.02441404000000053,24.23099471416733,-13.27546722928669,4.363950913134981,3.1042218782224027,11.739696193140013,-25.51277806310445,28.25523853506964,-1.8205053845175578,28.204410564285816,-1.6969615062609429,-0.6727113466666667,-0.27628236000000006,1.0063571199999999,1.9553508266666666,1.2416227894799388,0.7664291293208753,0.7482840790409765,0.7299380857381936
LBP09_S02,LBP09,-1491,160,2,159,-1491,1716537830.36,2024-05-24 08:03:50.360000+00:00,2024-05-24 17:03:50.360000+09:00,2024,5,24,8,3,50,360,,,,,,,,,0.304932,0.384766,1.452148,153.503418,-9.521484,-16.845703,,,,,,,,,,,0.0,1.0,1.0,2.0,0.0,0.0,0.0,4.0,0.0,-0.01833009333333333,-0.08526036,1.01171224,6.228841119999999,-1.248372386666667,-1.0872395600000004,3.8913716627377517,-14.16429054809367,6.657668322557425,3.259876744731913,11.173124571216267,-25.24647133020215,27.80017668471695,-1.7832570431276986,27.6312545297746,-1.6969554672629723,0.32326209333333333,0.47002636,0.44043575999999995,1.2337242133333333,0.720698840548447,0.7685159818097657,0.7509726663828843,0.7349749440735839
LBP09_S02,LBP09,-1490,161,2,160,-1490,1716537830.4,2024-05-24 08:03:50.400000+00:00,2024-05-24 17:03:50.400000+09:00,2024,5,24,8,3,50,400,,,,,,,,,-0.412842,0.13916,0.014404,61.157227,115.661621,8.850098,,,,,,,,,,,0.0,1.0,1.0,2.0,0.0,0.0,0.0,4.0,0.0,-0.007763679999999992,-0.08997390666666667,1.00868164,6.0872395599999995,-0.063476546666667,-1.7879231600000003,-14.208955682348936,-14.219281404481256,9.703807456454946,2.6915185174379554,10.604353315037017,-24.858319031943953,27.159392597290445,-1.6572087589572086,27.083630075815073,-1.705270393916151,-0.40507832,0.22913390666666666,-0.9942776400000001,1.6284898666666667,1.0978063663152628,0.7890769749974562,0.7516440706350302,0.7433660613427877
LBP09_S02,LBP09,-1489,162,2,161,-1489,1716537830.44,2024-05-24 08:03:50.440000+00:00,2024-05-24 17:03:50.440000+09:00,2024,5,24,8,3,50,440,,,,,,,,,-0.043701,0.093018,-0.222412,-69.030762,-35.461426,19.775391,,,,,,,,,,,0.0,1.0,1.0,2.0,0.0,0.0,0.0,4.0,0.0,-0.010247413333333328,-0.09169265333333333,1.0163671866666666,6.910807266666668,0.08138022666666643,-1.4941406000000004,-27.21888993789569,-13.116600089604244,12.94746151766497,1.6027629199221278,10.079689311452848,-24.340420571237356,26.39365566149579,-1.6825354020008727,26.547087758985914,-1.7225379887707828,-0.03345358666666667,0.18471065333333334,-1.2387791866666666,1.4569434266666668,1.2529210035889011,0.8335236706556163,0.7626932538163745,0.7492179010737773
LBP09_S02,LBP09,-1488,163,2,162,-1488,1716537830.48,2024-05-24 08:03:50.480000+00:00,2024-05-24 17:03:50.480000+09:00,2024,5,24,8,3,50,480,,,,,,,,,0.247314,-0.033691,0.260742,-72.509766,-120.605469,-4.272461,,,,,,,,,,,0.0,1.0,1.0,2.0,0.0,0.0,0.0,4.0,0.0,-0.007278666666666658,-0.09236974666666666,1.0461490933333333,6.8562825200000015,-1.8334960666666669,-1.1694335600000003,-32.93475547371678,-10.641122108771858,15.684717554207362,0.2853727009734568,9.654044427101974,-23.713031869069063,25.604489680569785,-1.6497358457790139,26.014367412340153,-1.738993601752228,0.2545926666666667,0.058678746666666656,-0.7854070933333333,1.0986785066666667,0.8277227334615925,0.8489383075712981,0.7684772202561689,0.7471639686000728
LBP09_S02,LBP09,-1487,164,2,163,-1487,1716537830.52,2024-05-24 08:03:50.520000+00:00,2024-05-24 17:03:50.520000+09:00,2024,5,24,8,3,50,520,,,,,,,,,0.664062,-0.217773,0.63501,-105.59082,-80.993652,22.399902,,,,,,,,,,,0.0,1.0,1.0,2.0,0.0,0.0,0.0,4.0,0.0,-0.006722026666666658,-0.09631832,1.06410156,6.347656213333334,-0.09602861333333351,-0.916341106666667,-30.336355451084827,-6.92695352618073,17.17376160951859,-0.9280815170699364,9.376966286054746,-23.02608140468832,24.879494707237676,-1.6407555870341457,25.50005342755391,-1.7334204907971036,0.6707840266666667,-0.12145468,-0.4290915599999999,1.2213302666666666,0.805494889237842,0.871831267790964,0.7737038283771356,0.7566219358217646
LBP09_S02,LBP09,-1486,165,2,164,-1486,1716537830.56,2024-05-24 08:03:50.560000+00:00,2024-05-24 17:03:50.560000+09:00,2024,5,24,8,3,50,560,,,,,,,,,0.17041,-0.283936,0.953613,-80.26123,40.588379,20.874023,,,,,,,,,,,0.0,1.0,1.0,2.0,0.0,0.0,0.0,4.0,0.0,-0.01801434666666666,-0.09741206666666666,1.05905924,6.952311159999999,2.422688826666666,-0.6209309466666671,-19.955396018986725,-2.5761713315215102,16.783515348603796,-1.7262973578294054,9.273919432793885,-22.354740790744167,24.26355538734919,-1.7543884910567686,25.044883216341617,-1.7260327059002822,0.18842434666666666,-0.18652393333333336,-0.10544624000000002,0.48039452000000005,0.2853310737600018,0.8567352305239565,0.761867711846685,0.7438961005726695
LBP09_S02,LBP09,-1485,166,2,165,-1485,1716537830.6,2024-05-24 08:03:50.600000+00:00,2024-05-24 17:03:50.600000+09:00,2024,5,24,8,3,50,600,,,,,,,,,-0.036377,-0.079102,1.599365,-15.319824,44.433594,4.02832,,,,,,,,,,,0.0,1.0,1.0,2.0,0.0,0.0,0.0,4.0,0.0,-0.025947279999999993,-0.09504553333333332,1.0532845066666665,7.452799439999999,2.190755226666666,0.022786506666666262,-3.849911368029844,1.464190816408498,14.158430016865559,-1.8802938125505992,9.332487065450225,-21.788403590069546,23.777412614749892,-1.8382554045333102,24.706230550397727,-1.7204521291598447,-0.010429720000000007,0.015943533333333315,0.5460804933333334,0.5724537466666667,0.5464127382424446,0.8393565241657082,0.7480350817193727,0.7380420962676729
LBP09_S02,LBP09,-1484,167,2,166,-1484,1716537830.64,2024-05-24 08:03:50.640000+00:00,2024-05-24 17:03:50.640000+09:00,2024,5,24,8,3,50,640,,,,,,,,,-0.371582,-0.487793,1.713379,17.944336,-0.061035,23.681641,,,,,,,,,,,0.0,1.0,1.0,2.0,0.0,0.0,0.0,4.0,0.0,-0.021168639999999992,-0.09280269333333332,1.0534505200000002,8.427734333333333,0.2685547066666663,0.5183919866666662,14.894444639837657,4.237109023834299,9.36151849875697,-1.284516026957093,9.501971426403598,-21.413942850119266,23.462616878768532,-1.7958585960882276,24.540105824884584,-1.7241131550015414,-0.35041336,-0.3949903066666667,0.6599284799999998,1.4053321466666664,0.8451700798905668,0.8490570662534718,0.7468023980207305,0.7413831307183762
LBP09_S02,LBP09,-1483,168,2,167,-1483,1716537830.68,2024-05-24 08:03:50.680000+00:00,2024-05-24 17:03:50.680000+09:00,2024,5,24,8,3,50,680,,,,,,,,,-0.198486,-0.108643,1.30542,169.250488,78.00293,23.071289,,,,,,,,,,,0.0,1.0,1.0,2.0,0.0,0.0,0.0,4.0,0.0,-0.013092466666666662,-0.09264644,1.0562630266666666,8.090006466666667,0.8081054799999996,1.7073568266666663,32.999306991909165,5.155453724308417,2.948058357326536,0.03545625271927366,9.708189575375934,-21.296020515826203,23.404501528291206,-1.711704394876229,24.584247413214396,-1.7282515447673892,-0.18539353333333333,-0.015996560000000007,0.24915697333333342,0.4505470666666668,0.31097564131982874,0.8374011672735131,0.7317770816085793,0.7416979746782985
LBP09_S02,LBP09,-1482,169,2,168,-1482,1716537830.72,2024-05-24 08:03:50.720000+00:00,2024-05-24 17:03:50.720000+09:00,2024,5,24,8,3,50,720,,,,,,,,,-0.479736,0.114258,0.052002,130.065918,50.78125,44.128418,,,,,,,,,,,0.0,1.0,1.0,2.0,0.0,0.0,0.0,4.0,0.0,-0.016087253333333325,-0.09086909333333333,1.0605110666666666,7.230631466666667,1.485188813333333,2.4397787066666665,47.854246333740726,4.234471430461279,-4.075394566594745,1.9496261060689026,9.877568432594385,-21.459036298489995,23.70353642294672,-1.7466275355493475,24.849522157768597,-1.740078114854951,-0.46364874666666667,0.20512709333333334,-1.0085090666666665,1.6772849066666664,1.1287771357773968,0.8706986377067816,0.736045113102615,0.7500906194488348
LBP09_S02,LBP09,-1481,170,2,169,-1481,1716537830.76,2024-05-24 08:03:50.760000+00:00,2024-05-24 17:03:50.760000+09:00,2024,5,24,8,3,50,760,,,,,,,,,0.041748,0.262451,0.325684,132.873535,-97.717285,-70.678711,,,,,,,,,,,0.0,1.0,1.0,2.0,0.0,0.0,0.0,4.0,0.0,-0.01426758666666666,-0.09064122666666666,1.0777376266666665,6.800130159999998,-0.2083333333333339,2.120768293333333,58.0562922395233,2.069927765464537,-10.429297932940448,4.271877795649835,9.960365543212967,-21.876208215807612,24.413650025278045,-1.7274512757233247,25.320877043199562,-1.7544446539524334,0.05601558666666666,0.3530922266666666,-0.7520536266666665,1.1611614399999999,0.8327043436085352,0.8614448940579473,0.7420759259426524,0.7537203001247677
LBP09_S02,LBP09,-1480,171,2,170,-1480,1716537830.8,2024-05-24 08:03:50.800000+00:00,2024-05-24 17:03:50.800000+09:00,2024,5,24,8,3,50,800,,,,,,,,,0.53418,-0.095703,0.994629,-111.022949,-41.015625,-22.338867,,,,,,,,,,,0.0,1.0,1.0,2.0,0.0,0.0,0.0,4.0,0.0,-0.011028653333333326,-0.08948888,1.0922851466666665,5.890299426666666,1.2198893199999994,2.11100268,63.424959499001446,-0.40987817915088165,-14.851010346935226,6.808876175609893,9.943970416046932,-22.47024862968502,25.498145342159027,-1.6938190173741754,25.96358360834252,-1.7527021798341775,0.5452086533333333,-0.00621411999999999,-0.09765614666666655,0.6490789199999999,0.553920403973985,0.8377320019947657,0.7445071261551086,0.7562385341095846
LBP09_S02,LBP09,-1479,172,2,171,-1479,1716537830.84,2024-05-24 08:03:50.840000+00:00,2024-05-24 17:03:50.840000+09:00,2024,5,24,8,3,50,840,,,,,,,,,0.01709,-0.81958,1.462158,-21.30127,48.034668,6.04248,,,,,,,,,,,0.0,1.0,1.0,2.0,0.0,0.0,0.0,4.0,0.0,-0.013961599999999992,-0.09077142666666667,1.0891894400000002,5.2018228666666655,2.7783203199999993,2.307128986666666,64.55471026852742,-2.2791295820475788,-16.415039053106543,9.39106458635099,9.852805232765029,-23.126850191809282,26.835071544793887,-1.7239192996593484,26.728619073284783,-1.736400973188632,0.03105159999999999,-0.7288085733333333,0.3729685599999999,1.1328287333333331,0.8192873031941861,0.8549795127698975,0.7509214321352008,0.7517144360373448
LBP09_S02,LBP09,-1478,173,2,172,-1478,1716537830.88,2024-05-24 08:03:50.880000+00:00,2024-05-24 17:03:50.880000+09:00,2024,5,24,8,3,50,880,,,,,,,,,-0.258301,0.166992,1.84082,156.677246,-75.805664,-79.040527,,,,,,,,,,,0.0,1.0,1.0,2.0,0.0,0.0,0.0,4.0,0.0,-0.017802746666666657,-0.08939121333333334,1.08606444,4.6997069866666665,3.7923177199999993,2.6513672666666666,62.19401934678593,-2.874607447217961,-14.776783349201121,11.878825360222427,9.73782093487631,-23.717921525777328,28.25723712611179,-1.7680015466546315,27.55415756636928,-1.7242100441063175,-0.24049825333333336,0.25638321333333336,0.75475556,1.2516370266666668,0.8326029769862845,0.8469731173973589,0.7533860770997068,0.7517978571941861
LBP09_S02,LBP09,-1477,174,2,173,-1477,1716537830.92,2024-05-24 08:03:50.920000+00:00,2024-05-24 17:03:50.920000+09:00,2024,5,24,8,3,50,920,,,,,,,,,-0.036621,-0.001709,2.165283,-24.719238,-18.920898,-8.728027,,,,,,,,,,,0.0,1.0,1.0,2.0,0.0,0.0,0.0,4.0,0.0,-0.019632173333333326,-0.09080072,1.0829199066666668,2.6546223466666667,3.003743493333333,3.10872404,56.78120164137729,-1.8906678107567505,-10.254691088058882,14.150073425877519,9.662194222446042,-24.128109169299684,29.593043561547336,-1.7844209780089697,28.365769042093802,-1.718440161476567,-0.016988826666666675,0.08909172,1.0823630933333332,1.18844364,1.0861564438947873,0.8699396313197972,0.7678007073245173,0.7575111729565394
LBP09_S02,LBP09,-1476,175,2,174,-1476,1716537830.96,2024-05-24 08:03:50.960000+00:00,2024-05-24 17:03:50.960000+09:00,2024,5,24,8,3,50,960,,,,,,,,,-0.433838,-0.496826,1.104492,25.024414,188.293457,22.888184,,,,,,,,,,,0.0,1.0,1.0,2.0,0.0,0.0,0.0,4.0,0.0,-0.015133479999999994,-0.09054029333333334,1.08222004,1.4982095866666665,2.604166666666666,2.862142013333333,48.32618026086029,0.6730880127127365,-3.7200663657889983,16.083120636311932,9.68911774295455,-24.276911823931243,30.6906210387788,-1.7369637498742125,29.080811888874855,-1.711477482298621,-0.41870452,-0.40628570666666664,0.02227196000000009,0.8472621866666668,0.5838472323410506,0.865112360311969,0.7573317526207494,0.7588301796734157
LBP09_S02,LBP09,-1475,176,2,175,-1475,1716537831.0,2024-05-24 08:03:51+00:00,2024-05-24 17:03:51+09:00,2024,5,24,8,3,51,0,8.0,3.0,50.0,40.545395,141.51384,-1.265,3.0,14.0,-0.028809,-0.066162,0.164062,46.264648,-42.96875,4.638672,-283.0,134.0,248.0,152.0,0.0,1007.799988,25.4,-0.051531,45.447506,3.909375,0.0,1.0,1.0,2.0,0.0,0.0,0.0,6.0,0.0,-0.009671239999999992,-0.09259106666666667,1.0822656133333333,-0.20914718666666715,2.6196289066666663,3.331705826666666,36.637406937525995,4.614133821849923,3.67068114571822,17.54861691381297,9.873683095828548,-24.130084578102515,31.42776726417252,-1.6752433380778546,29.619639728940353,-1.7080773307738806,-0.01913776000000001,0.026429066666666667,-0.9182036133333332,0.9637704399999999,0.9187832306703677,0.8718585708681856,0.760319458656851,0.7610566673756141
LBP09_S02,LBP09,-1474,177,2,176,-1474,1716537831.04,2024-05-24 08:03:51.040000+00:00,2024-05-24 17:03:51.040000+09:00,2024,5,24,8,3,51,40,,,,,,,,,0.465332,0.166504,0.923828,141.662598,-82.519531,19.165039,,,,,,,,,,,0.0,1.0,1.0,2.0,0.0,0.0,0.0,6.0,0.0,-0.010126973333333327,-0.09821606666666667,1.0926367066666665,-1.0262044800000005,2.7473958266666663,3.621419373333333,21.753050993025273,9.575414135771778,10.809181433412329,18.418738953533982,10.25669966125942,-23.69771732076602,31.718001809613465,-1.673949305265083,29.919952898627695,-1.714260618213529,0.47545897333333337,0.2647200666666667,-0.16880870666666647,0.9089877466666666,0.5697669071345444,0.8427836147547885,0.7588180414612816,0.7563240283170574
LBP09_S02,LBP09,-1473,178,2,177,-1473,1716537831.08,2024-05-24 08:03:51.080000+00:00,2024-05-24 17:03:51.080000+09:00,2024,5,24,8,3,51,80,,,,,,,,,0.405762,-0.140381,1.822266,-3.90625,50.537109,72.20459,,,,,,,,,,,0.0,1.0,1.0,2.0,0.0,0.0,0.0,6.0,0.0,-0.008199893333333326,-0.09870759999999999,1.1037076666666668,-1.9230143733333338,2.4682617066666666,3.7638347333333333,4.355811546685078,15.014868879665718,16.916096698342656,18.592971415401387,10.857294416446049,-23.021073452832315,31.520616285536427,-1.6540055685787214,29.947133727225726,-1.7127708640962864,0.41396189333333333,-0.04167340000000001,0.7185583333333332,1.1741936266666666,0.8303175295044997,0.8166421345363402,0.7629954914725359,0.7571451066102199
LBP09_S02,LBP09,-1472,179,2,178,-1472,1716537831.12,2024-05-24 08:03:51.120000+00:00,2024-05-24 17:03:51.120000+09:00,2024,5,24,8,3,51,120,,,,,,,,,-0.30249,-0.175781,2.115723,95.092773,-43.457031,26.000977,,,,,,,,,,,0.0,1.0,1.0,2.0,0.0,0.0,0.0,6.0,0.0,-0.010504573333333326,-0.09892570666666667,1.10608396,-1.4054362400000007,4.15934244,4.32291676,-14.058193279069336,20.174583201478608,21.67235266154479,18.030643684238612,11.664277744505194,-22.154179346370523,30.853964890757286,-1.6770007437698884,29.696179697208095,-1.6916154305175897,-0.29198542666666666,-0.07685529333333332,1.00963904,1.3784797599999998,1.0538183982979181,0.820111765010846,0.7770087591963828,0.7662810873183046
LBP09_S02,LBP09,-1471,180,2,179,-1471,1716537831.16,2024-05-24 08:03:51.160000+00:00,2024-05-24 17:03:51.160000+09:00,2024,5,24,8,3,51,160,,,,,,,,,0.161377,0.105225,2.370361,-112.487793,-27.893066,-0.244141,,,,,,,,,,,0.0,1.0,1.0,2.0,0.0,0.0,0.0,6.0,0.0,-0.012200533333333326,-0.09936841333333334,1.1010676933333332,-1.1547852000000005,4.618326813333332,4.8103842000000006,-31.390952078297197,24.155297010637863,25.16219554299334,16.775005601106724,12.630489624930709,-21.14769152465079,29.80192842593296,-1.69344976047592,29.18652848094673,-1.664189128457607,0.1735775333333333,0.20459341333333333,1.2692933066666667,1.6474642533333332,1.2973407891553668,0.8372562127409192,0.7903339607765126,0.772363198342091
LBP09_S02,LBP09,-1470,181,2,180,-1470,1716537831.2,2024-05-24 08:03:51.200000+00:00,2024-05-24 17:03:51.200000+09:00,2024,5,24,8,3,51,200,,,,,,,,,-0.308594,-0.544678,1.351318,-80.627441,229.003906,-21.484375,,,,,,,,,,,0.0,1.0,1.0,2.0,0.0,0.0,0.0,6.0,0.0,-0.01811850666666666,-0.09726554666666666,1.0921223866666665,-0.8959961333333338,4.092610666666666,5.079752693333333,-45.4870616368486,26.125080172335256,27.67082125958341,14.95552313563278,13.67549283182412,-20.04085867426745,28.5012770390325,-1.7556518917706592,28.454436547505356,-1.6377180234416666,-0.29047549333333333,-0.44741245333333335,0.2591956133333335,0.9970835600000002,0.5930735886854501,0.8333799246951168,0.7863749079291154,0.7753577651839514
LBP09_S02,LBP09,-1469,182,2,181,-1469,1716537831.24,2024-05-24 08:03:51.240000+00:00,2024-05-24 17:03:51.240000+09:00,2024,5,24,8,3,51,240,,,,,,,,,-0.314209,-0.369141,0.078369,-233.764648,-2.502441,-0.610352,,,,,,,,,,,0.0,1.0,1.0,2.0,0.0,0.0,0.0,6.0,0.0,-0.01329102666666666,-0.09590813333333333,1.0831477733333332,-1.0831706133333336,1.6162109199999994,5.130208426666666,-54.78396029443811,25.578695792102707,29.448967322295296,12.764164723855254,14.698640663508227,-18.86289998137564,27.106879830774133,-1.7090217584869254,27.546959969999364,-1.6181865382745013,-0.30091797333333337,-0.2732328666666667,-1.0047787733333333,1.5789296133333335,1.0838764733322535,0.84462590436204,0.7991126292157316,0.7774707219138097
LBP09_S02,LBP09,-1468,183,2,182,-1468,1716537831.28,2024-05-24 08:03:51.280000+00:00,2024-05-24 17:03:51.280000+09:00,2024,5,24,8,3,51,280,,,,,,,,,0.111084,-0.869385,1.008545,5.065918,-73.425293,45.10498,,,,,,,,,,,0.0,1.0,1.0,2.0,0.0,0.0,0.0,6.0,0.0,0.0013509066666666744,-0.09450513333333334,1.0706412666666667,-2.4568685200000004,2.1158853999999994,5.6656902,-58.770847311164474,22.51145287517682,30.56899180029184,10.413330831408675,15.5990987785153,-17.640140309363968,25.74769682593555,-1.556447210867663,26.51866181598756,-1.6060729620860403,0.10973309333333332,-0.7748798666666666,-0.06209626666666668,0.9467092266666667,0.7850707648816067,0.8361399870913223,0.7926529162207834,0.7743041607264429
