file_name,test_id,_program_index,program_index,session_id,index,_index,unixtime,datetime_utc,datetime_jst,rtc_year,rtc_month,rtc_day,rtc_hour,rtc_min,rtc_sec,rtc_msec,gps_hour,gps_min,gps_sec,latitude,longitude,altitude,fix_type,SIV,acc_x,acc_y,acc_z,gyro_x,gyro_y,gyro_z,mag_x,mag_y,mag_z,illuminance,atmopress,water_pressure,water_temp,depth,alt_wps,battery_level,behavior_class,camera_command,camera_recording,camera_count,play_audio,speaker_on,audio_file,prev_sd_write_time_ms,delay_occurred_counter,acc_x_ma,acc_y_ma,acc_z_ma,gyro_x_ma,gyro_y_ma,gyro_z_ma,gyro_x_lowpass,gyro_y_lowpass,gyro_z_lowpass,angle_x,angle_y,angle_z,combined_angle_change,gravity_adjusted_angle,smoothed_angle_change,smoothed_gravity_angle,acc_x_dy,acc_y_dy,acc_z_dy,ODBA,VeDBA,smoothed_VeDBA_1s,smoothed_VeDBA_2s,smoothed_VeDBA_3s
LBP09_S03,LBP09,-1650,1,3,0,-1650,1716540213.0,2024-05-24 08:43:33+00:00,2024-05-24 17:43:33+09:00,2024,5,24,8,43,33,0,8.0,43.0,32.0,40.564217,141.5354,-6.367,3.0,13.0,0.457764,0.648193,0.80127,95.64209,-46.264648,-80.505371,-298.0,181.0,233.0,301.0,0.0,1009.299988,23.870001,-0.036666,32.919235,3.895313,0.0,1.0,1.0,3.0,0.0,0.0,0.0,5.0,0.0,,,,,,,95.79271951878945,-45.52216135837023,-80.54877987463755,3.8317087807515784,-1.8208864543348091,-3.2219511949855018,5.327155823038899,,11.650559316965124,,,,,,,,,
LBP09_S03,LBP09,-1649,2,3,1,-1649,1716540213.04,2024-05-24 08:43:33.040000+00:00,2024-05-24 17:43:33.040000+09:00,2024,5,24,8,43,33,40,,,,,,,,,0.417969,-0.34082,1.526855,-32.653809,16.235352,-19.348145,,,,,,,,,,,0.0,1.0,1.0,3.0,0.0,0.0,0.0,5.0,0.0,,,,,,,74.64412922570766,-21.79639873242686,-66.32881465928233,6.817473949779885,-2.6927424036318834,-5.8751037813567955,9.393915964599506,,12.725674292571384,,,,,,,,,
LBP09_S03,LBP09,-1648,3,3,2,-1648,1716540213.08,2024-05-24 08:43:33.080000+00:00,2024-05-24 17:43:33.080000+09:00,2024,5,24,8,43,33,80,,,,,,,,,-0.379883,0.125732,1.831055,-71.166992,50.720215,-32.104492,,,,,,,,,,,0.0,1.0,1.0,3.0,0.0,0.0,0.0,5.0,0.0,,,,,,,56.52775090458642,-0.7550754174428456,-53.08544643261202,9.078583985963341,-2.722945420329597,-7.998521638661276,12.402075122995209,,13.719488553973758,,,,,,,,,
LBP09_S03,LBP09,-1647,4,3,3,-1647,1716540213.12,2024-05-24 08:43:33.120000+00:00,2024-05-24 17:43:33.120000+09:00,2024,5,24,8,43,33,120,,,,,,,,,-0.111084,-0.015381,1.961182,-39.916992,-42.358398,-63.110352,,,,,,,,,,,0.0,1.0,1.0,3.0,0.0,0.0,0.0,5.0,0.0,,,,,,,43.34550591925639,15.400170684786954,-41.72092763064184,10.812404222733598,-2.106938592938119,-9.66735874388695,14.65623077033133,,14.663565333746257,,,,,,,,,
LBP09_S03,LBP09,-1646,5,3,4,-1646,1716540213.16,2024-05-24 08:43:33.160000+00:00,2024-05-24 17:43:33.160000+09:00,2024,5,24,8,43,33,160,,,,,,,,,0.090332,-0.342285,2.090332,46.936035,38.94043,-36.560059,,,,,,,,,,,0.0,1.0,1.0,3.0,0.0,0.0,0.0,5.0,0.0,,,,,,,35.49226800966511,25.460509334853747,-32.82071234001932,12.232094943120202,-1.088518219543969,-10.980187237487723,16.473418903860676,,15.576708924942636,,,,,,,,,
LBP09_S03,LBP09,-1645,6,3,5,-1645,1716540213.2,2024-05-24 08:43:33.200000+00:00,2024-05-24 17:43:33.200000+09:00,2024,5,24,8,43,33,200,,,,,,,,,-0.45166,-0.235107,0.853271,113.891602,169.128418,2.746582,,,,,,,,,,,0.0,1.0,1.0,3.0,0.0,0.0,0.0,5.0,0.0,,,,,,,31.996507297047337,29.409213789360933,-26.612581917647482,13.511955235002096,0.08785033203046821,-12.044690514193622,18.101249170602678,,16.470585201834773,,,,,,,,,
LBP09_S03,LBP09,-1644,7,3,6,-1644,1716540213.24,2024-05-24 08:43:33.240000+00:00,2024-05-24 17:43:33.240000+09:00,2024,5,24,8,43,33,240,,,,,,,,,0.061279,0.428223,0.201172,141.296387,-38.635254,-79.284668,,,,,,,,,,,0.0,1.0,1.0,3.0,0.0,0.0,0.0,5.0,0.0,,,,,,,31.16488715654982,28.313309346481372,-23.008192941878566,14.75855072126409,1.2203827058897232,-12.965018231868765,19.682374122388005,,18.556203615189073,,,,,,,,,
LBP09_S03,LBP09,-1643,8,3,7,-1643,1716540213.28,2024-05-24 08:43:33.280000+00:00,2024-05-24 17:43:33.280000+09:00,2024,5,24,8,43,33,280,,,,,,,,,0.196777,-0.487061,1.211914,32.592773,-15.075684,21.54541,,,,,,,,,,,0.0,1.0,1.0,3.0,0.0,0.0,0.0,5.0,0.0,,,,,,,31.365356860904342,23.93362036390049,-21.68736104492922,16.013164995700265,2.177727520445743,-13.832512673665933,21.272102792153756,,20.406591020386294,,,,,,,,,
LBP09_S03,LBP09,-1642,9,3,8,-1642,1716540213.32,2024-05-24 08:43:33.320000+00:00,2024-05-24 17:43:33.320000+09:00,2024,5,24,8,43,33,320,,,,,,,,,0.230225,0.402344,1.092285,105.407715,-22.155762,-56.213379,,,,,,,,,,,0.0,1.0,1.0,3.0,0.0,0.0,0.0,5.0,0.0,,,,,,,31.57304293014052,18.17466584792754,-22.18758506966948,17.276086712905887,2.9047141543628445,-14.720016076452712,22.881857654513663,,22.132531132450623,,,,,,,,,
LBP09_S03,LBP09,-1641,10,3,9,-1641,1716540213.36,2024-05-24 08:43:33.360000+00:00,2024-05-24 17:43:33.360000+09:00,2024,5,24,8,43,33,360,,,,,,,,,0.163086,-0.179932,1.516357,-44.189453,-29.907227,3.662109,,,,,,,,,,,0.0,1.0,1.0,3.0,0.0,0.0,0.0,5.0,0.0,,,,,,,31.485127424317895,12.57444956603742,-23.97498797142784,18.535491809878604,3.407692137004341,-15.679015595309826,24.515471693863994,,23.812963250080387,,,,,,,,,
LBP09_S03,LBP09,-1640,11,3,10,-1640,1716540213.4,2024-05-24 08:43:33.400000+00:00,2024-05-24 17:43:33.400000+09:00,2024,5,24,8,43,33,400,,,,,,,,,-0.012451,0.014404,1.748535,-51.757812,-14.160156,-51.452637,,,,,,,,,,,0.0,1.0,1.0,3.0,0.0,0.0,0.0,5.0,0.0,,,,,,,31.261529187811323,8.023404301632434,-26.489578029156586,19.785952977391055,3.7286283090696384,-16.73859871647609,26.183339956581943,,25.492503231487078,,,,,,,,,
LBP09_S03,LBP09,-1639,12,3,11,-1639,1716540213.44,2024-05-24 08:43:33.440000+00:00,2024-05-24 17:43:33.440000+09:00,2024,5,24,8,43,33,440,,,,,,,,,0.090576,-0.150146,1.694336,-67.199707,47.424316,-32.836914,,,,,,,,,,,0.0,1.0,1.0,3.0,0.0,0.0,0.0,5.0,0.0,,,,,,,31.133450589289975,4.786530328228846,-29.170755067384558,21.031291000962653,3.920089522198792,-17.905428919171474,27.8977900165717,,27.18851062643613,,,,,,,,,
LBP09_S03,LBP09,-1638,13,3,12,-1638,1716540213.48,2024-05-24 08:43:33.480000+00:00,2024-05-24 17:43:33.480000+09:00,2024,5,24,8,43,33,480,,,,,,,,,-0.143799,-0.354004,1.090332,55.480957,129.821777,1.464844,,,,,,,,,,,0.0,1.0,1.0,3.0,0.0,0.0,0.0,5.0,0.0,,,,,,,31.153257962555674,2.7463263859483633,-31.477543331465185,22.27742131946488,4.029942577636727,-19.16453065243008,29.66147624363848,,28.903274418055748,,,,,,,,,
LBP09_S03,LBP09,-1637,14,3,13,-1637,1716540213.52,2024-05-24 08:43:33.520000+00:00,2024-05-24 17:43:33.520000+09:00,2024,5,24,8,43,33,520,,,,,,,,,-0.489746,-0.322021,0.203125,153.564453,19.897461,-8.117676,,,,,,,,,,,0.0,1.0,1.0,3.0,0.0,0.0,0.0,5.0,0.0,,,,,,,31.222219531218165,1.6758127089789203,-32.925463289077214,23.52631010071361,4.096975085995884,-20.48154918399317,31.460551946628993,,30.635337993631907,,,,,,,,,
LBP09_S03,LBP09,-1636,15,3,14,-1636,1716540213.56,2024-05-24 08:43:33.560000+00:00,2024-05-24 17:43:33.560000+09:00,2024,5,24,8,43,33,560,,,,,,,,,0.147949,0.53125,0.355713,122.98584,-71.411133,-51.208496,,,,,,,,,,,0.0,1.0,1.0,3.0,0.0,0.0,0.0,5.0,0.0,,,,,,,31.31321320936763,1.3618763082660554,-33.161300680868386,24.778838629088312,4.151450138326526,-21.808001211227907,33.26881871792758,,32.386161455402956,,,,,,,,,
LBP09_S03,LBP09,-1635,16,3,15,-1635,1716540213.6,2024-05-24 08:43:33.600000+00:00,2024-05-24 17:43:33.600000+09:00,2024,5,24,8,43,33,600,,,,,,,,,0.233154,0.202393,0.651123,-53.039551,-64.63623,-47.973633,,,,,,,,,,,0.0,1.0,1.0,3.0,0.0,0.0,0.0,5.0,0.0,,,,,,,31.66154311501276,1.5345774198745938,-32.07305530725367,26.045300353688823,4.21283323512151,-23.090923423518053,35.061323120093206,,34.16165373154564,,,,,,,,,
LBP09_S03,LBP09,-1634,17,3,16,-1634,1716540213.64,2024-05-24 08:43:33.640000+00:00,2024-05-24 17:43:33.640000+09:00,2024,5,24,8,43,33,640,,,,,,,,,0.333496,-0.190674,0.893066,61.828613,-21.42334,-67.993164,,,,,,,,,,,0.0,1.0,1.0,3.0,0.0,0.0,0.0,5.0,0.0,,,,,,,32.7368494008175,1.7226007854594219,-29.88877200882465,27.354774329721522,4.281737266539887,-24.28647430387104,36.83001203858419,,35.97023041829993,,,,,,,,,
LBP09_S03,LBP09,-1633,18,3,17,-1633,1716540213.68,2024-05-24 08:43:33.680000+00:00,2024-05-24 17:43:33.680000+09:00,2024,5,24,8,43,33,680,,,,,,,,,-0.004883,0.056152,1.065674,-10.498047,18.676758,-36.499023,,,,,,,,,,,0.0,1.0,1.0,3.0,0.0,0.0,0.0,5.0,0.0,,,,,,,34.9863048113193,1.216794415064829,-27.18893418679467,28.754226522174292,4.33040904314248,-25.374031671342827,38.59273854791534,,37.81962227618793,,,,,,,,,
LBP09_S03,LBP09,-1632,19,3,18,-1632,1716540213.72,2024-05-24 08:43:33.720000+00:00,2024-05-24 17:43:33.720000+09:00,2024,5,24,8,43,33,720,,,,,,,,,0.087646,-0.088623,1.378662,-9.82666,-4.882812,-29.296875,,,,,,,,,,,0.0,1.0,1.0,3.0,0.0,0.0,0.0,5.0,0.0,,,,,,,38.50434443712035,-0.7596444152730869,-24.776786985365565,30.294400299659106,4.300023266531556,-26.36510315075745,40.39009227222412,,39.71416641944966,,,,,,,,,
LBP09_S03,LBP09,-1631,20,3,19,-1631,1716540213.76,2024-05-24 08:43:33.760000+00:00,2024-05-24 17:43:33.760000+09:00,2024,5,24,8,43,33,760,,,,,,,,,-0.032227,-0.510986,1.296143,-33.14209,27.709961,11.169434,,,,,,,,,,,0.0,1.0,1.0,3.0,0.0,0.0,0.0,5.0,0.0,,,,,,,42.83364878436444,-4.725847812309982,-23.418296001717568,32.00774625103368,4.110989354039157,-27.30183499082615,42.27039445529084,,41.653274363782856,,,,,,,,,
LBP09_S03,LBP09,-1630,21,3,20,-1630,1716540213.8,2024-05-24 08:43:33.800000+00:00,2024-05-24 17:43:33.800000+09:00,2024,5,24,8,43,33,800,,,,,,,,,-0.151611,-0.233398,0.836182,81.176758,78.491211,19.65332,,,,,,,,,,,0.0,1.0,1.0,3.0,0.0,0.0,0.0,5.0,0.0,,,,,,,47.033898389057356,-10.625383377382164,-23.542012607708827,33.88910218659598,3.6859740189438703,-28.243515495134503,44.26910682412484,,43.63079392275453,,,,,,,,,
LBP09_S03,LBP09,-1629,22,3,21,-1629,1716540213.84,2024-05-24 08:43:33.840000+00:00,2024-05-24 17:43:33.840000+09:00,2024,5,24,8,43,33,840,,,,,,,,,-0.322998,-0.110352,-0.069092,160.888672,17.211914,4.516602,,,,,,,,,,,0.0,1.0,1.0,3.0,0.0,0.0,0.0,5.0,0.0,,,,,,,50.01277611355152,-17.698476364277564,-25.031800273561807,35.889613231138036,2.9780349643727675,-29.244787506076975,46.39170859545163,,45.63456007361691,,,,,,,,,
LBP09_S03,LBP09,-1628,23,3,22,-1628,1716540213.88,2024-05-24 08:43:33.880000+00:00,2024-05-24 17:43:33.880000+09:00,2024,5,24,8,43,33,880,,,,,,,,,-0.032227,0.124756,0.188232,77.941895,-72.998047,-35.888672,,,,,,,,,,,0.0,1.0,1.0,3.0,0.0,0.0,0.0,5.0,0.0,,,,,,,50.960964692545126,-24.651836388531606,-27.22036657879956,37.92805181883984,1.9919615088315032,-30.333602169228957,48.6069176762559,,47.645633124751704,,,,,,,,,
LBP09_S03,LBP09,-1627,24,3,23,-1627,1716540213.92,2024-05-24 08:43:33.920000+00:00,2024-05-24 17:43:33.920000+09:00,2024,5,24,8,43,33,920,,,,,,,,,0.219482,0.093018,0.443359,72.20459,-122.314453,-82.15332,,,,,,,,,,,0.0,1.0,1.0,3.0,0.0,0.0,0.0,5.0,0.0,,,,,,,49.659312617389496,-30.0868952220505,-29.102577109091822,39.91442432353542,0.7884856999494831,-31.49770525359263,50.85163138996091,,49.637303995827054,,,,,,,,,
LBP09_S03,LBP09,-1626,25,3,24,-1626,1716540213.96,2024-05-24 08:43:33.960000+00:00,2024-05-24 17:43:33.960000+09:00,2024,5,24,8,43,33,960,,,,,,,,,0.519531,0.001709,0.685059,19.897461,-74.157715,-56.82373,,,,,,,,,,,0.0,1.0,1.0,3.0,0.0,0.0,0.0,5.0,0.0,,,,,,,46.49368578258121,-32.998468874698936,-29.680211978853208,41.77417175483867,-0.5314530550384744,-32.68491373274676,53.04401430764425,,51.574604299273595,,,,,,,,,
LBP09_S03,LBP09,-1625,26,3,25,-1625,1716540214.0,2024-05-24 08:43:34+00:00,2024-05-24 17:43:34+09:00,2024,5,24,8,43,34,0,8.0,43.0,33.0,40.564278,141.535446,-5.496,3.0,14.0,0.149414,-0.126709,0.954346,-3.540039,-10.803223,-24.963379,-283.0,154.0,249.0,320.0,0.0,1009.0,23.870001,-0.039639,35.423584,3.895313,0.0,1.0,1.0,3.0,0.0,0.0,0.0,6.0,0.0,,,,,,,42.18296198715249,-33.104291051297906,-28.28890204229893,43.46149023432477,-1.8556246970903907,-33.81646981443871,55.098984628717105,,53.41546520462431,,,,,,,,,
LBP09_S03,LBP09,-1624,27,3,26,-1624,1716540214.04,2024-05-24 08:43:34.040000+00:00,2024-05-24 17:43:34.040000+09:00,2024,5,24,8,43,34,40,,,,,,,,,-0.154053,0.0,1.316162,-8.728027,-23.4375,-23.986816,,,,,,,,,,,0.0,1.0,1.0,3.0,0.0,0.0,0.0,6.0,0.0,,,,,,,37.386233872485384,-30.856712932089547,-24.780153314354166,44.956939589224184,-3.089893214373973,-34.807675947012875,56.940742549932075,,55.114471778220434,,,,,,,,,
LBP09_S03,LBP09,-1623,28,3,27,-1623,1716540214.08,2024-05-24 08:43:34.080000+00:00,2024-05-24 17:43:34.080000+09:00,2024,5,24,8,43,34,80,,,,,,,,,-0.131592,-0.050537,1.489258,-50.231934,-13.85498,-8.239746,,,,,,,,,,,0.0,1.0,1.0,3.0,0.0,0.0,0.0,6.0,0.0,,,,,,,32.415151036648986,-27.15876187390231,-19.514486794047663,46.25354563069014,-4.176243689330065,-35.58825541877478,58.50944725866889,,56.62923395902162,,,,,,,,,
LBP09_S03,LBP09,-1622,29,3,28,-1622,1716540214.12,2024-05-24 08:43:34.120000+00:00,2024-05-24 17:43:34.120000+09:00,2024,5,24,8,43,34,120,,,,,,,,,0.026855,-0.134766,1.266113,73.669434,22.338867,-10.437012,,,,,,,,,,,0.0,1.0,1.0,3.0,0.0,0.0,0.0,6.0,0.0,,,,,,,27.213323184103512,-22.946949554722945,-13.207329551075187,47.34207855805428,-5.094121671518983,-36.11654860081779,59.76309530668953,,57.92809374017596,,,,,,,,,
LBP09_S03,LBP09,-1621,30,3,29,-1621,1716540214.16,2024-05-24 08:43:34.160000+00:00,2024-05-24 17:43:34.160000+09:00,2024,5,24,8,43,34,160,,,,,,,,,-0.180908,-0.246338,0.560547,83.92334,83.435059,39.18457,,,,,,,,,,,0.0,1.0,1.0,3.0,0.0,0.0,0.0,6.0,0.0,,,,,,,21.60993308270831,-18.849031616139246,-6.714325682205021,48.206475881362614,-5.848082936164553,-36.385121628105985,60.679003508798004,,58.99688671783527,,,,,,,,,
LBP09_S03,LBP09,-1620,31,3,30,-1620,1716540214.2,2024-05-24 08:43:34.200000+00:00,2024-05-24 17:43:34.200000+09:00,2024,5,24,8,43,34,200,,,,,,,,,-0.07251,0.313232,-0.075195,134.155273,-48.88916,-28.808594,,,,,,,,,,,0.0,1.0,1.0,3.0,0.0,0.0,0.0,6.0,0.0,,,,,,,15.684036401517993,-15.0753029482657,-0.8409065477194124,48.83383733742333,-6.45109505409518,-36.41875789001476,61.259172560086085,,59.84235176253831,,,,,,,,,
LBP09_S03,LBP09,-1619,32,3,31,-1619,1716540214.24,2024-05-24 08:43:34.240000+00:00,2024-05-24 17:43:34.240000+09:00,2024,5,24,8,43,34,240,,,,,,,,,0.150635,0.028564,0.289062,-12.084961,-96.801758,-8.300781,,,,,,,,,,,0.0,1.0,1.0,3.0,0.0,0.0,0.0,6.0,0.0,,,,,,,9.989783289368042,-11.577471959910497,3.7741907772942986,49.23342866899805,-6.9141939324916,-36.267790258922986,61.53933040346354,,60.49073694520806,,,,,,,,,
LBP09_S03,LBP09,-1618,33,3,32,-1618,1716540214.28,2024-05-24 08:43:34.280000+00:00,2024-05-24 17:43:34.280000+09:00,2024,5,24,8,43,34,280,,,,,,,,,0.454102,-0.154785,0.627197,-3.234863,-96.252441,4.394531,,,,,,,,,,,0.0,1.0,1.0,3.0,0.0,0.0,0.0,6.0,0.0,,,,,,,5.46006485192482,-8.352932200387757,6.699653227112954,49.45183126307504,-7.2483112205071105,-35.999804129838466,61.5955154877992,,60.98190117211861,,,,,,,,,
LBP09_S03,LBP09,-1617,34,3,33,-1617,1716540214.32,2024-05-24 08:43:34.320000+00:00,2024-05-24 17:43:34.320000+09:00,2024,5,24,8,43,34,320,,,,,,,,,0.354248,0.243164,0.827881,-41.19873,11.84082,16.601562,,,,,,,,,,,0.0,1.0,1.0,3.0,0.0,0.0,0.0,6.0,0.0,,,,,,,2.9975531826480544,-5.674328237389047,7.708377631781995,49.57173339038096,-7.475284350002672,-35.69146902456718,61.53956116655403,,61.360958423381625,-1.0791487357612781,,,,,,,,
LBP09_S03,LBP09,-1616,35,3,34,-1616,1716540214.36,2024-05-24 08:43:34.360000+00:00,2024-05-24 17:43:34.360000+09:00,2024,5,24,8,43,34,360,,,,,,,,,-0.064209,0.034668,1.279785,-104.309082,28.076172,2.01416,,,,,,,,,,,0.0,1.0,1.0,3.0,0.0,0.0,0.0,6.0,0.0,,,,,,,2.9592026015828017,-4.068106457981556,6.764138176798392,49.69010149444428,-7.638008608321934,-35.420903497495246,61.49866475467451,,61.67026003287905,-1.208261029073127,,,,,,,,
LBP09_S03,LBP09,-1615,36,3,35,-1615,1716540214.4,2024-05-24 08:43:34.400000+00:00,2024-05-24 17:43:34.400000+09:00,2024,5,24,8,43,34,400,,,,,,,,,-0.031738,-0.257568,1.539795,-75.256348,10.131836,0.671387,,,,,,,,,,,0.0,1.0,1.0,3.0,0.0,0.0,0.0,6.0,0.0,,,,,,,4.824522654107776,-4.031578714917147,4.012804391062962,49.883082400608586,-7.79927175691862,-35.26039132185273,61.582836455414764,,61.9438093845837,-1.3349692691682076,,,,,,,,
LBP09_S03,LBP09,-1614,37,3,36,-1614,1716540214.44,2024-05-24 08:43:34.440000+00:00,2024-05-24 17:43:34.440000+09:00,2024,5,24,8,43,34,440,,,,,,,,,-0.043213,-0.369141,1.411377,75.866699,31.433105,-5.065918,,,,,,,,,,,0.0,1.0,1.0,3.0,0.0,0.0,0.0,6.0,0.0,,,,,,,7.261756847984223,-5.64758700401573,-0.2245456465872482,50.173552674527954,-8.02517523707925,-35.269373147716216,61.852384819037546,,62.204603235225264,-1.3448957638120316,,,,,,,,
LBP09_S03,LBP09,-1613,38,3,37,-1613,1716540214.48,2024-05-24 08:43:34.480000+00:00,2024-05-24 17:43:34.480000+09:00,2024,5,24,8,43,34,480,,,,,,,,,-0.272461,-0.085938,0.55127,111.877441,102.478027,27.404785,,,,,,,,,,,0.0,1.0,1.0,3.0,0.0,0.0,0.0,6.0,0.0,0.023727186666666664,-0.04433270666666667,1.1197753866666667,30.599772133333328,0.4980468799999996,-15.369466173333334,8.602385819579178,-8.324733935394216,-5.466599022126251,50.517648107311125,-8.358164594495019,-35.48803710860127,62.300019771299,-1.0791487357612781,62.46401555159292,-1.3661983747011757,-0.2961881866666667,-0.04160529333333333,-0.5685053866666666,0.9062988666666667,0.6423836992197552,0.6423836992197552,0.6423836992197552,0.6423836992197552
LBP09_S03,LBP09,-1612,39,3,38,-1612,1716540214.52,2024-05-24 08:43:34.520000+00:00,2024-05-24 17:43:34.520000+09:00,2024,5,24,8,43,34,520,,,,,,,,,-0.126465,0.270752,-0.001709,43.151855,-22.583008,-25.756836,,,,,,,,,,,0.0,1.0,1.0,3.0,0.0,0.0,0.0,6.0,0.0,0.017291639999999997,-0.07286785333333334,1.1416731733333334,29.737955720000002,3.3479817733333332,-12.992350293333335,7.507969718983665,-10.839010263980294,-11.106700732676329,50.81796689607047,-8.79172500505423,-35.93230513790832,62.856111401663746,-1.337373322384976,62.72196935158795,-1.3888438392514562,-0.14375664,0.34361985333333334,-1.1433821733333334,1.6307586666666667,1.2025237500545958,0.9224537246371756,0.9224537246371756,0.9224537246371756
LBP09_S03,LBP09,-1611,40,3,39,-1611,1716540214.56,2024-05-24 08:43:34.560000+00:00,2024-05-24 17:43:34.560000+09:00,2024,5,24,8,43,34,560,,,,,,,,,0.106445,-0.039307,0.361084,47.668457,-106.262207,-31.677246,,,,,,,,,,,0.0,1.0,1.0,3.0,0.0,0.0,0.0,6.0,0.0,-0.0010514666666666672,-0.059856786666666675,1.1244466133333333,32.38688150666667,5.681152346666666,-11.708984399999999,3.5023077378053418,-11.711297959877607,-16.475050111655154,50.958059205582686,-9.260176923449334,-36.59130714237453,63.41449702584452,-1.588385749358368,62.96725977131541,-1.3825170823586466,0.10749646666666667,0.020549786666666674,-0.7633626133333333,0.8914088666666666,0.7711681162450633,0.8720251885064715,0.8720251885064715,0.8720251885064715
LBP09_S03,LBP09,-1610,41,3,40,-1610,1716540214.6,2024-05-24 08:43:34.600000+00:00,2024-05-24 17:43:34.600000+09:00,2024,5,24,8,43,34,600,,,,,,,,,0.442627,0.046875,0.678223,-26.123047,-97.65625,-23.742676,,,,,,,,,,,0.0,1.0,1.0,3.0,0.0,0.0,0.0,6.0,0.0,0.009977186666666667,-0.05026693333333334,1.1233365866666667,32.792968746666666,5.554199213333333,-11.689453146666667,-2.881357664894096,-9.778198632009067,-20.922062636830425,50.84280489898692,-9.651304868729698,-37.42818964784775,63.86711106650176,-1.3746752477435042,63.17839134852481,-1.388194078378081,0.4326498133333333,0.09714193333333335,-0.44511358666666667,0.9749053333333333,0.6282901568736933,0.8110914305982768,0.8110914305982768,0.8110914305982768
LBP09_S03,LBP09,-1609,42,3,41,-1609,1716540214.64,2024-05-24 08:43:34.640000+00:00,2024-05-24 17:43:34.640000+09:00,2024,5,24,8,43,34,640,,,,,,,,,0.326904,0.055908,0.953125,-49.621582,-3.78418,-2.685547,,,,,,,,,,,0.0,1.0,1.0,3.0,0.0,0.0,0.0,6.0,0.0,0.00852536,-0.07120769333333334,1.1332584533333332,32.405598946666665,7.275390613333332,-10.2270508,-10.381849499562485,-4.690931106245876,-23.90429701898039,50.42753091900442,-9.838942112979533,-38.384361528606966,64.13345356714007,-1.4514088182577518,63.32595244157564,-1.3982693792061738,0.31837864,0.12711569333333333,-0.1801334533333332,0.6256277866666665,0.3872614348339578,0.7263254314454131,0.7263254314454131,0.7263254314454131
LBP09_S03,LBP09,-1608,43,3,42,-1608,1716540214.68,2024-05-24 08:43:34.680000+00:00,2024-05-24 17:43:34.680000+09:00,2024,5,24,8,43,34,680,,,,,,,,,-0.039551,0.217529,1.199951,-63.720703,25.939941,-22.888184,,,,,,,,,,,0.0,1.0,1.0,3.0,0.0,0.0,0.0,6.0,0.0,0.004410773333333333,-0.06417970666666667,1.1405208266666667,33.80940754666666,5.447591133333332,-9.501139333333333,-17.557900564058905,2.901076023107445,-25.056427594408618,49.72521489644206,-9.722899072055235,-39.38661863238331,64.17505348774958,-1.502071162002859,63.37740485999791,-1.4125000260910596,-0.043961773333333336,0.2817087066666667,0.059430173333333336,0.3851006533333334,0.29124625049749137,0.6538122346207594,0.6538122346207594,0.6538122346207594
LBP09_S03,LBP09,-1607,44,3,43,-1607,1716540214.72,2024-05-24 08:43:34.720000+00:00,2024-05-24 17:43:34.720000+09:00,2024,5,24,8,43,34,720,,,,,,,,,0.02124,0.048096,1.502441,-89.416504,8.239746,-44.677734,,,,,,,,,,,0.0,1.0,1.0,3.0,0.0,0.0,0.0,6.0,0.0,0.012783173333333332,-0.05559573333333333,1.16072916,31.460774733333334,3.406575506666666,-9.70052084,-23.333950731263474,11.56326085416382,-24.24356734290649,48.79185686719152,-9.260368637888682,-40.356361326099574,63.99246536382859,-1.3445565410017888,63.30424618828499,-1.4501941345201614,0.008456826666666667,0.10369173333333333,0.3417118399999999,0.4538603999999999,0.35719808940576186,0.6114387853043313,0.6114387853043313,0.6114387853043313
LBP09_S03,LBP09,-1606,45,3,44,-1606,1716540214.76,2024-05-24 08:43:34.760000+00:00,2024-05-24 17:43:34.760000+09:00,2024,5,24,8,43,34,760,,,,,,,,,0.059082,-0.109619,1.579346,-41.687012,33.752441,-32.653809,,,,,,,,,,,0.0,1.0,1.0,3.0,0.0,0.0,0.0,6.0,0.0,0.010058573333333333,-0.07004886666666667,1.17527668,28.20068358666666,6.671549466666666,-7.85644532,-27.299951175133007,19.57498810347165,-21.590634502549594,47.6998588201862,-8.477369113749816,-41.21998670620156,63.60998052676866,-1.427933050514123,63.09034041746753,-1.4577700724805205,0.04902342666666667,-0.03957013333333333,0.40406931999999984,0.4926628799999998,0.4089512283627745,0.5861278406866366,0.5861278406866366,0.5861278406866366
LBP09_S03,LBP09,-1605,46,3,45,-1605,1716540214.8,2024-05-24 08:43:34.800000+00:00,2024-05-24 17:43:34.800000+09:00,2024,5,24,8,43,34,800,,,,,,,,,-0.073242,-0.209229,1.155762,22.583008,139.953613,7.263184,,,,,,,,,,,0.0,1.0,1.0,3.0,0.0,0.0,0.0,6.0,0.0,0.00571288,-0.06206057333333334,1.15768228,25.94238281333333,7.39095052,-8.57828776,-29.651958412482504,25.489388180529705,-17.479735368743075,46.5137804836869,-7.457793586528628,-41.919176120951285,63.058447385922946,-1.478871785830915,62.73949725988764,-1.4448041299816983,-0.07895488,-0.14716842666666666,-0.0019202799999999964,0.22804358666666666,0.1670212751676709,0.5395604445178627,0.5395604445178627,0.5395604445178627
LBP09_S03,LBP09,-1604,47,3,46,-1604,1716540214.84,2024-05-24 08:43:34.840000+00:00,2024-05-24 17:43:34.840000+09:00,2024,5,24,8,43,34,840,,,,,,,,,-0.466064,0.401611,0.11499,46.691895,72.08252,-28.015137,,,,,,,,,,,0.0,1.0,1.0,3.0,0.0,0.0,0.0,6.0,0.0,0.0020409999999999994,-0.06763349333333334,1.1474706933333332,23.87695312,6.749674479999999,-7.963053386666667,-30.83592770228199,28.521308512939374,-12.509309700079397,45.28034337559562,-6.316941246011053,-42.41954850895446,62.36690900326023,-1.540575848055033,62.280466840590975,-1.4422867286114793,-0.468105,0.46924449333333335,-1.0324806933333333,1.9698301866666665,1.2269185252716406,0.6082962525932405,0.6082962525932405,0.6082962525932405
LBP09_S03,LBP09,-1603,48,3,47,-1603,1716540214.88,2024-05-24 08:43:34.880000+00:00,2024-05-24 17:43:34.880000+09:00,2024,5,24,8,43,34,880,,,,,,,,,0.057617,-0.216797,0.510254,-86.730957,-42.114258,26.550293,,,,,,,,,,,0.0,1.0,1.0,3.0,0.0,0.0,0.0,6.0,0.0,0.007363266666666665,-0.06401044,1.13622396,23.051757799999997,6.207682293333332,-7.6595052,-31.093668320767353,28.61687477259675,-7.423317435486085,44.03659664276493,-5.172266255107183,-42.716481206373906,61.56843305416982,-1.4560898200522947,61.7682728195222,-1.4194764877969153,0.050253733333333335,-0.15278656,-0.6259699599999999,0.8290102533333332,0.6463029950827808,0.6117514110013805,0.6117514110013805,0.6117514110013805
LBP09_S03,LBP09,-1602,49,3,48,-1602,1716540214.92,2024-05-24 08:43:34.920000+00:00,2024-05-24 17:43:34.920000+09:00,2024,5,24,8,43,34,920,,,,,,,,,0.460205,0.06543,1.036133,77.148438,-64.453125,-41.137695,,,,,,,,,,,0.0,1.0,1.0,3.0,0.0,0.0,0.0,6.0,0.0,0.01013996,-0.06388022666666666,1.1250813866666667,20.524902320000002,7.215169266666667,-5.730794253333333,-30.13975208563273,26.21575448969042,-3.0283019345212274,42.83100655933962,-4.123636075519566,-42.837613283754756,60.71705369348913,-1.4131327019885669,61.281797296359116,-1.4049628851669822,0.45006503999999997,0.12931022666666667,-0.08894838666666671,0.6683236533333333,0.4766460851002441,0.6004926338429525,0.6004926338429525,0.6004926338429525
LBP09_S03,LBP09,-1601,50,3,49,-1601,1716540214.96,2024-05-24 08:43:34.960000+00:00,2024-05-24 17:43:34.960000+09:00,2024,5,24,8,43,34,960,,,,,,,,,0.236816,-0.019531,1.416504,-62.866211,19.042969,19.287109,,,,,,,,,,,0.0,1.0,1.0,3.0,0.0,0.0,0.0,6.0,0.0,0.006451813333333333,-0.05740237333333333,1.1214583333333332,18.379720026666668,7.596842453333332,-4.640299466666667,-27.118874049187013,21.880200784124764,-0.10905709063857094,41.74625159737214,-3.2484280441545756,-42.841975567380295,59.90606545004567,-1.4587263243701458,60.918203416572304,-1.4084836613952552,0.23036418666666666,0.03787137333333333,0.29504566666666676,0.5632812266666667,0.3762364214633206,0.5832421559675962,0.5832421559675962,0.5832421559675962
LBP09_S03,LBP09,-1600,51,3,50,-1600,1716540215.0,2024-05-24 08:43:35+00:00,2024-05-24 17:43:35+09:00,2024,5,24,8,43,35,0,8.0,43.0,34.0,40.564327,141.535522,-6.265,3.0,14.0,-0.16333,-0.023438,1.79541,-51.086426,-1.831055,-20.141602,-281.0,151.0,246.0,498.0,0.0,1008.900024,23.91,-0.04063,36.258327,3.895313,0.0,1.0,1.0,3.0,0.0,0.0,0.0,5.0,0.0,0.01142252,-0.05082034666666667,1.12676432,14.949544239999998,6.429036466666666,-4.653320306666666,-20.86196139025339,16.027517574942934,0.6614642784740901,40.911773141762,-2.607327341156858,-42.81551699624133,59.27680687353505,-1.3495012340413153,60.78476683865041,-1.41004338781049,-0.17475252,0.027382346666666668,0.66864568,0.8707805466666667,0.6916467895812041,0.5909853440828539,0.5909853440828539,0.5909853440828539
LBP09_S03,LBP09,-1599,52,3,51,-1599,1716540215.04,2024-05-24 08:43:35.040000+00:00,2024-05-24 17:43:35.040000+09:00,2024,5,24,8,43,35,40,,,,,,,,,-0.05957,-0.213379,2.003418,-56.884766,-34.912109,-11.84082,,,,,,,,,,,0.0,1.0,1.0,3.0,0.0,0.0,0.0,5.0,0.0,0.01853514666666667,-0.05122074666666667,1.1375032533333334,9.32210284,7.8401692800000005,-4.226888013333334,-10.337556044917196,8.916834521070427,-1.1714876683165802,40.49827089996531,-2.250653960314041,-42.862376502973994,59.01151335645233,-1.2233064101121116,60.98829611214984,-1.398978230233773,-0.07810514666666667,-0.16215825333333334,0.8659147466666666,1.1061781466666667,0.8844230105298801,0.6105478551793222,0.6105478551793222,0.6105478551793222
LBP09_S03,LBP09,-1598,53,3,52,-1598,1716540215.08,2024-05-24 08:43:35.080000+00:00,2024-05-24 17:43:35.080000+09:00,2024,5,24,8,43,35,80,,,,,,,,,0.046143,-0.266113,1.305664,-5.737305,121.887207,9.155273,,,,,,,,,,,0.0,1.0,1.0,3.0,0.0,0.0,0.0,5.0,0.0,0.012161453333333334,-0.05606124000000001,1.1376692666666666,7.273763000000001,9.908040373333336,-3.677571613333333,4.87559709885302,0.8702122970589937,-5.722255479214615,40.693294783919434,-2.2158454684316813,-43.09126672214258,59.31029825611878,-1.3569351357035273,61.62249461210165,-1.3788321052427652,0.03398154666666667,-0.21005175999999998,0.16799473333333337,0.41202804000000004,0.27110646952939765,0.589332768576202,0.589332768576202,0.589332768576202
LBP09_S03,LBP09,-1597,54,3,53,-1597,1716540215.12,2024-05-24 08:43:35.120000+00:00,2024-05-24 17:43:35.120000+09:00,2024,5,24,8,43,35,120,,,,,,,,,-0.522949,-0.290039,0.217529,88.256836,83.862305,3.78418,,,,,,,,,,,0.0,1.0,1.0,3.0,0.0,0.0,0.0,5.0,0.0,0.011412760000000001,-0.05909184000000001,1.1294694,7.871093733333332,10.13834636,-3.116048173333333,24.26133843013739,-7.442271065797947,-12.650815564805187,41.66374832112493,-2.513536311063599,-43.597299344734786,60.356526565960436,-1.3797643032845195,62.75482799038956,-1.3635941319719072,-0.53436176,-0.23094715999999998,-0.9119404000000001,1.67724932,1.081903126169124,0.6183074954934327,0.6183074954934327,0.6183074954934327
LBP09_S03,LBP09,-1596,55,3,54,-1596,1716540215.16,2024-05-24 08:43:35.160000+00:00,2024-05-24 17:43:35.160000+09:00,2024,5,24,8,43,35,160,,,,,,,,,0.09082,0.37793,0.330322,70.739746,-44.494629,-15.441895,,,,,,,,,,,0.0,1.0,1.0,3.0,0.0,0.0,0.0,5.0,0.0,0.007063800000000001,-0.05527022666666667,1.1206901066666666,7.02311196,9.426269533333333,-2.46826172,46.2781535708618,-14.877349916682407,-21.104281688288896,43.5148744639594,-3.1086303077308957,-44.44147061226634,62.27561474754964,-1.4435303146664715,64.41586215681768,-1.351600543830068,0.0837562,0.4332002266666667,-0.7903681066666666,1.3073245333333332,0.9051846670477481,0.6342451161353391,0.6342451161353391,0.6342451161353391
LBP09_S03,LBP09,-1595,56,3,55,-1595,1716540215.2,2024-05-24 08:43:35.200000+00:00,2024-05-24 17:43:35.200000+09:00,2024,5,24,8,43,35,200,,,,,,,,,0.405518,-0.227783,0.985596,-85.449219,-69.152832,-13.671875,,,,,,,,,,,0.0,1.0,1.0,3.0,0.0,0.0,0.0,5.0,0.0,0.011246746666666666,-0.054821,1.1101887999999998,6.6886393066666665,8.002929693333334,-2.187500013333333,68.53055355340643,-19.999705075994147,-29.766468996458183,46.25609660609566,-3.9086185107706615,-45.63212937212467,65.09374012091729,-1.3682202100637437,66.59420403394682,-1.3262921328142432,0.39427125333333335,-0.172962,-0.12459279999999973,0.691826053333333,0.4482064707931797,0.6244536084857518,0.6244536084857518,0.6244536084857518
LBP09_S03,LBP09,-1594,57,3,56,-1594,1716540215.24,2024-05-24 08:43:35.240000+00:00,2024-05-24 17:43:35.240000+09:00,2024,5,24,8,43,35,240,,,,,,,,,0.237549,-0.078613,0.840332,49.621582,-19.104004,-41.564941,,,,,,,,,,,0.0,1.0,1.0,3.0,0.0,0.0,0.0,5.0,0.0,0.014153653333333332,-0.06007815999999999,1.1015397066666668,5.347493466666665,7.481282546666666,-1.7789713733333334,88.1938298835353,-21.540207763304025,-37.04579839014284,49.78384980143707,-4.770226821302822,-47.113961307730385,68.70889400277841,-1.3391145981449566,69.23857525514713,-1.3021103684941688,0.2233953466666667,-0.01853484000000001,-0.2612077066666668,0.5031378933333335,0.34420704122403606,0.610441280122666,0.610441280122666,0.610441280122666
LBP09_S03,LBP09,-1593,58,3,57,-1593,1716540215.28,2024-05-24 08:43:35.280000+00:00,2024-05-24 17:43:35.280000+09:00,2024,5,24,8,43,35,280,,,,,,,,,-0.145264,-0.89209,1.179932,56.45752,-26.062012,-0.366211,,,,,,,,,,,0.0,1.0,1.0,3.0,0.0,0.0,0.0,5.0,0.0,0.016533213333333335,-0.060507853333333333,1.0989029866666669,7.772623679999999,6.9718424400000005,-2.27376304,102.66750531894532,-18.93638319383695,-41.3881832160531,53.890550014194886,-5.5276821490563,-48.76948863637251,72.8917668370489,-1.303710087343713,72.2660325771601,-1.2958476153182223,-0.16179721333333333,-0.8315821466666667,0.08102901333333312,1.0744083733333332,0.851042246835577,0.621898469013757,0.621898469013757,0.621898469013757
LBP09_S03,LBP09,-1592,59,3,58,-1592,1716540215.32,2024-05-24 08:43:35.320000+00:00,2024-05-24 17:43:35.320000+09:00,2024,5,24,8,43,35,320,,,,,,,,,-0.16748,-0.397461,1.296631,435.241699,-154.724121,-109.191895,,,,,,,,,,,0.0,1.0,1.0,3.0,0.0,0.0,0.0,5.0,0.0,0.016113293333333334,-0.05661462666666666,1.1041959466666667,8.107096333333333,5.3181966,-2.5537109466666665,110.3355058047749,-12.700209286342876,-41.65125216243321,58.30397024638588,-6.035690520510015,-50.435538722869836,77.32739535777037,-1.2931968205701772,75.57343789095746,-1.2922080249241732,-0.18359329333333332,-0.34084637333333334,0.19243505333333344,0.7168747200000001,0.4323355147600857,0.6132819710931355,0.6132819710931355,0.6132819710931355
LBP09_S03,LBP09,-1591,60,3,59,-1591,1716540215.36,2024-05-24 08:43:35.360000+00:00,2024-05-24 17:43:35.360000+09:00,2024,5,24,8,43,35,360,,,,,,,,,0.102051,1.001953,1.451172,215.637207,-36.743164,-79.345703,,,,,,,,,,,0.0,1.0,1.0,3.0,0.0,0.0,0.0,5.0,0.0,0.02186850666666667,-0.057265666666666666,1.1272232933333333,6.717122373333333,4.089355453333333,-2.8841146,111.15056534669712,-4.412195911859619,-37.43233888602806,62.74999286025376,-6.2121783569844,-51.93283227831096,81.68948422133695,-1.2056422142118977,79.04900101091758,-1.2879204109871658,0.08018249333333333,1.0592186666666668,0.32394870666666664,1.4633498666666667,1.110547693979537,0.6349022199142835,0.6349022199142835,0.6349022199142835
LBP09_S03,LBP09,-1590,61,3,60,-1590,1716540215.4,2024-05-24 08:43:35.400000+00:00,2024-05-24 17:43:35.400000+09:00,2024,5,24,8,43,35,400,,,,,,,,,0.289062,-0.229248,1.881348,-14.160156,56.274414,-56.884766,,,,,,,,,,,0.0,1.0,1.0,3.0,0.0,0.0,0.0,5.0,0.0,0.02514976,-0.050403693333333346,1.1415494666666666,4.837239559999999,5.713704413333333,-3.1388346533333333,106.70537567462915,3.7244230161083856,-29.225047292488757,67.01820788723893,-6.063201436340065,-53.10183417001051,85.72051908553813,-1.10768359084057,82.58193128360949,-1.268617952547922,0.26391223999999996,-0.17884430666666667,0.7397985333333335,1.1825550800000002,0.805566152697002,0.6420132171135634,0.6420132171135634,0.6420132171135634
LBP09_S03,LBP09,-1589,62,3,61,-1589,1716540215.44,2024-05-24 08:43:35.440000+00:00,2024-05-24 17:43:35.440000+09:00,2024,5,24,8,43,35,440,,,,,,,,,0.093018,-0.233398,2.022461,-23.620605,143.737793,-5.859375,,,,,,,,,,,0.0,1.0,1.0,3.0,0.0,0.0,0.0,5.0,0.0,0.020439480000000003,-0.04704432000000001,1.1436686133333334,2.3429361733333325,9.27327472,-3.003743506666667,99.65288969114324,9.64312103923257,-18.317614761055825,71.00432347488466,-5.677476594770762,-53.834538760452745,89.28608657658211,-1.160678878352647,86.06986845322834,-1.260855338204443,0.07257852000000001,-0.18635368,0.8787923866666665,1.1377245866666665,0.9012610024172957,0.6523831285257127,0.6523831285257127,0.6523831285257127
LBP09_S03,LBP09,-1588,63,3,62,-1588,1716540215.48,2024-05-24 08:43:35.480000+00:00,2024-05-24 17:43:35.480000+09:00,2024,5,24,8,43,35,480,,,,,,,,,-0.615479,-0.366211,0.981445,-56.091309,175.598145,85.998535,,,,,,,,,,,0.0,1.0,1.0,3.0,0.0,0.0,0.0,5.0,0.0,0.012148466666666668,-0.04756516,1.1365494666666667,-0.414225280000001,10.35156248,-2.3616536666666668,92.70082958625395,12.175807463578739,-6.447384923683068,74.71235665833481,-5.1904442962276125,-54.09243415740007,92.38435139409233,-1.3205392317630364,89.42466752413203,-1.2676762014889726,-0.6276274666666667,-0.31864584,-0.15510446666666666,1.1013777733333332,0.7207695913699984,0.6555185642117225,0.6550133770966468,0.6550133770966468
LBP09_S03,LBP09,-1587,64,3,63,-1587,1716540215.52,2024-05-24 08:43:35.520000+00:00,2024-05-24 17:43:35.520000+09:00,2024,5,24,8,43,35,520,,,,,,,,,0.225586,0.444824,0.108887,326.35498,-114.074707,-8.056641,,,,,,,,,,,0.0,1.0,1.0,3.0,0.0,0.0,0.0,5.0,0.0,0.013144560000000001,-0.05522792,1.1387434666666667,-2.1614583600000006,10.034179666666667,-1.094563826666667,87.64306436868415,11.457053535044425,4.659824075821342,78.21807923308218,-4.7321621548258355,-53.90604119436722,95.11215776556172,-1.3368881639144456,92.57691704894431,-1.2782127021101242,0.21244144,0.50005192,-1.0298564666666667,1.7423498266666666,1.16438293961227,0.6539929317940295,0.6738789164490773,0.6738789164490773
LBP09_S03,LBP09,-1586,65,3,64,-1586,1716540215.56,2024-05-24 08:43:35.560000+00:00,2024-05-24 17:43:35.560000+09:00,2024,5,24,8,43,35,560,,,,,,,,,0.281982,0.361816,1.164062,-123.291016,-42.236328,51.086426,,,,,,,,,,,0.0,1.0,1.0,3.0,0.0,0.0,0.0,5.0,0.0,0.018951853333333334,-0.05719732,1.1409830533333334,-1.4493815466666673,10.393880186666667,-0.7519531600000003,84.82841762367697,8.778483311998414,13.687015318236782,81.61121593802926,-4.381022822345899,-53.35856058163775,97.60491747446879,-1.250505730274033,95.47886093165707,-1.2939162651895844,0.2630301466666667,0.41901332,0.023078946666666544,0.7051224133333333,0.4952672593379795,0.642956897517746,0.6674999286951094,0.6674999286951094
LBP09_S03,LBP09,-1585,66,3,65,-1585,1716540215.6,2024-05-24 08:43:35.600000+00:00,2024-05-24 17:43:35.600000+09:00,2024,5,24,8,43,35,600,,,,,,,,,-0.107178,-0.601562,1.632812,72.937012,-4.699707,-33.38623,,,,,,,,,,,0.0,1.0,1.0,3.0,0.0,0.0,0.0,5.0,0.0,0.017109413333333334,-0.05952805333333334,1.1456021866666666,0.8634439733333327,10.6380208,-0.5078125333333336,83.21734925529445,5.9937262739399735,19.932849878690114,84.93990990824103,-4.1412737713883,-52.56124658649014,99.97311181710567,-1.2905940666289526,98.10503293937633,-1.324086202605201,-0.12428741333333333,-0.5420339466666667,0.48720981333333335,1.1535311733333335,0.7393385981134999,0.6473988351673383,0.6699771241922954,0.6699771241922954
LBP09_S03,LBP09,-1584,67,3,66,-1584,1716540215.64,2024-05-24 08:43:35.640000+00:00,2024-05-24 17:43:35.640000+09:00,2024,5,24,8,43,35,640,,,,,,,,,-0.287109,-0.091553,1.873779,125.610352,-50.537109,1.77002,,,,,,,,,,,0.0,1.0,1.0,3.0,0.0,0.0,0.0,5.0,0.0,0.011077520000000002,-0.06726893333333334,1.1583723733333333,1.2670897999999995,9.302571586666666,-0.06591800000000039,80.94956596146625,4.790031499376225,23.311931046560343,88.17789254669968,-3.949672511413251,-51.62876934462773,102.25688471181537,-1.4073232309902537,100.4502813962387,-1.369225833415372,-0.29818652,-0.02428406666666666,0.7154066266666668,1.0378772133333334,0.7754428141920983,0.6629260903416639,0.6734926471922887,0.6734926471922887
LBP09_S03,LBP09,-1583,68,3,67,-1583,1716540215.68,2024-05-24 08:43:35.680000+00:00,2024-05-24 17:43:35.680000+09:00,2024,5,24,8,43,35,680,,,,,,,,,-0.049316,-0.192383,2.405762,176.757812,-95.153809,20.996094,,,,,,,,,,,0.0,1.0,1.0,3.0,0.0,0.0,0.0,5.0,0.0,0.01188806666666667,-0.07300461333333333,1.17419268,2.864583293333333,8.362630173333333,0.2799478933333328,76.20544655116709,6.157884781563398,24.22306985256331,91.22611040874637,-3.703357120150715,-50.659846550525195,104.41426208517164,-1.4090750935552283,102.5256549375508,-1.4080653192195647,-0.06120406666666667,-0.11937838666666667,1.2315693200000002,1.4121517733333335,1.2388543606675229,0.7008304147484652,0.6917301218205222,0.6917301218205222
LBP09_S03,LBP09,-1582,69,3,68,-1582,1716540215.72,2024-05-24 08:43:35.720000+00:00,2024-05-24 17:43:35.720000+09:00,2024,5,24,8,43,35,720,,,,,,,,,0.259766,-0.111084,2.270508,126.342773,65.734863,47.119141,,,,,,,,,,,0.0,1.0,1.0,3.0,0.0,0.0,0.0,5.0,0.0,0.008662160000000004,-0.07162765333333333,1.1828678000000001,3.70117184,10.307617146666667,0.937499973333333,68.05093652687165,10.242598632811843,23.37848486456628,93.94814786982123,-3.2936531748382416,-49.724707155942546,106.34683418489786,-1.4502324513647789,104.35320427604286,-1.4257038417806662,0.25110383999999997,-0.03945634666666667,1.0876401999999998,1.3782003866666663,1.1169472442380908,0.7312203809417583,0.7050181568960712,0.7050181568960712
LBP09_S03,LBP09,-1581,70,3,69,-1581,1716540215.76,2024-05-24 08:43:35.760000+00:00,2024-05-24 17:43:35.760000+09:00,2024,5,24,8,43,35,760,,,,,,,,,-0.398682,-0.167969,1.549561,63.354492,224.914551,52.978516,,,,,,,,,,,0.0,1.0,1.0,3.0,0.0,0.0,0.0,5.0,0.0,0.004635466666666671,-0.07309249333333334,1.18100908,5.7763671599999995,10.507812466666667,-0.08789065333333383,56.93262279044345,16.55481141751818,21.643118940687113,96.22545278143896,-2.6314607181375145,-48.858982398315064,107.95120429852972,-1.5073415883680616,105.96075411575355,-1.4385933315634358,-0.4033174666666667,-0.09487650666666667,0.36855192000000003,0.8667458933333334,0.5545241637398448,0.7370432983568412,0.7004577328610341,0.7004577328610341
LBP09_S03,LBP09,-1580,71,3,70,-1580,1716540215.8,2024-05-24 08:43:35.800000+00:00,2024-05-24 17:43:35.800000+09:00,2024,5,24,8,43,35,800,,,,,,,,,0.249268,0.714355,0.298828,223.266602,-61.462402,-24.658203,,,,,,,,,,,0.0,1.0,1.0,3.0,0.0,0.0,0.0,5.0,0.0,0.0008464000000000034,-0.07237309333333333,1.1790103866666668,9.02669268,9.193522093333334,-1.8082682533333339,44.60259354613121,24.341565794859335,19.88101842498524,98.0095565232842,-1.6577980863431412,-48.06374166131565,109.17300365416175,-1.5590798989422814,107.37722664693297,-1.4585313504796198,0.2484216,0.7867280933333333,-0.8801823866666668,1.9153320800000002,1.206389413906095,0.7786180239063782,0.7153380764211829,0.7153380764211829
LBP09_S03,LBP09,-1579,72,3,71,-1579,1716540215.84,2024-05-24 08:43:35.840000+00:00,2024-05-24 17:43:35.840000+09:00,2024,5,24,8,43,35,840,,,,,,,,,0.161865,-0.006592,1.173584,-368.95752,60.180664,96.313477,,,,,,,,,,,0.0,1.0,1.0,3.0,0.0,0.0,0.0,5.0,0.0,0.00151046666666667,-0.06964522666666667,1.1758137733333334,8.911946573333335,8.01350908,-1.8603515866666673,33.48493797083014,32.86787254934227,18.792298669318164,99.34895404211741,-0.3430831843694502,-47.31204971454293,110.03982198970306,-1.549073736394574,108.62848271004876,-1.4759594307001938,0.16035453333333333,0.06305322666666667,-0.002229773333333407,0.22563753333333342,0.17232021832259614,0.7364340916284163,0.699823280475509,0.699823280475509
LBP09_S03,LBP09,-1578,73,3,72,-1578,1716540215.88,2024-05-24 08:43:35.880000+00:00,2024-05-24 17:43:35.880000+09:00,2024,5,24,8,43,35,880,,,,,,,,,-0.158203,-0.760986,2.083984,165.95459,29.541016,-62.744141,,,,,,,,,,,0.0,1.0,1.0,3.0,0.0,0.0,0.0,5.0,0.0,0.004905653333333337,-0.06639328,1.1674348666666667,7.537434853333334,8.01513668,-1.402181013333334,25.740413607326257,41.47194217651759,18.753214867376727,100.37857058641046,1.3157945026912534,-46.56192111984786,110.65984477901293,-1.4969244573740539,109.73317410140109,-1.4842826632643389,-0.16310865333333335,-0.69459272,0.9165491333333333,1.7742505066666667,1.1615187442668742,0.75704272159578,0.7126481544697135,0.7126481544697135
LBP09_S03,LBP09,-1577,74,3,73,-1577,1716540215.92,2024-05-24 08:43:35.920000+00:00,2024-05-24 17:43:35.920000+09:00,2024,5,24,8,43,35,920,,,,,,,,,-0.262939,0.734863,2.290771,7.93457,-38.94043,-30.700684,,,,,,,,,,,0.0,1.0,1.0,3.0,0.0,0.0,0.0,5.0,0.0,0.007148493333333337,-0.06793625333333334,1.1627668933333333,6.458333293333333,8.349609333333335,-0.548502626666667,22.412739151981445,49.44951295151646,19.71304940402191,101.27508015248972,3.293775020751912,-45.77339914368698,111.18765616266866,-1.4657830617421406,110.69798719157829,-1.4947826095576624,-0.2700874933333333,0.8027992533333334,1.1280041066666666,2.200890853333333,1.410612335074561,0.7944013715947529,0.7315120512428176,0.7315120512428176
LBP09_S03,LBP09,-1576,75,3,74,-1576,1716540215.96,2024-05-24 08:43:35.960000+00:00,2024-05-24 17:43:35.960000+09:00,2024,5,24,8,43,35,960,,,,,,,,,-0.032471,-0.58374,2.749512,-50.537109,-65.979004,14.221191,,,,,,,,,,,0.0,1.0,1.0,3.0,0.0,0.0,0.0,5.0,0.0,0.007298240000000003,-0.06014653333333334,1.1546353866666665,4.945475226666667,9.541015586666665,-0.45410158666666717,22.974756994429146,55.949555653070576,21.21858913844392,102.19407043226688,5.531757246874735,-44.92465557814922,111.76964278626289,-1.4498859194358718,111.5120546206613,-1.5011106679059647,-0.039769240000000004,-0.5235934666666667,1.5948766133333336,2.1582393200000003,1.6790959241638934,0.8465157517027757,0.7564484689512669,0.7564484689512669
LBP09_S03,LBP09,-1575,76,3,75,-1575,1716540216.0,2024-05-24 08:43:36+00:00,2024-05-24 17:43:36+09:00,2024,5,24,8,43,36,0,8.0,43.0,35.0,40.564381,141.535614,-6.321,3.0,13.0,-0.024902,-1.491943,2.443604,31.005859,167.480469,97.77832,-282.0,122.0,238.0,937.0,0.0,1009.099976,23.969999,-0.038648,34.588902,3.895313,0.0,1.0,1.0,3.0,0.0,0.0,0.0,5.0,0.0,0.006731840000000003,-0.06341150666666666,1.1545474933333333,3.2755533599999995,9.563802053333331,-0.4345703333333338,25.393355155913344,60.04989506738623,22.599949558225383,103.20980463850341,7.933753049570184,-44.020657595820204,112.4856724482636,-1.4648748688346938,112.14122447739139,-1.5032466474279,-0.03163384,-1.4285314933333333,1.2890565066666668,2.74922184,1.9244140938628513,0.8958264438740415,0.7863963054874613,0.7863963054874613
LBP09_S03,LBP09,-1574,77,3,76,-1574,1716540216.04,2024-05-24 08:43:36.040000+00:00,2024-05-24 17:43:36.040000+09:00,2024,5,24,8,43,36,40,,,,,,,,,-0.957764,0.63501,0.234863,166.015625,191.223145,76.904297,,,,,,,,,,,0.0,1.0,1.0,3.0,0.0,0.0,0.0,5.0,0.0,0.005283280000000004,-0.06580734666666667,1.1549250933333333,1.8001301866666661,9.6199544,0.3531900799999996,26.637605732374208,61.042277921486495,23.262726219528084,104.27530886779839,10.375444166429643,-43.09014854703908,113.30379862533889,-1.4905555566317046,112.52403158693934,-1.4998252929272446,-0.96304728,0.7008173466666666,-0.9200620933333332,2.58392672,1.5050313194393066,0.9206507762304186,0.8043621808362575,0.8043621808362575
LBP09_S03,LBP09,-1573,78,3,77,-1573,1716540216.08,2024-05-24 08:43:36.080000+00:00,2024-05-24 17:43:36.080000+09:00,2024,5,24,8,43,36,80,,,,,,,,,0.447266,0.844971,1.747803,-40.710449,41.19873,-30.639648,,,,,,,,,,,0.0,1.0,1.0,3.0,0.0,0.0,0.0,5.0,0.0,0.0038086800000000027,-0.06718754666666667,1.1558007466666664,1.7187499733333331,9.718424453333334,1.5356445066666664,23.44308948494989,58.779540830842414,22.952910735788258,105.21303244719638,12.72662579966334,-42.17203211760755,114.06239298694368,-1.5140745564884643,112.57202029269754,-1.509410213277641,0.44345732,0.9121585466666667,0.5920022533333336,1.9476181200000002,1.174373993611223,0.9567814771936917,0.8133868591966225,0.8133868591966225
LBP09_S03,LBP09,-1572,79,3,78,-1572,1716540216.12,2024-05-24 08:43:36.120000+00:00,2024-05-24 17:43:36.120000+09:00,2024,5,24,8,43,36,120,,,,,,,,,-0.219971,-1.585938,2.705322,-68.969727,86.730957,46.569824,,,,,,,,,,,0.0,1.0,1.0,3.0,0.0,0.0,0.0,5.0,0.0,0.0038542533333333364,-0.06732426666666666,1.1545181866666667,2.62125648,9.60123696,2.5935872133333326,13.117991194962292,53.85947440695589,21.86646007146102,105.73775209499487,14.881004775941577,-41.29737371474911,114.48750847572778,-1.513513034847802,112.17687447432893,-1.5294178310764577,-0.22382525333333333,-1.5186137333333334,1.550803813333333,3.2932428,2.1820352615270777,1.0007867626080098,0.8459737259187763,0.8459737259187763
LBP09_S03,LBP09,-1571,80,3,79,-1571,1716540216.16,2024-05-24 08:43:36.160000+00:00,2024-05-24 17:43:36.160000+09:00,2024,5,24,8,43,36,160,,,,,,,,,-0.218262,0.184814,2.63501,152.22168,-98.144531,17.883301,,,,,,,,,,,0.0,1.0,1.0,3.0,0.0,0.0,0.0,5.0,0.0,0.00267586666666667,-0.06362634666666667,1.1530077733333333,2.57649736,9.716796853333333,3.318684866666666,-5.783781249756399,47.51562992740092,20.561965975003947,105.50640084500462,16.781629973037614,-40.47489507574895,114.24290286583071,-1.5287013835874135,111.22535716496937,-1.5587097563459422,-0.22093786666666668,0.24844034666666667,1.4820022266666666,1.9513804399999999,1.5188373009061995,1.0253328679623477,0.8616217160347628,0.8616217160347628
LBP09_S03,LBP09,-1570,81,3,80,-1570,1716540216.2,2024-05-24 08:43:36.200000+00:00,2024-05-24 17:43:36.200000+09:00,2024,5,24,8,43,36,200,,,,,,,,,0.17627,0.408691,2.368896,-62.255859,16.052246,-12.207031,,,,,,,,,,,0.0,1.0,1.0,3.0,0.0,0.0,0.0,5.0,0.0,0.003212973333333337,-0.07003258666666667,1.1553092133333334,2.8190103733333336,9.364420560000001,4.064941386666666,-33.0333509745174,41.269297975991144,19.72782162238665,104.18506680602393,18.43240189207726,-39.68578221085348,113.00107474964128,-1.5248663539357292,109.62065546153394,-1.5915313900724692,0.17305702666666667,0.4787235866666667,1.2135867866666665,1.8653673999999998,1.31602351638625,1.0600455497860706,0.8719490296791147,0.8719490296791147
LBP09_S03,LBP09,-1569,82,3,81,-1569,1716540216.24,2024-05-24 08:43:36.240000+00:00,2024-05-24 17:43:36.240000+09:00,2024,5,24,8,43,36,240,,,,,,,,,-0.143066,-0.655762,1.292236,-103.210449,206.237793,59.020996,,,,,,,,,,,0.0,1.0,1.0,3.0,0.0,0.0,0.0,5.0,0.0,-0.005253826666666663,-0.07087894666666666,1.154707,3.8094075066666666,8.414713533333334,4.415690079999999,-66.60657854694493,36.50518864714897,19.899536953207022,101.52080366414613,19.892609437963216,-38.8898007327252,110.51970904728496,-1.6449229398985354,107.30602102472544,-1.6118825899788227,-0.13781217333333334,-0.5848830533333333,0.137529,0.8602242266666666,0.6164370260102645,1.0709347491775199,0.8662709851531403,0.8662709851531403
LBP09_S03,LBP09,-1568,83,3,82,-1568,1716540216.28,2024-05-24 08:43:36.280000+00:00,2024-05-24 17:43:36.280000+09:00,2024,5,24,8,43,36,280,,,,,,,,,-0.12915,0.112061,-0.107666,-136.779785,38.879395,-32.592773,,,,,,,,,,,0.0,1.0,1.0,3.0,0.0,0.0,0.0,5.0,0.0,-0.007737546666666663,-0.061067746666666665,1.1543163733333335,7.741699173333333,6.98649088,3.857421853333333,-102.8955188291997,34.09932034485087,21.22359871705118,97.40498291097813,21.25658225175725,-38.04085678404315,106.70838659532691,-1.6970006353622216,104.2844742910186,-1.6341986657414185,-0.12141245333333332,0.17312874666666667,-1.2619823733333335,1.5565235733333336,1.279575733339306,1.088076088637669,0.8752558709832744,0.8752558709832744
LBP09_S03,LBP09,-1567,84,3,83,-1567,1716540216.32,2024-05-24 08:43:36.320000+00:00,2024-05-24 17:43:36.320000+09:00,2024,5,24,8,43,36,320,,,,,,,,,-0.045166,-0.015625,0.326416,-49.499512,-70.251465,-10.070801,,,,,,,,,,,0.0,1.0,1.0,3.0,0.0,0.0,0.0,5.0,0.0,-0.011738199999999997,-0.06181644000000001,1.1565526933333334,6.085611933333333,7.517903640000001,4.424641906666666,-137.21883948054344,34.14405567837199,23.346190486244275,91.9162293317564,22.62234447889213,-37.10700916459338,101.6724830690729,-1.7587023144369855,100.62817128429137,-1.6728158591771578,-0.0334278,0.04619144000000001,-0.8301366933333334,0.9097559333333334,0.8320925408634032,1.1040663696818016,0.8743375022573195,0.8743375022573195
LBP09_S03,LBP09,-1566,85,3,84,-1566,1716540216.36,2024-05-24 08:43:36.360000+00:00,2024-05-24 17:43:36.360000+09:00,2024,5,24,8,43,36,360,,,,,,,,,0.562256,0.091797,0.672852,-106.079102,-70.556641,26.428223,,,,,,,,,,,0.0,1.0,1.0,3.0,0.0,0.0,0.0,5.0,0.0,-0.013222586666666664,-0.06295576,1.15541012,9.060872346666667,5.664062493333334,3.7386067599999993,-164.56267596000885,35.809275558473814,25.47389953424129,85.33372229335605,24.054715501231083,-36.08805318322373,95.72262575190864,-1.7781022567011409,96.4742137133604,-1.7099306549719913,0.5754785866666666,0.15475276,-0.48255812,1.2127894666666665,0.7668026862351331,1.0903165693720254,0.8720971935901908,0.8720971935901908
LBP09_S03,LBP09,-1565,86,3,85,-1565,1716540216.4,2024-05-24 08:43:36.400000+00:00,2024-05-24 17:43:36.400000+09:00,2024,5,24,8,43,36,400,,,,,,,,,0.195801,0.02417,0.912842,-241.271973,61.401367,93.200684,,,,,,,,,,,0.0,1.0,1.0,3.0,0.0,0.0,0.0,5.0,0.0,-0.005094333333333331,-0.05208661333333333,1.1666210533333332,9.226887973333332,5.208333333333334,1.6691080666666664,-180.47451594782254,37.43824705881615,26.599595850329585,78.11474165544314,25.55224538358373,-35.02406934921054,89.33932808017872,-1.668386867898232,92.00937589827497,-1.746579869722975,0.20089533333333334,0.07625661333333333,-0.25377905333333317,0.5309309999999998,0.3325324254008072,1.0713952202801778,0.8610856677087748,0.8610856677087748
LBP09_S03,LBP09,-1564,87,3,86,-1564,1716540216.44,2024-05-24 08:43:36.440000+00:00,2024-05-24 17:43:36.440000+09:00,2024,5,24,8,43,36,440,,,,,,,,,-0.186035,0.335693,1.422607,-228.088379,76.049805,48.950195,,,,,,,,,,,0.0,1.0,1.0,3.0,0.0,0.0,0.0,5.0,0.0,-0.00950513333333333,-0.06615562666666666,1.1753092,6.088053333333334,6.684570306666666,0.5696614533333327,-181.99569909214293,36.96555060861599,25.815729151154635,70.83491369175742,27.03086740792837,-33.99144018316436,83.08833128827037,-1.7137163142576621,87.44992443308925,-1.805242669949115,-0.17652986666666667,0.40184862666666665,0.2472977999999999,0.8256762933333333,0.5037869732973225,1.0554962591153787,0.8539396938205458,0.8539396938205458
LBP09_S03,LBP09,-1563,88,3,87,-1563,1716540216.48,2024-05-24 08:43:36.480000+00:00,2024-05-24 17:43:36.480000+09:00,2024,5,24,8,43,36,480,,,,,,,,,0.229004,0.139648,1.488281,-201.782227,42.236328,0.488281,,,,,,,,,,,0.0,1.0,1.0,3.0,0.0,0.0,0.0,5.0,0.0,-0.01941073333333333,-0.056829453333333335,1.1802343333333332,7.879231719999999,6.748860666666667,-0.6510416666666671,-168.43666058585737,32.60092454355773,22.59131019494744,64.09744726832312,28.33490438967068,-33.08778777536646,77.49936291967137,-1.9002464908458543,83.02059017189498,-1.8434280112960206,0.24841473333333333,0.19647745333333333,0.3080466666666668,0.7529388533333334,0.4418212514692654,1.0443383255193495,0.849928444865536,0.845858940048952
LBP09_S03,LBP09,-1562,89,3,88,-1562,1716540216.52,2024-05-24 08:43:36.520000+00:00,2024-05-24 17:43:36.520000+09:00,2024,5,24,8,43,36,520,,,,,,,,,0.043701,-0.352051,1.008545,-268.493652,125.732422,23.864746,,,,,,,,,,,0.0,1.0,1.0,3.0,0.0,0.0,0.0,5.0,0.0,-0.019355399999999995,-0.05969728,1.1844661066666666,5.506184853333333,7.041829426666666,0.022786466666666266,-141.7490607685205,23.548938433235687,16.911076539722178,58.4274848375823,29.276861927000105,-32.411344713777574,72.9479327664181,-1.8846609927961366,78.93198422254616,-1.8627298542718471,0.06305639999999998,-0.29235372,-0.1759211066666666,0.5313312266666665,0.3469798883935826,1.0116422034706019,0.8328175676323157,0.8362651121325027
LBP09_S03,LBP09,-1561,90,3,89,-1561,1716540216.56,2024-05-24 08:43:36.560000+00:00,2024-05-24 17:43:36.560000+09:00,2024,5,24,8,43,36,560,,,,,,,,,-0.330078,0.168213,0.368164,-30.639648,83.679199,-10.009766,,,,,,,,,,,0.0,1.0,1.0,3.0,0.0,0.0,0.0,5.0,0.0,-0.021500586666666665,-0.0640202,1.18285152,5.8015950133333325,8.964843746666666,0.9611002666666664,-106.31099582301026,10.4655627415923,9.252808075635658,54.17504500466189,29.695484436663797,-32.04123239075215,69.59452471497644,-1.895193531097252,75.35532915656442,-1.879802211186402,-0.30857741333333333,0.2322332,-0.8146875200000001,1.3554981333333336,0.901591944532271,1.0278951908783736,0.8354260441980599,0.8374976938758945
LBP09_S03,LBP09,-1560,91,3,90,-1560,1716540216.6,2024-05-24 08:43:36.600000+00:00,2024-05-24 17:43:36.600000+09:00,2024,5,24,8,43,36,600,,,,,,,,,0.177002,-0.024902,0.036133,-8.239746,-47.363281,-5.859375,,,,,,,,,,,0.0,1.0,1.0,3.0,0.0,0.0,0.0,5.0,0.0,-0.03257806666666666,-0.054300146666666674,1.1657779466666667,8.290201786666666,8.230794266666667,1.6642252666666664,-68.11291874791979,-4.567728552767949,0.4514957182340382,51.450528254745095,29.51277529455308,-32.023172562022786,67.40656009778421,-2.1114943561971304,72.39842600493952,-1.9069271478241305,0.20958006666666665,0.029398146666666673,-1.1296449466666667,1.36862316,1.149297942615828,1.0442935646584666,0.8458461999129026,0.8432717725562635
LBP09_S03,LBP09,-1559,92,3,91,-1559,1716540216.64,2024-05-24 08:43:36.640000+00:00,2024-05-24 17:43:36.640000+09:00,2024,5,24,8,43,36,640,,,,,,,,,0.007324,0.095947,0.234619,-1.77002,-74.829102,-19.40918,,,,,,,,,,,0.0,1.0,1.0,3.0,0.0,0.0,0.0,5.0,0.0,-0.02323562666666666,-0.04740561333333334,1.16726232,8.001302039999999,6.1686197866666665,2.1020507866666662,-33.53078813924943,-18.583710204829938,-8.474944469094014,50.10929672917512,28.769426886359884,-32.36217034078655,66.22636643534214,-2.0267763533675898,70.09136638960024,-1.9624347612319248,0.030559626666666662,0.14335261333333335,-0.93264332,1.10655556,0.9440907927059371,1.0510394837990205,0.856982787070342,0.845104845649894
LBP09_S03,LBP09,-1558,93,3,92,-1558,1716540216.68,2024-05-24 08:43:36.680000+00:00,2024-05-24 17:43:36.680000+09:00,2024,5,24,8,43,36,680,,,,,,,,,0.308838,0.089844,0.278076,-35.583496,-88.07373,-15.441895,,,,,,,,,,,0.0,1.0,1.0,3.0,0.0,0.0,0.0,5.0,0.0,-0.01848953333333333,-0.05599610666666667,1.1750162266666666,5.78043616,5.932617186666667,2.6790364666666666,-7.992281362861924,-28.601647064614696,-16.48093197427202,49.78960547466065,27.625361003775296,-33.021407619757426,65.82232710183862,-1.890019065120486,68.38948383618094,-2.0037379749986552,0.3273275333333333,0.14584010666666666,-0.8969402266666666,1.3701078666666666,0.9658749510177187,1.040120307413028,0.8704753610807466,0.8472614546743195
LBP09_S03,LBP09,-1557,94,3,93,-1557,1716540216.72,2024-05-24 08:43:36.720000+00:00,2024-05-24 17:43:36.720000+09:00,2024,5,24,8,43,36,720,,,,,,,,,0.305664,-0.48291,0.72998,-110.412598,-44.006348,1.342773,,,,,,,,,,,0.0,1.0,1.0,3.0,0.0,0.0,0.0,5.0,0.0,-0.023603466666666663,-0.06304689333333334,1.17935216,8.938802053333331,7.050781253333333,3.269042973333333,5.172105052554894,-32.518542726179575,-22.60887366996621,49.99648967676284,26.324619294728112,-33.925762566556074,65.90593240925557,-1.929425883582532,67.19473638906278,-2.0191303956822053,0.3292674666666667,-0.41986310666666665,-0.44937216000000013,1.1985027333333336,0.6975940303127134,1.023346178856013,0.8772832798988855,0.8446357103872737
LBP09_S03,LBP09,-1556,95,3,94,-1556,1716540216.76,2024-05-24 08:43:36.760000+00:00,2024-05-24 17:43:36.760000+09:00,2024,5,24,8,43,36,760,,,,,,,,,0.14624,-0.543213,1.098389,148.742676,-10.498047,-25.939941,,,,,,,,,,,0.0,1.0,1.0,3.0,0.0,0.0,0.0,5.0,0.0,-0.03352209333333333,-0.06468752000000001,1.1890526799999999,12.565917933333333,6.088053386666667,3.770345053333333,5.4917459631795165,-29.721137921882086,-26.079959763845167,50.21615951529002,25.13577377785283,-34.96896095710988,66.15359423565981,-2.0493516230784286,66.38875703161463,-2.052440734451081,0.17976209333333334,-0.47852547999999995,-0.0906636799999998,0.7489512533333331,0.519154069694108,1.0219313750941834,0.8794873367255123,0.8390239579615295
LBP09_S03,LBP09,-1555,96,3,95,-1555,1716540216.8,2024-05-24 08:43:36.800000+00:00,2024-05-24 17:43:36.800000+09:00,2024,5,24,8,43,36,800,,,,,,,,,-0.183105,0.058594,1.233154,106.262207,-45.532227,-1.342773,,,,,,,,,,,0.0,1.0,1.0,3.0,0.0,0.0,0.0,5.0,0.0,-0.034518186666666666,-0.04516929333333333,1.20031244,13.625488240000001,4.758300786666666,3.677571613333333,-4.409970622246058,-21.252219942706603,-26.391281806634964,50.03976069040018,24.285684980144566,-36.02461222937528,66.26873192678576,-2.223463001976175,65.86560113609715,-2.089287869113206,-0.14858681333333332,0.10376329333333334,0.03284156000000005,0.28519166666666673,0.1841831431026407,0.9810431242620453,0.8798305740842117,0.8279249610995145
LBP09_S03,LBP09,-1554,97,3,96,-1554,1716540216.84,2024-05-24 08:43:36.840000+00:00,2024-05-24 17:43:36.840000+09:00,2024,5,24,8,43,36,840,,,,,,,,,0.108643,-0.15918,1.657959,56.640625,-74.951172,-20.263672,,,,,,,,,,,0.0,1.0,1.0,3.0,0.0,0.0,0.0,5.0,0.0,-0.028818319999999994,-0.04640301333333334,1.2092382133333333,5.677083293333333,7.378743493333333,5.76334636,-19.24291194025336,-9.519451865445198,-23.437506506310626,49.27004421279005,23.904906905526758,-36.96211248962771,66.0695057540775,-2.12674845192497,65.55377030312812,-2.0941724961336634,0.13746132,-0.11277698666666665,0.4487207866666667,0.6989590933333334,0.482664073248163,0.9934568784590679,0.8649454850437422,0.8221706129686586
LBP09_S03,LBP09,-1553,98,3,97,-1553,1716540216.88,2024-05-24 08:43:36.880000+00:00,2024-05-24 17:43:36.880000+09:00,2024,5,24,8,43,36,880,,,,,,,,,0.213867,0.639404,1.262695,-63.049316,48.828125,-54.992676,,,,,,,,,,,0.0,1.0,1.0,3.0,0.0,0.0,0.0,5.0,0.0,-0.03136389333333332,-0.059804706666666665,1.20360344,2.597656213333333,11.036783853333333,7.093098960000001,-32.20554011350405,2.3506328897337965,-17.63650442641476,47.981822608249885,23.99893222111611,-37.6675726666843,65.55188844848962,-2.054170697681351,65.42480876497326,-2.099972743350893,0.2452308933333333,0.6992087066666667,0.05909155999999993,1.0035311599999999,0.7433187869190251,0.976728880165154,0.8668858008804671,0.8208779600825991
LBP09_S03,LBP09,-1552,99,3,98,-1552,1716540216.92,2024-05-24 08:43:36.920000+00:00,2024-05-24 17:43:36.920000+09:00,2024,5,24,8,43,36,920,,,,,,,,,-0.133789,0.344971,0.602295,-114.868164,144.65332,-72.021484,,,,,,,,,,,0.0,1.0,1.0,3.0,0.0,0.0,0.0,5.0,0.0,-0.0412174,-0.05458661333333333,1.1767837733333333,2.536621053333333,11.755371093333332,8.38704428,-36.72545387980653,11.33258821336817,-9.99268003244454,46.512804453057626,24.452235749650836,-38.06727986798208,64.88813919193672,-2.2177643804848985,65.49184757279804,-2.1218982659565873,-0.09257159999999999,0.39955761333333334,-0.5744887733333333,1.0666179866666665,0.7058704825853164,0.9485392060655842,0.8714702888301686,0.8190230007681267
LBP09_S03,LBP09,-1551,100,3,99,-1551,1716540216.96,2024-05-24 08:43:36.960000+00:00,2024-05-24 17:43:36.960000+09:00,2024,5,24,8,43,36,960,,,,,,,,,-0.102295,-0.037354,0.151123,-186.889648,6.713867,-8.666992,,,,,,,,,,,0.0,1.0,1.0,3.0,0.0,0.0,0.0,5.0,0.0,-0.04324865333333333,-0.05211266666666667,1.15312492,2.97037756,9.260253906666668,8.687337253333334,-28.35997483507462,15.262546251349704,-2.0117642062063132,45.378405459654644,25.062737599704825,-38.14775043623033,64.36296575980153,-2.263664877718503,65.80003440990222,-2.1515632489505996,-0.059046346666666666,0.01475866666666667,-1.00200192,1.0758069333333333,1.0038486623889802,0.9215293155945878,0.8840225336486816,0.8219567414287752
LBP09_S03,LBP09,-1550,101,3,100,-1550,1716540217.0,2024-05-24 08:43:37+00:00,2024-05-24 17:43:37+09:00,2024,5,24,8,43,37,0,8.0,43.0,36.0,40.564457,141.53566,-6.394,3.0,13.0,0.224121,-0.701416,1.118896,-134.58252,-34.606934,70.068359,-289.0,166.0,248.0,1470.0,0.0,1009.0,24.049999,-0.039639,35.423584,3.895313,0.0,1.0,1.0,3.0,0.0,0.0,0.0,8.0,0.0,-0.03127923999999999,-0.04678389333333334,1.1494823466666666,3.117675746666667,5.9806315066666675,7.502441426666666,-6.256791604450407,13.31840876610181,4.581488571636565,45.12813379547663,25.595473950348897,-37.96449089336487,64.28825176809377,-2.160340626401696,66.40742114252633,-2.1642490933323457,0.25540024,-0.6546321066666667,-0.03058634666666671,0.9406186933333334,0.7033548196133366,0.8726869446246072,0.8842566942493244,0.8201035864004089
LBP09_S03,LBP09,-1549,102,3,101,-1549,1716540217.04,2024-05-24 08:43:37.040000+00:00,2024-05-24 17:43:37.040000+09:00,2024,5,24,8,43,37,40,,,,,,,,,0.281494,-0.147705,1.484131,44.677734,3.540039,1.708984,,,,,,,,,,,0.0,1.0,1.0,3.0,0.0,0.0,0.0,8.0,0.0,-0.03200841333333333,-0.05673832000000001,1.1619888533333333,-0.8089192933333339,7.488606773333332,7.656250026666666,26.357265223621592,6.110196193532085,8.279588546447082,46.18242440442149,25.83988179809018,-37.633307351506986,64.93675105379363,-2.084778825539889,67.35776184510085,-2.1615626759699733,0.31350241333333334,-0.09096668,0.32214214666666674,0.7266112400000001,0.4586221349815715,0.8308305772462977,0.8757406767383583,0.8145423333016576
LBP09_S03,LBP09,-1548,103,3,102,-1548,1716540217.08,2024-05-24 08:43:37.080000+00:00,2024-05-24 17:43:37.080000+09:00,2024,5,24,8,43,37,80,,,,,,,,,-0.269775,-0.225342,1.835693,123.22998,4.455566,10.070801,,,,,,,,,,,0.0,1.0,1.0,3.0,0.0,0.0,0.0,8.0,0.0,-0.03764968,-0.06308597333333334,1.1644465466666667,3.1363932133333328,7.500000000000002,6.7032877866666665,62.88323542306002,-4.576078315345668,8.250055253608979,48.69775382134389,25.656838665476354,-37.30330514136263,66.49271518008652,-2.109274291177429,68.6532795875132,-2.1813222691435716,-0.23212532,-0.16225602666666666,0.6712464533333333,1.0656278000000001,0.7285471731379755,0.8129975044273678,0.8848894908105298,0.8132393763294806
LBP09_S03,LBP09,-1547,104,3,103,-1547,1716540217.12,2024-05-24 08:43:37.120000+00:00,2024-05-24 17:43:37.120000+09:00,2024,5,24,8,43,37,120,,,,,,,,,-0.425537,-0.715332,2.223877,103.942871,-77.819824,22.705078,,,,,,,,,,,0.0,1.0,1.0,3.0,0.0,0.0,0.0,8.0,0.0,-0.039078706666666664,-0.050865933333333335,1.1649380933333333,2.7465820133333327,6.76513672,7.132975279999999,95.06499301567555,-16.24554654506159,4.655285927553399,52.50035354197091,25.00701680367389,-37.11709370426049,68.98780078029752,-2.226075713522658,70.23783255321291,-2.1976144255135126,-0.3864582933333333,-0.6644660666666666,1.0589389066666666,2.1098632666666663,1.3085170133742927,0.7780567745012565,0.8894217685546332,0.8206315798674629
LBP09_S03,LBP09,-1546,105,3,104,-1546,1716540217.16,2024-05-24 08:43:37.160000+00:00,2024-05-24 17:43:37.160000+09:00,2024,5,24,8,43,37,160,,,,,,,,,-0.120117,-0.676514,1.74707,203.735352,12.939453,65.124512,,,,,,,,,,,0.0,1.0,1.0,3.0,0.0,0.0,0.0,8.0,0.0,-0.03274408,-0.04733077333333334,1.15936844,0.005696586666666122,7.608235666666667,6.6186523600000005,115.19674278139769,-26.239788807635737,-1.285636162534046,57.10822325322682,23.95742525136846,-37.16851915076185,72.22746156190078,-2.1762100668958912,71.99705925293073,-2.1922116207057227,-0.08737291999999999,-0.6291832266666666,0.58770156,1.3042577066666665,0.8653893248096131,0.7519188554573931,0.8886258617098705,0.8212897819989651
LBP09_S03,LBP09,-1545,106,3,105,-1545,1716540217.2,2024-05-24 08:43:37.200000+00:00,2024-05-24 17:43:37.200000+09:00,2024,5,24,8,43,37,200,,,,,,,,,-0.314453,0.416504,0.575439,196.899414,96.984863,20.507812,,,,,,,,,,,0.0,1.0,1.0,3.0,0.0,0.0,0.0,8.0,0.0,-0.032255799999999994,-0.044648480000000004,1.1360969466666668,-4.608561213333334,11.218261720000001,6.288248706666667,118.18328406606024,-32.27969353417506,-7.544361717844254,61.83555461586923,22.66623751000146,-37.470293619475626,75.77213895253095,-2.196598828352449,73.77506333856306,-2.187207837551128,-0.2821972,0.46115248,-0.5606579466666668,1.3040076266666667,0.7788672561216535,0.7304326050468092,0.8952390774164398,0.8206749627833518
LBP09_S03,LBP09,-1544,107,3,106,-1544,1716540217.24,2024-05-24 08:43:37.240000+00:00,2024-05-24 17:43:37.240000+09:00,2024,5,24,8,43,37,240,,,,,,,,,-0.151367,-0.081299,0.149658,143.554688,-81.787109,-85.205078,,,,,,,,,,,0.0,1.0,1.0,3.0,0.0,0.0,0.0,8.0,0.0,-0.04187494666666666,-0.04463545333333334,1.1063280666666666,-8.221842453333334,11.315917973333333,6.06201172,102.88802029291723,-32.96595630194224,-11.80611524596838,65.95107542758592,21.34759925792377,-37.94253822931436,79.02468317820083,-2.32434438366095,75.40047690840836,-2.2128356301985113,-0.10949205333333334,-0.03666354666666666,-0.9566700666666665,1.1028256666666665,0.9636131702365491,0.7443196508158606,0.9076271999966902,0.8227169371755404
LBP09_S03,LBP09,-1543,108,3,107,-1543,1716540217.28,2024-05-24 08:43:37.280000+00:00,2024-05-24 17:43:37.280000+09:00,2024,5,24,8,43,37,280,,,,,,,,,0.169922,-0.10083,0.477295,240.539551,-194.824219,-124.633789,,,,,,,,,,,0.0,1.0,1.0,3.0,0.0,0.0,0.0,8.0,0.0,-0.037285093333333325,-0.04944665333333334,1.0982714133333333,-10.04394532,7.7351888,6.138509106666667,72.41115781529051,-28.178643219763323,-12.130201068254882,68.84752174019754,20.220453529133234,-38.42774627204455,81.39741810548688,-2.217092261380761,76.71217222153435,-2.2296013815437967,0.20720709333333331,-0.05138334666666666,-0.6209764133333333,0.8795668533333333,0.6566481049684423,0.7194025456810259,0.9037393171593474,0.8203779395388208
LBP09_S03,LBP09,-1542,109,3,108,-1542,1716540217.32,2024-05-24 08:43:37.320000+00:00,2024-05-24 17:43:37.320000+09:00,2024,5,24,8,43,37,320,,,,,,,,,0.404053,0.447754,0.588135,-49.804688,-76.660156,12.695312,,,,,,,,,,,0.0,1.0,1.0,3.0,0.0,0.0,0.0,8.0,0.0,-0.03443678666666666,-0.051136106666666674,1.1126301333333333,-12.386881520000001,8.455403640000002,6.307779933333333,33.22784320589753,-19.24244940216775,-7.5280855788330605,70.17663546843343,19.450755553046523,-38.72886969519787,82.48040618911485,-2.1637363324069985,77.57915587918947,-2.2459524088941114,0.43848978666666666,0.49889010666666667,-0.5244951333333333,1.4618750266666667,0.8463213198491504,0.7199716968404559,0.9120190332611287,0.820738264265353
LBP09_S03,LBP09,-1541,110,3,109,-1541,1716540217.36,2024-05-24 08:43:37.360000+00:00,2024-05-24 17:43:37.360000+09:00,2024,5,24,8,43,37,360,,,,,,,,,0.19043,0.278564,0.651367,-207.397461,28.198242,36.376953,,,,,,,,,,,0.0,1.0,1.0,3.0,0.0,0.0,0.0,8.0,0.0,-0.0399804,-0.05340824,1.1225292266666669,-8.400878906666668,8.343098946666666,6.112467426666665,-6.55654796043908,-8.690934980823842,1.7446397518602244,69.91437355001587,19.10311815381357,-38.65908410512346,82.14300661612484,-2.2136270461725545,77.91666729588334,-2.2919262042908874,0.2304104,0.33197224,-0.47116222666666685,1.033544866666667,0.6207160094570375,0.7141282297693321,0.9022223995706788,0.8179982333775679
LBP09_S03,LBP09,-1540,111,3,110,-1540,1716540217.4,2024-05-24 08:43:37.400000+00:00,2024-05-24 17:43:37.400000+09:00,2024,5,24,8,43,37,400,,,,,,,,,0.136475,-0.373291,1.189697,-156.188965,35.217285,64.697266,,,,,,,,,,,0.0,1.0,1.0,3.0,0.0,0.0,0.0,8.0,0.0,-0.04550124,-0.04030277333333334,1.1250617866666668,-11.175130213333334,6.672363266666666,7.01985676,-39.28906895071287,0.4203470959190573,14.254508267387909,68.34281079198735,19.11993203765033,-38.08890377442795,80.54238746654697,-2.4166185528755353,77.70228990433228,-2.3138897249706454,0.18197624,-0.33298822666666666,0.06463521333333322,0.5795996799999998,0.3849340486704112,0.7162242947001163,0.8938097574901469,0.812146014665309
LBP09_S03,LBP09,-1539,112,3,111,-1539,1716540217.44,2024-05-24 08:43:37.440000+00:00,2024-05-24 17:43:37.440000+09:00,2024,5,24,8,43,37,440,,,,,,,,,-0.031982,0.215088,0.801514,-37.597656,120.788574,2.01416,,,,,,,,,,,0.0,1.0,1.0,3.0,0.0,0.0,0.0,8.0,0.0,-0.040270120000000006,-0.04964846666666667,1.1195865333333332,-11.512044266666667,6.391601546666666,7.195638013333334,-59.535718336807946,5.469287979305985,27.732410975905193,65.96138205851503,19.33870355682257,-36.97960733539174,78.0537041850533,-2.252436338992741,76.98902986482751,-2.3291687612672822,0.00828812000000001,0.26473646666666667,-0.3180725333333333,0.5910971199999999,0.4139133075625498,0.7126293480707253,0.884062803593052,0.8068362452372723
LBP09_S03,LBP09,-1538,113,3,112,-1538,1716540217.48,2024-05-24 08:43:37.480000+00:00,2024-05-24 17:43:37.480000+09:00,2024,5,24,8,43,37,480,,,,,,,,,-0.314941,-0.330811,0.544678,-13.366699,104.187012,28.869629,,,,,,,,,,,0.0,1.0,1.0,3.0,0.0,0.0,0.0,8.0,0.0,-0.04017897333333333,-0.04752281333333334,1.0972362666666666,-11.825358079999999,9.4563802,6.977539066666666,-65.04456340288273,5.127677218532085,39.54322156281031,63.35959952239972,19.543810645563852,-35.39787847287933,75.16255175663785,-2.2727845646805758,75.90572176399496,-2.348516418486351,-0.2747620266666667,-0.28328818666666666,-0.5525582666666666,1.11060848,0.679019149998388,0.7221172640118902,0.8832277947656199,0.8073247179143207
LBP09_S03,LBP09,-1537,114,3,113,-1537,1716540217.52,2024-05-24 08:43:37.520000+00:00,2024-05-24 17:43:37.520000+09:00,2024,5,24,8,43,37,520,,,,,,,,,-0.235107,0.091064,0.026611,-67.504883,-18.371582,33.325195,,,,,,,,,,,0.0,1.0,1.0,3.0,0.0,0.0,0.0,8.0,0.0,-0.04603184,-0.022548853333333334,1.0624413333333333,-12.290852866666667,9.08365884,6.031087253333333,-56.779466078767165,-0.22948095169140603,47.16922059451696,61.088420879249036,19.534631407496196,-33.51110964909865,72.36291494723605,-2.6858136674904207,74.63792752016698,-2.373042032740403,-0.18907516000000002,0.11361285333333335,-1.0358303333333334,1.3385183466666668,1.0590570220838025,0.750600349359499,0.8811212764150504,0.8054118282080435
LBP09_S03,LBP09,-1536,115,3,114,-1536,1716540217.56,2024-05-24 08:43:37.560000+00:00,2024-05-24 17:43:37.560000+09:00,2024,5,24,8,43,37,560,,,,,,,,,-0.00415,-0.142822,0.426758,41.564941,-98.876953,57.006836,,,,,,,,,,,0.0,1.0,1.0,3.0,0.0,0.0,0.0,8.0,0.0,-0.03421868,-0.031604839999999995,1.0591991466666668,-14.923502599999999,6.579589826666667,5.332031266666666,-38.232708169140906,-8.72347425029941,48.654576026186575,59.5591125524834,19.18569243748422,-31.564926608051188,70.08368764639017,-2.395845273693467,73.39248808915558,-2.3970846282059517,0.03006868,-0.11121716000000001,-0.6324411466666668,0.7737269866666668,0.6428492717522953,0.7402506424483001,0.8840729166633368,0.8037009102814732
LBP09_S03,LBP09,-1535,116,3,115,-1535,1716540217.6,2024-05-24 08:43:37.600000+00:00,2024-05-24 17:43:37.600000+09:00,2024,5,24,8,43,37,600,,,,,,,,,0.446045,0.036621,0.582031,41.564941,-106.445312,55.603027,,,,,,,,,,,0.0,1.0,1.0,3.0,0.0,0.0,0.0,8.0,0.0,-0.03843417333333333,-0.03896161333333334,1.0391535733333332,-15.725097653333336,4.992675773333334,5.2921549599999995,-14.372935088896245,-17.661061641119673,42.97962317344355,58.98419514892755,18.479249971839433,-29.845741681113445,68.63953855748339,-2.3493891913188167,72.35719458329028,-2.4481228844238574,0.48447917333333335,0.07558261333333334,-0.4571225733333333,1.01718436,0.6703684418906777,0.7210934624192941,0.8826935135388803,0.8042619540816996
LBP09_S03,LBP09,-1534,117,3,116,-1534,1716540217.64,2024-05-24 08:43:37.640000+00:00,2024-05-24 17:43:37.640000+09:00,2024,5,24,8,43,37,640,,,,,,,,,0.238525,0.333252,0.839844,-52.978516,4.882812,51.696777,,,,,,,,,,,0.0,1.0,1.0,3.0,0.0,0.0,0.0,8.0,0.0,-0.028476493333333335,-0.02048829333333333,1.01134108,-15.752766920000001,2.95491536,4.212239599999999,9.451082712022375,-24.39807212000033,30.316750520094526,59.362238457408445,17.50332708703942,-28.633071660309664,68.19160216987528,-2.517820955851641,71.66832843276828,-2.450186344301467,0.26700149333333334,0.35374029333333334,-0.17149707999999997,0.7922388666666667,0.475219150517221,0.7023385967317453,0.8766890402653829,0.8054347236241433
LBP09_S03,LBP09,-1533,118,3,117,-1533,1716540217.68,2024-05-24 08:43:37.680000+00:00,2024-05-24 17:43:37.680000+09:00,2024,5,24,8,43,37,680,,,,,,,,,0.000732,-0.262939,1.372559,-45.532227,-0.488281,33.081055,,,,,,,,,,,0.0,1.0,1.0,3.0,0.0,0.0,0.0,8.0,0.0,-0.02272453333333333,-0.01834636,0.9834048799999999,-20.55989582666667,4.601236973333334,3.7849935066666665,28.464148298049256,-27.051822681453782,12.103916638458644,60.50080438933041,16.42125417978127,-28.148914994771317,68.71947566720709,-2.4623484039212786,71.39404204277189,-2.4497728061015933,0.02345653333333333,-0.24459263999999997,0.38915412000000016,0.6572032933333334,0.46023548060874436,0.6821130179153863,0.8611166626642073,0.8076879133589598
LBP09_S03,LBP09,-1532,119,3,118,-1532,1716540217.72,2024-05-24 08:43:37.720000+00:00,2024-05-24 17:43:37.720000+09:00,2024,5,24,8,43,37,720,,,,,,,,,-0.61377,-0.015381,1.457275,-15.136719,-62.988281,-18.371582,,,,,,,,,,,0.0,1.0,1.0,3.0,0.0,0.0,0.0,8.0,0.0,-0.025992773333333333,-0.023610026666666666,0.9607681733333334,-23.792317706666665,5.3141276,4.440104186666666,39.225609833017046,-24.879795067149306,-9.112701415801135,62.06982878265109,15.426062377095295,-28.51342305140336,70.02601187900078,-2.404162287062491,71.53459731766901,-2.4574899483612236,-0.5877772266666667,0.008229026666666665,0.4965068266666667,1.09251308,0.7694600795326825,0.6849876598841851,0.854166919370099,0.8131847398939854
LBP09_S03,LBP09,-1531,120,3,119,-1531,1716540217.76,2024-05-24 08:43:37.760000+00:00,2024-05-24 17:43:37.760000+09:00,2024,5,24,8,43,37,760,,,,,,,,,-0.127197,0.626221,1.550049,253.234863,-73.364258,-74.523926,,,,,,,,,,,0.0,1.0,1.0,3.0,0.0,0.0,0.0,8.0,0.0,-0.02609044,-0.01157226666666667,0.9569595866666667,-27.18180338666667,2.8898111866666665,4.6134440266666665,40.198972072852186,-18.308976288339625,-30.067855707635026,63.677787665565184,14.69370332556171,-29.71613727970876,71.79007155747183,-2.7240096083516048,72.03498518237045,-2.4252454294685513,-0.10110656000000001,0.6377932666666667,0.5930894133333333,1.33198924,0.8767883665334805,0.69929303175776,0.8606122034259718,0.8194225684029282
LBP09_S03,LBP09,-1530,121,3,120,-1530,1716540217.8,2024-05-24 08:43:37.800000+00:00,2024-05-24 17:43:37.800000+09:00,2024,5,24,8,43,37,800,,,,,,,,,-0.373291,-0.265381,1.323486,-101.623535,179.80957,49.804688,,,,,,,,,,,0.0,1.0,1.0,3.0,0.0,0.0,0.0,8.0,0.0,-0.025331986666666667,-0.02152344,0.9783463066666667,-28.986816413333333,2.8710937333333337,6.05875652,32.07234654948693,-8.700824650842602,-47.342948089448406,64.96068152754466,14.345670339528006,-31.609855203286696,73.65372596132694,-2.4372531516516327,72.80367145558645,-2.4087788995849424,-0.34795901333333334,-0.24385755999999997,0.3451396933333333,0.9369562666666666,0.5474151920099476,0.7138223137140522,0.847432718988049,0.8244944872941585
LBP09_S03,LBP09,-1529,122,3,121,-1529,1716540217.84,2024-05-24 08:43:37.840000+00:00,2024-05-24 17:43:37.840000+09:00,2024,5,24,8,43,37,840,,,,,,,,,-0.577393,0.316162,0.029297,269.836426,-66.955566,-79.467773,,,,,,,,,,,0.0,1.0,1.0,3.0,0.0,0.0,0.0,8.0,0.0,-0.02458004,-0.030556640000000003,0.9964973466666667,-28.75895182666667,3.711751293333333,6.615397146666666,17.689239469918427,2.026107409051846,-58.014106846582386,65.6682511063414,14.426714635890079,-33.93041947714999,75.31084028508958,-2.2483009569940062,73.73313101668782,-2.394991087357006,-0.55281296,0.34671864,-0.9672003466666667,1.8667319466666665,1.1667443998835096,0.7411855267794663,0.8673212026192672,0.8236921656223168
LBP09_S03,LBP09,-1528,123,3,122,-1528,1716540217.88,2024-05-24 08:43:37.880000+00:00,2024-05-24 17:43:37.880000+09:00,2024,5,24,8,43,37,880,,,,,,,,,0.667236,0.598389,1.351074,-74.279785,-76.293945,-128.662109,,,,,,,,,,,0.0,1.0,1.0,3.0,0.0,0.0,0.0,8.0,0.0,-0.030826786666666668,-0.0312142,1.00952468,-25.832519533333333,4.898274733333333,6.462402346666666,1.4672716546704108,11.801316205370703,-60.265262546689314,65.72694197252822,14.898767284104906,-36.34102997901756,76.568104505609,-2.3499559872768763,74.72062956815513,-2.3663958545952353,0.6980627866666668,0.6296031999999999,0.34154932000000016,1.6692153066666668,1.0001738756693932,0.7514597303294809,0.8640943052473175,0.8284104440301383
LBP09_S03,LBP09,-1527,124,3,123,-1527,1716540217.92,2024-05-24 08:43:37.920000+00:00,2024-05-24 17:43:37.920000+09:00,2024,5,24,8,43,37,920,,,,,,,,,0.129395,-0.989746,1.687744,-158.26416,46.264648,-123.596191,,,,,,,,,,,0.0,1.0,1.0,3.0,0.0,0.0,0.0,8.0,0.0,-0.032184213333333336,-0.03172526666666667,1.0166535866666668,-22.044270826666665,4.572753906666667,5.083821613333333,-11.66320179013414,18.77449009487778,-53.82311881514206,65.26041390092286,15.649746887900017,-38.49395473162325,77.36679359425051,-2.363368478563699,75.68784964743074,-2.3281092654486972,0.16157921333333336,-0.9580207333333334,0.6710904133333331,1.79069036,1.1807937629179197,0.770456661542785,0.8594979338041846,0.837799079734374
LBP09_S03,LBP09,-1526,125,3,124,-1526,1716540217.96,2024-05-24 08:43:37.960000+00:00,2024-05-24 17:43:37.960000+09:00,2024,5,24,8,43,37,960,,,,,,,,,-0.506104,0.679932,1.785889,71.472168,23.864746,-72.265625,,,,,,,,,,,0.0,1.0,1.0,3.0,0.0,0.0,0.0,8.0,0.0,-0.02871741333333333,-0.036982426666666665,1.0143489066666667,-18.98356118666667,4.051920573333334,4.071451826666666,-17.554983500383138,21.653947093040316,-40.060831029369645,64.55821456090753,16.515904771621628,-40.096387972798034,77.77055037855004,-2.2311799748573784,76.59524482828117,-2.2952972101553444,-0.47738658666666667,0.7169144266666666,0.7715400933333334,1.9658411066666668,1.1563469911375455,0.7765565946927276,0.8490429551436577,0.8482005539966969
LBP09_S03,LBP09,-1525,126,3,125,-1525,1716540218.0,2024-05-24 08:43:38+00:00,2024-05-24 17:43:38+09:00,2024,5,24,8,43,38,0,8.0,43.0,37.0,40.564522,141.53569,-5.388,3.0,15.0,-0.15918,-0.238525,2.112793,-229.064941,20.141602,30.395508,-284.0,145.0,249.0,1228.0,0.0,1008.900024,24.120001,-0.04063,36.258327,3.895313,0.0,1.0,1.0,3.0,0.0,0.0,0.0,6.0,0.0,-0.030143199999999995,-0.04043945333333333,1.0114289866666666,-16.27034504,3.754069013333333,3.338216146666667,-13.98209634527543,20.006169787329007,-21.68045539813204,63.99893070709651,17.316151563114786,-40.96360618872332,77.93413416849715,-2.211511069039455,77.44560291598394,-2.2277932230925876,-0.1290368,-0.19808554666666667,1.1013640133333333,1.42848636,1.12645065112422,0.793480427953163,0.8330836862888851,0.8539979388172706
LBP09_S03,LBP09,-1524,127,3,126,-1524,1716540218.04,2024-05-24 08:43:38.040000+00:00,2024-05-24 17:43:38.040000+09:00,2024,5,24,8,43,38,40,,,,,,,,,-0.220459,-0.537598,1.882324,-34.729004,109.313965,58.532715,,,,,,,,,,,0.0,1.0,1.0,3.0,0.0,0.0,0.0,6.0,0.0,-0.02824216,-0.03631836,1.0142089333333333,-12.374674466666665,2.324218746666667,2.1842447999999997,-1.2417774333897174,14.444519321161483,-2.03468345607894,63.94925960976092,17.893932335961246,-41.04499352696648,78.06658768454838,-2.2318686282339306,78.27474684218481,-2.189026163749241,-0.19221684,-0.50127964,0.8681150666666668,1.561611546666667,1.02071169290441,0.8159640102700766,0.823397293758187,0.855815121248931
LBP09_S03,LBP09,-1523,128,3,127,-1523,1716540218.08,2024-05-24 08:43:38.080000+00:00,2024-05-24 17:43:38.080000+09:00,2024,5,24,8,43,38,80,,,,,,,,,-0.784668,0.462891,0.025146,180.908203,66.833496,61.889648,,,,,,,,,,,0.0,1.0,1.0,3.0,0.0,0.0,0.0,6.0,0.0,-0.022161426666666668,-0.03976237333333334,1.0258267733333335,-12.242024733333333,1.5747070266666667,1.5030924666666665,17.97949998818827,6.587223584520513,15.693027885901076,64.66843960928846,18.157421279342067,-40.41727241153043,78.39167645996321,-2.0794825124558978,79.1335961743997,-2.1756425626170515,-0.7625065733333334,0.5026533733333334,-1.0006807733333334,2.26584072,1.354783635204869,0.8410134687527523,0.8270054865900601,0.8702641501246039
LBP09_S03,LBP09,-1522,129,3,128,-1522,1716540218.12,2024-05-24 08:43:38.120000+00:00,2024-05-24 17:43:38.120000+09:00,2024,5,24,8,43,38,120,,,,,,,,,0.177734,0.227051,0.328857,66.589355,-70.800781,36.621094,,,,,,,,,,,0.0,1.0,1.0,3.0,0.0,0.0,0.0,6.0,0.0,-0.022477186666666666,-0.040657559999999995,1.0429003333333333,-12.076009106666666,2.5439453066666666,0.5110677333333332,39.413972827610046,-1.2986127416791742,29.17109790229059,66.24499852239286,18.1054767696749,-39.25042849543881,79.0999636875051,-2.0760417341289634,80.06950683813743,-2.1604548884400097,0.20021118666666668,0.26770856,-0.7140433333333334,1.18196308,0.7884226494980509,0.8202096941977025,0.7991332343494794,0.866351077102323
LBP09_S03,LBP09,-1521,130,3,129,-1521,1716540218.16,2024-05-24 08:43:38.160000+00:00,2024-05-24 17:43:38.160000+09:00,2024,5,24,8,43,38,160,,,,,,,,,0.446777,-0.266357,0.911865,-95.825195,-62.194824,27.832031,,,,,,,,,,,0.0,1.0,1.0,3.0,0.0,0.0,0.0,6.0,0.0,-0.022080053333333335,-0.042626960000000005,1.0568033333333333,-11.861165346666667,4.01529948,-0.29215492000000004,58.41002440800867,-6.927129485852936,37.26299080002159,68.58139949871321,17.828391590240784,-37.75990886343795,80.2936524344995,-2.048969737724035,81.11314519525591,-2.135355744769204,0.46885705333333333,-0.22373004000000002,-0.14493833333333328,0.8375254266666666,0.5393414389125522,0.8071677787618201,0.7795433171096066,0.8614731673938536
LBP09_S03,LBP09,-1520,131,3,130,-1520,1716540218.2,2024-05-24 08:43:38.200000+00:00,2024-05-24 17:43:38.200000+09:00,2024,5,24,8,43,38,200,,,,,,,,,0.021973,-0.756592,1.310791,151.428223,14.709473,30.578613,,,,,,,,,,,0.0,1.0,1.0,3.0,0.0,0.0,0.0,6.0,0.0,-0.023391906666666667,-0.04509441333333333,1.0686946133333333,-11.486002586666666,5.353190093333334,-0.74707028,71.1512785726963,-8.709829263804398,39.98615723574561,71.42745064162106,17.47999841968861,-36.16046257400812,81.94516522333561,-2.04958255821817,82.27235888137002,-2.1268194668959204,0.04536490666666666,-0.7114975866666667,0.24209638666666677,0.9989588800000002,0.7529259266530954,0.8061301255830777,0.7682813653149435,0.8655360934719859
LBP09_S03,LBP09,-1519,132,3,131,-1519,1716540218.24,2024-05-24 08:43:38.240000+00:00,2024-05-24 17:43:38.240000+09:00,2024,5,24,8,43,38,240,,,,,,,,,-0.506348,-0.20166,1.567871,321.655273,-91.308594,-3.967285,,,,,,,,,,,0.0,1.0,1.0,3.0,0.0,0.0,0.0,6.0,0.0,-0.0253906,-0.042028013333333336,1.0762076399999998,-9.751790346666665,6.428222653333334,-1.656901,75.57040213099376,-6.2894457467933265,38.189163385970424,74.45026672686082,17.228420589816878,-34.63289603856931,83.89933360723847,-2.1144649456721103,83.53065552993637,-2.1131061244671097,-0.48095740000000003,-0.15963198666666667,0.4916633600000002,1.132252746666667,0.7060702878243756,0.7958284102865909,0.7700740305512257,0.8703609367599904
LBP09_S03,LBP09,-1518,133,3,132,-1518,1716540218.28,2024-05-24 08:43:38.280000+00:00,2024-05-24 17:43:38.280000+09:00,2024,5,24,8,43,38,280,,,,,,,,,-0.219971,0.571777,2.024414,135.925293,-125.793457,-7.324219,,,,,,,,,,,0.0,1.0,1.0,3.0,0.0,0.0,0.0,6.0,0.0,-0.025836559999999998,-0.03564780000000001,1.0764452666666666,-11.263834626666666,7.052408853333333,-2.2688801733333332,71.7081131859458,-0.6625297906126277,33.1253408486754,77.31859125429865,17.201919398192373,-33.30788240462229,85.92721114298638,-2.1980792455064564,84.84724509514623,-2.0888808720700016,-0.19413444,0.6074248,0.9479687333333335,1.7495279733333335,1.1424962966359054,0.8152623379532895,0.7673324418171577,0.874246990757328
LBP09_S03,LBP09,-1517,134,3,133,-1517,1716540218.32,2024-05-24 08:43:38.320000+00:00,2024-05-24 17:43:38.320000+09:00,2024,5,24,8,43,38,320,,,,,,,,,0.26001,-0.48999,1.966064,-160.888672,41.809082,47.241211,,,,,,,,,,,0.0,1.0,1.0,3.0,0.0,0.0,0.0,6.0,0.0,-0.022714826666666667,-0.03777345333333333,1.0753287333333332,-12.272135413333332,8.179524746666667,-2.9394530933333334,61.390315073805,6.1994690760868245,26.093310802620923,79.77420385725085,17.449898161235847,-32.26414997251745,87.80317716543529,-2.112377041855647,86.15773651776934,-2.077104256096253,0.2827248266666667,-0.45221654666666666,0.8907352666666668,1.6256766400000002,1.0381919128834323,0.8229371616746606,0.7714544292575582,0.8823250760656394
LBP09_S03,LBP09,-1516,135,3,134,-1516,1716540218.36,2024-05-24 08:43:38.360000+00:00,2024-05-24 17:43:38.360000+09:00,2024,5,24,8,43,38,360,,,,,,,,,-0.088867,-0.003174,1.028564,-15.319824,237.609863,20.385742,,,,,,,,,,,0.0,1.0,1.0,3.0,0.0,0.0,0.0,6.0,0.0,-0.02365558666666667,-0.03651368,1.0677375866666667,-12.194010413333332,9.455566413333333,-3.5205077733333328,47.33710772534556,12.121035240490036,18.241643107049054,81.66768816626468,17.93473957085545,-31.53448424823549,89.3626872396912,-2.1458171961245407,87.37744618663554,-2.0756593335078537,-0.06521141333333333,0.03333968,-0.039173586666666704,0.13772468000000004,0.08305800734284499,0.8014308415900929,0.7577795356797126,0.8686252135771501
LBP09_S03,LBP09,-1515,136,3,135,-1515,1716540218.4,2024-05-24 08:43:38.400000+00:00,2024-05-24 17:43:38.400000+09:00,2024,5,24,8,43,38,400,,,,,,,,,-0.449951,0.162109,-0.130127,-18.737793,110.168457,40.161133,,,,,,,,,,,0.0,1.0,1.0,3.0,0.0,0.0,0.0,6.0,0.0,-0.025270173333333337,-0.04589518666666667,1.06553056,-10.659993493333333,8.959960946666667,-3.5595702666666664,32.09324805550749,15.571857032466161,10.535520431803988,82.95141808848498,18.557613852154095,-31.11306343096333,90.51710065416061,-2.0743776447513436,88.41032548530274,-2.084023531787609,-0.4246808266666667,0.20800418666666667,-1.19565756,1.8283425733333334,1.2857746874916687,0.8374644671429433,0.7768443809215297,0.875027994041079
LBP09_S03,LBP09,-1514,137,3,136,-1514,1716540218.44,2024-05-24 08:43:38.440000+00:00,2024-05-24 17:43:38.440000+09:00,2024,5,24,8,43,38,440,,,,,,,,,-0.059326,-0.047852,0.248047,8.911133,-43.395996,16.662598,,,,,,,,,,,0.0,1.0,1.0,3.0,0.0,0.0,0.0,6.0,0.0,-0.0231966,-0.052158213333333335,1.0713931866666666,-8.073730479999998,7.136230479999999,-3.34554032,17.25840107841909,16.198498617853314,3.8071718894397306,83.64175413162175,19.205553796868227,-30.960776555385742,91.23248333664708,-1.9896161042628524,89.16419897133639,-2.085476678019604,-0.03612939999999999,0.004306213333333336,-0.8233461866666666,0.8637817999999999,0.82414975587946,0.8538739250756197,0.7832516365731724,0.8739998440872412
LBP09_S03,LBP09,-1513,138,3,137,-1513,1716540218.48,2024-05-24 08:43:38.480000+00:00,2024-05-24 17:43:38.480000+09:00,2024,5,24,8,43,38,480,,,,,,,,,0.282227,0.033447,0.708252,-45.043945,-70.373535,-2.868652,,,,,,,,,,,0.0,1.0,1.0,3.0,0.0,0.0,0.0,6.0,0.0,-0.02125324,-0.051617840000000005,1.0821516533333335,-4.353027359999999,7.095540373333333,-3.9379882399999997,3.313597211802021,14.792611960139206,-1.2070301381343078,83.77429802009384,19.797258275273794,-31.009057760911116,91.49659068619397,-1.961716352718408,89.56860136314556,-2.0752130962924507,0.30348024,0.08506484,-0.3738996533333335,0.7624447333333335,0.48901659873410247,0.8462738230250483,0.7841955435184693,0.8709098041854293
LBP09_S03,LBP09,-1512,139,3,138,-1512,1716540218.52,2024-05-24 08:43:38.520000+00:00,2024-05-24 17:43:38.520000+09:00,2024,5,24,8,43,38,520,,,,,,,,,0.170898,-0.301758,1.046875,31.860352,-0.976562,3.479004,,,,,,,,,,,0.0,1.0,1.0,3.0,0.0,0.0,0.0,6.0,0.0,-0.023118466666666667,-0.043284506666666674,1.0799511333333334,-1.9954427199999991,7.613118506666666,-5.23844396,-9.969664420587824,12.762442930466536,-3.9046310586343216,83.37551144327033,20.307755992492456,-31.16524300325649,91.29706037616732,-2.061592508244974,89.58874826671052,-2.0601682618315076,0.19401646666666666,-0.25847349333333336,-0.03307613333333337,0.4855660933333334,0.3248768484980716,0.8169066160816191,0.783753482720559,0.85971638963724
LBP09_S03,LBP09,-1511,140,3,139,-1511,1716540218.56,2024-05-24 08:43:38.560000+00:00,2024-05-24 17:43:38.560000+09:00,2024,5,24,8,43,38,560,,,,,,,,,-0.141113,-0.114258,1.348389,172.607422,-41.381836,-20.385742,,,,,,,,,,,0.0,1.0,1.0,3.0,0.0,0.0,0.0,6.0,0.0,-0.025823546666666666,-0.041041666666666664,1.07225256,-1.729329439999999,7.492675799999999,-5.6306965600000005,-22.812293611143815,11.425123435104332,-3.9328989130132843,82.46301969882457,20.764760929896628,-31.32255895977702,90.62244542117145,-2.1326117205215813,89.2305716285563,-2.0242066642585463,-0.11528945333333332,-0.07321633333333333,0.27613644000000015,0.46464222666666677,0.30806431635707227,0.80351521786581,0.771882930157055,0.8572203503974946
LBP09_S03,LBP09,-1510,141,3,140,-1510,1716540218.6,2024-05-24 08:43:38.600000+00:00,2024-05-24 17:43:38.600000+09:00,2024,5,24,8,43,38,600,,,,,,,,,-0.214355,0.314941,1.669678,43.701172,-59.814453,-1.159668,,,,,,,,,,,0.0,1.0,1.0,3.0,0.0,0.0,0.0,6.0,0.0,-0.020836573333333334,-0.03877278666666667,1.0604687066666665,-2.5781250133333327,7.352701853333333,-6.059570266666666,-34.805418073330614,11.474099743648392,-1.3333980228488824,81.07080297589134,21.223724919642564,-31.375894880690975,89.48390008367214,-2.0641140205381268,88.53589801724031,-1.973433245918437,-0.19351842666666666,0.3537137866666667,0.6092092933333335,1.156441506666667,0.7305469098020426,0.8059223565822647,0.7635079095007794,0.8571031278866751
LBP09_S03,LBP09,-1509,142,3,141,-1509,1716540218.64,2024-05-24 08:43:38.640000+00:00,2024-05-24 17:43:38.640000+09:00,2024,5,24,8,43,38,640,,,,,,,,,0.187988,0.173584,1.456055,-79.956055,12.695312,-36.804199,,,,,,,,,,,0.0,1.0,1.0,3.0,0.0,0.0,0.0,6.0,0.0,-0.014046213333333333,-0.02976562666666667,1.0438052933333333,-3.177897146666666,8.324381533333334,-6.5722655733333335,-44.740597624166824,12.831953765118302,3.3598107101672623,79.28117907092467,21.737003070247297,-31.241502452284283,87.94335752533019,-2.0118291284005743,87.57039916680496,-1.934614320500102,0.20203421333333332,0.20334962666666667,0.4122497066666668,0.8176335466666669,0.5021142446390506,0.8069981603471379,0.7546683785394417,0.8534587469593011
LBP09_S03,LBP09,-1508,143,3,142,-1508,1716540218.68,2024-05-24 08:43:38.680000+00:00,2024-05-24 17:43:38.680000+09:00,2024,5,24,8,43,38,680,,,,,,,,,-0.012695,0.008789,0.6604,-169.311523,175.598145,-3.78418,,,,,,,,,,,0.0,1.0,1.0,3.0,0.0,0.0,0.0,6.0,0.0,-0.01073892,-0.020791013333333337,1.03303056,-5.1920573066666655,8.09895836,-7.62613928,-51.01838328521142,14.887127268388376,9.139181994794848,77.24044373951621,22.332488160982834,-30.87593517249249,86.128680178636,-2.0476309008970284,86.4081004146899,-1.9146640174125142,-0.001956079999999999,0.029580013333333335,-0.37263056000000006,0.4041666533333334,0.3738078887392296,0.8035410566723573,0.7428270372938718,0.8419247940002573
LBP09_S03,LBP09,-1507,144,3,143,-1507,1716540218.72,2024-05-24 08:43:38.720000+00:00,2024-05-24 17:43:38.720000+09:00,2024,5,24,8,43,38,720,,,,,,,,,-0.46167,-0.110107,0.037842,-144.65332,73.059082,30.151367,,,,,,,,,,,0.0,1.0,1.0,3.0,0.0,0.0,0.0,6.0,0.0,-0.005003240000000002,-0.027200520000000002,1.0386946266666666,-7.2029622533333315,6.773274773333333,-8.122558546666665,-52.44154991651,16.926323282173136,14.695712791511065,75.1427817428558,23.00954109226976,-30.288106660832046,84.22141078389302,-1.7527610661260324,85.11561953850884,-1.8976686260849742,-0.45666676,-0.08290647999999999,-1.0008526266666666,1.5404258666666666,1.103233426986535,0.8168919905705113,0.7509398252273484,0.8417419431035699
LBP09_S03,LBP09,-1506,145,3,144,-1506,1716540218.76,2024-05-24 08:43:38.760000+00:00,2024-05-24 17:43:38.760000+09:00,2024,5,24,8,43,38,760,,,,,,,,,-0.054443,-0.528809,0.945312,-73.303223,-43.640137,58.71582,,,,,,,,,,,0.0,1.0,1.0,3.0,0.0,0.0,0.0,6.0,0.0,-0.0017285066666666681,-0.025657546666666673,1.0488215866666666,-8.2706706,7.832031280000001,-7.3014322400000005,-48.98838420730923,18.495148991673247,18.720284885402798,73.18324637456344,23.74934705193669,-29.539295265415934,82.4159511265314,-1.6380830127234465,83.73838336983165,-1.8752830132245066,-0.05271449333333333,-0.5031514533333333,-0.10350958666666654,0.6593755333333332,0.5163859383549669,0.8024758934433709,0.7508844626005654,0.8412334334317715
LBP09_S03,LBP09,-1505,146,3,145,-1505,1716540218.8,2024-05-24 08:43:38.800000+00:00,2024-05-24 17:43:38.800000+09:00,2024,5,24,8,43,38,800,,,,,,,,,0.462891,0.587646,1.375732,47.546387,-7.446289,-11.962891,,,,,,,,,,,0.0,1.0,1.0,3.0,0.0,0.0,0.0,6.0,0.0,-0.0028320266666666677,-0.024440093333333333,1.0544205466666667,-10.962727893333332,10.31656904,-5.881347600000001,-42.19204133272178,19.502141701172285,20.250030236896862,71.49556472125457,24.529432719983582,-28.72929405594006,80.86211214980706,-1.686188390567994,82.29060686451561,-1.8376263943585704,0.46572302666666665,0.6120860933333333,0.3213114533333332,1.3991205733333332,0.8335396650806736,0.8139208723662,0.763871593040126,0.8362621034474326
LBP09_S03,LBP09,-1504,147,3,146,-1504,1716540218.84,2024-05-24 08:43:38.840000+00:00,2024-05-24 17:43:38.840000+09:00,2024,5,24,8,43,38,840,,,,,,,,,-0.253906,-0.177002,1.916016,-70.007324,51.757812,81.665039,,,,,,,,,,,0.0,1.0,1.0,3.0,0.0,0.0,0.0,6.0,0.0,-0.006809893333333335,-0.030563146666666666,1.0586132533333334,-10.118815119999997,11.20768232,-6.255696546666666,-34.97128423743569,20.070751246497885,18.947420094240655,70.09671335175715,25.332262769843496,-27.971397252170433,79.60949581549637,-1.790113073386976,80.75078234685655,-1.7912566178435143,-0.24709610666666668,-0.14643885333333334,0.8574027466666665,1.2509377066666665,0.9042346452591551,0.8034204821812257,0.772303004480346,0.8460209624732533
LBP09_S03,LBP09,-1503,148,3,147,-1503,1716540218.88,2024-05-24 08:43:38.880000+00:00,2024-05-24 17:43:38.880000+09:00,2024,5,24,8,43,38,880,,,,,,,,,-0.572266,0.221924,2.273926,-42.114258,-95.76416,5.310059,,,,,,,,,,,0.0,1.0,1.0,3.0,0.0,0.0,0.0,6.0,0.0,-0.007929693333333335,-0.035319,1.0627245866666666,-7.279459653333333,10.760091173333334,-6.835937426666666,-30.99178508527942,20.298831349301995,15.219575601387186,68.85704194834597,26.144216023815577,-27.362614228114946,78.57178192438333,-1.7917624394430114,79.0644509595783,-1.7352784776769101,-0.5643363066666667,0.257243,1.2112014133333333,2.03278072,1.3607565144917875,0.8178437877341215,0.7846517590318011,0.848677466076252
LBP09_S03,LBP09,-1502,149,3,148,-1502,1716540218.92,2024-05-24 08:43:38.920000+00:00,2024-05-24 17:43:38.920000+09:00,2024,5,24,8,43,38,920,,,,,,,,,0.129395,0.033936,1.880127,-17.333984,-59.997559,-17.51709,,,,,,,,,,,0.0,1.0,1.0,3.0,0.0,0.0,0.0,6.0,0.0,-0.008082693333333335,-0.029567053333333336,1.0601432133333335,-4.884440119999999,10.244140653333334,-7.8450520133333335,-33.758227179383105,20.115242088511476,10.138700496815153,67.50671286117064,26.948825707356036,-26.957066208242342,77.52469868939548,-1.8377363796402955,77.15557851910611,-1.672357611789122,0.13747769333333335,0.06350305333333334,0.8199837866666666,1.0209645333333333,0.8338502049787574,0.8039660454165549,0.78721135347967,0.8409873043416414
LBP09_S03,LBP09,-1501,150,3,149,-1501,1716540218.96,2024-05-24 08:43:38.960000+00:00,2024-05-24 17:43:38.960000+09:00,2024,5,24,8,43,38,960,,,,,,,,,-0.025635,-0.424316,1.073242,-74.035645,163.879395,-2.13623,,,,,,,,,,,0.0,1.0,1.0,3.0,0.0,0.0,0.0,6.0,0.0,-0.006207693333333335,-0.03314128,1.0632193866666668,-4.5955403866666655,8.710937533333333,-7.888183519999999,-45.65281741005722,19.338544037635057,5.186490669124729,65.68060016476835,27.72236746886144,-26.74960658147735,76.14468036801108,-1.7560455318622195,74.94631265582166,-1.6533923229815248,-0.019427306666666665,-0.39117472000000003,0.010022613333333208,0.4206246399999999,0.3917850617231706,0.77338356823998,0.7749700814663538,0.8238231595090985
LBP09_S03,LBP09,-1500,151,3,150,-1500,1716540219.0,2024-05-24 08:43:39+00:00,2024-05-24 17:43:39+09:00,2024,5,24,8,43,39,0,8.0,43.0,38.0,40.56459,141.535706,-4.456,3.0,15.0,-0.463867,0.381104,-0.166016,-3.90625,139.526367,26.794434,-288.0,153.0,251.0,1235.0,0.0,1008.599976,24.200001,-0.043603,38.763988,3.895313,0.0,1.0,1.0,3.0,0.0,0.0,0.0,5.0,0.0,-0.0009017066666666675,-0.030445960000000005,1.0704654800000002,-4.492187519999999,7.460937533333334,-8.217773359999999,-67.1224244146971,17.89382397949324,1.8917234734452366,62.995703188180464,28.43812042804117,-26.673937642539542,74.08565490708165,-1.6004162553875667,72.38198981047736,-1.650490258239,-0.4629652933333333,0.41154996,-1.2364814800000001,2.1109967333333337,1.382966623888737,0.7836442071505607,0.7885623175518619,0.8166038599094436
LBP09_S03,LBP09,-1499,152,3,151,-1499,1716540219.04,2024-05-24 08:43:39.040000+00:00,2024-05-24 17:43:39.040000+09:00,2024,5,24,8,43,39,40,,,,,,,,,-0.071777,-0.044189,-0.008301,-31.433105,3.417969,24.475098,,,,,,,,,,,0.0,1.0,1.0,3.0,0.0,0.0,0.0,5.0,0.0,0.0038704266666666656,-0.032454413333333335,1.0847525999999998,-3.6458333466666657,7.880859413333333,-8.746744706666666,-96.21314088408015,16.01102502874441,1.4438374611295195,59.147177552817254,29.078561429190948,-26.616184144094362,71.08004365254752,-1.4520477267345322,69.45457393187777,-1.6391104203517752,-0.07564742666666666,-0.011734586666666665,-1.0930535999999997,1.1804356133333331,1.0957309916938947,0.7866449791021402,0.8013044946861082,0.8111465222061714
LBP09_S03,LBP09,-1498,153,3,152,-1498,1716540219.08,2024-05-24 08:43:39.080000+00:00,2024-05-24 17:43:39.080000+09:00,2024,5,24,8,43,39,80,,,,,,,,,0.131104,0.293213,0.244385,-100.830078,-77.819824,-33.630371,,,,,,,,,,,0.0,1.0,1.0,3.0,0.0,0.0,0.0,5.0,0.0,0.004902319999999999,-0.03193684000000001,1.09328124,-3.9428711066666655,9.31559248,-9.647623613333334,-128.63282182260158,14.224552212732426,4.355510953595617,54.00186467991319,29.647543517700246,-26.44196370595054,67.03995577391434,-1.4184222420191464,66.21515267821596,-1.5933858818730138,0.12620168,0.32514984,-0.8488962400000001,1.30024776,0.9177549284928879,0.7691638308336608,0.8050886497932065,0.8077249346712604
LBP09_S03,LBP09,-1497,154,3,153,-1497,1716540219.12,2024-05-24 08:43:39.120000+00:00,2024-05-24 17:43:39.120000+09:00,2024,5,24,8,43,39,120,,,,,,,,,0.526855,-0.200439,0.619385,-71.044922,-66.101074,-34.423828,,,,,,,,,,,0.0,1.0,1.0,3.0,0.0,0.0,0.0,5.0,0.0,0.000257133333333332,-0.03346028,1.0980664000000002,-3.943684906666666,10.700683613333334,-10.572102773333333,-158.44481184833933,13.149773765476784,10.24387876047109,47.664072205979615,30.173534468319318,-26.032208555531696,62.12875215104831,-1.563108178050061,62.768573790493676,-1.543653536504073,0.5265978666666666,-0.16697872,-0.47868140000000026,1.172257986666667,0.7309740684981123,0.7668658875936633,0.7935377908956829,0.7883774520975407
LBP09_S03,LBP09,-1496,155,3,154,-1496,1716540219.16,2024-05-24 08:43:39.160000+00:00,2024-05-24 17:43:39.160000+09:00,2024,5,24,8,43,39,160,,,,,,,,,0.213135,0.345459,0.539795,-208.312988,25.32959,-14.160156,,,,,,,,,,,0.0,1.0,1.0,3.0,0.0,0.0,0.0,5.0,0.0,-0.0013802266666666679,-0.036070960000000006,1.1004492133333335,-3.0232747466666656,10.721028666666667,-11.481933493333333,-179.34029333090646,13.192681486209304,17.80718526093225,40.49046047274336,30.70124172776769,-25.319921145094405,56.77272267308848,-1.6090623652981946,59.253941043153745,-1.4741694498828626,0.21451522666666667,0.38152996,-0.5606542133333334,1.1566994000000002,0.7112770485386634,0.7737433119787077,0.7904555453702639,0.7776099820659735
LBP09_S03,LBP09,-1495,156,3,155,-1495,1716540219.2,2024-05-24 08:43:39.200000+00:00,2024-05-24 17:43:39.200000+09:00,2024,5,24,8,43,39,200,,,,,,,,,-0.068848,0.013916,0.671143,-304.6875,69.519043,36.92627,,,,,,,,,,,0.0,1.0,1.0,3.0,0.0,0.0,0.0,5.0,0.0,-5.2093333333334544e-05,-0.03270182666666667,1.09754556,-3.244628906666666,10.912272146666666,-11.845703026666667,-186.22790383269498,14.386725539906486,25.053817303303678,33.04134431943556,31.27671074936395,-24.31776845296226,51.587953363811216,-1.5723900116957503,55.82583095189062,-1.4120736973070493,-0.06879590666666667,0.04661782666666667,-0.4264025599999999,0.5418162933333333,0.43442518540223424,0.7610032823286733,0.7835667039558756,0.7658553376528534
LBP09_S03,LBP09,-1494,157,3,156,-1494,1716540219.24,2024-05-24 08:43:39.240000+00:00,2024-05-24 17:43:39.240000+09:00,2024,5,24,8,43,39,240,,,,,,,,,-0.150391,0.24707,1.006592,-357.421875,24.414062,72.021484,,,,,,,,,,,0.0,1.0,1.0,3.0,0.0,0.0,0.0,5.0,0.0,0.008971346666666666,-0.037011720000000005,1.0947102800000001,-2.159830719999999,11.62190756,-11.914062399999999,-176.68873562134905,16.4315551546015,29.764781371057076,25.973794894581598,31.93397295554801,-23.127177198119977,47.2152832788781,-1.3328676885993593,52.64652496327282,-1.383240808164813,-0.15936234666666665,0.28408172000000004,-0.08811828000000022,0.5315623466666669,0.33743682733724206,0.7462579439091879,0.7710431770978894,0.7621353350038798
LBP09_S03,LBP09,-1493,158,3,157,-1493,1716540219.28,2024-05-24 08:43:39.280000+00:00,2024-05-24 17:43:39.280000+09:00,2024,5,24,8,43,39,280,,,,,,,,,-0.072266,-0.634277,1.496338,-272.155762,37.475586,75.805664,,,,,,,,,,,0.0,1.0,1.0,3.0,0.0,0.0,0.0,5.0,0.0,0.012818999999999999,-0.045234386666666675,1.0908203066666666,-4.595540346666665,12.392578133333334,-11.360676986666666,-151.77946955679192,18.86426386385231,30.066976989214588,19.90261611230992,32.6885435101021,-21.924498118551394,44.10599304716062,-1.2944389857536065,49.883051575503416,-1.378061914979019,-0.085085,-0.5890426133333333,0.4055176933333333,1.0796453066666665,0.7201772400971516,0.7293651816476376,0.7723137598004635,0.7546766884273177
LBP09_S03,LBP09,-1492,159,3,158,-1492,1716540219.32,2024-05-24 08:43:39.320000+00:00,2024-05-24 17:43:39.320000+09:00,2024,5,24,8,43,39,320,,,,,,,,,0.01123,-0.693115,1.687744,-32.409668,-7.202148,31.677246,,,,,,,,,,,0.0,1.0,1.0,3.0,0.0,0.0,0.0,5.0,0.0,0.0192578,-0.04224936,1.09237304,-3.9591471199999986,10.154622413333335,-12.137044186666667,-115.8240596412299,21.242488175812596,24.930914220574646,15.269653726660724,33.538243037134606,-20.92726154972841,42.378371215996175,-1.1428955134281888,47.69658822960523,-1.3711987489040403,-0.008027799999999998,-0.65086564,0.5953709599999999,1.2542643999999998,0.8821321368801679,0.7231227906075073,0.7730299761410839,0.7553438830408745
LBP09_S03,LBP09,-1491,160,3,159,-1491,1716540219.36,2024-05-24 08:43:39.360000+00:00,2024-05-24 17:43:39.360000+09:00,2024,5,24,8,43,39,360,,,,,,,,,0.09375,0.04248,1.649902,113.40332,18.432617,14.953613,,,,,,,,,,,0.0,1.0,1.0,3.0,0.0,0.0,0.0,5.0,0.0,0.02676106666666667,-0.05754233333333334,1.1197330666666667,-7.800292959999998,11.893717453333334,-10.789387946666666,-75.20865336540258,23.262276016103282,14.42939376889325,12.26130759204462,34.468734077778734,-20.350085798972678,41.86357945537989,-1.1350880061040869,46.22044810212111,-1.3384052014108332,0.06698893333333333,0.10002233333333334,0.5301689333333333,0.6971801999999999,0.5436644941748418,0.741547050080787,0.77148894583544,0.7523687071467374
LBP09_S03,LBP09,-1490,161,3,160,-1490,1716540219.4,2024-05-24 08:43:39.400000+00:00,2024-05-24 17:43:39.400000+09:00,2024,5,24,8,43,39,400,,,,,,,,,0.093994,-0.01416,1.44751,42.84668,36.987305,-10.192871,,,,,,,,,,,0.0,1.0,1.0,3.0,0.0,0.0,0.0,5.0,0.0,0.01767904,-0.06691408,1.12464844,-4.370930986666665,14.189453120000001,-9.017740813333333,-36.613474070538174,24.799355891524296,-0.31044123090966935,10.796768629223093,35.4607083134397,-20.362503448209065,42.292595020903526,-1.3120873639652064,45.533690867540706,-1.3021231652489036,0.07631495999999999,0.05275408,0.32286156,0.45193059999999996,0.33592641009911917,0.7035531189850852,0.7705087930640141,0.7524139602760481
LBP09_S03,LBP09,-1489,162,3,161,-1489,1716540219.44,2024-05-24 08:43:39.440000+00:00,2024-05-24 17:43:39.440000+09:00,2024,5,24,8,43,39,440,,,,,,,,,0.073975,-0.058594,1.249756,1.464844,36.987305,-26.977539,,,,,,,,,,,0.0,1.0,1.0,3.0,0.0,0.0,0.0,5.0,0.0,0.0084668,-0.04921225333333334,1.1111360666666668,0.21402994666666775,15.035807293333335,-6.9002278,-5.330967851109085,25.89439178311053,-17.417762856677435,10.58352991517873,36.496483984764126,-21.05921396247616,43.44530977485347,-1.4002587948765897,45.64208350400631,-1.2673257196476213,0.0655082,-0.009381746666666663,0.13861993333333333,0.21350987999999999,0.15360607850959315,0.6767313718902905,0.765302648482955,0.7477448816788784
LBP09_S03,LBP09,-1488,163,3,162,-1488,1716540219.48,2024-05-24 08:43:39.480000+00:00,2024-05-24 17:43:39.480000+09:00,2024,5,24,8,43,39,480,,,,,,,,,0.12207,-0.119629,1.269287,1.708984,19.897461,-54.504395,,,,,,,,,,,0.0,1.0,1.0,3.0,0.0,0.0,0.0,5.0,0.0,0.013138026666666667,-0.058554706666666664,1.0959570266666667,-0.5883789066666655,13.884277346666668,-6.001790293333333,15.791694556755633,26.70055282285251,-34.73316228130197,11.215197697448955,37.564506097678226,-22.44854045372824,45.175322314932544,-1.349790581269359,46.47698111666732,-1.2608669293127155,0.10893197333333333,-0.061074293333333335,0.17332997333333333,0.34333624,0.21363408851630897,0.6657160714815786,0.7559949472533134,0.744702386172839
LBP09_S03,LBP09,-1487,164,3,163,-1487,1716540219.52,2024-05-24 08:43:39.520000+00:00,2024-05-24 17:43:39.520000+09:00,2024,5,24,8,43,39,520,,,,,,,,,0.186279,-0.042969,1.217041,23.681641,18.493652,-62.683105,,,,,,,,,,,0.0,1.0,1.0,3.0,0.0,0.0,0.0,5.0,0.0,0.019182946666666662,-0.055055360000000005,1.0897656266666667,4.725748693333335,12.731933586666665,-7.6708983733333325,26.577512016129006,27.404907067596657,-50.27004032388772,12.278298178094115,38.66070238038209,-24.459342066683746,47.367350876207084,-1.2351727031179907,47.91648054678883,-1.2654367369438249,0.16709605333333333,0.012086360000000004,0.12727537333333339,0.30645778666666673,0.21039532265420058,0.6611368104478238,0.7390217132647214,0.7428812586296473
LBP09_S03,LBP09,-1486,165,3,164,-1486,1716540219.56,2024-05-24 08:43:39.560000+00:00,2024-05-24 17:43:39.560000+09:00,2024,5,24,8,43,39,560,,,,,,,,,0.125977,-0.090088,1.239502,-20.690918,27.46582,-61.096191,,,,,,,,,,,0.0,1.0,1.0,3.0,0.0,0.0,0.0,5.0,0.0,0.02085937333333333,-0.06208659999999999,1.0941504,5.6665039066666685,11.638997386666667,-7.07112624,29.02911690600814,28.140850196067582,-62.567774354730275,13.43946285433444,39.7863363882248,-26.962053040872956,49.90515032728448,-1.2462420036788973,49.82079337037043,-1.2979003282253143,0.10511762666666667,-0.02800140000000001,0.14535160000000014,0.27847062666666683,0.18155131908238165,0.6560762905568361,0.7297957542113231,0.733280716956982
LBP09_S03,LBP09,-1485,166,3,165,-1485,1716540219.6,2024-05-24 08:43:39.600000+00:00,2024-05-24 17:43:39.600000+09:00,2024,5,24,8,43,39,600,,,,,,,,,0.15332,-0.092041,1.31665,4.211426,25.32959,-80.26123,,,,,,,,,,,0.0,1.0,1.0,3.0,0.0,0.0,0.0,5.0,0.0,0.02578125333333333,-0.071556,1.1211783999999998,5.189615893333335,9.884440093333334,-7.178548106666667,26.41872905355847,28.917758523147224,-70.87051376996445,14.496212016476779,40.94304672915069,-29.796873591671535,52.67187972846721,-1.2244155556829286,52.06251577091997,-1.3174002874162938,0.12753874666666667,-0.020485000000000003,0.1954716000000003,0.343495346666667,0.23429663576941154,0.6362262795955309,0.7210743180888979,0.7210806995323632
LBP09_S03,LBP09,-1484,167,3,166,-1484,1716540219.64,2024-05-24 08:43:39.640000+00:00,2024-05-24 17:43:39.640000+09:00,2024,5,24,8,43,39,640,,,,,,,,,0.037109,-0.051758,1.277344,14.343262,35.522461,-79.650879,,,,,,,,,,,0.0,1.0,1.0,3.0,0.0,0.0,0.0,5.0,0.0,0.024140639999999998,-0.07750977333333334,1.14548504,6.028645853333336,10.510253893333333,-6.944986906666666,22.28232292653868,29.591760194390968,-75.12058230680263,15.387504933538326,42.126717136926324,-32.80169688394364,55.56425940548822,-1.2682797852503007,54.537822158260795,-1.3129234517224402,0.012968360000000005,0.02575177333333334,0.13185895999999997,0.17057909333333332,0.13497450693809765,0.6215406900874929,0.7142694252173153,0.7102924823887921
LBP09_S03,LBP09,-1483,168,3,167,-1483,1716540219.68,2024-05-24 08:43:39.680000+00:00,2024-05-24 17:43:39.680000+09:00,2024,5,24,8,43,39,680,,,,,,,,,0.210449,-0.095215,1.169922,-7.446289,12.268066,-49.560547,,,,,,,,,,,0.0,1.0,1.0,3.0,0.0,0.0,0.0,5.0,0.0,0.018541679999999998,-0.07913086666666667,1.1514485866666666,9.158528666666669,13.573404933333334,-6.446126226666667,19.576127679807765,29.888109762400518,-75.80292628566339,16.170550040730635,43.32224152742234,-35.83381393537017,58.50098734837575,-1.3401370620647,57.16258008315545,-1.3024471011547643,0.19190732,-0.01608413333333332,0.0184734133333333,0.2264648666666666,0.19346417191524382,0.6143269414145334,0.7089339990434453,0.699993672000759
LBP09_S03,LBP09,-1482,169,3,168,-1482,1716540219.72,2024-05-24 08:43:39.720000+00:00,2024-05-24 17:43:39.720000+09:00,2024,5,24,8,43,39,720,,,,,,,,,0.155762,-0.25293,1.293457,19.65332,36.621094,-66.894531,,,,,,,,,,,0.0,1.0,1.0,3.0,0.0,0.0,0.0,5.0,0.0,0.006940106666666665,-0.06708333333333333,1.1352506666666666,8.963216160000002,15.406901026666668,-6.009114506666667,20.148082090372373,29.470456043836094,-73.70855283687774,16.97647332434553,44.50105976917579,-38.78215604884528,61.42149945181213,-1.467531426243084,59.865841393007074,-1.2992931730147066,0.14882189333333334,-0.18584666666666666,0.15820633333333345,0.49287489333333345,0.2858604263503554,0.5816320213890862,0.6992620059797988,0.6945038906145943
LBP09_S03,LBP09,-1481,170,3,169,-1481,1716540219.76,2024-05-24 08:43:39.760000+00:00,2024-05-24 17:43:39.760000+09:00,2024,5,24,8,43,39,760,,,,,,,,,0.112793,-0.064697,1.116211,35.339355,36.315918,-71.838379,,,,,,,,,,,0.0,1.0,1.0,3.0,0.0,0.0,0.0,5.0,0.0,0.014547533333333333,-0.05934245333333334,1.1210709866666666,5.4093424666666685,15.84716796,-6.239420493333333,24.568827592843853,28.03949548770098,-69.69541819241215,17.959226428059285,45.62263958868383,-41.56997277654177,64.28080346087522,-1.3300875980138798,62.58734161697578,-1.298474619032019,0.09824546666666667,-0.005354546666666661,-0.004859986666666538,0.10845999999999986,0.09851122961854043,0.5649170330396293,0.6836964632415,0.6888953194135866
LBP09_S03,LBP09,-1480,171,3,170,-1480,1716540219.8,2024-05-24 08:43:39.800000+00:00,2024-05-24 17:43:39.800000+09:00,2024,5,24,8,43,39,800,,,,,,,,,0.051025,-0.10083,1.149414,30.639648,39.001465,-51.635742,,,,,,,,,,,0.0,1.0,1.0,3.0,0.0,0.0,0.0,5.0,0.0,0.022376319999999998,-0.07158854666666667,1.1135970266666668,2.410481786666668,17.666015613333336,-5.856933506666667,32.27859371749008,25.43236910490584,-64.51133970520371,19.25037017675889,46.63993435288007,-44.15042636474992,67.04565889431183,-1.2673190070266727,65.27790710425126,-1.3004009430826158,0.028648680000000003,-0.029241453333333334,0.03581697333333311,0.09370710666666646,0.05439361210242069,0.533751190920499,0.6738360316433494,0.6871647923335837
LBP09_S03,LBP09,-1479,172,3,171,-1479,1716540219.84,2024-05-24 08:43:39.840000+00:00,2024-05-24 17:43:39.840000+09:00,2024,5,24,8,43,39,840,,,,,,,,,0.038086,-0.064697,1.088623,62.5,20.751953,-63.842773,,,,,,,,,,,0.0,1.0,1.0,3.0,0.0,0.0,0.0,5.0,0.0,0.019938159999999996,-0.07071616,1.10861656,5.754394546666668,17.141113266666668,-6.240234293333333,41.94820820248076,21.68894296605949,-58.71065752993672,20.92829850485812,47.50749207152245,-46.49885266594739,69.69288902379996,-1.2954952891998301,67.89960730376238,-1.3102696639414868,0.018147840000000005,0.006019159999999996,-0.019993560000000077,0.04416056000000008,0.027664360199448013,0.4986883795181108,0.6510544308496682,0.6810981294929341
LBP09_S03,LBP09,-1478,173,3,172,-1478,1716540219.88,2024-05-24 08:43:39.880000+00:00,2024-05-24 17:43:39.880000+09:00,2024,5,24,8,43,39,880,,,,,,,,,0.092773,-0.064209,1.097168,52.001953,11.657715,-57.922363,,,,,,,,,,,0.0,1.0,1.0,3.0,0.0,0.0,0.0,5.0,0.0,0.01666016,-0.06466146666666667,1.1170703466666667,5.847981786666669,13.164062493333333,-6.388346266666668,51.92836738328701,17.060197390229618,-52.65972595080246,23.0054332001896,48.18989996713164,-48.60524170397949,72.2079354134489,-1.318251299868781,70.42440597799786,-1.320574778650958,0.07611283999999999,0.0004524666666666649,-0.019902346666666793,0.09646765333333344,0.07867320091231973,0.44740504697493205,0.6326244173545268,0.672236188346178
LBP09_S03,LBP09,-1477,174,3,173,-1477,1716540219.92,2024-05-24 08:43:39.920000+00:00,2024-05-24 17:43:39.920000+09:00,2024,5,24,8,43,39,920,,,,,,,,,0.021729,-0.124756,1.041992,79.101562,7.873535,-55.969238,,,,,,,,,,,0.0,1.0,1.0,3.0,0.0,0.0,0.0,5.0,0.0,0.02257812,-0.06314778666666666,1.1323698266666666,4.567871106666669,11.997070306666666,-7.364094973333334,60.66860379121663,11.956928451400282,-46.59899209163153,25.432177351838266,48.668177105187645,-50.46920138764475,74.58235311589404,-1.2269871632911171,72.8319535307645,-1.312977341377112,-0.0008491200000000018,-0.06160821333333334,-0.0903778266666666,0.15283515999999994,0.10938210323398406,0.4184263229051411,0.6111961841608481,0.664283009954827
LBP09_S03,LBP09,-1476,175,3,174,-1476,1716540219.96,2024-05-24 08:43:39.960000+00:00,2024-05-24 17:43:39.960000+09:00,2024,5,24,8,43,39,960,,,,,,,,,0.043457,0.003174,0.958008,92.163086,3.662109,-53.100586,,,,,,,,,,,0.0,1.0,1.0,3.0,0.0,0.0,0.0,5.0,0.0,0.02073566666666667,-0.06589842666666668,1.1292904000000001,4.510091160000002,13.965657546666668,-7.772623626666666,67.01715467898687,6.860364861671419,-40.717041209901495,28.11286353899774,48.9425916996545,-52.09788303604081,76.81080520003931,-1.2655052441848658,75.10746955624793,-1.2840517343366564,0.022721333333333333,0.06907242666666667,-0.17128240000000017,0.26307616000000017,0.18607772479215923,0.4101980294279006,0.5917907988339404,0.6533793974535361
LBP09_S03,LBP09,-1475,176,3,175,-1475,1716540220.0,2024-05-24 08:43:40+00:00,2024-05-24 17:43:40+09:00,2024,5,24,8,43,40,0,8.0,43.0,39.0,40.564648,141.535736,-3.47,3.0,15.0,0.084229,-0.076416,0.953857,42.236328,4.211426,-27.46582,-285.0,169.0,243.0,281.0,0.0,1009.099976,24.26,-0.038648,34.588902,3.895313,0.0,1.0,1.0,3.0,0.0,0.0,0.0,5.0,0.0,0.015192039999999999,-0.06015624,1.1155013333333332,3.3276367333333354,15.192057279999998,-7.631022066666666,70.35657861399602,2.22622157539124,-35.19700942891126,30.92712668355758,49.03164056267015,-53.505763413197265,78.88888172357838,-1.3231027642716355,77.24008491581806,-1.2692879999428313,0.06903696,-0.016259759999999998,-0.16164433333333328,0.24694105333333327,0.17652017488116467,0.36194017146759777,0.5727921893090793,0.6463549355237738
LBP09_S03,LBP09,-1474,177,3,176,-1474,1716540220.04,2024-05-24 08:43:40.040000+00:00,2024-05-24 17:43:40.040000+09:00,2024,5,24,8,43,40,40,,,,,,,,,0.078613,0.020508,0.906738,64.63623,-5.493164,-27.709961,,,,,,,,,,,0.0,1.0,1.0,3.0,0.0,0.0,0.0,5.0,0.0,0.0118164,-0.05853189333333333,1.10018884,-0.15706379999999778,14.042154933333334,-6.897786386666667,70.58098667629012,-1.59164478075301,-30.21678089126182,33.75036615060919,48.967974771440026,-54.714434648847735,80.81224614784323,-1.3713309323450156,79.22156468859613,-1.259821151409945,0.0667966,0.07903989333333333,-0.1934508399999999,0.3392873333333332,0.21939078833535894,0.3268865633332564,0.5567657712176982,0.6431651842351576
LBP09_S03,LBP09,-1473,178,3,177,-1473,1716540220.08,2024-05-24 08:43:40.080000+00:00,2024-05-24 17:43:40.080000+09:00,2024,5,24,8,43,40,80,,,,,,,,,0.104248,-0.055176,0.951904,59.570312,-6.04248,-22.094727,,,,,,,,,,,0.0,1.0,1.0,3.0,0.0,0.0,0.0,5.0,0.0,0.01912108,-0.06047525333333334,1.08762048,-4.295247399999998,13.00374348,-6.031087173333334,67.96669601406046,-4.384169049128118,-25.9117085966189,36.46903399117161,48.792608009474904,-55.75090299271249,82.576462876042,-1.264162689326239,81.04534815731554,-1.2405404077002637,0.08512692,0.005299253333333337,-0.13571648000000003,0.22614265333333336,0.16029235021724414,0.2965880602022306,0.5328759455179457,0.6355884532628813
LBP09_S03,LBP09,-1472,179,3,178,-1472,1716540220.12,2024-05-24 08:43:40.120000+00:00,2024-05-24 17:43:40.120000+09:00,2024,5,24,8,43,40,120,,,,,,,,,0.08374,-0.039795,0.974121,58.959961,-4.943848,-15.74707,,,,,,,,,,,0.0,1.0,1.0,3.0,0.0,0.0,0.0,5.0,0.0,0.026904280000000003,-0.06508462666666667,1.07174808,-6.604003906666665,13.14290364,-5.160318946666667,63.00973735377346,-6.094271829650787,-22.32799284255297,38.98942348532255,48.548837136288874,-56.64402270641461,84.17665970664633,-1.1782753558385273,82.70605135162283,-1.2137634808498985,0.05683571999999999,0.025289626666666676,-0.09762708000000009,0.17975242666666674,0.1157623040293523,0.27197958962348023,0.5194227386085717,0.619685057138282
LBP09_S03,LBP09,-1471,180,3,179,-1471,1716540220.16,2024-05-24 08:43:40.160000+00:00,2024-05-24 17:43:40.160000+09:00,2024,5,24,8,43,40,160,,,,,,,,,0.12793,-0.003418,0.938965,52.67334,-3.967285,-13.916016,,,,,,,,,,,0.0,1.0,1.0,3.0,0.0,0.0,0.0,5.0,0.0,0.025996079999999998,-0.06363605333333333,1.0612630533333334,-7.082519533333331,13.13964844,-4.2179361333333345,56.291805656806304,-6.794515425127759,-19.397807214088317,41.2410957115948,48.27705651928376,-57.41993499497814,85.60695705657665,-1.1824502540756283,84.19961890072486,-1.2092069389009192,0.10193391999999998,0.060218053333333334,-0.12229805333333332,0.28445002666666663,0.1702161914829063,0.25033715534124995,0.5120402336599789,0.6104160820272592
LBP09_S03,LBP09,-1470,181,3,180,-1470,1716540220.2,2024-05-24 08:43:40.200000+00:00,2024-05-24 17:43:40.200000+09:00,2024,5,24,8,43,40,200,,,,,,,,,0.115723,-0.064209,1.000244,46.081543,-2.441406,-16.723633,,,,,,,,,,,0.0,1.0,1.0,3.0,0.0,0.0,0.0,5.0,0.0,0.026868466666666667,-0.0639746,1.0653516,-7.452799493333332,10.97249348,-3.4301757066666663,48.40311283668666,-6.6475298250919055,-16.955484648867174,43.17722022506227,48.01115532628008,-58.098154380932826,86.86045662209256,-1.1726505216978094,85.52410317709833,-1.2003644795766157,0.08885453333333335,-0.00023439999999999572,-0.06510760000000015,0.1541965333333335,0.11015526594314258,0.23736635856288626,0.4991848204457798,0.6014999221582126
LBP09_S03,LBP09,-1469,182,3,181,-1469,1716540220.24,2024-05-24 08:43:40.240000+00:00,2024-05-24 17:43:40.240000+09:00,2024,5,24,8,43,40,240,,,,,,,,,0.094238,0.034424,0.90918,63.476562,-2.380371,-23.620605,,,,,,,,,,,0.0,1.0,1.0,3.0,0.0,0.0,0.0,5.0,0.0,0.032571586666666666,-0.06450845333333334,1.0808854533333332,-7.557779959999998,10.039062493333335,-3.592122320000001,39.91638642795213,-5.86393339537702,-14.794609804841162,44.77387568218035,47.776597990465,-58.68993877312647,87.93072371099409,-1.1026878521030188,86.68079303383995,-1.1776027586456852,0.061666413333333336,0.09893245333333334,-0.1717054533333332,0.3323043199999999,0.2075406937454801,0.23217051321921578,0.48921422856420177,0.5914189558049983
LBP09_S03,LBP09,-1468,183,3,182,-1468,1716540220.28,2024-05-24 08:43:40.280000+00:00,2024-05-24 17:43:40.280000+09:00,2024,5,24,8,43,40,280,,,,,,,,,0.087158,-0.009521,0.897217,38.635254,-8.483887,-18.127441,,,,,,,,,,,0.0,1.0,1.0,3.0,0.0,0.0,0.0,5.0,0.0,0.03375973333333333,-0.05897785333333332,1.0871549866666665,-6.673177093333332,10.838216146666667,-4.29931632,31.383747161439334,-4.6688606528488625,-12.746380665426406,46.029225568637926,47.58984356435104,-59.19979399974353,88.81496735652176,-1.0504820313651286,87.67533792711467,-1.1537249961092366,0.053398266666666666,0.04945685333333332,-0.1899379866666665,0.29279310666666647,0.20340549157686494,0.2114996432784043,0.47043241246302103,0.5853757209597772
LBP09_S03,LBP09,-1467,184,3,183,-1467,1716540220.32,2024-05-24 08:43:40.320000+00:00,2024-05-24 17:43:40.320000+09:00,2024,5,24,8,43,40,320,,,,,,,,,0.105713,-0.011475,0.902588,13.48877,-9.82666,-15.380859,,,,,,,,,,,0.0,1.0,1.0,3.0,0.0,0.0,0.0,5.0,0.0,0.027750613333333334,-0.06774086666666666,1.0832227066666666,-6.921386733333332,12.024739586666668,-4.073079333333334,23.324175342088743,-3.2790928902440943,-10.748173749932379,46.96219258232148,47.458679848741276,-59.62972094974082,89.51802860691433,-1.1814217438013241,88.51864687407928,-1.1273714238693828,0.07796238666666666,0.056265866666666664,-0.1806347066666667,0.31486296,0.2046286361657788,0.18439950324982873,0.453761146928668,0.5768198185106655
