file_name,test_id,_program_index,program_index,session_id,index,_index,unixtime,datetime_utc,datetime_jst,rtc_year,rtc_month,rtc_day,rtc_hour,rtc_min,rtc_sec,rtc_msec,gps_hour,gps_min,gps_sec,latitude,longitude,altitude,fix_type,SIV,acc_x,acc_y,acc_z,gyro_x,gyro_y,gyro_z,mag_x,mag_y,mag_z,illuminance,atmopress,water_pressure,water_temp,depth,alt_wps,battery_level,behavior_class,camera_command,camera_recording,camera_count,play_audio,speaker_on,audio_file,prev_sd_write_time_ms,delay_occurred_counter,acc_x_ma,acc_y_ma,acc_z_ma,gyro_x_ma,gyro_y_ma,gyro_z_ma,gyro_x_lowpass,gyro_y_lowpass,gyro_z_lowpass,angle_x,angle_y,angle_z,combined_angle_change,gravity_adjusted_angle,smoothed_angle_change,smoothed_gravity_angle,acc_x_dy,acc_y_dy,acc_z_dy,ODBA,VeDBA,smoothed_VeDBA_1s,smoothed_VeDBA_2s,smoothed_VeDBA_3s
LBP09_S01,LBP09,0,1,1,0,0,1716537632.0,2024-05-24 08:00:32+00:00,2024-05-24 17:00:32+09:00,2024,5,24,8,0,32,0,8.0,0.0,31.0,40.542946,141.509293,-1.05,3.0,13.0,0.135498,-0.187988,1.851318,-4.333496,-84.289551,-35.522461,-305.0,113.0,251.0,183.0,0.0,1008.900024,23.610001,-0.04063,36.258327,3.944531,0.0,1.0,1.0,1.0,0.0,0.0,0.0,4.0,0.0,,,,,,,-4.208859497695408,-86.02452049367436,-35.79598881518576,-0.16835437990781632,-3.4409808197469745,-1.4318395526074303,3.7307984002773122,,7.185620956366281,,,,,,,,,
LBP09_S01,LBP09,1,2,1,1,1,1716537632.04,2024-05-24 08:00:32.040000+00:00,2024-05-24 17:00:32.040000+09:00,2024,5,24,8,0,32,40,,,,,,,,,-0.439209,0.148926,0.108398,-1.098633,176.574707,19.40918,,,,,,,,,,,0.0,1.0,1.0,1.0,0.0,0.0,0.0,4.0,0.0,,,,,,,-8.574025638401821,-58.16514211201254,-29.35335641952202,-0.5113154054438891,-5.767586504227475,-2.605973809388311,6.349613927067455,,7.474423252635719,,,,,,,,,
LBP09_S01,LBP09,2,3,1,2,2,1716537632.08,2024-05-24 08:00:32.080000+00:00,2024-05-24 17:00:32.080000+09:00,2024,5,24,8,0,32,80,,,,,,,,,-0.059326,-0.236328,-0.052002,-34.973145,-40.649414,16.540527,,,,,,,,,,,0.0,1.0,1.0,1.0,0.0,0.0,0.0,4.0,0.0,,,,,,,-11.697273341993453,-33.00338784293779,-23.115605826551715,-0.9792063391236272,-7.087722017944987,-3.5305980424503796,7.978707351168891,,7.62820315807624,,,,,,,,,
LBP09_S01,LBP09,3,4,1,3,3,1716537632.12,2024-05-24 08:00:32.120000+00:00,2024-05-24 17:00:32.120000+09:00,2024,5,24,8,0,32,120,,,,,,,,,0.233887,0.065186,0.456787,13.48877,-80.749512,-50.292969,,,,,,,,,,,0.0,1.0,1.0,1.0,0.0,0.0,0.0,4.0,0.0,,,,,,,-12.507323293241244,-12.603987800306207,-17.20350129027192,-1.4794992708532768,-7.591881529957235,-4.218738094061257,8.810410567257623,,7.686171883102775,,,,,,,,,
LBP09_S01,LBP09,4,5,1,4,4,1716537632.16,2024-05-24 08:00:32.160000+00:00,2024-05-24 17:00:32.160000+09:00,2024,5,24,8,0,32,160,,,,,,,,,0.669922,0.0271,0.939697,-27.404785,-12.695312,-66.467285,,,,,,,,,,,0.0,1.0,1.0,1.0,0.0,0.0,0.0,4.0,0.0,,,,,,,-10.497607142006618,1.91220727691236,-11.709039140463242,-1.8994035565335414,-7.5153932388807405,-4.687099659679786,9.05857453606013,,7.684450444702914,,,,,,,,,
LBP09_S01,LBP09,5,6,1,5,5,1716537632.2,2024-05-24 08:00:32.200000+00:00,2024-05-24 17:00:32.200000+09:00,2024,5,24,8,0,32,200,,,,,,,,,-0.077148,-0.297852,1.431396,-70.800781,90.026855,29.47998,,,,,,,,,,,0.0,1.0,1.0,1.0,0.0,0.0,0.0,4.0,0.0,,,,,,,-5.864566716080619,10.378884249103262,-6.745879739663727,-2.1339862251767663,-7.10023786891661,-4.956934849266335,8.918434733982904,,7.65713224538281,,,,,,,,,
LBP09_S01,LBP09,6,7,1,6,6,1716537632.24,2024-05-24 08:00:32.240000+00:00,2024-05-24 17:00:32.240000+09:00,2024,5,24,8,0,32,240,,,,,,,,,-0.624268,-0.058105,1.759766,10.620117,-65.307617,-27.770996,,,,,,,,,,,0.0,1.0,1.0,1.0,0.0,0.0,0.0,4.0,0.0,,,,,,,0.5363194231033592,13.3934348854085,-2.4741392355580016,-2.112533448252632,-6.56450047350027,-5.055900418688655,8.550882590719366,,8.024798620664068,,,,,,,,,
LBP09_S01,LBP09,7,8,1,7,7,1716537632.28,2024-05-24 08:00:32.280000+00:00,2024-05-24 17:00:32.280000+09:00,2024,5,24,8,0,32,280,,,,,,,,,0.057617,-0.344482,1.869873,5.92041,-66.955566,8.361816,,,,,,,,,,,0.0,1.0,1.0,1.0,0.0,0.0,0.0,4.0,0.0,,,,,,,7.430802074481217,12.045846487080366,0.9344917746722338,-1.8153013652733831,-6.0826666140170556,-5.018520747701765,8.091952958288513,,8.158522058933459,,,,,,,,,
LBP09_S01,LBP09,8,9,1,8,8,1716537632.32,2024-05-24 08:00:32.320000+00:00,2024-05-24 17:00:32.320000+09:00,2024,5,24,8,0,32,320,,,,,,,,,-0.628662,-0.019043,0.078613,54.626465,158.447266,55.664062,,,,,,,,,,,0.0,1.0,1.0,1.0,0.0,0.0,0.0,4.0,0.0,,,,,,,13.507599486397764,7.662131665356767,3.373333239741799,-1.2749973858174726,-5.776181347402785,-4.883587418112093,7.670678937504031,,8.180884313164338,,,,,,,,,
LBP09_S01,LBP09,9,10,1,9,9,1716537632.36,2024-05-24 08:00:32.360000+00:00,2024-05-24 17:00:32.360000+09:00,2024,5,24,8,0,32,360,,,,,,,,,0.029297,0.127686,0.056885,88.989258,-45.349121,-2.868652,,,,,,,,,,,0.0,1.0,1.0,1.0,0.0,0.0,0.0,4.0,0.0,,,,,,,17.810847655319613,1.6110820697264199,4.865352780131746,-0.562563479604688,-5.711738064613728,-4.688973306906823,7.4112684515018765,,8.185804935051967,,,,,,,,,
LBP09_S01,LBP09,10,11,1,10,10,1716537632.4,2024-05-24 08:00:32.400000+00:00,2024-05-24 17:00:32.400000+09:00,2024,5,24,8,0,32,400,,,,,,,,,0.327637,0.111572,0.614258,39.245605,-80.078125,-14.709473,,,,,,,,,,,0.0,1.0,1.0,1.0,0.0,0.0,0.0,4.0,0.0,,,,,,,19.982966458635595,-4.827178006303304,5.56782236378678,0.23675517874073582,-5.90482518486586,-4.466260412355352,7.407462153089902,,8.235209284086935,,,,,,,,,
LBP09_S01,LBP09,11,12,1,11,11,1716537632.44,2024-05-24 08:00:32.440000+00:00,2024-05-24 17:00:32.440000+09:00,2024,5,24,8,0,32,440,,,,,,,,,0.618896,0.04541,1.06665,-31.188965,54.80957,-19.775391,,,,,,,,,,,0.0,1.0,1.0,1.0,0.0,0.0,0.0,4.0,0.0,,,,,,,20.252981252033475,-10.556911529940779,5.709956483559391,1.0468744288220748,-6.3271016460634915,-4.237862153012976,7.686848309761333,,8.361967667804576,,,,,,,,,
LBP09_S01,LBP09,12,13,1,12,12,1716537632.48,2024-05-24 08:00:32.480000+00:00,2024-05-24 17:00:32.480000+09:00,2024,5,24,8,0,32,480,,,,,,,,,-0.411865,-0.336426,1.647705,-31.188965,76.477051,30.212402,,,,,,,,,,,0.0,1.0,1.0,1.0,0.0,0.0,0.0,4.0,0.0,,,,,,,19.19005458362553,-14.74476720470545,5.50225725470563,1.814476612167096,-6.91689233425171,-4.017771862824751,8.202329893477689,,8.575462661853347,,,,,,,,,
LBP09_S01,LBP09,13,14,1,13,13,1716537632.52,2024-05-24 08:00:32.520000+00:00,2024-05-24 17:00:32.520000+09:00,2024,5,24,8,0,32,520,,,,,,,,,-0.837158,-0.015625,1.860352,1.037598,-135.620117,-6.225586,,,,,,,,,,,0.0,1.0,1.0,1.0,0.0,0.0,0.0,4.0,0.0,,,,,,,17.364326293839508,-16.886313634496204,5.070759196977443,2.5090496639206763,-7.592344879631558,-3.814941494945653,8.859616786133934,,8.866689080223935,,,,,,,,,
LBP09_S01,LBP09,14,15,1,14,14,1716537632.56,2024-05-24 08:00:32.560000+00:00,2024-05-24 17:00:32.560000+09:00,2024,5,24,8,0,32,560,,,,,,,,,0.174561,0.119873,1.925049,-7.324219,-115.783691,-16.540527,,,,,,,,,,,0.0,1.0,1.0,1.0,0.0,0.0,0.0,4.0,0.0,,,,,,,15.095677299766473,-16.85263673448753,4.446684600618881,3.1128767559113353,-8.266450349011059,-3.637074110920898,9.552618026409785,,9.211809018850328,,,,,,,,,
LBP09_S01,LBP09,15,16,1,15,15,1716537632.6,2024-05-24 08:00:32.600000+00:00,2024-05-24 17:00:32.600000+09:00,2024,5,24,8,0,32,600,,,,,,,,,-0.503174,0.058838,0.189697,46.936035,164.18457,40.527344,,,,,,,,,,,0.0,1.0,1.0,1.0,0.0,0.0,0.0,4.0,0.0,,,,,,,12.40256608826947,-14.883115299781556,3.608517903715433,3.608979399442114,-8.861774961002322,-3.4927333947722805,10.18601857115933,,9.575508988393846,,,,,,,,,
LBP09_S01,LBP09,16,17,1,16,16,1716537632.64,2024-05-24 08:00:32.640000+00:00,2024-05-24 17:00:32.640000+09:00,2024,5,24,8,0,32,640,,,,,,,,,0.005127,0.230713,-0.01001,54.626465,-40.649414,0.183105,,,,,,,,,,,0.0,1.0,1.0,1.0,0.0,0.0,0.0,4.0,0.0,,,,,,,9.140741096994935,-11.496186937951732,2.550803675825898,3.9746090433219115,-9.321622438520391,-3.3907012477392446,10.685832531207087,,9.916579088941603,,,,,,,,,
LBP09_S01,LBP09,17,18,1,17,17,1716537632.68,2024-05-24 08:00:32.680000+00:00,2024-05-24 17:00:32.680000+09:00,2024,5,24,8,0,32,680,,,,,,,,,0.280762,-0.043457,0.513428,-0.061035,-73.303223,-5.737305,,,,,,,,,,,0.0,1.0,1.0,1.0,0.0,0.0,0.0,4.0,0.0,,,,,,,5.225133807122403,-7.3436902001873365,1.3453205517366402,4.183614395606807,-9.615370046527884,-3.336888425669779,11.004217141994387,,10.19624965133826,,,,,,,,,
LBP09_S01,LBP09,18,19,1,18,18,1716537632.72,2024-05-24 08:00:32.720000+00:00,2024-05-24 17:00:32.720000+09:00,2024,5,24,8,0,32,720,,,,,,,,,0.703857,-0.029053,1.173828,18.432617,10.742188,3.601074,,,,,,,,,,,0.0,1.0,1.0,1.0,0.0,0.0,0.0,4.0,0.0,,,,,,,0.8073902477929907,-3.069777492678638,0.16621324506106994,4.215910005518527,-9.73816114623503,-3.330239895867336,11.121878323767943,,10.386192025453948,,,,,,,,,
LBP09_S01,LBP09,19,20,1,19,19,1716537632.76,2024-05-24 08:00:32.760000+00:00,2024-05-24 17:00:32.760000+09:00,2024,5,24,8,0,32,760,,,,,,,,,-0.23999,-0.0979,1.49707,-52.856445,105.46875,14.892578,,,,,,,,,,,0.0,1.0,1.0,1.0,0.0,0.0,0.0,4.0,0.0,,,,,,,-3.666727429885319,0.787288833342955,-0.7308798926400445,4.069240908323114,-9.706669592901312,-3.359475091572938,11.048268146937067,,10.472642129895444,,,,,,,,,
LBP09_S01,LBP09,20,21,1,20,20,1716537632.8,2024-05-24 08:00:32.800000+00:00,2024-05-24 17:00:32.800000+09:00,2024,5,24,8,0,32,800,,,,,,,,,-0.659912,-0.013184,1.883057,-13.000488,-98.144531,-24.841309,,,,,,,,,,,0.0,1.0,1.0,1.0,0.0,0.0,0.0,4.0,0.0,,,,,,,-7.518256100599725,3.845892793693583,-1.065850244596115,3.768510664299125,-9.55283388115357,-3.4021091013567824,10.818163158567467,,10.456735548812688,,,,,,,,,
LBP09_S01,LBP09,21,22,1,21,21,1716537632.84,2024-05-24 08:00:32.840000+00:00,2024-05-24 17:00:32.840000+09:00,2024,5,24,8,0,32,840,,,,,,,,,0.189941,0.091553,1.762695,9.82666,-53.833008,-21.362305,,,,,,,,,,,0.0,1.0,1.0,1.0,0.0,0.0,0.0,4.0,0.0,,,,,,,-9.96458890971145,5.892706570908711,-0.6052572852436918,3.369927107910667,-9.31712561831722,-3.42631939276653,10.483553933727922,,10.35384132828998,,,,,,,,,
LBP09_S01,LBP09,22,23,1,22,22,1716537632.88,2024-05-24 08:00:32.880000+00:00,2024-05-24 17:00:32.880000+09:00,2024,5,24,8,0,32,880,,,,,,,,,-0.608154,0.158447,-0.115234,24.475098,153.137207,35.461426,,,,,,,,,,,0.0,1.0,1.0,1.0,0.0,0.0,0.0,4.0,0.0,,,,,,,-10.272719175422688,6.872339387924033,0.7769038983276502,2.95901834089376,-9.04223204280026,-3.3952432368334238,10.101753634634559,,10.193831108733168,,,,,,,,,
LBP09_S01,LBP09,23,24,1,23,23,1716537632.92,2024-05-24 08:00:32.920000+00:00,2024-05-24 17:00:32.920000+09:00,2024,5,24,8,0,32,920,,,,,,,,,-0.011475,-0.053223,0.145264,0.061035,-38.269043,14.343262,,,,,,,,,,,0.0,1.0,1.0,1.0,0.0,0.0,0.0,4.0,0.0,,,,,,,-7.922809124108911,6.871007159938198,3.063504171861574,2.6421059759294034,-8.767391756402732,-3.2727030699589608,9.724117830548911,,10.020897725300667,,,,,,,,,
LBP09_S01,LBP09,24,25,1,24,24,1716537632.96,2024-05-24 08:00:32.960000+00:00,2024-05-24 17:00:32.960000+09:00,2024,5,24,8,0,32,960,,,,,,,,,0.328613,-0.092773,0.704102,-37.536621,-58.227539,-7.69043,,,,,,,,,,,0.0,1.0,1.0,1.0,0.0,0.0,0.0,4.0,0.0,,,,,,,-2.7787567546611043,6.089046541645753,6.0819742887279515,2.5309557057429592,-8.523829894736902,-3.0294240984098426,9.39355221558222,,9.888819976780656,,,,,,,,,
LBP09_S01,LBP09,25,26,1,25,25,1716537633.0,2024-05-24 08:00:33+00:00,2024-05-24 17:00:33+09:00,2024,5,24,8,0,33,0,8.0,0.0,32.0,40.542965,141.509399,-1.299,3.0,13.0,0.542969,-0.11377,1.232178,-47.058105,67.138672,-19.836426,-301.0,121.0,250.0,186.0,0.0,1009.5,23.610001,-0.034684,31.249838,3.944531,0.0,1.0,1.0,1.0,0.0,0.0,0.0,4.0,0.0,,,,,,,4.769227038577677,4.788750348554807,9.509787337426808,2.721724787286066,-8.33227988079471,-2.64903260491277,9.15707636593223,,9.849990457599173,,,,,,,,,
LBP09_S01,LBP09,26,27,1,26,26,1716537633.04,2024-05-24 08:00:33.040000+00:00,2024-05-24 17:00:33.040000+09:00,2024,5,24,8,0,33,40,,,,,,,,,-0.397705,-0.429443,1.748779,16.845703,51.696777,24.169922,,,,,,,,,,,0.0,1.0,1.0,1.0,0.0,0.0,0.0,4.0,0.0,,,,,,,13.764183643916565,3.2249283845546364,12.906305754801798,3.272292133042729,-8.203282745412524,-2.1327803747206984,9.085730335638955,,9.943068023657023,,,,,,,,,
LBP09_S01,LBP09,27,28,1,27,27,1716537633.08,2024-05-24 08:00:33.080000+00:00,2024-05-24 17:00:33.080000+09:00,2024,5,24,8,0,33,80,,,,,,,,,-0.476318,-0.087158,1.914062,38.208008,-155.822754,-2.990723,,,,,,,,,,,0.0,1.0,1.0,1.0,0.0,0.0,0.0,4.0,0.0,,,,,,,22.81086857829774,1.5848986933480895,15.788153613097679,4.184726876174639,-8.139886797678601,-1.5012542301967913,9.274883307669402,,10.185883172114512,,,,,,,,,
LBP09_S01,LBP09,28,29,1,28,28,1716537633.12,2024-05-24 08:00:33.120000+00:00,2024-05-24 17:00:33.120000+09:00,2024,5,24,8,0,33,120,,,,,,,,,0.391602,-0.188477,1.450195,22.705078,51.391602,45.349121,,,,,,,,,,,0.0,1.0,1.0,1.0,0.0,0.0,0.0,4.0,0.0,,,,,,,30.372612255419817,-0.03299486106968885,17.746355450771382,5.399631366391432,-8.141206592121389,-0.7914000121659359,9.801100838567839,,10.575508447559997,,,,,,,,,
LBP09_S01,LBP09,29,30,1,29,29,1716537633.16,2024-05-24 08:00:33.160000+00:00,2024-05-24 17:00:33.160000+09:00,2024,5,24,8,0,33,160,,,,,,,,,-0.553223,0.091553,-0.067871,84.04541,90.270996,56.762695,,,,,,,,,,,0.0,1.0,1.0,1.0,0.0,0.0,0.0,4.0,0.0,,,,,,,35.15181072761138,-1.584206875686784,18.567805460592982,6.805703795495887,-8.20457486714886,-0.048687793742216656,10.659972955122228,,11.093220989200539,,,,,,,,,
LBP09_S01,LBP09,30,31,1,30,30,1716537633.2,2024-05-24 08:00:33.200000+00:00,2024-05-24 17:00:33.200000+09:00,2024,5,24,8,0,33,200,,,,,,,,,0.004639,0.055908,0.307861,68.42041,-42.96875,16.601562,,,,,,,,,,,0.0,1.0,1.0,1.0,0.0,0.0,0.0,4.0,0.0,,,,,,,36.42223808564807,-3.0022326427211663,18.303033849931424,8.26259331892181,-8.324664172857707,0.6834335602550403,11.748938819145962,,11.710874451276315,,,,,,,,,
LBP09_S01,LBP09,31,32,1,31,31,1716537633.24,2024-05-24 08:00:33.240000+00:00,2024-05-24 17:00:33.240000+09:00,2024,5,24,8,0,33,240,,,,,,,,,0.405273,-0.054932,0.823486,28.320312,-57.006836,-24.780273,,,,,,,,,,,0.0,1.0,1.0,1.0,0.0,0.0,0.0,4.0,0.0,,,,,,,34.194949709461305,-4.136853086880827,17.24027884183243,9.630391307300263,-8.49013829633294,1.3730447139283375,12.911705418302814,,12.395507232776476,,,,,,,,,
LBP09_S01,LBP09,32,33,1,32,32,1716537633.28,2024-05-24 08:00:33.280000+00:00,2024-05-24 17:00:33.280000+09:00,2024,5,24,8,0,33,280,,,,,,,,,0.266846,0.030518,1.386475,-16.113281,90.515137,14.343262,,,,,,,,,,,0.0,1.0,1.0,1.0,0.0,0.0,0.0,4.0,0.0,,,,,,,29.165729138729727,-4.7557971803263435,15.796888686113858,10.797020472849452,-8.680370183545994,2.0049202613728916,13.998006389089413,,13.110645599717222,,,,,,,,,
LBP09_S01,LBP09,33,34,1,33,33,1716537633.32,2024-05-24 08:00:33.320000+00:00,2024-05-24 17:00:33.320000+09:00,2024,5,24,8,0,33,320,,,,,,,,,-0.61377,-0.349854,1.872803,33.996582,-7.324219,7.324219,,,,,,,,,,,0.0,1.0,1.0,1.0,0.0,0.0,0.0,4.0,0.0,,,,,,,22.480306882906522,-4.614033185544821,14.385612615989661,11.696232748165713,-8.864931510967788,2.580344766012478,14.901243246954317,,13.815976523032045,-2.901107781146657,,,,,,,,
LBP09_S01,LBP09,34,35,1,34,34,1716537633.36,2024-05-24 08:00:33.360000+00:00,2024-05-24 17:00:33.360000+09:00,2024,5,24,8,0,33,360,,,,,,,,,-0.214111,-0.131104,2.057617,-7.141113,-171.264648,23.254395,,,,,,,,,,,0.0,1.0,1.0,1.0,0.0,0.0,0.0,4.0,0.0,,,,,,,15.41708349949971,-3.555372547750991,13.31736861419093,12.312916088145702,-9.007146412877827,3.113039510580115,15.570086836339996,,14.46974180727384,-2.9114421297438593,,,,,,,,
LBP09_S01,LBP09,35,36,1,35,35,1716537633.4,2024-05-24 08:00:33.400000+00:00,2024-05-24 17:00:33.400000+09:00,2024,5,24,8,0,33,400,,,,,,,,,0.185303,-0.198486,1.052979,14.465332,125.549316,27.34375,,,,,,,,,,,0.0,1.0,1.0,1.0,0.0,0.0,0.0,4.0,0.0,,,,,,,9.093047992349277,-1.5934735973183936,12.765240566563213,12.676638007839673,-9.070885356770562,3.623649133242644,16.003404180933824,,15.035975492679139,-2.899170833546022,,,,,,,,
LBP09_S01,LBP09,36,37,1,36,36,1716537633.44,2024-05-24 08:00:33.440000+00:00,2024-05-24 17:00:33.440000+09:00,2024,5,24,8,0,33,440,,,,,,,,,-0.249512,0.21875,-0.212891,29.23584,28.076172,21.30127,,,,,,,,,,,0.0,1.0,1.0,1.0,0.0,0.0,0.0,4.0,0.0,,,,,,,4.2582045262269625,1.0725833718276296,12.773633828182144,12.846966188888752,-9.027982021897456,4.13459448636993,16.237114005046436,,15.49254084226838,-2.8919345364710605,,,,,,,,
LBP09_S01,LBP09,37,38,1,37,37,1716537633.48,2024-05-24 08:00:33.480000+00:00,2024-05-24 17:00:33.480000+09:00,2024,5,24,8,0,33,480,,,,,,,,,0.03833,-0.006104,0.37207,-2.380371,-53.955078,-5.92041,,,,,,,,,,,0.0,1.0,1.0,1.0,0.0,0.0,0.0,4.0,0.0,-0.14438473333333335,-0.03473305333333335,0.7068326666666667,3.1811523333333387,5.1196289199999985,6.2329101200000006,1.1964948125344197,4.110735982349388,13.283032632893761,12.89482598139013,-8.86355258260348,4.665915791685681,16.328192540817632,-2.901107781146657,15.834514183586506,-2.883771118127932,0.18271473333333335,0.02862905333333335,-0.33476266666666665,0.5461064533333333,0.38245305524418516,0.38245305524418516,0.38245305524418516,0.38245305524418516
LBP09_S01,LBP09,38,39,1,38,38,1716537633.52,2024-05-24 08:00:33.520000+00:00,2024-05-24 17:00:33.520000+09:00,2024,5,24,8,0,33,520,,,,,,,,,0.876465,0.051025,0.920166,-20.324707,-10.620117,-25.57373,,,,,,,,,,,0.0,1.0,1.0,1.0,0.0,0.0,0.0,4.0,0.0,-0.14780596000000001,-0.032314440000000014,0.6838574133333333,2.943522120000005,5.547688813333332,7.259928346666667,-0.2726968130452971,7.135673416062101,14.155599078452859,12.883918108868317,-8.578125645960997,5.232139754823795,16.33875368098578,-2.9217764783410622,16.07215435019522,-2.8854134669407707,1.02427096,0.08333944000000001,0.23630858666666676,1.3439189866666668,1.054475324458203,0.7184641898511941,0.7184641898511941,0.7184641898511941
LBP09_S01,LBP09,39,40,1,39,39,1716537633.56,2024-05-24 08:00:33.560000+00:00,2024-05-24 17:00:33.560000+09:00,2024,5,24,8,0,33,560,,,,,,,,,-0.204102,-0.416016,1.634766,-74.523926,123.840332,77.575684,,,,,,,,,,,0.0,1.0,1.0,1.0,0.0,0.0,0.0,4.0,0.0,-0.13709306666666668,-0.036829413333333345,0.6910384133333333,2.674153626666672,2.368977879999999,6.872558546666667,-0.6958849007995032,9.775143853716397,15.205929336648571,12.856082712836336,-8.18711989181234,5.8403769282897375,16.322309809175223,-2.8746282411503463,16.226139152912072,-2.884364469174435,-0.06700893333333333,-0.37918658666666666,0.9437275866666667,1.3899231066666666,1.0192617046127455,0.8187300281050446,0.8187300281050446,0.8187300281050446
LBP09_S01,LBP09,40,41,1,40,40,1716537633.6,2024-05-24 08:00:33.600000+00:00,2024-05-24 17:00:33.600000+09:00,2024,5,24,8,0,33,600,,,,,,,,,-0.676025,-0.17627,1.893799,61.279297,-48.217773,15.075684,,,,,,,,,,,0.0,1.0,1.0,1.0,0.0,0.0,0.0,4.0,0.0,-0.13096025333333333,-0.035872386666666686,0.7061263066666666,3.142903626666672,3.9518229333333323,6.76676428,-0.7898103238539869,11.710290351912388,16.240217542260844,12.824490299882177,-7.718708277735845,6.489985629980171,16.314592315038368,-2.8702256452461774,16.3225785100341,-2.8885274656935698,-0.5450647466666667,-0.14039761333333334,1.1876726933333335,1.8731350533333335,1.3142958169218024,0.942621475309234,0.942621475309234,0.942621475309234
LBP09_S01,LBP09,41,42,1,41,41,1716537633.64,2024-05-24 08:00:33.640000+00:00,2024-05-24 17:00:33.640000+09:00,2024,5,24,8,0,33,640,,,,,,,,,-0.115723,-0.152344,2.157959,47.546387,-131.835938,-8.300781,,,,,,,,,,,0.0,1.0,1.0,1.0,0.0,0.0,0.0,4.0,0.0,-0.1390885066666667,-0.04088866666666668,0.7199186266666667,2.6025390400000052,6.066894546666666,7.838541626666668,-1.1775068368514516,12.700866380399898,17.09009329082369,12.777390026408119,-7.21067362251985,7.173589361613119,16.331438831484082,-2.851117444755418,16.388912676699604,-2.898667742173389,0.02336550666666669,-0.11145533333333332,1.4380403733333331,1.572861213333333,1.4425423229725034,1.042605644841888,1.042605644841888,1.042605644841888
LBP09_S01,LBP09,42,43,1,42,42,1716537633.68,2024-05-24 08:00:33.680000+00:00,2024-05-24 17:00:33.680000+09:00,2024,5,24,8,0,33,680,,,,,,,,,0.159424,0.062012,1.091309,16.662598,171.691895,25.146484,,,,,,,,,,,0.0,1.0,1.0,1.0,0.0,0.0,0.0,4.0,0.0,-0.15803708,-0.03916341333333335,0.73069988,4.630533826666672,4.043782559999999,8.323567666666667,-2.139104135572404,12.621733719734411,17.623118603063897,12.691825860985222,-6.7058042737304735,7.8785141057356745,16.374408055176563,-2.8936252110049625,16.450901752892626,-2.9006256358255675,0.31746108,0.10117541333333335,0.3606091200000001,0.7792456133333334,0.4909754973571611,0.9506672869277667,0.9506672869277667,0.9506672869277667
LBP09_S01,LBP09,43,44,1,43,43,1716537633.72,2024-05-24 08:00:33.720000+00:00,2024-05-24 17:00:33.720000+09:00,2024,5,24,8,0,33,720,,,,,,,,,-0.223633,0.048584,-0.131836,-36.499023,13.977051,26.000977,,,,,,,,,,,0.0,1.0,1.0,1.0,0.0,0.0,0.0,4.0,0.0,-0.15176756,-0.04015950666666668,0.73465496,4.549153613333338,2.152506519999999,8.035481733333334,-3.483564002662533,11.529104725526537,17.730410347145742,12.552483300878722,-6.244640084709412,8.587730519621504,16.441091274122815,-2.8780704825764203,16.530795757922284,-2.906595796131132,-0.07186544,0.08874350666666668,-0.8664909599999999,1.0270999066666666,0.873983200755948,0.9397124174746497,0.9397124174746497,0.9397124174746497
LBP09_S01,LBP09,44,45,1,44,44,1716537633.76,2024-05-24 08:00:33.760000+00:00,2024-05-24 17:00:33.760000+09:00,2024,5,24,8,0,33,760,,,,,,,,,0.17749,-0.189697,0.663818,-32.531738,-48.461914,13.73291,,,,,,,,,,,0.0,1.0,1.0,1.0,0.0,0.0,0.0,4.0,0.0,-0.15604814666666667,-0.034749360000000014,0.70875652,5.655924453333339,5.013834639999999,9.542643186666668,-4.598282359924697,9.729270440196544,17.310836209483256,12.368552006481734,-5.855469267101551,9.280163968000833,16.534480407560288,-2.917668441327514,16.64691327330516,-2.9095072958271695,0.3335381466666667,-0.15494764,-0.04493851999999998,0.5334243066666666,0.3705076746886559,0.8685618246264005,0.8685618246264005,0.8685618246264005
LBP09_S01,LBP09,45,46,1,45,45,1716537633.8,2024-05-24 08:00:33.800000+00:00,2024-05-24 17:00:33.800000+09:00,2024,5,24,8,0,33,800,,,,,,,,,0.602783,0.104248,1.258545,-3.051758,43.212891,-43.395996,,,,,,,,,,,0.0,1.0,1.0,1.0,0.0,0.0,0.0,4.0,0.0,-0.16351558666666666,-0.02597006666666668,0.68014324,3.785807266666672,5.695800786666665,9.931640586666669,-4.647327075590291,7.786038100382859,16.273712795302522,12.182658923458122,-5.544027743086237,9.931112479812935,16.666745847588842,-2.9797899540119466,16.81441699106958,-2.9188479709356794,0.7662985866666666,0.1302180666666667,0.57840176,1.4749184133333333,0.9688750511726643,0.8797077386870966,0.8797077386870966,0.8797077386870966
LBP09_S01,LBP09,46,47,1,46,46,1716537633.84,2024-05-24 08:00:33.840000+00:00,2024-05-24 17:00:33.840000+09:00,2024,5,24,8,0,33,840,,,,,,,,,-0.193848,-0.585693,1.731934,-1.037598,94.543457,92.590332,,,,,,,,,,,0.0,1.0,1.0,1.0,0.0,0.0,0.0,4.0,0.0,-0.15546545333333334,-0.034485693333333345,0.6876367333333333,4.641113253333338,2.1110025999999986,10.22867836,-2.8408152567286944,6.424574469124062,14.572396328601885,12.069026313188974,-5.287044764321275,10.51400833295701,16.857004766976672,-2.918246678695173,17.045725856059313,-2.9375994591563845,-0.038382546666666656,-0.5512073066666667,1.0442972666666668,1.6338871200000002,1.181464978735642,0.909883462691951,0.909883462691951,0.909883462691951
LBP09_S01,LBP09,47,48,1,47,47,1716537633.88,2024-05-24 08:00:33.880000+00:00,2024-05-24 17:00:33.880000+09:00,2024,5,24,8,0,33,880,,,,,,,,,-0.708252,0.267822,1.909668,89.599609,-145.202637,-13.73291,,,,,,,,,,,0.0,1.0,1.0,1.0,0.0,0.0,0.0,4.0,0.0,-0.15341793333333334,-0.02740562666666668,0.69613608,2.961425746666672,3.840332026666665,10.300292933333333,1.2852933744026944,6.3451358738734704,12.263579688779314,12.120438048165083,-5.033239329366336,11.004551520508183,17.12713259111422,-2.9608093842022996,17.347822489466004,-2.9593118525564357,-0.5548340666666667,0.2952276266666667,1.2135319199999999,2.0635936133333335,1.3666235450701083,0.9514052883626927,0.9514052883626927,0.9514052883626927
LBP09_S01,LBP09,48,49,1,48,48,1716537633.92,2024-05-24 08:00:33.920000+00:00,2024-05-24 17:00:33.920000+09:00,2024,5,24,8,0,33,920,,,,,,,,,0.43457,-0.089355,1.833984,-26.550293,-16.540527,-1.586914,,,,,,,,,,,0.0,1.0,1.0,1.0,0.0,0.0,0.0,4.0,0.0,-0.17047848,-0.03202801333333335,0.7077506666666666,4.769693986666672,5.543619786666666,12.097167933333333,7.6016771732629556,8.007681463152815,9.56525567860884,12.4245051350956,-4.712932070840223,11.387161747652538,17.49992883481451,-2.9508914753014333,17.714816961139825,-2.9761779737319567,0.60504848,-0.057326986666666656,1.1262333333333334,1.7886088,1.279754495073841,0.9787677222552884,0.9787677222552884,0.9787677222552884
LBP09_S01,LBP09,49,50,1,49,49,1716537633.96,2024-05-24 08:00:33.960000+00:00,2024-05-24 17:00:33.960000+09:00,2024,5,24,8,0,33,960,,,,,,,,,-0.877197,0.330078,-0.272461,-22.033691,143.310547,36.315918,,,,,,,,,,,0.0,1.0,1.0,1.0,0.0,0.0,0.0,4.0,0.0,-0.19136714666666668,-0.032447933333333345,0.71655276,3.8061523200000056,3.175455733333332,12.754720026666668,15.15471231059671,11.468094290365062,6.876304716693335,13.030693627519469,-4.2542082992256205,11.66221393632027,17.997346986819455,-2.9680349922354496,18.11811090686154,-2.997499617232164,-0.6858298533333334,0.36252593333333333,-0.98901376,2.0373695466666666,1.256954994234783,1.000166743176788,1.000166743176788,1.000166743176788
LBP09_S01,LBP09,50,51,1,50,50,1716537634.0,2024-05-24 08:00:34+00:00,2024-05-24 17:00:34+09:00,2024,5,24,8,0,34,0,8.0,0.0,33.0,40.542988,141.509491,-1.434,3.0,13.0,-0.008301,-0.334961,0.429443,-35.217285,-28.503418,13.366699,-300.0,114.0,245.0,192.0,0.0,1008.5,23.65,-0.044594,39.599003,3.944531,0.0,1.0,1.0,1.0,0.0,0.0,0.0,5.0,0.0,-0.18502600000000002,-0.015052093333333346,0.71001956,6.518554666666672,2.739257813333332,11.518554666666667,22.049729510934455,16.319110622075545,4.731418547346818,13.912682807956847,-3.601443874342599,11.851470678214143,18.62768096493569,-3.057740527453229,18.5007275454978,-3.005381882795867,0.17672500000000002,-0.31990890666666666,-0.28057656,0.7772104666666666,0.4607565954070496,0.961637446907521,0.961637446907521,0.961637446907521
LBP09_S01,LBP09,51,52,1,51,51,1716537634.04,2024-05-24 08:00:34.040000+00:00,2024-05-24 17:00:34.040000+09:00,2024,5,24,8,0,34,40,,,,,,,,,0.352295,0.020508,0.844727,27.954102,-17.211914,-19.53125,,,,,,,,,,,0.0,1.0,1.0,1.0,0.0,0.0,0.0,5.0,0.0,-0.18557938666666668,-0.013157560000000013,0.6794564,5.634765600000005,6.822102866666666,11.813964826666668,25.57635675101157,21.728137898512898,3.6859193188708623,14.93573707799731,-2.732318358402083,11.998907450968979,19.352405165550962,-3.068241378755929,18.78381471867906,-3.008263554153051,0.5378743866666666,0.03366556000000001,0.16527060000000005,0.7368105466666667,0.5636990304998905,0.9351082191470123,0.9351082191470123,0.9351082191470123
LBP09_S01,LBP09,52,53,1,52,52,1716537634.08,2024-05-24 08:00:34.080000+00:00,2024-05-24 17:00:34.080000+09:00,2024,5,24,8,0,34,80,,,,,,,,,0.079102,-0.130615,1.628174,-49.072266,117.492676,23.986816,,,,,,,,,,,0.0,1.0,1.0,1.0,0.0,0.0,0.0,5.0,0.0,-0.20356768,-0.015458986666666681,0.6576758,6.749674453333339,8.016764319999998,12.147623680000002,22.68214530432889,26.53382932283243,4.147539844684489,15.843022890170465,-1.6709651854887857,12.164809044756359,20.044352771914763,-3.062286422760173,18.891886625393745,-3.017109661143257,0.28266968000000003,-0.11515601333333333,0.9704982,1.3683238933333333,1.0173641489660274,0.9402492147607007,0.9402492147607007,0.9402492147607007
LBP09_S01,LBP09,53,54,1,53,53,1716537634.12,2024-05-24 08:00:34.120000+00:00,2024-05-24 17:00:34.120000+09:00,2024,5,24,8,0,34,120,,,,,,,,,-0.845459,0.037842,1.840576,34.484863,-59.326172,-9.70459,,,,,,,,,,,0.0,1.0,1.0,1.0,0.0,0.0,0.0,5.0,0.0,-0.19300778666666668,-0.009339200000000015,0.6704004133333332,5.944010386666672,5.680338546666666,11.353352840000001,10.792686624930528,29.389534205774094,6.195823586908818,16.274730355167687,-0.495383817257822,12.41264198823271,20.47403073134001,-3.091286917578494,18.798758810288202,-3.0215103546479036,-0.6524512133333333,0.04718120000000001,1.1701755866666668,1.8698080000000001,1.340607905035718,0.9637997259533487,0.9637997259533487,0.9637997259533487
LBP09_S01,LBP09,54,55,1,54,54,1716537634.16,2024-05-24 08:00:34.160000+00:00,2024-05-24 17:00:34.160000+09:00,2024,5,24,8,0,34,160,,,,,,,,,0.290771,-0.127197,2.094482,32.653809,-89.294434,-19.775391,,,,,,,,,,,0.0,1.0,1.0,1.0,0.0,0.0,0.0,5.0,0.0,-0.19862953333333336,-0.02792318666666668,0.69252932,4.009602826666672,7.992350266666666,13.829752586666666,-11.174326704621679,28.978992575450917,9.446986291863102,15.82775728698282,0.6637758857602147,12.790521439907234,20.360646793922857,-2.9964910969645433,18.575437643857253,-3.029587907891831,0.48940053333333333,-0.09927381333333332,1.4019526800000002,1.9906270266666668,1.4882336809116623,0.992934945673255,0.992934945673255,0.992934945673255
LBP09_S01,LBP09,55,56,1,55,55,1716537634.2,2024-05-24 08:00:34.200000+00:00,2024-05-24 17:00:34.200000+09:00,2024,5,24,8,0,34,200,,,,,,,,,-0.615967,0.408447,0.022217,2.319336,204.89502,46.875,,,,,,,,,,,0.0,1.0,1.0,1.0,0.0,0.0,0.0,5.0,0.0,-0.21057289333333334,-0.02702474666666668,0.7094791866666668,4.025878866666672,9.133300786666666,14.256998680000002,-41.89013588382993,24.328732657559268,13.02271072664888,14.152151851629622,1.6369251920625856,13.311429868973189,19.49761757940145,-3.0086066675837837,18.368694831970338,-3.0340747898788067,-0.4053941066666667,0.43547174666666666,-0.6872621866666667,1.52812804,0.9090155868228171,0.9885181373127058,0.9885181373127058,0.9885181373127058
LBP09_S01,LBP09,56,57,1,56,56,1716537634.24,2024-05-24 08:00:34.240000+00:00,2024-05-24 17:00:34.240000+09:00,2024,5,24,8,0,34,240,,,,,,,,,0.524414,0.19458,0.194092,-0.549316,-44.677734,-30.761719,,,,,,,,,,,0.0,1.0,1.0,1.0,0.0,0.0,0.0,5.0,0.0,-0.22187822666666668,-0.028802093333333348,0.7210514533333333,4.877929653333338,6.425781253333332,13.50341796,-77.15262439875521,15.18622524227634,15.663789917144685,11.066046875679413,2.244374201753639,13.937981465658977,17.937723834123563,-3.0067077485972353,18.280055450784136,-3.0275320607322977,0.7462922266666667,0.22338209333333336,-0.5269594533333333,1.4966337733333335,0.9404987573954785,0.9861171683168444,0.9861171683168444,0.9861171683168444
LBP09_S01,LBP09,57,58,1,57,57,1716537634.28,2024-05-24 08:00:34.280000+00:00,2024-05-24 17:00:34.280000+09:00,2024,5,24,8,0,34,280,,,,,,,,,0.181396,-0.758789,0.800781,-166.625977,57.556152,-0.427246,,,,,,,,,,,0.0,1.0,1.0,1.0,0.0,0.0,0.0,5.0,0.0,-0.21218096,-0.02802736000000001,0.7178906533333334,5.9415689733333386,6.901041666666665,13.574218746666666,-110.21470026321758,2.349279792296684,15.998747861407725,6.65745886515071,2.3383453934455067,14.577931380115286,16.195854440058778,-3.0048163192487656,18.288889344990725,-3.0201837677104577,0.39357696,-0.73076164,0.08289034666666661,1.2072289466666666,0.8341380026763265,0.9788800651911054,0.9788800651911054,0.9788800651911054
LBP09_S01,LBP09,58,59,1,58,58,1716537634.32,2024-05-24 08:00:34.320000+00:00,2024-05-24 17:00:34.320000+09:00,2024,5,24,8,0,34,320,,,,,,,,,-0.763184,0.375488,-0.31543,985.534668,-87.036133,-36.132812,,,,,,,,,,,0.0,1.0,1.0,1.0,0.0,0.0,0.0,5.0,0.0,-0.21385088000000002,-0.02255534666666668,0.6894433866666666,5.8390299066666715,10.37516276,14.182942706666665,-133.09314155860093,-12.210411686777562,12.937105281856605,1.3337332028066724,1.8499289259744043,15.09541559138955,15.266717170505009,-3.0316670077407046,18.28285877633312,-3.013903278851086,-0.54933312,0.3980433466666667,-1.0048733866666666,1.9522498533333332,1.2124256289708952,0.9894957726356413,0.9894957726356413,0.9894957726356413
LBP09_S01,LBP09,59,60,1,59,59,1716537634.36,2024-05-24 08:00:34.360000+00:00,2024-05-24 17:00:34.360000+09:00,2024,5,24,8,0,34,360,,,,,,,,,-0.45459,4.095459,-2.638184,-1386.413574,90.332031,197.753906,,,,,,,,,,,0.0,1.0,1.0,1.0,0.0,0.0,0.0,5.0,0.0,-0.2174609066666667,-0.026790373333333346,0.6708561466666667,5.6323241733333385,10.600585933333331,14.630533853333336,-138.74450875822265,-25.550192291683175,6.103371474254811,-4.216047147522234,0.8279212343070772,15.339550450359742,15.929918867950292,-3.0129038121052107,18.126980164830833,-3.005319754879254,-0.2371290933333333,4.122249373333333,-3.309040146666667,7.668418613333333,5.291400267897327,1.176535098516584,1.176535098516584,1.176535098516584
LBP09_S01,LBP09,60,61,1,60,60,1716537634.4,2024-05-24 08:00:34.400000+00:00,2024-05-24 17:00:34.400000+09:00,2024,5,24,8,0,34,400,,,,,,,,,0.641602,-8.0,2.548828,-1147.216797,249.87793,-41.07666,,,,,,,,,,,0.0,1.0,1.0,1.0,0.0,0.0,0.0,5.0,0.0,-0.2019889066666667,-0.029160160000000015,0.6836198133333333,5.873209586666672,8.027343746666666,14.060872386666667,-123.4972283568902,-34.32712961685463,-3.8302823938643944,-9.155936281797842,-0.545163950367108,15.186339154605166,17.741287153073646,-2.992313235988138,17.727817003648944,-3.0106456721863784,0.8435909066666667,-7.97083984,1.8652081866666665,10.679638933333333,8.229516082513618,1.4704093061831272,1.4704093061831272,1.4704093061831272
LBP09_S01,LBP09,61,62,1,61,61,1716537634.44,2024-05-24 08:00:34.440000+00:00,2024-05-24 17:00:34.440000+09:00,2024,5,24,8,0,34,440,,,,,,,,,-0.06665,2.258789,-7.178223,1813.415527,-538.879395,-276.611328,,,,,,,,,,,0.0,1.0,1.0,1.0,0.0,0.0,0.0,5.0,0.0,-0.19968746666666665,-0.028424480000000016,0.70018556,4.982096306666672,9.798990879999998,14.661458319999998,-88.68748174755666,-35.67658993633049,-15.073462081268769,-12.703435551700109,-1.9722275478203275,14.583400671354415,19.44074410761687,-2.9947584485375307,17.08253932465223,-3.015624710380372,0.13303746666666666,2.28721348,-7.8784085600000004,10.298659506666667,8.204777017622847,1.739784014640716,1.739784014640716,1.739784014640716
LBP09_S01,LBP09,62,63,1,62,62,1716537634.48,2024-05-24 08:00:34.480000+00:00,2024-05-24 17:00:34.480000+09:00,2024,5,24,8,0,34,480,,,,,,,,,-3.161865,-0.418457,-5.588623,-2000.0,160.27832,601.68457,,,,,,,,,,,0.0,1.0,1.0,1.0,0.0,0.0,0.0,5.0,0.0,-0.21087886666666666,-0.02896160000000001,0.7145833466666667,5.340983026666671,10.437825519999999,14.794921866666668,-40.5898668640186,-28.185561784533103,-25.016805150221913,-14.327030226260852,-3.0996500192016514,13.582728465345538,19.984047085338766,-2.9994815341664576,16.32019655789301,-3.0227602447515207,-2.9509861333333336,-0.3894954,-6.303206346666666,9.64368788,6.970684046376347,2.0033132542860024,1.9409724773997787,1.9409724773997787
LBP09_S01,LBP09,63,64,1,63,63,1716537634.52,2024-05-24 08:00:34.520000+00:00,2024-05-24 17:00:34.520000+09:00,2024,5,24,8,0,34,520,,,,,,,,,-4.295166,-2.831787,-0.989746,1297.424316,-251.098633,-128.540039,,,,,,,,,,,0.0,1.0,1.0,1.0,0.0,0.0,0.0,5.0,0.0,-0.2213834266666667,-0.02902994666666668,0.7255566533333333,5.363769480000005,7.418619786666665,14.697265613333336,11.433745173681551,-12.591509518012478,-30.90719396717526,-13.86968041931359,-3.6033103999221505,12.346440706658527,18.91524461631709,-3.005451677860169,15.697459730031166,-3.0276208590312996,-4.073782573333333,-2.802757053333333,-1.7153026533333333,8.59184228,5.233871869594868,2.1704891160914688,2.0629317141477452,2.0629317141477452
LBP09_S01,LBP09,64,65,1,64,64,1716537634.56,2024-05-24 08:00:34.560000+00:00,2024-05-24 17:00:34.560000+09:00,2024,5,24,8,0,34,560,,,,,,,,,1.088135,7.999756,-0.4729,793.09082,7.8125,-825.927734,,,,,,,,,,,0.0,1.0,1.0,1.0,0.0,0.0,0.0,5.0,0.0,-0.21277340000000003,-0.018792320000000015,0.7164746266666666,4.7648111466666725,8.001302079999999,14.104003893333335,57.73893320748125,8.159811856919639,-30.75588427881386,-11.56012309101434,-3.276917925645365,11.116205335505972,16.369015182103972,-3.0497502700357857,15.379075255456105,-3.02831797577704,1.3009084000000002,8.018548319999999,-1.1893746266666665,10.508831346666666,8.209999502309598,2.458118627999343,2.2824698494392397,2.2824698494392397
LBP09_S01,LBP09,65,66,1,65,65,1716537634.6,2024-05-24 08:00:34.600000+00:00,2024-05-24 17:00:34.600000+09:00,2024,5,24,8,0,34,600,,,,,,,,,0.497803,-2.454346,-0.303223,-1043.762207,163.94043,300.964355,,,,,,,,,,,0.0,1.0,1.0,1.0,0.0,0.0,0.0,5.0,0.0,-0.2135286133333333,-0.01701497333333335,0.6899674666666666,2.712402293333338,11.1726888,13.872070306666668,90.96627444217822,29.6261676186364,-24.13084197074918,-7.921472113327211,-2.091871220899909,10.150971656676004,13.044840789434325,-3.0583970495237236,15.28426641210046,-3.0318769696771435,0.7113316133333333,-2.4373310266666666,-0.9931904666666667,4.141853106666667,2.7263533338063395,2.514600928674725,2.297776176486381,2.297776176486381
LBP09_S01,LBP09,66,67,1,66,66,1716537634.64,2024-05-24 08:00:34.640000+00:00,2024-05-24 17:00:34.640000+09:00,2024,5,24,8,0,34,640,,,,,,,,,-0.116699,-0.078857,0.567139,523.986816,113.830566,95.64209,,,,,,,,,,,0.0,1.0,1.0,1.0,0.0,0.0,0.0,5.0,0.0,-0.21977861333333332,-0.013294266666666683,0.6736100533333332,1.7325845866666714,10.015462226666665,13.427734373333335,107.478933084981,47.13130647783266,-12.396929209113292,-3.6223147899279713,-0.20661896178660255,9.655094488311473,10.31429616653135,-3.0780630923087204,15.265190619923533,-3.036185379057023,0.10307961333333332,-0.06556273333333332,-0.10647105333333329,0.27511339999999995,0.16204926375950243,2.4633812063062046,2.2265852793954855,2.2265852793954855
LBP09_S01,LBP09,67,68,1,67,67,1716537634.68,2024-05-24 08:00:34.680000+00:00,2024-05-24 17:00:34.680000+09:00,2024,5,24,8,0,34,680,,,,,,,,,-0.475586,0.11792,0.4646,72.509766,209.899902,72.692871,,,,,,,,,,,0.0,1.0,1.0,1.0,0.0,0.0,0.0,5.0,0.0,-0.20942704,-0.017708333333333347,0.6841569333333334,-0.44677738666666206,7.985026026666666,13.5172526,107.47290103133797,57.105749411869695,1.7744159694185384,0.6766012513255477,2.0776110146881854,9.726071127088215,9.968486161440362,-3.0534224620465573,15.26195499425871,-3.040287043343401,-0.26615896,0.13562833333333335,-0.21955693333333337,0.6213442266666667,0.3707302034711998,2.458571394550766,2.166718986623734,2.166718986623734
LBP09_S01,LBP09,68,69,1,68,68,1716537634.72,2024-05-24 08:00:34.720000+00:00,2024-05-24 17:00:34.720000+09:00,2024,5,24,8,0,34,720,,,,,,,,,-0.174072,0.047119,-0.02417,141.479492,-6.835938,35.705566,,,,,,,,,,,0.0,1.0,1.0,1.0,0.0,0.0,0.0,5.0,0.0,-0.20334957333333334,-0.020166013333333347,0.6918848,-2.1126302533333288,8.849283839999998,14.206542973333335,94.14243258699692,58.009053394218,15.353083661410611,4.442298554805424,4.397973150456906,10.340194473544638,12.082872424754358,-3.038638175198103,15.317720552677253,-3.0443825494833354,0.029277573333333334,0.06728501333333335,-0.7160548,0.8126173866666667,0.7198047832034707,2.452404257848667,2.121502917766851,2.121502917766851
LBP09_S01,LBP09,69,70,1,69,69,1716537634.76,2024-05-24 08:00:34.760000+00:00,2024-05-24 17:00:34.760000+09:00,2024,5,24,8,0,34,760,,,,,,,,,0.157227,0.155518,0.715332,-43.579102,-40.405273,37.902832,,,,,,,,,,,0.0,1.0,1.0,1.0,0.0,0.0,0.0,5.0,0.0,-0.20825516,-0.018639320000000015,0.6979069333333334,-2.7229818133333286,10.089518213333331,14.482421880000002,72.40770991528144,50.546585024469046,25.86482473855643,7.338606951416682,6.419836551435668,11.374787463086896,14.981830434393839,-3.0484937511062498,15.53639054557487,-3.050439814151778,0.36548216,0.17415732,0.017425066666666544,0.5570645466666665,0.4052303225774026,2.453793163764217,2.0694946573065645,2.0694946573065645
LBP09_S01,LBP09,70,71,1,70,70,1716537634.8,2024-05-24 08:00:34.800000+00:00,2024-05-24 17:00:34.800000+09:00,2024,5,24,8,0,34,800,,,,,,,,,0.568848,-0.185547,1.237305,-22.521973,92.590332,-20.324707,,,,,,,,,,,0.0,1.0,1.0,1.0,0.0,0.0,0.0,5.0,0.0,-0.2162890133333333,-0.02204101333333335,0.7007519866666666,-3.2845052533333288,8.29427081333333,14.333496093333332,47.577650291934674,37.20604242962045,31.931313480866123,9.241712963094068,7.908078248620486,12.652040002321542,17.550529231304388,-3.0353973297869286,16.02914325025278,-3.0491937525786006,0.7851370133333333,-0.16350598666666663,0.5365530133333335,1.4851960133333333,0.9649163038828328,2.4536348138726236,2.037007058676455,2.037007058676455
LBP09_S01,LBP09,71,72,1,71,71,1716537634.84,2024-05-24 08:00:34.840000+00:00,2024-05-24 17:00:34.840000+09:00,2024,5,24,8,0,34,840,,,,,,,,,-0.621338,-0.31665,1.685303,42.663574,76.171875,59.814453,,,,,,,,,,,0.0,1.0,1.0,1.0,0.0,0.0,0.0,5.0,0.0,-0.20829746666666668,-0.021207680000000017,0.6970215200000001,-3.462727906666662,7.713216133333332,13.801269533333334,24.22886659094076,21.37071402741821,33.3731031502218,10.210867626731698,8.762906809717213,13.986964128330413,19.40838785096865,-3.0357750914013173,16.857607329822446,-3.047236019935713,-0.41304053333333324,-0.29544232,0.9882814799999999,1.696764333333333,1.111120574165674,2.450821037689825,2.010553159119004,2.010553159119004
LBP09_S01,LBP09,72,73,1,72,72,1716537634.88,2024-05-24 08:00:34.880000+00:00,2024-05-24 17:00:34.880000+09:00,2024,5,24,8,0,34,880,,,,,,,,,-0.700195,-0.021484,1.898682,8.117676,-190.734863,-16.296387,,,,,,,,,,,0.0,1.0,1.0,1.0,0.0,0.0,0.0,5.0,0.0,-0.20730137333333334,-0.020130200000000015,0.6777116266666667,-2.8580729599999954,11.899414039999998,13.548990880000002,5.513183102435051,6.335549889167976,30.994193030375676,10.4313949508291,9.016328805283932,15.226731849545441,20.541702669524188,-3.040436595565798,17.96385656242433,-3.0427988459334534,-0.4928936266666667,-0.0013537999999999849,1.2209703733333332,1.7152178,1.3167059704204271,2.4488243347038376,1.991279626099599,1.991279626099599
LBP09_S01,LBP09,73,74,1,73,73,1716537634.92,2024-05-24 08:00:34.920000+00:00,2024-05-24 17:00:34.920000+09:00,2024,5,24,8,0,34,920,,,,,,,,,0.615479,-0.249756,1.713623,9.094238,-68.664551,10.864258,,,,,,,,,,,0.0,1.0,1.0,1.0,0.0,0.0,0.0,5.0,0.0,-0.21288732,-0.015351560000000016,0.6634407866666667,-4.110514359999995,10.264485666666666,12.805989573333335,-7.037855323641779,-5.4867031525113354,26.215614409114632,10.149880737883429,8.796860679183478,16.275356425910026,21.101944545293264,-3.0660243245445957,19.125201495212767,-3.042796718543553,0.82836632,-0.23440444,1.0501822133333332,2.112952973333333,1.3579465684642213,2.451952017639453,1.974162516433778,1.974162516433778
LBP09_S01,LBP09,74,75,1,74,74,1716537634.96,2024-05-24 08:00:34.960000+00:00,2024-05-24 17:00:34.960000+09:00,2024,5,24,8,0,34,960,,,,,,,,,-0.764404,0.140381,-0.150391,30.212402,156.005859,49.682617,,,,,,,,,,,0.0,1.0,1.0,1.0,0.0,0.0,0.0,5.0,0.0,-0.20810215999999998,-0.02082030666666668,0.67221032,-4.710286493333329,9.278971346666665,12.202148426666668,-13.306647356657896,-12.967583870035618,20.69379204149086,9.617614843617112,8.278157324382054,17.10310810756966,21.296542228883062,-3.037289654304012,20.12246973730326,-3.0442957087450457,-0.5563018399999999,0.16120130666666668,-0.82260132,1.5401044666666666,1.0060469820660307,2.441915697152703,1.9486857918451532,1.9486857918451532
LBP09_S01,LBP09,75,76,1,75,75,1716537635.0,2024-05-24 08:00:35+00:00,2024-05-24 17:00:35+09:00,2024,5,24,8,0,35,0,8.0,0.0,34.0,40.543018,141.509567,-1.374,3.0,13.0,-0.121094,-0.006592,0.128174,-22.155762,-52.185059,41.503906,-293.0,122.0,249.0,181.0,0.0,1009.299988,23.709999,-0.036666,32.919235,3.944531,1.0,1.0,1.0,1.0,0.0,0.0,0.0,4.0,0.0,-0.20229161333333331,-0.01999998666666668,0.6774154,-4.466959666666662,9.473470039999999,11.606445293333335,-14.163445819734596,-16.21247479124076,15.996631104060372,9.051077010827727,7.629658332732424,17.742973351732076,21.329481585130992,-3.038819723094849,20.911354075171754,-3.0443169222785356,0.08119761333333332,0.01340798666666668,-0.5492414,0.643847,0.5553727955089653,2.4457003451567796,1.9129598175801226,1.9129598175801226
LBP09_S01,LBP09,76,77,1,76,76,1716537635.04,2024-05-24 08:00:35.040000+00:00,2024-05-24 17:00:35.040000+09:00,2024,5,24,8,0,35,40,,,,,,,,,0.364258,-0.189697,0.646973,-21.30127,-61.828613,-9.643555,,,,,,,,,,,1.0,1.0,1.0,1.0,0.0,0.0,0.0,4.0,0.0,-0.21171869333333335,-0.02191078666666668,0.6808626666666666,-5.080566439999995,10.45735676,12.061360653333335,-10.994674498978277,-16.168918140892973,13.352804411668886,8.611290030868597,6.982901607096705,18.277085528198832,21.37678849255018,-3.033691352286127,21.56174107896873,-3.0474085448274644,0.5759766933333333,-0.16778621333333332,-0.033889666666666596,0.7776525733333333,0.6008742581894462,2.447187354264362,1.8801576785953558,1.8801576785953558
LBP09_S01,LBP09,77,78,1,77,77,1716537635.08,2024-05-24 08:00:35.080000+00:00,2024-05-24 17:00:35.080000+09:00,2024,5,24,8,0,35,80,,,,,,,,,0.400635,-0.164551,1.07959,0.183105,78.063965,8.605957,,,,,,,,,,,1.0,1.0,1.0,1.0,0.0,0.0,0.0,4.0,0.0,-0.21520826666666665,-0.018151013333333348,0.6810579733333333,-3.963216173333329,8.680826813333333,10.716145800000001,-5.298411999637021,-14.106767734026635,13.46629871198581,8.399353550883117,6.41863089773564,18.815737476678265,21.58193548932473,-3.0534011881475482,22.179167051594742,-3.0500504272567066,0.6158432666666667,-0.14639998666666665,0.39853202666666676,1.1607752800000002,0.748013142580872,2.4364133140089557,1.8525443972291489,1.8525443972291489
LBP09_S01,LBP09,78,79,1,78,78,1716537635.12,2024-05-24 08:00:35.120000+00:00,2024-05-24 17:00:35.120000+09:00,2024,5,24,8,0,35,120,,,,,,,,,-0.375732,-0.311035,1.491211,-27.038574,77.880859,30.090332,,,,,,,,,,,1.0,1.0,1.0,1.0,0.0,0.0,0.0,4.0,0.0,-0.207539,-0.01751298666666668,0.6804883066666666,-5.056152373333328,7.536621079999998,10.124511680000001,1.6040183309207858,-11.168154927560748,16.402708660774774,8.463514284119947,5.97190470063321,19.471845823109255,22.055554845659287,-3.053628077213032,22.863383402284814,-3.053042768344267,-0.168193,-0.29352201333333333,0.8107226933333335,1.2724377066666668,0.8784733024093037,2.4179279299038985,1.8293522283048669,1.8293522283048669
LBP09_S01,LBP09,79,80,1,79,79,1716537635.16,2024-05-24 08:00:35.160000+00:00,2024-05-24 17:00:35.160000+09:00,2024,5,24,8,0,35,160,,,,,,,,,-0.751221,0.156494,1.748291,124.694824,-164.428711,-30.090332,,,,,,,,,,,1.0,1.0,1.0,1.0,0.0,0.0,0.0,4.0,0.0,-0.20356113333333337,-0.018144493333333345,0.6673991199999999,-5.568847693333328,10.563151039999997,10.221354119999999,8.726009530748977,-8.105285568435859,21.577586024619787,8.812554665349905,5.647693277895776,20.334949264094046,22.870673813078803,-3.0487058864411516,23.68852503017151,-3.0526353573782368,-0.5476598666666667,0.17463849333333334,1.0808918800000002,1.8031902400000002,1.2242373908523718,2.407368078301527,1.815279790224576,1.815279790224576
LBP09_S01,LBP09,80,81,1,80,80,1716537635.2,2024-05-24 08:00:35.200000+00:00,2024-05-24 17:00:35.200000+09:00,2024,5,24,8,0,35,200,,,,,,,,,0.393066,-0.372559,1.728027,-76.904297,-51.818848,7.873535,,,,,,,,,,,1.0,1.0,1.0,1.0,0.0,0.0,0.0,4.0,0.0,-0.2147199866666667,-0.015384080000000014,0.6510970266666667,-5.262044306666661,9.215494786666666,9.99999996,15.438690855824811,-5.2263266472019,27.879757587573252,9.430102299582899,5.4386402120077,21.450139567596977,24.05439926927412,-3.0663135552762117,24.69641921420412,-3.0569332194556726,0.6077859866666667,-0.35717491999999995,1.0769299733333333,2.04189088,1.2871503006755327,2.422493466855636,1.8032768472802798,1.8032768472802798
LBP09_S01,LBP09,81,82,1,81,81,1716537635.24,2024-05-24 08:00:35.240000+00:00,2024-05-24 17:00:35.240000+09:00,2024,5,24,8,0,35,240,,,,,,,,,-0.945312,0.347656,-0.182617,93.62793,149.291992,85.266113,,,,,,,,,,,1.0,1.0,1.0,1.0,0.0,0.0,0.0,4.0,0.0,-0.21247389333333333,-0.01609046666666668,0.6570866133333334,-4.6053060266666614,8.545735666666666,9.600423133333335,21.371959977723268,-2.483418805443215,33.934455511482085,10.284980698691829,5.339303459789972,22.80751778805626,25.582647577228812,-3.0621939156937414,25.898288094696547,-3.058950864519108,-0.7328381066666667,0.3637464666666667,-0.8397036133333334,1.9362881866666668,1.1723759383577972,2.4317685540941287,1.7892568270820024,1.7892568270820024
LBP09_S01,LBP09,82,83,1,82,82,1716537635.28,2024-05-24 08:00:35.280000+00:00,2024-05-24 17:00:35.280000+09:00,2024,5,24,8,0,35,280,,,,,,,,,-0.502441,0.313965,-0.276123,-134.338379,-15.808105,37.536621,,,,,,,,,,,1.0,1.0,1.0,1.0,0.0,0.0,0.0,4.0,0.0,-0.20849277333333333,-0.014186173333333349,0.6585677333333333,-4.051920613333329,8.37809244,8.990885373333334,26.25028250528119,0.38462441039731343,38.45880984115715,11.334991998903076,5.354688436205864,24.345870181702544,27.38386617642488,-3.0703600064414007,27.280918929225333,-3.0619212828662477,-0.2939482266666667,0.3281511733333333,-0.9346907333333333,1.5567901333333332,1.0333128855771256,2.4397355494101607,1.7728232631362442,1.7728232631362442
LBP09_S01,LBP09,83,84,1,83,83,1716537635.32,2024-05-24 08:00:35.320000+00:00,2024-05-24 17:00:35.320000+09:00,2024,5,24,8,0,35,320,,,,,,,,,-0.024902,-0.657715,0.640625,118.774414,-110.412598,77.941895,,,,,,,,,,,1.0,1.0,1.0,1.0,0.0,0.0,0.0,4.0,0.0,-0.21303703999999998,-0.016178360000000013,0.6568847866666666,-5.052897173333328,8.497721346666665,9.678548133333333,29.762191604557923,3.6974276068216367,40.60940794873856,12.525479663085394,5.502585540478729,25.970246499652088,29.3533608241602,-3.061950214884292,28.814256190501954,-3.060345710556207,0.18813503999999998,-0.64153664,-0.01625978666666661,0.8459314666666665,0.6687513995504881,2.4179885802333443,1.7493323724216536,1.7493323724216536
LBP09_S01,LBP09,84,85,1,84,84,1716537635.36,2024-05-24 08:00:35.360000+00:00,2024-05-24 17:00:35.360000+09:00,2024,5,24,8,0,35,360,,,,,,,,,0.182861,0.658691,0.694336,-36.987305,84.350586,2.502441,,,,,,,,,,,1.0,1.0,1.0,1.0,0.0,0.0,0.0,4.0,0.0,-0.2147297466666667,-0.012532533333333347,0.6558724133333333,-5.2018229466666615,7.282714840000001,8.524576773333333,31.552130837673463,7.677861513595921,40.20533058571002,13.787564896592333,5.809700001022566,27.57845972308049,31.375484069209186,-3.0802682750783736,30.45861257502712,-3.0601294552397897,0.3975907466666667,0.6712235333333334,0.038463586666666605,1.1072778666666667,0.7810882671213967,2.237576100202307,1.7291606202278984,1.7291606202278984
LBP09_S01,LBP09,85,86,1,85,85,1716537635.4,2024-05-24 08:00:35.400000+00:00,2024-05-24 17:00:35.400000+09:00,2024,5,24,8,0,35,400,,,,,,,,,-0.951904,-0.235107,1.485352,174.865723,47.668457,120.056152,,,,,,,,,,,1.0,1.0,1.0,1.0,0.0,0.0,0.0,4.0,0.0,-0.21074537333333332,-0.016614560000000014,0.65550132,-6.520996119999994,7.961425786666665,8.463541613333335,31.34782403581675,12.327122574835093,37.74605753371758,15.041477858025003,6.3027849040159705,29.08830202442919,33.34817039005527,-3.0589961737292004,32.17074417589169,-3.059998424760628,-0.7411586266666667,-0.21849244,0.82985068,1.7895017466666667,1.1338902977431438,1.953751068811488,1.7170122462996378,1.7170122462996378
LBP09_S01,LBP09,86,87,1,86,86,1716537635.44,2024-05-24 08:00:35.440000+00:00,2024-05-24 17:00:35.440000+09:00,2024,5,24,8,0,35,440,,,,,,,,,-0.947754,0.013916,1.726807,-103.45459,-122.802734,29.541016,,,,,,,,,,,1.0,1.0,1.0,1.0,0.0,0.0,0.0,4.0,0.0,-0.21377922666666663,-0.015927720000000013,0.6544173466666666,-5.646158879999995,7.884928386666665,8.078613226666668,29.145692402837604,17.375750381758046,34.21047682410489,16.207305554138507,6.997814919286292,30.456721097393384,35.20309683783803,-3.063395535757524,33.90856473448705,-3.0585229413990516,-0.7339747733333334,0.02984372000000001,1.0723896533333335,1.8362081466666669,1.2998573706716994,1.6775542829334424,1.708669148787079,1.708669148787079
LBP09_S01,LBP09,87,88,1,87,87,1716537635.48,2024-05-24 08:00:35.480000+00:00,2024-05-24 17:00:35.480000+09:00,2024,5,24,8,0,35,480,,,,,,,,,0.063721,0.968262,1.157715,172.241211,43.762207,-62.5,,,,,,,,,,,1.0,1.0,1.0,1.0,0.0,0.0,0.0,4.0,0.0,-0.2074804,-0.020664040000000012,0.6618652666666666,-4.799804719999995,8.293457026666665,7.854003853333333,25.337264070186027,22.337539039094878,30.695946991329926,17.220796116945948,7.8913164808500875,31.68455897704658,36.915308102090926,-3.037645465047145,35.63441508861442,-3.0553945168167087,0.27120140000000004,0.98892604,0.4958497333333335,1.7559771733333336,1.1390311101979522,1.4442881654863065,1.7238007098861545,1.6974997754814098
LBP09_S01,LBP09,88,89,1,88,88,1716537635.52,2024-05-24 08:00:35.520000+00:00,2024-05-24 17:00:35.520000+09:00,2024,5,24,8,0,35,520,,,,,,,,,-0.878662,0.126465,-0.431885,-65.246582,170.593262,15.930176,,,,,,,,,,,1.0,1.0,1.0,1.0,0.0,0.0,0.0,4.0,0.0,-0.20548169333333333,-0.017734346666666678,0.65898116,-3.946940133333328,8.29996744,7.640787706666667,20.689545244153592,26.65666844410498,28.023170001911627,18.048377926712092,8.957583218614287,32.805485777123046,38.499118690910976,-3.051465524048861,37.3168263064389,-3.052347674442041,-0.6731803066666667,0.14419934666666667,-1.09086616,1.9082458133333335,1.2899434700389265,1.2865310295040688,1.728510072797769,1.689662154222901
LBP09_S01,LBP09,89,90,1,89,89,1716537635.56,2024-05-24 08:00:35.560000+00:00,2024-05-24 17:00:35.560000+09:00,2024,5,24,8,0,35,560,,,,,,,,,-1.174561,-0.052734,0.291504,76.293945,-26.184082,8.483887,,,,,,,,,,,1.0,1.0,1.0,1.0,0.0,0.0,0.0,4.0,0.0,-0.20634432,-0.01860674666666668,0.6571191733333334,-4.340006546666662,7.853190093333333,7.5919595866666665,16.15933936674326,29.890030614889397,26.465759042854643,18.694751501381823,10.153184443209863,33.86411613883723,39.99198982172446,-3.047395581649534,38.930737768071914,-3.0465735017978335,-0.9682166799999999,-0.03412725333333332,-0.3656151733333334,1.3679591066666665,1.0355108226483503,0.9995514823176188,1.728835055158481,1.677319676268664
LBP09_S01,LBP09,90,91,1,90,90,1716537635.6,2024-05-24 08:00:35.600000+00:00,2024-05-24 17:00:35.600000+09:00,2024,5,24,8,0,35,600,,,,,,,,,0.288818,0.517822,1.144043,-13.48877,-11.047363,-19.042969,,,,,,,,,,,1.0,1.0,1.0,1.0,0.0,0.0,0.0,4.0,0.0,-0.2016438,-0.017399066666666678,0.6526953466666666,-4.160156279999995,6.971028626666667,7.350260373333334,12.5906809764873,31.83127322202496,25.721424658895856,19.198378740441314,11.426435372090861,34.892973125193066,41.43260485522777,-3.051558721660442,40.45621620933166,-3.0385899604184674,0.49046180000000006,0.5352210666666667,0.4913476533333333,1.51703052,0.8766053182015371,0.9255615616934268,1.7200812451840755,1.662491632600754
LBP09_S01,LBP09,91,92,1,91,91,1716537635.64,2024-05-24 08:00:35.640000+00:00,2024-05-24 17:00:35.640000+09:00,2024,5,24,8,0,35,640,,,,,,,,,-0.416504,-1.163086,1.649658,-90.454102,132.751465,185.913086,,,,,,,,,,,1.0,1.0,1.0,1.0,0.0,0.0,0.0,4.0,0.0,-0.19503573333333335,-0.020777973333333345,0.6523535466666667,-4.7469075733333295,8.298339826666666,7.484537720000001,10.400810789632422,32.50926305837924,25.126058820145687,19.61441117202661,12.72680589442603,35.8980154779989,42.841151118502495,-3.03090966987031,41.87602180909039,-3.039246873039898,-0.22146826666666664,-1.1423080266666668,0.9973044533333334,2.3610807466666666,1.5324920859717126,0.9803792745819152,1.72188024044406,1.6601280044802262
LBP09_S01,LBP09,92,93,1,92,92,1716537635.68,2024-05-24 08:00:35.680000+00:00,2024-05-24 17:00:35.680000+09:00,2024,5,24,8,0,35,680,,,,,,,,,-0.61499,0.023926,1.784668,1.159668,12.268066,26.306152,,,,,,,,,,,1.0,1.0,1.0,1.0,0.0,0.0,0.0,4.0,0.0,-0.20396801333333334,-0.019873026666666675,0.6511230800000001,-4.844563826666661,8.280436186666666,7.42024736,9.3865632813029,32.072075790072596,23.988337182638194,19.989873703278725,14.009688926028934,36.857548965304424,44.207978354669706,-3.0398915826947275,43.172906372064844,-3.0349795499462373,-0.41102198666666667,0.04379902666666667,1.1335449199999998,1.5883659333333333,1.2065577126346536,1.0138123749484533,1.7361918847496096,1.6520285349829837
LBP09_S01,LBP09,93,94,1,93,93,1716537635.72,2024-05-24 08:00:35.720000+00:00,2024-05-24 17:00:35.720000+09:00,2024,5,24,8,0,35,720,,,,,,,,,-0.144043,-0.162354,2.041748,82.336426,-192.321777,-52.91748,,,,,,,,,,,1.0,1.0,1.0,1.0,0.0,0.0,0.0,4.0,0.0,-0.19214184,-0.02555986666666668,0.6721191733333333,-4.326985706666663,6.062825506666666,6.476236946666667,8.75123956514555,30.636996126368597,21.874080211917708,20.33992328588455,15.235168771083679,37.73251217378113,45.4924754404903,-3.0042084884422184,44.32798021827553,-3.004270823966203,0.048098840000000004,-0.13679413333333332,1.3696288266666667,1.5545218,1.377283288274447,1.0401115151512925,1.7462578864999796,1.6472084429354654
LBP09_S01,LBP09,94,95,1,94,94,1716537635.76,2024-05-24 08:00:35.760000+00:00,2024-05-24 17:00:35.760000+09:00,2024,5,24,8,0,35,760,,,,,,,,,0.487305,-0.039795,1.26001,26.916504,141.113281,20.202637,,,,,,,,,,,1.0,1.0,1.0,1.0,0.0,0.0,0.0,4.0,0.0,-0.20834626666666667,-0.028294240000000012,0.6692871333333333,-3.917643266666661,8.209635399999998,7.15250648,7.355872025120158,28.211718465640605,18.730861140566482,20.634158166889357,16.363637509709303,38.48174661940379,46.63026848180662,-3.000432861284712,45.32139370878016,-2.3979375855668024,0.6956512666666667,-0.011500759999999985,0.5907228666666667,1.2978748933333333,0.9126973526303228,1.0604101963534092,1.757101680058813,1.6345444586198596
LBP09_S01,LBP09,95,96,1,95,95,1716537635.8,2024-05-24 08:00:35.800000+00:00,2024-05-24 17:00:35.800000+09:00,2024,5,24,8,0,35,800,,,,,,,,,-0.785156,0.397217,-0.250488,-20.690918,162.414551,20.812988,,,,,,,,,,,1.0,1.0,1.0,1.0,0.0,0.0,0.0,4.0,0.0,-0.21061188,-0.015292933333333345,0.6623437733333333,-1.5576172133333284,6.933593733333332,6.818847626666667,4.09215463824309,24.752418252835383,14.858716386782964,20.79784435241908,17.353734239822717,39.076095274875115,47.54622638764261,-3.065565299943509,46.13574948204082,-2.4032492745853333,-0.57454412,0.41250993333333336,-0.9128317733333333,1.8998858266666667,1.1547844982212583,1.0680049241269463,1.7608198689997852,1.626412933867341
LBP09_S01,LBP09,96,97,1,96,96,1716537635.84,2024-05-24 08:00:35.840000+00:00,2024-05-24 17:00:35.840000+09:00,2024,5,24,8,0,35,840,,,,,,,,,-0.080811,-0.226074,0.368652,-5.67627,-36.92627,12.207031,,,,,,,,,,,1.0,1.0,1.0,1.0,0.0,0.0,0.0,4.0,0.0,-0.19577789333333334,-0.022854773333333345,0.6762630533333333,-15.93750002666666,7.640787746666667,6.979166626666667,-1.7652096599074185,20.31938169789187,10.801920606269212,20.727235966022782,18.166509507738393,39.508172099125886,48.17194246758259,-3.020722304820915,46.76132663669501,-2.407151163754654,0.11496689333333335,-0.20321922666666664,-0.3076110533333333,0.6257971733333333,0.38618648446386483,1.039007560538874,1.7449142991143496,1.6057424930439497
LBP09_S01,LBP09,97,98,1,97,97,1716537635.88,2024-05-24 08:00:35.880000+00:00,2024-05-24 17:00:35.880000+09:00,2024,5,24,8,0,35,880,,,,,,,,,0.552246,-0.019287,0.842041,42.541504,-39.855957,-7.263184,,,,,,,,,,,1.0,1.0,1.0,1.0,0.0,0.0,0.0,4.0,0.0,-0.18636057333333333,-0.07915685333333335,0.7285612399999999,2.690429653333336,7.277018213333332,3.830566373333334,-10.328557992501255,15.203160284604955,7.222929470191013,20.314093646322732,18.77463591912259,39.79708927793353,48.4660465641978,-2.7305582052467967,47.200970480706296,-1.8194016719608008,0.7386065733333333,0.05986985333333335,0.11347976000000015,0.9119561866666669,0.7496677433630322,1.016326031456578,1.7325751830802079,1.5917084807540987
LBP09_S01,LBP09,98,99,1,98,98,1716537635.92,2024-05-24 08:00:35.920000+00:00,2024-05-24 17:00:35.920000+09:00,2024,5,24,8,0,35,920,,,,,,,,,0.161133,0.001953,1.387695,-66.772461,94.604492,59.387207,,,,,,,,,,,1.0,1.0,1.0,1.0,0.0,0.0,0.0,4.0,0.0,-0.20045237333333335,0.025201866666666652,0.7175293466666667,18.061523400000006,4.25781248,4.252929653333334,-21.02907368250926,9.920136991416197,4.772991423194526,19.47293069902236,19.17144139877924,39.98800893486131,48.43325359595721,3.011866859945143,47.4721642863667,-1.7761975036812054,0.36158537333333335,-0.023248866666666652,0.6701656533333332,1.054999893333333,0.7618441408303827,0.9924819343512246,1.7222169759953387,1.5783235720456517
LBP09_S01,LBP09,99,100,1,99,99,1716537635.96,2024-05-24 08:00:35.960000+00:00,2024-05-24 17:00:35.960000+09:00,2024,5,24,8,0,35,960,,,,,,,,,-0.510742,-0.133057,1.783936,-10.620117,-10.314941,2.319336,,,,,,,,,,,1.0,1.0,1.0,1.0,0.0,0.0,0.0,4.0,0.0,-0.20262685333333333,-0.008095653333333352,0.8378744,-6.028645866666665,9.899088533333336,7.597656213333333,-32.70869122975835,5.081639969074426,3.9492391340582045,18.164583049832025,19.37470699754222,40.14597850022364,48.13554755433114,-3.1005124718348465,47.60487263861002,-1.7585462325421666,-0.30811514666666673,-0.12496134666666665,0.9460616,1.3791380933333333,1.0027875312152263,0.9923515563171924,1.7171336267349477,1.5691880793340576
LBP09_S01,LBP09,100,101,1,100,100,1716537636.0,2024-05-24 08:00:36+00:00,2024-05-24 17:00:36+09:00,2024,5,24,8,0,36,0,8.0,0.0,35.0,40.543072,141.509644,-1.871,3.0,13.0,-0.244873,-0.118896,2.055176,-45.349121,-159.301758,-27.160645,-290.0,125.0,248.0,175.0,0.0,1009.5,23.790001,-0.034684,31.249838,3.944531,0.0,1.0,1.0,1.0,0.0,0.0,0.0,4.0,0.0,-0.15810212,-0.007958933333333352,0.9309798666666665,20.956217413333334,8.57910156,-0.2718099333333323,-43.84547964409699,1.2174938383926077,4.938456138848266,16.410763864068144,19.423406751077923,40.34351674577757,47.688376401769645,-3.0905776133536467,47.63585023864532,-1.7399865393863228,-0.08677088,-0.11093706666666665,1.1241961333333332,1.32190408,1.1329841854934235,1.0154560119165708,1.730578178536675,1.5623723934927976
LBP09_S01,LBP09,101,102,1,101,101,1716537636.04,2024-05-24 08:00:36.040000+00:00,2024-05-24 17:00:36.040000+09:00,2024,5,24,8,0,36,40,,,,,,,,,0.248047,0.338379,1.067627,-28.076172,95.397949,-20.324707,,,,,,,,,,,0.0,1.0,1.0,1.0,0.0,0.0,0.0,4.0,0.0,-0.10902009333333335,0.032929733333333315,0.9441146266666666,4.677734346666666,12.82714844,1.5226236533333344,-52.865341088554636,-1.3537931034739599,7.483534269232548,14.29615022052596,19.369255026938966,40.642858116546876,47.23758955861534,2.846585248068218,47.60183394079849,-1.711002390944462,0.3570670933333333,0.30544926666666666,0.12351237333333354,0.7860287333333335,0.4858512838463562,1.010855092942847,1.7290212236036044,1.5458105302674676
LBP09_S01,LBP09,102,103,1,102,102,1716537636.08,2024-05-24 08:00:36.080000+00:00,2024-05-24 17:00:36.080000+09:00,2024,5,24,8,0,36,80,,,,,,,,,-0.532959,0.046143,-0.073975,-115.722656,82.03125,-20.385742,,,,,,,,,,,0.0,1.0,1.0,1.0,0.0,0.0,0.0,4.0,0.0,-0.12261384,-0.07207352000000002,0.9546582400000002,-5.325520853333333,12.072753906666668,12.31608068,-58.47763108862838,-2.554579733049607,10.843701281003705,11.957044976980825,19.26707183761698,41.07660616778703,46.91991641127374,-2.60784989989877,47.53406780827267,-1.6843455709218187,-0.41034516,0.11821652000000002,-1.0286332400000002,1.5571949200000001,1.1137525031932516,1.0254846673673423,1.730948990688149,1.539264196523919
LBP09_S01,LBP09,103,104,1,103,103,1716537636.12,2024-05-24 08:00:36.120000+00:00,2024-05-24 17:00:36.120000+09:00,2024,5,24,8,0,36,120,,,,,,,,,-0.077148,0.090576,0.223389,-50.78125,-35.400391,12.023926,,,,,,,,,,,0.0,1.0,1.0,1.0,0.0,0.0,0.0,4.0,0.0,-0.12445954666666668,-0.04010737333333334,0.9673503066666665,8.027343733333332,9.124348959999999,7.977701786666667,-59.96154130628052,-2.496162087384641,13.91446038303898,9.558583324729604,19.167225354121594,41.63318458310859,46.81955896292351,-2.8276957770518325,47.45514157244275,-1.683260745282433,0.04731154666666669,0.13068337333333335,-0.7439613066666666,0.9219562266666667,0.7568321824096446,1.0206190225673557,1.7192734762356272,1.5275861067610192
LBP09_S01,LBP09,104,105,1,104,104,1716537636.16,2024-05-24 08:00:36.160000+00:00,2024-05-24 17:00:36.160000+09:00,2024,5,24,8,0,36,160,,,,,,,,,0.223145,-0.239502,0.723145,-79.406738,-62.011719,63.476562,,,,,,,,,,,0.0,1.0,1.0,1.0,0.0,0.0,0.0,4.0,0.0,-0.11805655999999999,-0.03975256000000001,0.9744303866666667,0.46630858666666586,8.15185548,6.6715494400000015,-57.328071806554924,-1.4163186018074054,15.510433334410399,7.265460452467407,19.1105726100493,42.253601916485,46.94004448215957,-2.81483592972627,47.377604983758324,-2.2642020760198447,0.34120156,-0.19974943999999997,-0.25128538666666667,0.7922363866666666,0.46846845024928135,0.9903882649432323,1.6988781716223798,1.512010847106435
LBP09_S01,LBP09,105,106,1,105,105,1716537636.2,2024-05-24 08:00:36.200000+00:00,2024-05-24 17:00:36.200000+09:00,2024,5,24,8,0,36,200,,,,,,,,,0.460449,-0.128418,0.887451,-56.518555,21.850586,68.29834,,,,,,,,,,,0.0,1.0,1.0,1.0,0.0,0.0,0.0,4.0,0.0,-0.11543612,-0.04397130666666668,0.9898991333333331,-1.4095052266666677,5.97981772,5.974121053333334,-51.30459485232255,0.3477782902094299,14.724927558933453,5.213276658374505,19.124483741657677,42.84259901884234,47.20606340917438,-2.7757238155249047,47.30341259926983,-2.2312004428121175,0.57588512,-0.08444669333333332,-0.10244813333333314,0.7627799466666665,0.5909911466983518,0.962541898784145,1.6925176828198902,1.4986627355063178
LBP09_S01,LBP09,106,107,1,106,106,1716537636.24,2024-05-24 08:00:36.240000+00:00,2024-05-24 17:00:36.240000+09:00,2024,5,24,8,0,36,240,,,,,,,,,0.037354,0.05957,1.275146,-17.456055,36.010742,-4.089355,,,,,,,,,,,0.0,1.0,1.0,1.0,0.0,0.0,0.0,4.0,0.0,-0.11569327999999998,-0.04695633333333334,1.01429692,-3.3756510533333337,4.940592466666667,5.288085906666668,-43.13906793020191,2.370977928947021,11.224328949017965,3.487713941166428,19.21932285881556,43.29157217680306,47.49428114232434,-2.7541541045944795,47.22393693516882,-2.195594348343814,0.15304727999999998,0.10652633333333333,0.26084907999999984,0.5204226933333331,0.32064555531878053,0.9284726834625845,1.6801206187783566,1.481833918646496
LBP09_S01,LBP09,107,108,1,107,107,1716537636.28,2024-05-24 08:00:36.280000+00:00,2024-05-24 17:00:36.280000+09:00,2024,5,24,8,0,36,280,,,,,,,,,-0.335693,-0.224609,1.599854,-58.227539,-44.128418,3.173828,,,,,,,,,,,0.0,1.0,1.0,1.0,0.0,0.0,0.0,4.0,0.0,-0.11589510666666666,-0.05175452000000001,1.0260286933333334,-2.494303386666667,5.864257826666666,4.679361946666668,-34.278745531138846,4.179623421278554,5.357014481040267,2.1165641199208745,19.386507795666702,43.50585275604467,47.67678420589859,-2.7197099488529415,47.12122509467266,-2.7578585592384224,-0.21979789333333336,-0.17285447999999998,0.5738253066666668,0.9664776800000001,0.6383300617556218,0.9126733705097243,1.6762044599599424,1.4699535826339483
LBP09_S01,LBP09,108,109,1,108,108,1716537636.32,2024-05-24 08:00:36.320000+00:00,2024-05-24 17:00:36.320000+09:00,2024,5,24,8,0,36,320,,,,,,,,,-0.014404,-0.287354,1.593018,20.629883,-50.90332,-32.592773,,,,,,,,,,,0.0,1.0,1.0,1.0,0.0,0.0,0.0,4.0,0.0,-0.1295930266666667,-0.046103480000000016,1.0106738666666666,-1.6585286400000006,6.257324226666666,5.375162733333335,-26.018946237642048,5.336384431865127,-1.95577097139583,1.0758062704151925,19.599963172941308,43.42762191718884,47.65788770911296,-2.797546447428972,46.97146324397379,-2.7678231360405223,0.1151890266666667,-0.24125051999999997,0.5823441333333335,0.9387836800000001,0.6407768838624219,0.9115543898822017,1.664771485057773,1.458437239595455
LBP09_S01,LBP09,109,110,1,109,109,1716537636.36,2024-05-24 08:00:36.360000+00:00,2024-05-24 17:00:36.360000+09:00,2024,5,24,8,0,36,360,,,,,,,,,-0.139404,-0.050293,0.609375,38.208008,142.700195,4.333496,,,,,,,,,,,0.0,1.0,1.0,1.0,0.0,0.0,0.0,4.0,0.0,-0.12123039999999999,-0.04687822666666668,0.9929167066666668,-2.7945963466666677,4.750976573333333,4.8795572666666684,-19.228371110989748,5.553425900469249,-9.486029652924746,0.3066714259756026,19.822100208960077,43.048180731071845,47.393623709446295,-2.770496139757575,46.75083059428296,-2.7560427287098768,-0.018173600000000012,-0.0034147733333333152,-0.38354170666666676,0.40513008000000006,0.38398721484791326,0.8956703477912623,1.5666232239967846,1.4437187461057626
LBP09_S01,LBP09,110,111,1,110,110,1716537636.4,2024-05-24 08:00:36.400000+00:00,2024-05-24 17:00:36.400000+09:00,2024,5,24,8,0,36,400,,,,,,,,,-0.233643,0.159912,-0.017334,-79.467773,2.929688,-28.381348,,,,,,,,,,,0.0,1.0,1.0,1.0,0.0,0.0,0.0,4.0,0.0,-0.11005528,-0.047207013333333346,0.9747266,-2.335611973333334,5.969238293333333,4.415690080000002,-14.233612541944828,4.788537511772579,-16.01682184973144,-0.26267307570219056,20.01364170943098,42.407507857082585,46.89361976075952,-2.734516668670611,46.44241602388504,-2.747472742711787,-0.12358771999999998,0.20711901333333335,-0.9920606,1.3227673333333332,1.0209585908798318,0.8911530795167298,1.422452074164109,1.438005771035142
LBP09_S01,LBP09,111,112,1,111,111,1716537636.44,2024-05-24 08:00:36.440000+00:00,2024-05-24 17:00:36.440000+09:00,2024,5,24,8,0,36,440,,,,,,,,,0.109375,-0.191406,0.444824,-15.74707,-45.837402,-23.986816,,,,,,,,,,,0.0,1.0,1.0,1.0,0.0,0.0,0.0,4.0,0.0,-0.11005854666666667,-0.04189125333333334,0.9644987333333334,-2.3331705600000006,6.66748048,3.862304666666668,-10.886144852194155,3.2639917921477655,-20.61704436580552,-0.6981188697899567,20.144201381116893,41.58282608245037,46.21047115365373,-2.7760568608778713,46.041731378915316,-2.7441692591564877,0.21943354666666667,-0.14951474666666664,-0.5196747333333334,0.8886230266666667,0.5835816732374148,0.8625020516193583,1.2700281672764004,1.4266134497311722
LBP09_S01,LBP09,112,113,1,112,112,1716537636.48,2024-05-24 08:00:36.480000+00:00,2024-05-24 17:00:36.480000+09:00,2024,5,24,8,0,36,480,,,,,,,,,0.474121,0.05542,0.762451,15.869141,-39.367676,-50.598145,,,,,,,,,,,0.0,1.0,1.0,1.0,0.0,0.0,0.0,4.0,0.0,-0.09925125333333334,-0.04583005333333334,0.9864876666666667,-3.8704426933333345,5.380859386666666,3.3374023200000016,-8.760384115410305,1.3782302826175066,-22.813316679880195,-1.048534234406369,20.199330592421592,40.67029341525516,45.42229790428494,-2.707495667919768,45.558668969297905,-2.7487351058378064,0.5733722533333334,0.10125005333333334,-0.22403666666666666,0.8986589733333334,0.6238587518049725,0.8418951572836392,1.1430916613849729,1.4298321923519828
LBP09_S01,LBP09,113,114,1,113,113,1716537636.52,2024-05-24 08:00:36.520000+00:00,2024-05-24 17:00:36.520000+09:00,2024,5,24,8,0,36,520,,,,,,,,,0.169434,-0.092285,1.178711,-66.345215,63.171387,8.544922,,,,,,,,,,,0.0,1.0,1.0,1.0,0.0,0.0,0.0,4.0,0.0,-0.10141921333333334,-0.04653642666666668,1.0071224266666667,-4.00960284,6.092122413333334,2.466634093333335,-7.38397072662102,-0.4506301140172832,-22.634174204099054,-1.3438930634712098,20.181305387860903,39.7649264470912,44.61323246601531,-2.7098917037453756,45.01542672377438,-2.749492157010695,0.27085321333333334,-0.04574857333333333,0.17158857333333333,0.48819036,0.3238781153977469,0.8032525430979919,1.0448917863010305,1.4200908962311765
LBP09_S01,LBP09,114,115,1,114,114,1716537636.56,2024-05-24 08:00:36.560000+00:00,2024-05-24 17:00:36.560000+09:00,2024,5,24,8,0,36,560,,,,,,,,,-0.46582,-0.134033,1.649414,9.277344,-9.399414,-23.31543,,,,,,,,,,,0.0,1.0,1.0,1.0,0.0,0.0,0.0,4.0,0.0,-0.1067252,-0.04649410666666668,1.0232324533333332,-3.7548827866666676,6.6129557466666675,2.237955706666668,-6.406117693287281,-1.9282936554981738,-20.533919331059835,-1.600137771202701,20.104173641640976,38.943569673848806,43.85589877818032,-2.7291360697453686,44.4416709889523,-2.746752718483024,-0.3590948,-0.08753889333333334,0.6261815466666667,1.0728152400000002,0.7271282298322103,0.7909172393853464,0.8952343608514828,1.4161957832341028
LBP09_S01,LBP09,115,116,1,115,115,1716537636.6,2024-05-24 08:00:36.600000+00:00,2024-05-24 17:00:36.600000+09:00,2024,5,24,8,0,36,600,,,,,,,,,-0.10083,-0.128418,1.851074,-20.690918,-134.033203,-29.296875,,,,,,,,,,,0.0,1.0,1.0,1.0,0.0,0.0,0.0,4.0,0.0,-0.11260735999999999,-0.047229786666666676,1.02371748,-3.0598958000000005,7.184244813333333,2.1695963333333346,-5.651365845277708,-2.9504276174921333,-17.231923001453197,-1.8261924050138092,19.98615653694129,38.25429275379068,43.1992169594771,-2.7426889799719145,43.86888925880597,-2.735075835244611,0.011777359999999987,-0.08118821333333333,0.8273565200000002,0.9203220933333335,0.8314138821184904,0.7891095819420245,0.8573355718177257,1.4097573574367253
LBP09_S01,LBP09,116,117,1,116,116,1716537636.64,2024-05-24 08:00:36.640000+00:00,2024-05-24 17:00:36.640000+09:00,2024,5,24,8,0,36,640,,,,,,,,,0.182617,-0.199707,1.17627,9.094238,95.153809,-1.037598,,,,,,,,,,,0.0,1.0,1.0,1.0,0.0,0.0,0.0,4.0,0.0,-0.11174148,-0.039537733333333346,1.0040495066666666,-2.316080693333334,6.73746748,1.770833306666668,-5.059678282010849,-3.568819698214321,-13.518578235415088,-2.0285795362942434,19.84340374901272,37.713549624374075,42.66365704615029,-2.799812571407668,43.325494693062815,-2.721667253907172,0.29435848,-0.16016926666666664,0.17222049333333334,0.62674824,0.37677713181193057,0.7428809837756333,0.8616301291787742,1.3955471548879177
LBP09_S01,LBP09,117,118,1,117,117,1716537636.68,2024-05-24 08:00:36.680000+00:00,2024-05-24 17:00:36.680000+09:00,2024,5,24,8,0,36,680,,,,,,,,,-0.67749,0.269043,-0.131348,39.672852,70.617676,8.544922,,,,,,,,,,,0.0,1.0,1.0,1.0,0.0,0.0,0.0,4.0,0.0,-0.10138665333333334,-0.04439776000000001,0.9862858399999999,-3.82893876,8.29752608,2.334798146666668,-4.565443106191335,-3.8784604672552168,-10.077746745333297,-2.211197260541897,19.688265330322512,37.31043975456074,42.24436175066341,-2.7272804605818295,42.833481809233334,-2.7107322086688823,-0.5761033466666667,0.31344076,-1.1176338399999999,2.0071779466666664,1.2958570817737027,0.7464529585411952,0.8801326667448244,1.4062789093468049
LBP09_S01,LBP09,118,119,1,118,118,1716537636.72,2024-05-24 08:00:36.720000+00:00,2024-05-24 17:00:36.720000+09:00,2024,5,24,8,0,36,720,,,,,,,,,-0.055176,-0.004395,0.317383,12.756348,-36.254883,-3.967285,,,,,,,,,,,0.0,1.0,1.0,1.0,0.0,0.0,0.0,4.0,0.0,-0.09940748,-0.03855140000000001,0.9740137066666666,-2.3592122000000004,8.101399786666667,1.7976887733333342,-3.9999433683920285,-3.8938390248406605,-7.364958427792751,-2.3711949952775777,19.532511769328885,37.01584141744903,41.920330360892144,-2.770152062152259,42.4068213328414,-2.6980217422627732,0.044231480000000004,0.03415640000000002,-0.6566307066666666,0.7350185866666665,0.6590045283770942,0.7177218081453011,0.8789166616482968,1.4034125270484201
LBP09_S01,LBP09,119,120,1,119,119,1716537636.76,2024-05-24 08:00:36.760000+00:00,2024-05-24 17:00:36.760000+09:00,2024,5,24,8,0,36,760,,,,,,,,,0.476074,-0.046875,0.774902,8.972168,-61.035156,-31.982422,,,,,,,,,,,0.0,1.0,1.0,1.0,0.0,0.0,0.0,4.0,0.0,-0.08475253333333334,-0.04485673333333334,0.9933561466666667,-4.707031213333335,6.7757162,0.9138997200000012,-3.0915752249051267,-3.4995477273758167,-5.564225814907953,-2.494858004273783,19.392529860233854,36.79327238485271,41.665806407982984,-2.653727307373444,42.05140181425928,-2.690275374135562,0.5608265333333333,-0.002018266666666657,-0.21845414666666674,0.7812989466666667,0.6018743125328441,0.705288886541402,0.8828495414474057,1.4064974155530094
LBP09_S01,LBP09,120,121,1,120,120,1716537636.8,2024-05-24 08:00:36.800000+00:00,2024-05-24 17:00:36.800000+09:00,2024,5,24,8,0,36,800,,,,,,,,,0.261963,-0.045166,1.132324,-78.125,52.185059,8.178711,,,,,,,,,,,0.0,1.0,1.0,1.0,0.0,0.0,0.0,4.0,0.0,-0.08127272,-0.048746706666666674,1.0186458533333336,-3.001302040000001,7.0670573333333335,0.01953122666666791,-1.5794102154265983,-2.5095025564756974,-4.622136099555917,-2.558034412890847,19.292149757974826,36.608386940870474,41.4596741033279,-2.600430855296221,41.766113071002636,-2.6678317207920257,0.34323572,0.003580706666666676,0.11367814666666654,0.4604945733333332,0.3615885810886722,0.6735610498560987,0.8707829869915222,1.398400262618556
LBP09_S01,LBP09,121,122,1,121,121,1716537636.84,2024-05-24 08:00:36.840000+00:00,2024-05-24 17:00:36.840000+09:00,2024,5,24,8,0,36,840,,,,,,,,,-0.320801,-0.312256,1.656006,-12.207031,3.417969,6.04248,,,,,,,,,,,0.0,1.0,1.0,1.0,0.0,0.0,0.0,4.0,0.0,-0.0825976,-0.04236649333333334,1.0342968933333334,-4.935709586666667,7.5919596799999995,-1.445312533333332,0.623357854641761,-0.7917369080194422,-4.334520259295643,-2.5331000987051766,19.260480281654047,36.43500613049865,41.29034231535891,-2.666706408494976,41.54459923130713,-2.6302675699083107,-0.2382034,-0.26988950666666667,0.6217091066666667,1.1298020133333333,0.7184033817380048,0.686849725747064,0.8629286431429689,1.3922261079919211
LBP09_S01,LBP09,122,123,1,122,122,1716537636.88,2024-05-24 08:00:36.880000+00:00,2024-05-24 17:00:36.880000+09:00,2024,5,24,8,0,36,880,,,,,,,,,-0.409424,-0.03833,1.881836,-9.338379,-94.299316,-18.310547,,,,,,,,,,,0.0,1.0,1.0,1.0,0.0,0.0,0.0,4.0,0.0,-0.08277662666666667,-0.05193680000000001,1.0440429866666667,-3.6995442133333345,7.242024786666668,-1.7301432533333325,3.324095102890716,1.6194382236918419,-4.451951129106337,-2.400136294589548,19.32525781060172,36.256928085334394,41.155693140365635,-2.5803910038586766,41.37722304915973,-2.5693462847289252,-0.3266473733333333,0.01360680000000001,0.8377930133333333,1.1780471866666666,0.8993224030913235,0.6928359121361959,0.854580971796387,1.3859954260988705
LBP09_S01,LBP09,123,124,1,123,123,1716537636.92,2024-05-24 08:00:36.920000+00:00,2024-05-24 17:00:36.920000+09:00,2024,5,24,8,0,36,920,,,,,,,,,0.207031,-0.037842,1.752686,39.0625,-22.277832,-30.456543,,,,,,,,,,,0.0,1.0,1.0,1.0,0.0,0.0,0.0,4.0,0.0,-0.07812168,-0.04352534666666668,1.0242643333333334,-6.36393224,7.896321666666666,-3.4016927333333324,6.081437771448301,4.4887336054264395,-4.773701862472427,-2.156878783731616,19.504807154818778,36.065980010835496,41.059037280194076,-2.6324280224732615,41.25280383237445,-2.496600033713052,0.28515268,0.005683346666666679,0.7284216666666665,1.0192576933333333,0.7822675218938596,0.6936528473787348,0.8430673908649797,1.3793622664564709
LBP09_S01,LBP09,124,125,1,124,124,1716537636.96,2024-05-24 08:00:36.960000+00:00,2024-05-24 17:00:36.960000+09:00,2024,5,24,8,0,36,960,,,,,,,,,-0.404785,-0.025146,0.286133,41.442871,173.950195,19.470215,,,,,,,,,,,0.0,1.0,1.0,1.0,0.0,0.0,0.0,4.0,0.0,-0.06537102666666667,-0.048310506666666676,1.00638672,-5.3727213066666675,9.15120448,-3.5994466399999987,8.362641622336204,7.447757890584914,-5.205735857119209,-1.8223731188381678,19.802717470442175,35.85775057655073,41.00301134561392,-2.5046995363100053,41.15977268922673,-2.424219928605676,-0.33941397333333334,0.023164506666666675,-0.7202537200000001,1.0828322000000001,0.7965575062962305,0.685403646381975,0.8388776013495837,1.373223633283957
LBP09_S01,LBP09,125,126,1,125,125,1716537637.0,2024-05-24 08:00:37+00:00,2024-05-24 17:00:37+09:00,2024,5,24,8,0,37,0,8.0,0.0,36.0,40.543129,141.509705,-2.802,3.0,13.0,0.141602,-0.115234,0.213135,28.747559,-28.015137,-2.624512,-289.0,139.0,251.0,185.0,0.0,1009.099976,23.860001,-0.038648,34.588902,3.944531,0.0,1.0,1.0,1.0,0.0,0.0,0.0,5.0,0.0,-0.06177077333333334,-0.06043941333333334,0.9988769466666667,-7.312011666666667,7.4959310399999985,-3.3414713733333317,9.73941064046869,10.128923502098498,-5.768598786842519,-1.43279669321942,20.207874410526117,35.62700662507703,40.98407856252205,-2.367047471134766,41.086620197698764,-2.363605407012513,0.20337277333333334,-0.054794586666666666,-0.7857419466666667,1.0439093066666667,0.8134822299305531,0.6726235681594602,0.8440397900380154,1.3779266417442702
LBP09_S01,LBP09,126,127,1,126,126,1716537637.04,2024-05-24 08:00:37.040000+00:00,2024-05-24 17:00:37.040000+09:00,2024,5,24,8,0,37,40,,,,,,,,,0.287598,-0.044922,0.705078,-1.525879,-50.720215,-23.193359,,,,,,,,,,,0.0,1.0,1.0,1.0,0.0,0.0,0.0,5.0,0.0,-0.044420520000000005,-0.062304653333333335,1.0175878933333333,-7.5561522933333345,5.650227906666666,-3.685709653333332,10.020424012678907,12.27888256172723,-6.559542072181192,-1.0319797327122637,20.699029712995205,35.364624942189785,40.989895224676275,-2.190599719613809,41.02182480035031,-2.305711851056178,0.33201852000000004,0.017382653333333338,-0.31250989333333334,0.6619110666666668,0.456290354589168,0.6714411309891727,0.8411481119660098,1.3764945260654604
LBP09_S01,LBP09,127,128,1,127,127,1716537637.08,2024-05-24 08:00:37.080000+00:00,2024-05-24 17:00:37.080000+09:00,2024,5,24,8,0,37,80,,,,,,,,,0.431641,-0.040039,1.296387,-35.583496,51.330566,5.859375,,,,,,,,,,,0.0,1.0,1.0,1.0,0.0,0.0,0.0,5.0,0.0,-0.03006504,-0.06583005333333333,1.03458984,-8.591308533333335,6.5820312933333325,-3.8614909066666656,9.273317740111427,13.784681998704404,-7.689392960260688,-0.6610470231078067,21.250416992943382,35.05704922377936,41.00016958281058,-1.999817950423101,40.95367512467629,-2.2407804380097334,0.46170604,0.025791053333333334,0.26179716,0.7492942533333333,0.5313900627491918,0.6481466333714103,0.8368156503693762,1.3700148715825695
LBP09_S01,LBP09,128,129,1,128,128,1716537637.12,2024-05-24 08:00:37.120000+00:00,2024-05-24 17:00:37.120000+09:00,2024,5,24,8,0,37,120,,,,,,,,,-0.349854,-0.215576,1.814941,-9.521484,40.222168,0.366211,,,,,,,,,,,0.0,1.0,1.0,1.0,0.0,0.0,0.0,5.0,0.0,-0.038964773333333334,-0.07581052,1.04236328,-8.551432226666668,5.961914106666667,-3.5945638266666653,7.764310007050216,14.621089353382285,-9.217988828008034,-0.3504746228257981,21.835260567078674,34.68832967065904,40.99001892941487,-2.0463510110784955,40.87043547791902,-2.1913718540377145,-0.3108892266666667,-0.13976548,0.7725777199999999,1.2232324266666665,0.8444304791381152,0.6516505652405491,0.8361347939039525,1.3633991725706012
LBP09_S01,LBP09,129,130,1,129,129,1716537637.16,2024-05-24 08:00:37.160000+00:00,2024-05-24 17:00:37.160000+09:00,2024,5,24,8,0,37,160,,,,,,,,,-0.37915,-0.059326,2.002197,25.32959,-90.637207,-24.597168,,,,,,,,,,,0.0,1.0,1.0,1.0,0.0,0.0,0.0,5.0,0.0,-0.03185214666666667,-0.06174476000000001,1.041510413333333,-6.4388020133333335,4.229329466666666,-6.193033879999999,5.880885929540498,14.779748571617834,-11.10645211941803,-0.11523918564417818,22.426450509943386,34.24407158588232,40.934281492703406,-2.047582091441821,40.76114359753736,-2.106874073735231,-0.3472978533333333,0.002418760000000013,0.9606865866666667,1.3104032,1.0215382357656173,0.6737733566612026,0.8320808108022174,1.3571765666353206
LBP09_S01,LBP09,130,131,1,130,130,1716537637.2,2024-05-24 08:00:37.200000+00:00,2024-05-24 17:00:37.200000+09:00,2024,5,24,8,0,37,200,,,,,,,,,0.270996,-0.018066,1.596924,41.137695,38.574219,-23.925781,,,,,,,,,,,0.0,1.0,1.0,1.0,0.0,0.0,0.0,5.0,0.0,-0.02993482666666667,-0.06194658666666668,1.02050456,-5.563150973333334,5.752766973333334,-6.14664716,4.077087647905649,14.237168767650957,-13.197183396312568,0.04784432027204777,22.995937260649423,33.71618425002981,40.8117201298434,-2.0214952957328682,40.617016582428874,-2.0338917365729294,0.3009308266666667,0.04388058666666668,0.57641944,0.9212308533333333,0.6517240513702159,0.6762026728480772,0.8193722858161111,1.353746012829286
LBP09_S01,LBP09,131,132,1,131,131,1716537637.24,2024-05-24 08:00:37.240000+00:00,2024-05-24 17:00:37.240000+09:00,2024,5,24,8,0,37,240,,,,,,,,,-0.690918,-0.010498,-0.018311,30.151367,116.333008,19.958496,,,,,,,,,,,0.0,1.0,1.0,1.0,0.0,0.0,0.0,5.0,0.0,-0.02748690666666667,-0.05747392000000001,0.9958040400000001,-5.716145773333333,7.626139360000001,-5.920410186666666,2.8232296170936317,12.982993865844161,-15.225178200164088,0.16077350495579304,23.51525701528319,33.10717712202325,40.60884555861864,-2.0173922780305245,40.433081867186445,-1.9927636204036818,-0.6634310933333334,0.04697592000000001,-1.01411504,1.7245220533333336,1.2127558975389525,0.7118870865368839,0.8201798849997342,1.357376108031199
LBP09_S01,LBP09,132,133,1,132,132,1716537637.28,2024-05-24 08:00:37.280000+00:00,2024-05-24 17:00:37.280000+09:00,2024,5,24,8,0,37,280,,,,,,,,,0.011475,0.216309,0.280029,10.375977,-38.146973,-25.45166,,,,,,,,,,,0.0,1.0,1.0,1.0,0.0,0.0,0.0,5.0,0.0,-0.030891853333333337,-0.05457678666666669,0.98626628,-6.053873640000001,4.79573572,-6.726074253333333,2.513399084674548,11.08368330298931,-16.859916056527084,0.26130946834277496,23.958604347402762,32.432780479762165,40.323296672792935,-2.0863051641384938,40.20942524932662,-1.9712978463840993,0.042366853333333336,0.2708857866666667,-0.7062372800000001,1.01948992,0.7575916811457116,0.7166575513124875,0.8146654609111059,1.3563554904107908
LBP09_S01,LBP09,133,134,1,133,133,1716537637.32,2024-05-24 08:00:37.320000+00:00,2024-05-24 17:00:37.320000+09:00,2024,5,24,8,0,37,320,,,,,,,,,0.349365,-0.19165,0.728516,-92.956543,-33.996582,-24.108887,,,,,,,,,,,0.0,1.0,1.0,1.0,0.0,0.0,0.0,5.0,0.0,-0.013636000000000006,-0.06206377333333335,1.0039648399999999,-5.951334573333334,2.511393266666667,-7.305501333333333,3.319444746657814,8.726206983511407,-17.774216519724025,0.3940872582090875,24.307652626743216,31.721811818973205,39.96611847637755,-1.7874502194484254,39.951532075234574,-1.9633313700019979,0.36300099999999996,-0.12958622666666664,-0.2754488399999998,0.7680360666666664,0.47374505759960195,0.7099762782619747,0.8107653340720883,1.3465064161258402
LBP09_S01,LBP09,134,135,1,134,134,1716537637.36,2024-05-24 08:00:37.360000+00:00,2024-05-24 17:00:37.360000+09:00,2024,5,24,8,0,37,360,,,,,,,,,0.251709,-0.127197,1.28418,10.681152,63.049316,-38.391113,,,,,,,,,,,0.0,1.0,1.0,1.0,0.0,0.0,0.0,5.0,0.0,-0.01289706666666667,-0.062428360000000016,1.0184081999999999,-6.276041600000001,3.7255859866666667,-7.552083359999998,5.052209998766661,6.202952973129329,-17.72678672547071,0.5961756581597539,24.55577074566839,31.012740349954377,39.56174119452901,-1.7748761646869913,39.66958840438566,-1.9475203751975705,0.2646060666666667,-0.06476863999999999,0.2657718000000002,0.5951465066666669,0.3805863856202612,0.7098402450928687,0.8027552964420654,1.2810288976954793
LBP09_S01,LBP09,135,136,1,135,135,1716537637.4,2024-05-24 08:00:37.400000+00:00,2024-05-24 17:00:37.400000+09:00,2024,5,24,8,0,37,400,,,,,,,,,-0.415283,-0.173096,1.721436,5.615234,23.4375,-9.399414,,,,,,,,,,,0.0,1.0,1.0,1.0,0.0,0.0,0.0,5.0,0.0,-0.025973240000000005,-0.06420570666666668,1.03074544,-6.928710866666667,3.663737026666667,-7.691243506666666,7.131145897852437,3.8445508990335013,-16.630869363282184,0.8814214940738514,24.70955278162973,30.34750557542309,39.14473141009778,-1.9557663094422888,39.37702856563573,-1.9322936298757327,-0.38930976,-0.10889029333333332,0.69069056,1.1888906133333332,0.8002953422872024,0.7010137151491636,0.7960833973329468,1.181972621159127
LBP09_S01,LBP09,136,137,1,136,136,1716537637.44,2024-05-24 08:00:37.440000+00:00,2024-05-24 17:00:37.440000+09:00,2024,5,24,8,0,37,440,,,,,,,,,-0.229736,-0.238525,1.847656,6.652832,-115.783691,-25.756836,,,,,,,,,,,0.0,1.0,1.0,1.0,0.0,0.0,0.0,5.0,0.0,-0.028590426666666672,-0.06677732000000001,1.0352929733333331,-5.87239576,1.7635091600000001,-8.936360693333333,8.725828906475762,1.9345760357740795,-14.579823772418198,1.230454650332882,24.78693582306069,29.76431262452636,38.75332904607802,-1.975941979417986,39.088726985055494,-1.9014414516657308,-0.20114557333333333,-0.17174767999999996,0.8123630266666668,1.1852562800000002,0.8543362887949951,0.7118438997714667,0.7871729756954126,1.0839667447747556
LBP09_S01,LBP09,137,138,1,137,137,1716537637.48,2024-05-24 08:00:37.480000+00:00,2024-05-24 17:00:37.480000+09:00,2024,5,24,8,0,37,480,,,,,,,,,0.17749,-0.408203,1.394287,23.864746,61.279297,11.474609,,,,,,,,,,,0.0,1.0,1.0,1.0,0.0,0.0,0.0,5.0,0.0,-0.024114520000000004,-0.06631508000000001,1.0212565066666668,-5.1066080000000005,3.7947591600000004,-8.623046893333331,9.039475387895877,0.6417320171625849,-11.820485532186808,1.592033665848717,24.812605103747195,29.29149320323889,38.42123784189009,-1.920153186602086,38.81903421014286,-1.864754429567571,0.20160452,-0.34188791999999996,0.37303049333333327,0.9165229333333332,0.5446865899605633,0.7086770132976903,0.7752860852906649,0.9982867786892119
LBP09_S01,LBP09,138,139,1,138,138,1716537637.52,2024-05-24 08:00:37.520000+00:00,2024-05-24 17:00:37.520000+09:00,2024,5,24,8,0,37,520,,,,,,,,,-0.614014,0.234863,-0.004639,76.538086,67.504883,6.04248,,,,,,,,,,,0.0,1.0,1.0,1.0,0.0,0.0,0.0,5.0,0.0,-0.021126240000000004,-0.06442056000000002,0.9943164,-3.570963466666667,5.393066453333334,-8.36914064,7.61998629699792,-0.005973834710041807,-8.693064785985156,1.896833117728634,24.812366150358795,28.943770611799483,38.170582220925716,-1.8882410630342203,38.57971719408713,-1.830444581396409,-0.59288776,0.29928356,-0.9989553999999999,1.89112672,1.1995826092575914,0.7437051930520842,0.7734788680750381,0.9444962552180481
LBP09_S01,LBP09,139,140,1,139,139,1716537637.56,2024-05-24 08:00:37.560000+00:00,2024-05-24 17:00:37.560000+09:00,2024,5,24,8,0,37,560,,,,,,,,,0.068604,0.124512,0.317871,42.84668,-48.76709,-16.418457,,,,,,,,,,,0.0,1.0,1.0,1.0,0.0,0.0,0.0,5.0,0.0,-0.022255800000000003,-0.06628905333333335,0.9855859333333332,-3.212890546666667,3.2291667200000007,-8.238118506666666,4.555578456980942,-0.10575887905144678,-5.5701036005193085,2.079056256007872,24.808135795196737,28.72096646777871,38.00868310520421,-1.8953146382234447,38.378045028298146,-1.8364813743464936,0.0908598,0.19080105333333336,-0.6677149333333332,0.9493757866666666,0.7003597485617568,0.742634453801266,0.7667758465933062,0.8443677251680771
LBP09_S01,LBP09,140,141,1,140,140,1716537637.6,2024-05-24 08:00:37.600000+00:00,2024-05-24 17:00:37.600000+09:00,2024,5,24,8,0,37,600,,,,,,,,,0.359375,-0.056885,0.648682,-42.297363,-57.189941,-24.414062,,,,,,,,,,,0.0,1.0,1.0,1.0,0.0,0.0,0.0,5.0,0.0,-0.009648373333333333,-0.06755533333333334,0.99632812,-2.6448566933333337,1.1751302666666672,-8.117675799999999,0.4533986393482734,0.15517346583617933,-2.8158042654254096,2.0971922015818025,24.814342733830184,28.608334297161694,37.92870432404097,-1.7129735136328441,38.2155765665746,-1.8410260265355145,0.36902337333333335,0.010670333333333344,-0.34764612000000006,0.7273398266666667,0.5070995275395271,0.7296618796181075,0.759385730780066,0.8147776744178529
LBP09_S01,LBP09,141,142,1,141,141,1716537637.64,2024-05-24 08:00:37.640000+00:00,2024-05-24 17:00:37.640000+09:00,2024,5,24,8,0,37,640,,,,,,,,,0.363525,-0.052246,1.098145,-43.09082,40.893555,-2.319336,,,,,,,,,,,0.0,1.0,1.0,1.0,0.0,0.0,0.0,5.0,0.0,-0.005680280000000003,-0.07127277333333334,1.0089811066666665,-2.4723306533333336,2.0084636000000002,-8.326009133333333,-3.7989026165387245,0.5446829495437518,-0.7609255934205681,1.9452360969202536,24.836130051811935,28.57789727342487,37.91191780949234,-1.6505220570489294,38.088264957346354,-1.8352014098316705,0.36920527999999997,0.019026773333333344,0.08916389333333341,0.47739594666666674,0.3802956175894149,0.7298026190492068,0.7363418014124201,0.8176876258022518
LBP09_S01,LBP09,142,143,1,142,142,1716537637.68,2024-05-24 08:00:37.680000+00:00,2024-05-24 17:00:37.680000+09:00,2024,5,24,8,0,37,680,,,,,,,,,-0.279053,-0.198486,1.624756,-68.17627,46.99707,20.385742,,,,,,,,,,,0.0,1.0,1.0,1.0,0.0,0.0,0.0,5.0,0.0,-0.012366480000000003,-0.07118162666666668,1.0223079199999998,-0.9773762266666667,3.032226626666667,-9.157714853333331,-7.372275489235611,0.8509409745791084,0.3277152349434448,1.650345077350829,24.8701676907951,28.591005882822607,37.930126512235645,-1.743206682426874,37.98811453492412,-1.8293216648431188,-0.26668652,-0.12730437333333333,0.6024480800000003,0.9964389733333336,0.6710229448500177,0.7048092535722594,0.7256311060567273,0.821691529020636
LBP09_S01,LBP09,143,144,1,143,143,1716537637.72,2024-05-24 08:00:37.720000+00:00,2024-05-24 17:00:37.720000+09:00,2024,5,24,8,0,37,720,,,,,,,,,-0.193359,-0.176758,1.805664,-5.981445,-84.777832,-15.74707,,,,,,,,,,,0.0,1.0,1.0,1.0,0.0,0.0,0.0,5.0,0.0,-0.020442653333333335,-0.07205728000000002,1.0339062266666668,-0.15218090666666673,1.9108073600000004,-10.168457039999998,-9.763786604251885,0.9660257729121248,0.2951672187081058,1.2597936131807537,24.908808721711583,28.602812571570933,37.94939681848767,-1.8478181489492718,37.905937606306686,-1.8187875035193286,-0.17291634666666666,-0.10470071999999998,0.7717577733333332,1.0493748399999998,0.7977921812185738,0.7103607596859186,0.7140412839156098,0.8227313609941708
LBP09_S01,LBP09,144,145,1,144,144,1716537637.76,2024-05-24 08:00:37.760000+00:00,2024-05-24 17:00:37.760000+09:00,2024,5,24,8,0,37,760,,,,,,,,,0.14209,-0.204346,1.595215,22.521973,28.869629,-7.751465,,,,,,,,,,,0.0,1.0,1.0,1.0,0.0,0.0,0.0,5.0,0.0,-0.01883458666666667,-0.07408526666666668,1.0344173066666666,1.114095133333333,2.4308268933333337,-10.371093759999999,-10.87016451255508,0.9560202916365788,-0.8467945999201072,0.8249870326785504,24.947049533377047,28.568940787574128,37.93705657729356,-1.8203226865772,37.83413239370498,-1.8000631745453783,0.16092458666666667,-0.13026073333333332,0.5607976933333334,0.8519830133333334,0.597794809353814,0.7101975795587573,0.7077432330500797,0.825298887484523
LBP09_S01,LBP09,145,146,1,145,145,1716537637.8,2024-05-24 08:00:37.800000+00:00,2024-05-24 17:00:37.800000+09:00,2024,5,24,8,0,37,800,,,,,,,,,-0.458496,0.238281,0.085693,40.161133,122.070312,31.860352,,,,,,,,,,,0.0,1.0,1.0,1.0,0.0,0.0,0.0,5.0,0.0,-0.023658813333333337,-0.06996417333333335,1.01362628,2.42350268,4.052734440000001,-10.286458346666665,-10.86751733165006,1.0740390820239711,-2.883995998853997,0.39028633941254803,24.990011096658005,28.45358094761997,37.871615317815326,-1.8975201424038495,37.7683058039753,-1.789113484997801,-0.43483718666666665,0.30824517333333334,-0.92793328,1.67101564,1.070120852017676,0.7385388703959176,0.7060499601260081,0.8267016147929874
LBP09_S01,LBP09,146,147,1,146,146,1716537637.84,2024-05-24 08:00:37.840000+00:00,2024-05-24 17:00:37.840000+09:00,2024,5,24,8,0,37,840,,,,,,,,,0.005859,-0.374756,0.353516,-42.541504,-36.804199,22.644043,,,,,,,,,,,0.0,1.0,1.0,1.0,0.0,0.0,0.0,5.0,0.0,-0.023229133333333336,-0.06448240000000002,0.9962532266666667,2.7815756,4.060058653333334,-10.231119813333331,-10.006078638584993,1.6815202325576004,-5.412251023167081,-0.009956806130851703,25.05727190596031,28.237090906693286,37.75182482185566,-1.9171445295324656,37.70718817568725,-1.805991049937647,0.029088133333333335,-0.3102735999999999,-0.6427372266666667,0.9820989599999999,0.7143017351938435,0.7383748045341512,0.7126122651406077,0.8214106969400297
LBP09_S01,LBP09,147,148,1,147,147,1716537637.88,2024-05-24 08:00:37.880000+00:00,2024-05-24 17:00:37.880000+09:00,2024,5,24,8,0,37,880,,,,,,,,,0.137939,-0.046143,0.534424,42.541504,-99.365234,-51.086426,,,,,,,,,,,0.0,1.0,1.0,1.0,0.0,0.0,0.0,5.0,0.0,-0.01580726666666667,-0.06361000000000001,0.9972265333333333,1.5104167466666665,1.3387044933333339,-10.634765639999998,-8.456312521065039,3.076080299250167,-7.9164756016072815,-0.34820930697345326,25.180315117930316,27.920431882628996,37.59946855571577,-1.814811573364185,37.651245947608984,-1.8303827793158463,0.1537462666666667,0.01746700000000001,-0.4628025333333333,0.6340158,0.4879848311809383,0.7219213016577356,0.7073786068969657,0.8103610817501699
LBP09_S01,LBP09,148,149,1,148,148,1716537637.92,2024-05-24 08:00:37.920000+00:00,2024-05-24 17:00:37.920000+09:00,2024,5,24,8,0,37,920,,,,,,,,,0.615234,0.148926,0.946533,9.277344,-16.296387,-30.639648,,,,,,,,,,,0.0,1.0,1.0,1.0,0.0,0.0,0.0,5.0,0.0,-0.008948533333333336,-0.06849281333333333,1.0133593466666668,1.5323893999999996,2.0043945866666673,-10.253906266666664,-6.2886943650973315,5.291599393452156,-9.906653576237126,-0.5997570815773465,25.391979093668404,27.524165739579512,37.452530094908646,-1.7009977732947215,37.6010085678157,-1.8496960262571343,0.6241825333333333,0.21741881333333335,-0.06682634666666687,0.9084276933333335,0.6643346565688908,0.717203987044737,0.7054284172117359,0.8011129229248988
LBP09_S01,LBP09,149,150,1,149,149,1716537637.96,2024-05-24 08:00:37.960000+00:00,2024-05-24 17:00:37.960000+09:00,2024,5,24,8,0,37,960,,,,,,,,,0.046143,-0.155029,1.498779,-85.083008,59.509277,10.314941,,,,,,,,,,,0.0,1.0,1.0,1.0,0.0,0.0,0.0,5.0,0.0,-0.01479162666666667,-0.06786781333333335,1.0300422933333335,1.5120443466666664,2.845052133333334,-10.071614599999998,-3.5812589911075077,7.990917209194738,-11.063515358510466,-0.7430074412216469,25.711615782036194,27.081625125239093,37.35041720790739,-1.785817742747669,37.55602322515902,-1.8569515930492504,0.06093462666666667,-0.08716118666666665,0.46873670666666656,0.6168325199999999,0.4806497699623502,0.7045676775913817,0.6949856619866784,0.7941076267635164
LBP09_S01,LBP09,150,151,1,150,150,1716537638.0,2024-05-24 08:00:38+00:00,2024-05-24 17:00:38+09:00,2024,5,24,8,0,38,0,8.0,0.0,37.0,40.543179,141.509781,-2.762,3.0,13.0,-0.283691,-0.05957,1.675781,-32.592773,1.159668,-23.803711,-292.0,137.0,253.0,175.0,0.0,1009.299988,23.92,-0.036666,32.919235,3.944531,0.0,1.0,1.0,1.0,0.0,0.0,0.0,4.0,0.0,-0.023450480000000003,-0.07312822666666668,1.045791,0.9261068399999995,2.301432346666667,-9.633789066666667,-0.571716212766969,10.539132040636323,-11.332274001777806,-0.7658760897323256,26.133181063661645,26.62833416516798,37.31752804116049,-1.8817491630313066,37.51472810412711,-1.8611864666067297,-0.26024052000000003,0.013558226666666687,0.62999,0.9037887466666668,0.6817597479025989,0.6992987783102635,0.6859611732348618,0.7957927861287648
LBP09_S01,LBP09,151,152,1,151,151,1716537638.04,2024-05-24 08:00:38.040000+00:00,2024-05-24 17:00:38.040000+09:00,2024,5,24,8,0,38,40,,,,,,,,,-0.033691,-0.186523,1.855225,-2.197266,-22.766113,-26.794434,,,,,,,,,,,0.0,1.0,1.0,1.0,0.0,0.0,0.0,4.0,0.0,-0.02500648,-0.07471677333333335,1.0481673066666668,2.475586013333333,2.4275716666666676,-9.691569013333332,2.2626213794843744,12.238270082415282,-10.92594333977744,-0.6753712345529506,26.622711866958255,26.191296431576884,37.35249552870964,-1.8944393508309174,37.47489047812325,-1.8398654494773297,-0.008684519999999998,-0.11180622666666665,0.8070576933333331,0.9275484399999998,0.8148117411878579,0.7136396337742111,0.692540382381692,0.798645285902077
LBP09_S01,LBP09,152,153,1,152,152,1716537638.08,2024-05-24 08:00:38.080000+00:00,2024-05-24 17:00:38.080000+09:00,2024,5,24,8,0,38,80,,,,,,,,,-0.040527,-0.219727,1.115967,52.307129,120.910645,3.479004,,,,,,,,,,,0.0,1.0,1.0,1.0,0.0,0.0,0.0,4.0,0.0,-0.026103493333333335,-0.06833005333333333,1.0251562399999998,3.077799546666666,3.4928385866666667,-9.414062493333331,4.276603973315061,12.611942679276966,-10.239000000758196,-0.504307075620348,27.127189574129332,25.781736431546555,37.42775271430288,-1.9363391518397564,37.43402728369229,-1.8248952688681688,-0.014423506666666665,-0.15139694666666667,0.0908107600000001,0.25663121333333344,0.17713177901305713,0.6994693024247658,0.673807967898088,0.7910335343878394
LBP09_S01,LBP09,153,154,1,153,153,1716537638.12,2024-05-24 08:00:38.120000+00:00,2024-05-24 17:00:38.120000+09:00,2024,5,24,8,0,38,120,,,,,,,,,-0.310791,0.265869,0.016113,28.747559,44.372559,0.183105,,,,,,,,,,,0.0,1.0,1.0,1.0,0.0,0.0,0.0,4.0,0.0,-0.025048813333333336,-0.06885088,1.0065820266666667,3.839518293333333,4.776204466666667,-8.789062493333331,4.863417894577364,11.604733697957013,-9.703073525277969,-0.30977035983725343,27.591378922047614,25.393613490535436,37.49954339192079,-1.9203738168704338,37.389498228665204,-1.82989579010659,-0.2857421866666666,0.33471988,-0.9904690266666667,1.6109310933333334,1.0838426491397526,0.7090457892248313,0.6803481772326901,0.7937717923442454
LBP09_S01,LBP09,154,155,1,154,154,1716537638.16,2024-05-24 08:00:38.160000+00:00,2024-05-24 17:00:38.160000+09:00,2024,5,24,8,0,38,160,,,,,,,,,0.025391,-0.208008,0.416016,11.230469,-47.424316,12.207031,,,,,,,,,,,0.0,1.0,1.0,1.0,0.0,0.0,0.0,4.0,0.0,-0.018968080000000002,-0.06324541333333333,1.0013932133333332,4.014485746666666,3.0387370133333342,-9.475911453333332,3.6891003874554626,9.599650136560301,-9.634806124674467,-0.1622063443390349,27.975364927510025,25.00822124554846,37.52410536697448,-1.8626714221519927,37.33841040432274,-1.848639477636968,0.04435908,-0.14476258666666666,-0.5853772133333333,0.7744988799999999,0.6046407333009985,0.6923698891262465,0.6830716228937246,0.7855105035768938
LBP09_S01,LBP09,155,156,1,155,155,1716537638.2,2024-05-24 08:00:38.200000+00:00,2024-05-24 17:00:38.200000+09:00,2024,5,24,8,0,38,200,,,,,,,,,0.541504,0.065918,0.807617,33.325195,-66.52832,-32.409668,,,,,,,,,,,0.0,1.0,1.0,1.0,0.0,0.0,0.0,4.0,0.0,-0.008020813333333335,-0.0705208,1.0221158799999999,2.3925781866666664,3.4822591466666677,-9.244791666666664,0.8349636117688752,7.2446830623429275,-10.130219532438794,-0.1288077998682799,28.26515225000374,24.603012464250906,37.47323905777674,-1.6843099711098493,37.2776886791613,-1.8617383215122114,0.5495248133333334,0.1364388,-0.21449887999999984,0.9004624933333332,0.6054773621992231,0.6905200215594067,0.6833613472037419,0.7764215310638763
LBP09_S01,LBP09,156,157,1,156,156,1716537638.24,2024-05-24 08:00:38.240000+00:00,2024-05-24 17:00:38.240000+09:00,2024,5,24,8,0,38,240,,,,,,,,,0.153809,-0.125244,1.268066,-82.458496,49.865723,18.981934,,,,,,,,,,,0.0,1.0,1.0,1.0,0.0,0.0,0.0,4.0,0.0,-0.014283826666666668,-0.07186193333333334,1.04207356,2.2989909466666663,3.8199870133333342,-9.388834639999999,-3.2100121694666033,5.182299733994979,-11.043122261605173,-0.25720828664694406,28.47244423936354,24.161287573786698,37.34319287754604,-1.767442723440857,37.20453401490469,-1.8564501021957684,0.16809282666666667,-0.05338206666666666,0.22599243999999996,0.4474673333333333,0.2866660537202619,0.6534764278066593,0.6826817571717716,0.7646120659353758
LBP09_S01,LBP09,157,158,1,157,157,1716537638.28,2024-05-24 08:00:38.280000+00:00,2024-05-24 17:00:38.280000+09:00,2024,5,24,8,0,38,280,,,,,,,,,-0.241455,0.022217,1.620605,-6.408691,6.04248,-29.541016,,,,,,,,,,,0.0,1.0,1.0,1.0,0.0,0.0,0.0,4.0,0.0,-0.02232418666666667,-0.07388993333333334,1.0576432266666667,1.8408203733333328,3.2039388266666675,-9.24967448,-7.677905357509336,3.822066200996527,-12.051857266808867,-0.5643245009473175,28.6253268874034,23.679213283114343,37.15417800544493,-1.864816785748397,37.117185194366215,-1.8426814915520713,-0.21913081333333334,0.09610693333333334,0.5629617733333334,0.8781995200000001,0.6117032076272589,0.6476408888659211,0.6821492200892044,0.758990603562711
LBP09_S01,LBP09,158,159,1,158,158,1716537638.32,2024-05-24 08:00:38.320000+00:00,2024-05-24 17:00:38.320000+09:00,2024,5,24,8,0,38,320,,,,,,,,,-0.124268,-0.179199,1.814453,-26.306152,-71.044922,-31.921387,,,,,,,,,,,0.0,1.0,1.0,1.0,0.0,0.0,0.0,4.0,0.0,-0.024693973333333334,-0.07527990666666667,1.0566471333333332,3.610026106666666,3.849283880000001,-9.056803386666665,-11.691064218967043,3.252206672359501,-12.785424907530114,-1.031967069705999,28.75541515429778,23.16779628681314,36.94165185148397,-1.888434648598499,37.01563252017614,-1.811758008217342,-0.09957402666666668,-0.10391909333333332,0.7578058666666669,0.9612989866666669,0.7713519924783071,0.6595451662610694,0.684760722261522,0.7603586114684152
LBP09_S01,LBP09,159,160,1,159,159,1716537638.36,2024-05-24 08:00:38.360000+00:00,2024-05-24 17:00:38.360000+09:00,2024,5,24,8,0,38,360,,,,,,,,,0.169434,-0.059082,1.425293,55.725098,58.105469,-18.859863,,,,,,,,,,,0.0,1.0,1.0,1.0,0.0,0.0,0.0,4.0,0.0,-0.024316360000000002,-0.06757482666666668,1.0325976533333334,3.048502666666667,4.166666693333334,-9.147135413333332,-14.404463560370228,3.2993323519839968,-12.959863575955449,-1.6081456121208082,28.887388448377138,22.64940174377492,36.74319995629301,-1.916806181500105,36.901853797724314,-1.7932468316165946,0.19375036,0.008492826666666682,0.3926953466666665,0.5949385333333332,0.4379737040035315,0.6618406589964002,0.6858404520446344,0.7557837506268437
LBP09_S01,LBP09,160,161,1,160,160,1716537638.4,2024-05-24 08:00:38.400000+00:00,2024-05-24 17:00:38.400000+09:00,2024,5,24,8,0,38,400,,,,,,,,,-0.602783,0.395752,0.001953,-24.963379,96.740723,-5.310059,,,,,,,,,,,0.0,1.0,1.0,1.0,0.0,0.0,0.0,4.0,0.0,-0.018238880000000002,-0.06924800000000002,1.0131152266666668,3.7426758399999995,4.599609400000001,-9.357910146666665,-15.11175067545398,3.6765556024809527,-12.475708978203704,-2.2126156391389675,29.034450672476375,22.150373384646773,36.585981398594384,-1.8288669698668796,36.77930753596236,-1.7892572025752593,-0.58454412,0.465,-1.0111622266666667,2.0607063466666666,1.2571260385753156,0.6801138868479246,0.6905638009985441,0.7574268938379393
LBP09_S01,LBP09,161,162,1,161,161,1716537638.44,2024-05-24 08:00:38.440000+00:00,2024-05-24 17:00:38.440000+09:00,2024,5,24,8,0,38,440,,,,,,,,,0.008545,-0.344971,0.385986,-29.11377,-28.686523,14.709473,,,,,,,,,,,0.0,1.0,1.0,1.0,0.0,0.0,0.0,4.0,0.0,-0.012509706666666667,-0.06663732000000001,0.9992708133333333,3.3528646399999995,4.085286480000001,-9.467773426666664,-13.349050570974514,4.127233091059381,-11.448797160357753,-2.7465776619779483,29.19953999611875,21.692421498232463,36.479007323324915,-1.7567532443939424,36.65172038043065,-1.8073282043618046,0.021054706666666666,-0.27833368,-0.6132848133333333,0.9126732,0.6738183734215499,0.6728931702329868,0.6923685350022268,0.7490797072079374
LBP09_S01,LBP09,162,163,1,162,162,1716537638.48,2024-05-24 08:00:38.480000+00:00,2024-05-24 17:00:38.480000+09:00,2024,5,24,8,0,38,480,,,,,,,,,0.33374,0.058594,0.594482,26.794434,-80.383301,-43.151855,,,,,,,,,,,0.0,1.0,1.0,1.0,0.0,0.0,0.0,4.0,0.0,-0.003893173333333335,-0.06922846666666668,1.01211912,1.815592506666666,2.788085960000001,-9.545084626666664,-9.018179622682714,4.487730796310216,-10.176670772430327,-3.107304846885257,29.37904922797116,21.28535466733525,36.412225972402176,-1.6271043184924616,36.521476095607525,-1.8214398123864435,0.3376331733333333,0.1278224666666667,-0.41763712,0.88309276,0.552046652667854,0.6731875727412785,0.6909322930194844,0.7412532477742028
LBP09_S01,LBP09,163,164,1,163,163,1716537638.52,2024-05-24 08:00:38.520000+00:00,2024-05-24 17:00:38.520000+09:00,2024,5,24,8,0,38,520,,,,,,,,,0.422607,-0.013428,0.971436,-83.557129,32.165527,-9.887695,,,,,,,,,,,0.0,1.0,1.0,1.0,0.0,0.0,0.0,4.0,0.0,-0.011376906666666669,-0.06869786666666669,1.03123696,1.2752279199999996,3.304850293333334,-9.762369773333331,-2.4992222122669965,4.6617879042661725,-9.059606962711968,-3.207273735375937,29.565520744141807,20.92297038882677,36.3617561674025,-1.7352620508629606,36.388104980075035,-1.8176257912039469,0.4339839066666667,0.05526986666666669,-0.059800960000000014,0.5490547333333333,0.44155740761981876,0.6428665646757676,0.6932858788639258,0.7299414336086146
LBP09_S01,LBP09,164,165,1,164,164,1716537638.56,2024-05-24 08:00:38.560000+00:00,2024-05-24 17:00:38.560000+09:00,2024,5,24,8,0,38,560,,,,,,,,,-0.0979,-0.317139,1.56665,-1.342773,43.701172,-4.699707,,,,,,,,,,,0.0,1.0,1.0,1.0,0.0,0.0,0.0,4.0,0.0,-0.017600866666666666,-0.06850254666666666,1.0465657333333334,1.4884440666666663,2.437337280000001,-10.192057279999998,5.31958284901958,4.56725801070611,-8.494072201793049,-2.9944904214151538,29.74821106457005,20.583207500755048,36.29864274935488,-1.8227751317386427,36.24747149194442,-1.8138306460893083,-0.08029913333333333,-0.24863645333333334,0.5200842666666667,0.8490198533333334,0.5820272168674484,0.6381332634079953,0.6903838586046305,0.7238949855315359
LBP09_S01,LBP09,165,166,1,165,165,1716537638.6,2024-05-24 08:00:38.600000+00:00,2024-05-24 17:00:38.600000+09:00,2024,5,24,8,0,38,600,,,,,,,,,-0.378662,-0.230713,1.727051,-10.498047,-57.556152,0.976562,,,,,,,,,,,0.0,1.0,1.0,1.0,0.0,0.0,0.0,4.0,0.0,-0.021783813333333336,-0.07204421333333334,1.0456249733333334,1.8237305199999996,2.662760466666667,-10.131022119999999,13.163897919910108,4.118381489081308,-8.755146374113224,-2.4679345046187495,29.9129463241333,20.23300164579052,36.197367502459755,-1.8650199889753005,36.09211085937507,-1.7809703011393183,-0.35687818666666665,-0.15866878666666667,0.6814260266666665,1.1969729999999998,0.785416611614168,0.6492659467709808,0.689463913194544,0.7226791361103709
LBP09_S01,LBP09,166,167,1,166,166,1716537638.64,2024-05-24 08:00:38.640000+00:00,2024-05-24 17:00:38.640000+09:00,2024,5,24,8,0,38,640,,,,,,,,,0.116943,-0.108154,1.585693,67.993164,2.807617,-8.972168,,,,,,,,,,,0.0,1.0,1.0,1.0,0.0,0.0,0.0,4.0,0.0,-0.02347,-0.06694981333333334,1.0208560933333333,1.954752653333333,3.2071940666666676,-9.770507799999999,19.660400720011914,3.256380298728515,-9.895232758686067,-1.6815184758182729,30.043201536082442,19.837192335443078,36.04075002931468,-1.9085588036872452,35.91269309366166,-1.7554860998924429,0.140413,-0.041204186666666656,0.5648369066666667,0.7464540933333335,0.5834846413579627,0.6573935077217228,0.6935980633854648,0.710025703515521
LBP09_S01,LBP09,167,168,1,167,167,1716537638.68,2024-05-24 08:00:38.680000+00:00,2024-05-24 17:00:38.680000+09:00,2024,5,24,8,0,38,680,,,,,,,,,-0.471191,0.008789,0.209229,66.833496,126.525879,29.785156,,,,,,,,,,,0.0,1.0,1.0,1.0,0.0,0.0,0.0,4.0,0.0,-0.01755204,-0.06723301333333336,0.9971386533333333,1.757812546666666,3.784993546666668,-9.64762368,23.712840928818384,1.9965654855795936,-11.6974551000115,-0.7330048386655375,30.123064155505627,19.36929413144262,35.82046685012009,-1.8266765739234339,35.70006929529317,-1.7510145343282157,-0.45363896000000004,0.07602201333333336,-0.7879096533333333,1.3175706266666667,0.9123427395211673,0.6670462995085686,0.6859277765404141,0.7061028372073411
LBP09_S01,LBP09,168,169,1,168,168,1716537638.72,2024-05-24 08:00:38.720000+00:00,2024-05-24 17:00:38.720000+09:00,2024,5,24,8,0,38,720,,,,,,,,,0.039551,0.173096,0.189209,70.861816,-51.818848,-35.949707,,,,,,,,,,,0.0,1.0,1.0,1.0,0.0,0.0,0.0,4.0,0.0,-0.01883784,-0.0657226,0.9816340933333333,1.2288411999999993,2.224121146666667,-10.039876293333332,24.820670424283026,0.4452527270610322,-13.714723915969449,0.2598219783057836,30.140874264588067,18.82070517480384,35.535316970177796,-1.8504831974521114,35.44717589591739,-1.7627157656564278,0.058388840000000004,0.2388186,-0.7924250933333333,1.0896325333333334,0.8296873561088223,0.6683221065041787,0.6893414330950486,0.6988015581117994
LBP09_S01,LBP09,169,170,1,169,169,1716537638.76,2024-05-24 08:00:38.760000+00:00,2024-05-24 17:00:38.760000+09:00,2024,5,24,8,0,38,760,,,,,,,,,0.231934,0.17749,0.544678,1.586914,-71.166992,-40.222168,,,,,,,,,,,0.0,1.0,1.0,1.0,0.0,0.0,0.0,4.0,0.0,-0.0011620533333333357,-0.06690424000000002,0.9943587066666667,0.6461589066666662,0.23437505333333394,-11.050618479999999,23.198268131831497,-1.2431019706130373,-15.394415352935226,1.1877527035790436,30.091150185763546,18.204928560686433,35.18959363059957,-1.588202732000201,35.15031939456175,-1.7608191168890095,0.23309605333333333,0.24439424000000004,-0.4496807066666667,0.9271710000000001,0.562383367973295,0.666905648848958,0.6885516142038577,0.6941307049830391
LBP09_S01,LBP09,170,171,1,170,170,1716537638.8,2024-05-24 08:00:38.800000+00:00,2024-05-24 17:00:38.800000+09:00,2024,5,24,8,0,38,800,,,,,,,,,0.509033,-0.164307,1.076904,-13.000488,-8.911133,-22.644043,,,,,,,,,,,0.0,1.0,1.0,1.0,0.0,0.0,0.0,4.0,0.0,-0.0002343200000000023,-0.07276362666666668,1.0096712133333334,-0.2360025600000005,1.5958659466666674,-10.602213533333332,19.642634907110587,-2.9473159228263714,-16.24758910828863,1.9734580998634672,29.97325754885049,17.555024996354888,34.79180374146021,-1.5740249573981306,34.8097857344351,-1.7451520419618158,0.50926732,-0.09154337333333333,0.06723278666666666,0.6680434799999999,0.5217793020273934,0.6449719868493466,0.6917554286226322,0.6856906357004543
LBP09_S01,LBP09,171,172,1,171,171,1716537638.84,2024-05-24 08:00:38.840000+00:00,2024-05-24 17:00:38.840000+09:00,2024,5,24,8,0,38,840,,,,,,,,,-0.025391,-0.253418,1.451904,-30.029297,54.138184,-6.286621,,,,,,,,,,,0.0,1.0,1.0,1.0,0.0,0.0,0.0,4.0,0.0,-0.009664653333333334,-0.06811845333333334,1.0228645733333332,0.9334310399999997,1.841634173333334,-11.126302066666666,15.221995173975252,-4.632278169779518,-15.997577568561251,2.5823379068224774,29.78796642205931,16.915121893612437,34.352769339640034,-1.7120375887516683,34.430006685419485,-1.728634924212972,-0.01572634666666667,-0.18529954666666665,0.42903942666666683,0.6300653200000002,0.46760888529711936,0.6351042728534777,0.6867395386938143,0.6867762677115643
LBP09_S01,LBP09,172,173,1,172,172,1716537638.88,2024-05-24 08:00:38.880000+00:00,2024-05-24 17:00:38.880000+09:00,2024,5,24,8,0,38,880,,,,,,,,,-0.428467,-0.152588,1.767334,-6.408691,-44.494629,-17.700195,,,,,,,,,,,0.0,1.0,1.0,1.0,0.0,0.0,0.0,4.0,0.0,-0.012503200000000003,-0.071582,1.0313802,0.5403646399999994,0.5297852266666674,-10.839843733333332,10.938794872485309,-6.321123346842946,-14.654502439958149,3.01988970172189,29.53512148818559,16.32894179601411,33.88329197864435,-1.7441166317745838,34.01948925761845,-1.6819690335454645,-0.4159638,-0.081006,0.7359537999999999,1.2329236,0.8492442821007863,0.6495546508902715,0.6857379762740037,0.6881039548947344
LBP09_S01,LBP09,173,174,1,173,173,1716537638.92,2024-05-24 08:00:38.920000+00:00,2024-05-24 17:00:38.920000+09:00,2024,5,24,8,0,38,920,,,,,,,,,-0.035156,-0.190918,1.72876,12.451172,-47.912598,-33.996582,,,,,,,,,,,0.0,1.0,1.0,1.0,0.0,0.0,0.0,4.0,0.0,-0.010442653333333335,-0.07143550666666668,1.01795572,1.5014649066666659,1.9392904400000008,-10.419921853333332,7.509385083246631,-7.999623285156426,-12.498852849315288,3.3202651050517553,29.215136556779335,15.828987682041499,33.39319115384617,-1.716295563188777,33.59042731998996,-1.6427160736481454,-0.024713346666666663,-0.11948249333333333,0.7108042800000001,0.85500012,0.72120006945572,0.6518292674057448,0.6845166272252409,0.6875620339430722
LBP09_S01,LBP09,174,175,1,174,174,1716537638.96,2024-05-24 08:00:38.960000+00:00,2024-05-24 17:00:38.960000+09:00,2024,5,24,8,0,38,960,,,,,,,,,-0.175049,-0.098389,0.731201,46.813965,142.028809,25.817871,,,,,,,,,,,0.0,1.0,1.0,1.0,0.0,0.0,0.0,4.0,0.0,-0.006585240000000002,-0.06904944,0.99393228,2.4039714133333323,3.1534831466666677,-9.746907533333333,5.312936387341076,-9.517508469911794,-9.991360652538406,3.532782560545398,28.834436217982862,15.429333255939962,32.893306148088406,-1.6661043824667086,33.157685950836296,-1.616958776401789,-0.16846376000000002,-0.02933956,-0.26273128,0.4605346,0.31347818696804025,0.6451424040859725,0.6748550408386771,0.6783712426864431
LBP09_S01,LBP09,175,176,1,175,175,1716537639.0,2024-05-24 08:00:39+00:00,2024-05-24 17:00:39+09:00,2024,5,24,8,0,39,0,8.0,0.0,38.0,40.543217,141.509888,-3.026,3.0,13.0,-0.020752,0.023193,0.034668,69.824219,-39.428711,-8.117676,-299.0,133.0,254.0,185.0,0.0,1008.799988,23.99,-0.041621,37.093651,3.944531,0.0,1.0,1.0,1.0,0.0,0.0,0.0,4.0,0.0,-0.007812453333333335,-0.06031246666666667,0.9804134000000001,2.517089906666666,1.4827474666666673,-9.995930959999999,4.455888269252745,-10.561692380882286,-7.645229922367808,3.711018091315508,28.41196852274757,15.12352405904525,32.399577012303574,-1.6998488114868593,32.73700115173711,-1.6262808516278053,-0.012939546666666664,0.08350546666666667,-0.9457454000000001,1.0421904133333335,0.9495130101543194,0.6558525345760411,0.6775756564431523,0.6759249603485883
LBP09_S01,LBP09,176,177,1,176,176,1716537639.04,2024-05-24 08:00:39.040000+00:00,2024-05-24 17:00:39.040000+09:00,2024,5,24,8,0,39,40,,,,,,,,,0.16333,0.198242,0.412842,-1.220703,-66.894531,-10.498047,,,,,,,,,,,0.0,1.0,1.0,1.0,0.0,0.0,0.0,4.0,0.0,0.008470106666666664,-0.06548824,0.99125976,0.8007813066666658,-0.1155598266666659,-10.210774706666665,4.844718776265862,-10.746880274730977,-5.90204586754934,3.904806842366143,27.982093311758334,14.887442224343276,31.93557575130436,-1.4418998970121726,32.34274107268404,-1.6317912364351994,0.15485989333333333,0.26373024,-0.57841776,0.9970078933333333,0.6542952935312056,0.6494318766697751,0.6815357552219932,0.6781708804777197
LBP09_S01,LBP09,177,178,1,177,177,1716537639.08,2024-05-24 08:00:39.080000+00:00,2024-05-24 17:00:39.080000+09:00,2024,5,24,8,0,39,80,,,,,,,,,0.412598,-0.048828,0.731689,-73.120117,-72.021484,-11.352539,,,,,,,,,,,0.0,1.0,1.0,1.0,0.0,0.0,0.0,4.0,0.0,0.009423879999999996,-0.06869137333333333,1.0039453066666666,-0.030110626666667552,1.3208008533333342,-10.023600226666666,6.194783914341359,-9.797966812253858,-5.043820486964144,4.152598198939797,27.59017463926818,14.68568940486471,31.52984747383518,-1.4341469749502405,31.98605308328847,-1.6270844759460334,0.40317412,0.01986337333333333,-0.27225630666666656,0.6952938,0.486895698438308,0.6618224334467852,0.6806458679357754,0.6698127897476537
LBP09_S01,LBP09,178,179,1,178,178,1716537639.12,2024-05-24 08:00:39.120000+00:00,2024-05-24 17:00:39.120000+09:00,2024,5,24,8,0,39,120,,,,,,,,,0.220459,-0.188232,1.172363,-37.841797,27.099609,-3.601074,,,,,,,,,,,0.0,1.0,1.0,1.0,0.0,0.0,0.0,4.0,0.0,-0.0015266400000000027,-0.06918290666666667,1.01893228,0.44189457333333243,1.9816081333333342,-9.874674453333332,7.999525511226513,-7.720871685454373,-5.15314479206621,4.472579219388858,27.281339771850007,14.479563613182062,31.207903278641133,-1.5929102249885474,31.67425511017071,-1.6215147009414212,0.22198563999999998,-0.11904909333333334,0.15343072000000002,0.49446545333333336,0.29494287045022244,0.6302664422992039,0.6696561157620177,0.6636542655881947
LBP09_S01,LBP09,179,180,1,179,179,1716537639.16,2024-05-24 08:00:39.160000+00:00,2024-05-24 17:00:39.160000+09:00,2024,5,24,8,0,39,160,,,,,,,,,-0.27832,-0.232666,1.722656,32.714844,14.770508,1.098633,,,,,,,,,,,0.0,1.0,1.0,1.0,0.0,0.0,0.0,4.0,0.0,-0.007923120000000002,-0.07149736000000001,1.0293294133333333,1.1450195733333324,0.22298182666666758,-10.210774706666665,9.558953422873252,-4.848766083170106,-6.115639476796555,4.854937356303788,27.087389128523203,14.2349380341102,30.98274563960767,-1.6814234842603648,31.411739088606673,-1.60037164833312,-0.27039688,-0.16116864,0.6933265866666667,1.1248921066666666,0.7614404500760613,0.6365384309702065,0.6644541600482264,0.6675605589192185
LBP09_S01,LBP09,180,181,1,180,180,1716537639.2,2024-05-24 08:00:39.200000+00:00,2024-05-24 17:00:39.200000+09:00,2024,5,24,8,0,39,200,,,,,,,,,-0.145264,-0.194092,1.757324,5.371094,-62.255859,-7.507324,,,,,,,,,,,0.0,1.0,1.0,1.0,0.0,0.0,0.0,4.0,0.0,-0.004173120000000002,-0.07163408000000002,1.0212109200000001,2.7189128133333322,1.0180664666666674,-10.173339813333332,10.145070036031631,-1.7275931841134058,-7.654599336691219,5.260740157745053,27.018285401158668,13.928754060642552,30.849202950929563,-1.6291288054720703,31.20171707371869,-1.578668795875147,-0.14109088,-0.12245791999999997,0.73611308,0.9996618799999999,0.7594504889306393,0.642697356039463,0.6666086887994349,0.6698066834823156
LBP09_S01,LBP09,181,182,1,181,181,1716537639.24,2024-05-24 08:00:39.240000+00:00,2024-05-24 17:00:39.240000+09:00,2024,5,24,8,0,39,240,,,,,,,,,0.157959,-0.092529,1.313477,77.514648,75.012207,-19.287109,,,,,,,,,,,0.0,1.0,1.0,1.0,0.0,0.0,0.0,4.0,0.0,-0.006383413333333336,-0.06773758666666668,0.9962076666666667,3.111165413333332,2.4967448533333343,-9.694824186666665,9.275887902395613,1.0998944904277266,-9.390881693933121,5.6317756738408775,27.062281180775777,13.553118792885227,30.78588944568429,-1.664969983860011,31.04756896581852,-1.5617179418523264,0.16434241333333333,-0.024791413333333318,0.3172693333333333,0.50640316,0.3581659850810321,0.645557353293894,0.6495168905502766,0.6703069558791457
LBP09_S01,LBP09,182,183,1,182,182,1716537639.28,2024-05-24 08:00:39.280000+00:00,2024-05-24 17:00:39.280000+09:00,2024,5,24,8,0,39,280,,,,,,,,,-0.69751,0.084473,0.040527,39.978027,77.514648,9.521484,,,,,,,,,,,0.0,1.0,1.0,1.0,0.0,0.0,0.0,4.0,0.0,-0.007770133333333337,-0.06590164000000001,0.9791959466666667,2.7408854666666658,1.2801107333333346,-9.416503866666666,6.965548134659094,3.302699394637825,-10.920936212871707,5.910397599227242,27.19438915656129,13.116281344370359,30.765312247466746,-1.6884188817284629,30.95289375627517,-1.585367993763549,-0.6897398666666666,0.15037464,-0.9386689466666667,1.7787834533333333,1.17450117388651,0.6680692719442639,0.6578550804050926,0.6774559040408908
LBP09_S01,LBP09,183,184,1,183,183,1716537639.32,2024-05-24 08:00:39.320000+00:00,2024-05-24 17:00:39.320000+09:00,2024,5,24,8,0,39,320,,,,,,,,,0.017822,0.123779,0.290039,47.485352,-50.354004,-28.442383,,,,,,,,,,,0.0,1.0,1.0,1.0,0.0,0.0,0.0,4.0,0.0,0.004498746666666665,-0.06829746666666668,0.9861425599999999,1.9555664533333326,-1.260579359999999,-10.49886064,3.795400546808635,4.859934474554617,-11.901034915228545,6.062213621099587,27.388786535543474,12.640239947761216,30.768030938205833,-1.504865037105763,30.92034772575547,-1.6095225170196525,0.013323253333333337,0.19207646666666667,-0.6961035599999998,0.9015032799999998,0.7222402954496576,0.6661048040631179,0.6628249851620935,0.678542082862054
LBP09_S01,LBP09,184,185,1,184,184,1716537639.36,2024-05-24 08:00:39.360000+00:00,2024-05-24 17:00:39.360000+09:00,2024,5,24,8,0,39,360,,,,,,,,,0.417236,0.015137,0.682373,-57.128906,-61.401367,-25.939941,,,,,,,,,,,0.0,1.0,1.0,1.0,0.0,0.0,0.0,4.0,0.0,0.008102266666666665,-0.06638014666666668,0.9962434666666666,2.2656250533333324,-0.26611321333333243,-11.139322879999998,0.7278872059688195,6.002644631538054,-12.120571927476574,6.091329109338339,27.628892320804997,12.155417070662153,30.79308599920857,-1.4490758578869807,30.95012093984376,-1.6228748519248097,0.4091337333333333,0.08151714666666668,-0.3138704666666666,0.8045213466666666,0.5220633360019615,0.6694683893430552,0.6656545241697276,0.6803830978107747
