file_name,test_id,_program_index,program_index,session_id,index,_index,unixtime,datetime_utc,datetime_jst,rtc_year,rtc_month,rtc_day,rtc_hour,rtc_min,rtc_sec,rtc_msec,gps_hour,gps_min,gps_sec,latitude,longitude,altitude,fix_type,SIV,acc_x,acc_y,acc_z,gyro_x,gyro_y,gyro_z,mag_x,mag_y,mag_z,illuminance,atmopress,water_pressure,water_temp,depth,alt_wps,battery_level,behavior_class,camera_command,camera_recording,camera_count,play_audio,speaker_on,audio_file,prev_sd_write_time_ms,delay_occurred_counter,acc_x_ma,acc_y_ma,acc_z_ma,gyro_x_ma,gyro_y_ma,gyro_z_ma,gyro_x_lowpass,gyro_y_lowpass,gyro_z_lowpass,angle_x,angle_y,angle_z,combined_angle_change,gravity_adjusted_angle,smoothed_angle_change,smoothed_gravity_angle,acc_x_dy,acc_y_dy,acc_z_dy,ODBA,VeDBA,smoothed_VeDBA_1s,smoothed_VeDBA_2s,smoothed_VeDBA_3s
LBP09_S06,LBP09,-1650,1,6,0,-1650,1716542639.0,2024-05-24 09:23:59+00:00,2024-05-24 18:23:59+09:00,2024,5,24,9,23,59,0,9.0,23.0,58.0,40.560558,141.54776,-4.691,3.0,13.0,-0.646484,-0.143066,1.631348,15.380859,-69.396973,2.13623,-304.0,173.0,247.0,153.0,0.0,1006.599976,17.73,-0.063423,55.481098,3.860156,0.0,1.0,1.0,6.0,0.0,0.0,0.0,5.0,0.0,,,,,,,16.152566445852756,-68.97883921018021,2.218194631690284,0.6461026578341102,-2.7591535684072084,0.08872778526761137,2.835180713533624,,5.281424405240531,,,,,,,,,
LBP09_S06,LBP09,-1649,2,6,1,-1649,1716542639.04,2024-05-24 09:23:59.040000+00:00,2024-05-24 18:23:59.040000+09:00,2024,5,24,9,23,59,40,,,,,,,,,0.203125,0.005371,1.648682,55.053711,-101.745605,-82.092285,,,,,,,,,,,0.0,1.0,1.0,6.0,0.0,0.0,0.0,5.0,0.0,,,,,,,5.862943198951081,-47.4890163308983,-4.0884798241133495,0.8806203857921535,-4.658714221643141,-0.07481140769692261,4.741804214593256,,5.552202583187774,,,,,,,,,
LBP09_S06,LBP09,-1648,3,6,2,-1648,1716542639.08,2024-05-24 09:23:59.080000+00:00,2024-05-24 18:23:59.080000+09:00,2024,5,24,9,23,59,80,,,,,,,,,-0.191895,0.027344,0.471436,20.690918,157.409668,23.071289,,,,,,,,,,,0.0,1.0,1.0,6.0,0.0,0.0,0.0,5.0,0.0,,,,,,,-4.2158685101908935,-28.099304931439043,-9.905190009707685,0.7119856453845178,-5.782686418900703,-0.47101900808523,5.84536095417125,,5.828852306615965,,,,,,,,,
LBP09_S06,LBP09,-1647,4,6,3,-1647,1716542639.12,2024-05-24 09:23:59.120000+00:00,2024-05-24 18:23:59.120000+09:00,2024,5,24,9,23,59,120,,,,,,,,,-0.042725,-0.111328,0.022705,-54.6875,-30.212402,2.868652,,,,,,,,,,,0.0,1.0,1.0,6.0,0.0,0.0,0.0,5.0,0.0,,,,,,,-13.68594639611133,-12.38310200996627,-14.822701789421554,0.16454778954006455,-6.278010499299353,-1.063927079662092,6.369649333769775,,6.154547065851878,,,,,,,,,
LBP09_S06,LBP09,-1646,5,6,4,-1646,1716542639.16,2024-05-24 09:23:59.160000+00:00,2024-05-24 18:23:59.160000+09:00,2024,5,24,9,23,59,160,,,,,,,,,0.098389,0.127686,0.311035,-6.896973,-68.42041,-47.668457,,,,,,,,,,,0.0,1.0,1.0,6.0,0.0,0.0,0.0,5.0,0.0,,,,,,,-22.13328561646111,-1.1127858510063224,-18.58264075744304,-0.7207836351183798,-6.322521933339606,-1.8072327099598138,6.61512681013475,,6.542894390344987,,,,,,,,,
LBP09_S06,LBP09,-1645,6,6,5,-1645,1716542639.2,2024-05-24 09:23:59.200000+00:00,2024-05-24 18:23:59.200000+09:00,2024,5,24,9,23,59,200,,,,,,,,,0.710205,0.037842,0.80542,-50.415039,-22.888184,-34.667969,,,,,,,,,,,0.0,1.0,1.0,6.0,0.0,0.0,0.0,5.0,0.0,,,,,,,-29.168497429855936,5.775633434855475,-21.081215088987662,-1.8875235323126174,-6.091496595945387,-2.6504813135193204,6.906093472923983,,6.98509172533129,,,,,,,,,
LBP09_S06,LBP09,-1644,7,6,6,-1644,1716542639.24,2024-05-24 09:23:59.240000+00:00,2024-05-24 18:23:59.240000+09:00,2024,5,24,9,23,59,240,,,,,,,,,0.012939,-0.255371,1.399414,-88.439941,112.548828,35.888672,,,,,,,,,,,0.0,1.0,1.0,6.0,0.0,0.0,0.0,5.0,0.0,,,,,,,-34.456051287874544,8.984811782352988,-22.335172646158064,-3.265765583827599,-5.732104124651267,-3.543888219365643,7.488750647185115,,7.921700017326588,,,,,,,,,
LBP09_S06,LBP09,-1643,8,6,7,-1643,1716542639.28,2024-05-24 09:23:59.280000+00:00,2024-05-24 18:23:59.280000+09:00,2024,5,24,9,23,59,280,,,,,,,,,-0.707764,-0.046875,1.730713,16.357422,-47.119141,-29.846191,,,,,,,,,,,0.0,1.0,1.0,6.0,0.0,0.0,0.0,5.0,0.0,,,,,,,-37.69743324264727,9.543324205824792,-22.43474189831183,-4.7736629135334905,-5.350371156418275,-4.441277895298116,8.434410380503271,,8.767469916355212,,,,,,,,,
LBP09_S06,LBP09,-1642,9,6,8,-1642,1716542639.32,2024-05-24 09:23:59.320000+00:00,2024-05-24 18:23:59.320000+09:00,2024,5,24,9,23,59,320,,,,,,,,,0.223877,0.110596,1.878662,-1.586914,-122.924805,-71.777344,,,,,,,,,,,0.0,1.0,1.0,6.0,0.0,0.0,0.0,5.0,0.0,,,,,,,-38.578381469466024,8.491341296738362,-21.508045832367074,-6.316798172312131,-5.01071750454874,-5.301599728592799,9.649672986289861,,9.566549678066627,,,,,,,,,
LBP09_S06,LBP09,-1641,10,6,9,-1641,1716542639.36,2024-05-24 09:23:59.360000+00:00,2024-05-24 18:23:59.360000+09:00,2024,5,24,9,23,59,360,,,,,,,,,-0.23291,0.088867,0.599609,-12.329102,165.405273,-6.225586,,,,,,,,,,,0.0,1.0,1.0,6.0,0.0,0.0,0.0,5.0,0.0,,,,,,,-36.74178678257838,6.649401225038798,-19.707017366103084,-7.786469643615266,-4.744741455547189,-6.089880423236922,10.964867740208014,,10.333803565923088,,,,,,,,,
LBP09_S06,LBP09,-1640,11,6,10,-1640,1716542639.4,2024-05-24 09:23:59.400000+00:00,2024-05-24 18:23:59.400000+09:00,2024,5,24,9,23,59,400,,,,,,,,,-0.000488,-0.292969,-0.121094,-38.513184,-31.37207,28.503418,,,,,,,,,,,0.0,1.0,1.0,6.0,0.0,0.0,0.0,5.0,0.0,,,,,,,-31.85905916486527,4.520649445103101,-17.20584615328712,-9.060832010209877,-4.563915477743064,-6.778114269368407,12.201263633486585,,11.054296939004518,,,,,,,,,
LBP09_S06,LBP09,-1639,12,6,11,-1639,1716542639.44,2024-05-24 09:23:59.440000+00:00,2024-05-24 18:23:59.440000+09:00,2024,5,24,9,23,59,440,,,,,,,,,0.310059,0.128662,0.393799,-63.293457,-59.570312,-25.756836,,,,,,,,,,,0.0,1.0,1.0,6.0,0.0,0.0,0.0,5.0,0.0,,,,,,,-23.81781637740286,2.3242446550946445,-14.201800018029603,-10.013544665305991,-4.470945691539279,-7.346186270089591,13.199503204879512,,11.688643919803164,,,,,,,,,
LBP09_S06,LBP09,-1638,13,6,12,-1638,1716542639.48,2024-05-24 09:23:59.480000+00:00,2024-05-24 18:23:59.480000+09:00,2024,5,24,9,23,59,480,,,,,,,,,0.642334,-0.188721,1.031738,-40.771484,15.380859,-65.795898,,,,,,,,,,,0.0,1.0,1.0,6.0,0.0,0.0,0.0,5.0,0.0,,,,,,,-12.953330426716155,0.11298736888743512,-10.918725966753565,-10.531677882374638,-4.4664261967837815,-7.7829353087597335,13.836158571285404,,12.187130551892768,,,,,,,,,
LBP09_S06,LBP09,-1637,14,6,13,-1637,1716542639.52,2024-05-24 09:23:59.520000+00:00,2024-05-24 18:23:59.520000+09:00,2024,5,24,9,23,59,520,,,,,,,,,-0.12207,-0.437012,1.584961,-30.029297,107.910156,25.817871,,,,,,,,,,,0.0,1.0,1.0,6.0,0.0,0.0,0.0,5.0,0.0,,,,,,,-0.1924187966948243,-2.082047200109228,-7.609684779441876,-10.53937463424243,-4.549708084788151,-8.087322699937408,14.04218821233437,,12.509904533097451,,,,,,,,,
LBP09_S06,LBP09,-1636,15,6,14,-1636,1716542639.56,2024-05-24 09:23:59.560000+00:00,2024-05-24 18:23:59.560000+09:00,2024,5,24,9,23,59,560,,,,,,,,,-0.652588,-0.296387,1.895752,1.525879,-76.782227,-6.469727,,,,,,,,,,,0.0,1.0,1.0,6.0,0.0,0.0,0.0,5.0,0.0,,,,,,,13.00407739544177,-4.134877670099833,-4.543314762681274,-10.01921153842476,-4.715103191592144,-8.269055290444658,13.820060540949054,,12.641242402304211,,,,,,,,,
LBP09_S06,LBP09,-1635,16,6,15,-1635,1716542639.6,2024-05-24 09:23:59.600000+00:00,2024-05-24 18:23:59.600000+09:00,2024,5,24,9,23,59,600,,,,,,,,,0.066895,-0.203857,1.547119,29.663086,-43.701172,-3.051758,,,,,,,,,,,0.0,1.0,1.0,6.0,0.0,0.0,0.0,5.0,0.0,,,,,,,24.92753092858799,-5.785132397047083,-1.9667336856503461,-9.02211030128124,-4.946508487474027,-8.347724637870673,13.24956328091046,,12.59090805138543,,,,,,,,,
LBP09_S06,LBP09,-1634,17,6,16,-1634,1716542639.64,2024-05-24 09:23:59.640000+00:00,2024-05-24 18:23:59.640000+09:00,2024,5,24,9,23,59,640,,,,,,,,,-0.5271,0.162598,0.021729,136.169434,106.628418,34.973145,,,,,,,,,,,0.0,1.0,1.0,6.0,0.0,0.0,0.0,5.0,0.0,,,,,,,34.05113707298066,-6.6932844241897005,-0.062467632694844115,-7.660064818362013,-5.214239864441615,-8.350223343178467,12.473616968081156,,12.387905179037574,,,,,,,,,
LBP09_S06,LBP09,-1633,18,6,17,-1633,1716542639.68,2024-05-24 09:23:59.680000+00:00,2024-05-24 18:23:59.680000+09:00,2024,5,24,9,23,59,680,,,,,,,,,-0.018555,0.157715,0.105713,72.44873,-70.922852,-15.441895,,,,,,,,,,,0.0,1.0,1.0,6.0,0.0,0.0,0.0,5.0,0.0,,,,,,,39.43367473146941,-6.562746890893984,1.072677431549177,-6.082717829103236,-5.476749740077374,-8.3073162459165,11.662150192550094,,12.073931326386958,,,,,,,,,
LBP09_S06,LBP09,-1632,19,6,18,-1632,1716542639.72,2024-05-24 09:23:59.720000+00:00,2024-05-24 18:23:59.720000+09:00,2024,5,24,9,23,59,720,,,,,,,,,0.219727,0.112061,0.568604,0.366211,-86.242676,-32.348633,,,,,,,,,,,0.0,1.0,1.0,6.0,0.0,0.0,0.0,5.0,0.0,,,,,,,40.92390209518203,-5.274064233687797,1.416038214015156,-4.445761745295956,-5.687712309424886,-8.250674717355894,10.963051678357449,,11.698669695184396,,,,,,,,,
LBP09_S06,LBP09,-1631,20,6,19,-1631,1716542639.76,2024-05-24 09:23:59.760000+00:00,2024-05-24 18:23:59.760000+09:00,2024,5,24,9,23,59,760,,,,,,,,,0.780029,-0.138672,1.28833,28.991699,38.024902,-9.399414,,,,,,,,,,,0.0,1.0,1.0,6.0,0.0,0.0,0.0,5.0,0.0,,,,,,,39.08461175166893,-2.9697326608927486,0.9927684588392571,-2.8823772752291985,-5.806501615860596,-8.210963979002324,10.461524231020215,,11.315153726080654,,,,,,,,,
LBP09_S06,LBP09,-1630,21,6,20,-1630,1716542639.8,2024-05-24 09:23:59.800000+00:00,2024-05-24 18:23:59.800000+09:00,2024,5,24,9,23,59,800,,,,,,,,,-0.356445,-0.27002,1.615479,-12.390137,81.359863,52.124023,,,,,,,,,,,0.0,1.0,1.0,6.0,0.0,0.0,0.0,5.0,0.0,,,,,,,34.89533952187485,-0.043135058531711463,-0.1350149804345849,-1.4865636943542044,-5.8082270182018645,-8.216364578219707,10.17123491000801,,10.973454953456631,,,,,,,,,
LBP09_S06,LBP09,-1629,22,6,21,-1629,1716542639.84,2024-05-24 09:23:59.840000+00:00,2024-05-24 18:23:59.840000+09:00,2024,5,24,9,23,59,840,,,,,,,,,-0.604248,-0.011963,1.825928,30.334473,-69.946289,-20.935059,,,,,,,,,,,0.0,1.0,1.0,6.0,0.0,0.0,0.0,5.0,0.0,,,,,,,29.38922479978051,2.967704204008638,-1.852077845388714,-0.310994702362984,-5.689518850041519,-8.290447692035256,10.059764678373362,,10.713141705929578,,,,,,,,,
LBP09_S06,LBP09,-1628,23,6,22,-1628,1716542639.88,2024-05-24 09:23:59.880000+00:00,2024-05-24 18:23:59.880000+09:00,2024,5,24,9,23,59,880,,,,,,,,,0.154541,-0.219727,1.890869,6.896973,-53.283691,-25.512695,,,,,,,,,,,0.0,1.0,1.0,6.0,0.0,0.0,0.0,5.0,0.0,,,,,,,23.37947118068722,5.532826061983864,-3.965794454068294,0.6241841448645048,-5.468205807562164,-8.449079470197988,10.083542259259787,,10.556862330845927,,,,,,,,,
LBP09_S06,LBP09,-1627,24,6,23,-1627,1716542639.92,2024-05-24 09:23:59.920000+00:00,2024-05-24 18:23:59.920000+09:00,2024,5,24,9,23,59,920,,,,,,,,,-0.454346,-0.155518,0.37793,35.03418,165.161133,44.189453,,,,,,,,,,,0.0,1.0,1.0,6.0,0.0,0.0,0.0,5.0,0.0,,,,,,,17.35592399669467,7.2733504870722925,-6.202676954841114,1.3184211047322916,-5.177271788079272,-8.697186548391633,10.207028521296952,,10.50778971421013,,,,,,,,,
LBP09_S06,LBP09,-1626,25,6,24,-1626,1716542639.96,2024-05-24 09:23:59.960000+00:00,2024-05-24 18:23:59.960000+09:00,2024,5,24,9,23,59,960,,,,,,,,,0.114746,-0.12915,0.208252,35.522461,-49.804688,-25.939941,,,,,,,,,,,0.0,1.0,1.0,6.0,0.0,0.0,0.0,5.0,0.0,,,,,,,11.539965384923676,8.053760408407552,-8.240519092636783,1.7800197201292387,-4.85512137174297,-9.026807312097104,10.403072814708837,,10.552413623240101,,,,,,,,,
LBP09_S06,LBP09,-1625,26,6,25,-1625,1716542640.0,2024-05-24 09:24:00+00:00,2024-05-24 18:24:00+09:00,2024,5,24,9,24,0,0,9.0,23.0,59.0,40.560566,141.547729,-5.211,3.0,14.0,0.195557,0.148193,0.645508,25.024414,-40.588379,-35.522461,-301.0,180.0,244.0,170.0,0.0,1006.5,17.74,-0.064414,56.317455,3.832031,0.0,1.0,1.0,6.0,0.0,0.0,0.0,12.0,0.0,,,,,,,6.0222200388684115,7.991976305168103,-9.771132354374723,2.020908521683975,-4.535442319536246,-9.417652606272092,10.646430805639925,,10.667672521676426,,,,,,,,,
LBP09_S06,LBP09,-1624,27,6,26,-1624,1716542640.04,2024-05-24 09:24:00.040000+00:00,2024-05-24 18:24:00.040000+09:00,2024,5,24,9,24,0,40,,,,,,,,,0.464355,0.018066,1.260742,-14.465332,54.992676,-21.057129,,,,,,,,,,,0.0,1.0,1.0,6.0,0.0,0.0,0.0,12.0,0.0,,,,,,,0.893437395405064,7.378531041137319,-10.572044751638611,2.0566460175001775,-4.240301077890753,-9.840534396337636,10.910823217244653,,10.828921718980498,,,,,,,,,
LBP09_S06,LBP09,-1623,28,6,27,-1623,1716542640.08,2024-05-24 09:24:00.080000+00:00,2024-05-24 18:24:00.080000+09:00,2024,5,24,9,24,0,80,,,,,,,,,-0.231201,-0.384277,1.694336,-12.512207,42.358398,35.705566,,,,,,,,,,,0.0,1.0,1.0,6.0,0.0,0.0,0.0,12.0,0.0,,,,,,,-3.6890523498996757,6.5381873658819725,-10.557139807510053,1.9090839235041905,-3.978773583255474,-10.26281998863804,11.171424026192106,,11.015023767795961,,,,,,,,,
LBP09_S06,LBP09,-1622,29,6,28,-1622,1716542640.12,2024-05-24 09:24:00.120000+00:00,2024-05-24 18:24:00.120000+09:00,2024,5,24,9,24,0,120,,,,,,,,,-0.473877,0.152344,1.874756,-5.981445,-136.291504,-43.151855,,,,,,,,,,,0.0,1.0,1.0,6.0,0.0,0.0,0.0,12.0,0.0,,,,,,,-7.5053007356273955,5.693785087043923,-9.786027892081052,1.6088718940790947,-3.751022179773717,-10.654261104321282,11.409290768657154,,11.209522931887975,,,,,,,,,
LBP09_S06,LBP09,-1621,30,6,29,-1621,1716542640.16,2024-05-24 09:24:00.160000+00:00,2024-05-24 18:24:00.160000+09:00,2024,5,24,9,24,0,160,,,,,,,,,0.210205,-0.104248,1.566895,-25.390625,53.161621,-18.371582,,,,,,,,,,,0.0,1.0,1.0,6.0,0.0,0.0,0.0,12.0,0.0,,,,,,,-10.31671426825391,4.888676165517206,-8.433528578600702,1.1962033233489382,-3.555475133153029,-10.99160224746531,11.614113215383474,,11.39965750930711,,,,,,,,,
LBP09_S06,LBP09,-1620,31,6,30,-1620,1716542640.2,2024-05-24 09:24:00.200000+00:00,2024-05-24 18:24:00.200000+09:00,2024,5,24,9,24,0,200,,,,,,,,,-0.678223,0.257324,-0.209717,7.93457,98.632812,10.864258,,,,,,,,,,,0.0,1.0,1.0,6.0,0.0,0.0,0.0,12.0,0.0,,,,,,,-11.915224370993451,3.99970171214408,-6.733778085836101,0.7195943485092001,-3.395487064667266,-11.260953370898754,11.78372688304872,,11.575442180545906,,,,,,,,,
LBP09_S06,LBP09,-1619,32,6,31,-1619,1716542640.24,2024-05-24 09:24:00.240000+00:00,2024-05-24 18:24:00.240000+09:00,2024,5,24,9,24,0,240,,,,,,,,,-0.027832,-0.042236,0.213135,-9.338379,-44.677734,12.329102,,,,,,,,,,,0.0,1.0,1.0,6.0,0.0,0.0,0.0,12.0,0.0,,,,,,,-12.160050609587856,2.827686721873071,-4.916304015194438,0.23319232412568586,-3.282379595792343,-11.457605531506532,11.920785166528006,,11.729776445186234,,,,,,,,,
LBP09_S06,LBP09,-1618,33,6,32,-1618,1716542640.28,2024-05-24 09:24:00.280000+00:00,2024-05-24 18:24:00.280000+09:00,2024,5,24,9,24,0,280,,,,,,,,,0.308105,0.010498,0.710449,-15.014648,-68.847656,-14.343262,,,,,,,,,,,0.0,1.0,1.0,6.0,0.0,0.0,0.0,12.0,0.0,,,,,,,-11.001664926478405,1.2119447061962474,-3.15517193219354,-0.20687427293345034,-3.2339018075444934,-11.583812408794273,12.028533900179918,,11.859203529911774,,,,,,,,,
LBP09_S06,LBP09,-1617,34,6,33,-1617,1716542640.32,2024-05-24 09:24:00.320000+00:00,2024-05-24 18:24:00.320000+09:00,2024,5,24,9,24,0,320,,,,,,,,,0.499512,-0.19165,1.281738,-35.705566,72.937012,16.052246,,,,,,,,,,,0.0,1.0,1.0,6.0,0.0,0.0,0.0,12.0,0.0,,,,,,,-8.496143229962833,-0.8800717718869732,-1.5519677174048991,-0.5467200021319636,-3.269104678419972,-11.64589111749047,12.108374295488307,,11.964467804796174,-2.1752456536184535,,,,,,,,
LBP09_S06,LBP09,-1616,35,6,34,-1616,1716542640.36,2024-05-24 09:24:00.360000+00:00,2024-05-24 18:24:00.360000+09:00,2024,5,24,9,24,0,360,,,,,,,,,-0.373291,-0.05957,1.657227,22.155762,40.771484,-26.000977,,,,,,,,,,,0.0,1.0,1.0,6.0,0.0,0.0,0.0,12.0,0.0,,,,,,,-4.806347782618222,-3.30475234164177,-0.1569822156399832,-0.7389739134366925,-3.401294772085643,-11.652170406116069,12.160919527096796,,12.050326661995719,-2.0874560400021935,,,,,,,,
LBP09_S06,LBP09,-1615,36,6,35,-1615,1716542640.4,2024-05-24 09:24:00.400000+00:00,2024-05-24 18:24:00.400000+09:00,2024,5,24,9,24,0,400,,,,,,,,,-0.307373,-0.126465,1.980713,-7.324219,-114.562988,-24.047852,,,,,,,,,,,0.0,1.0,1.0,6.0,0.0,0.0,0.0,12.0,0.0,,,,,,,-0.1842614736134655,-5.741141924017753,0.9921238824827721,-0.7463443723812311,-3.6309404490463533,-11.612485450816758,12.18977345204319,,12.124651499434409,-2.040085210942223,,,,,,,,
LBP09_S06,LBP09,-1614,37,6,36,-1614,1716542640.44,2024-05-24 09:24:00.440000+00:00,2024-05-24 18:24:00.440000+09:00,2024,5,24,9,24,0,440,,,,,,,,,0.143799,-0.163818,1.359619,-9.094238,49.682617,19.836426,,,,,,,,,,,0.0,1.0,1.0,6.0,0.0,0.0,0.0,12.0,0.0,,,,,,,5.061265840235526,-7.743973046513672,1.847028770012596,-0.54389373877181,-3.9406993709069003,-11.538604300016253,12.205094064500068,,12.197192638869016,-2.0040312182765714,,,,,,,,
LBP09_S06,LBP09,-1613,38,6,37,-1613,1716542640.48,2024-05-24 09:24:00.480000+00:00,2024-05-24 18:24:00.480000+09:00,2024,5,24,9,24,0,480,,,,,,,,,-0.507568,0.056396,-0.091797,60.36377,51.452637,30.517578,,,,,,,,,,,0.0,1.0,1.0,6.0,0.0,0.0,0.0,12.0,0.0,-0.04141271999999999,-0.06001624,0.9895442666666666,0.4484049733333336,-0.3076172000000001,-6.5071614533333335,10.594629898556251,-8.845838875038847,2.3593912358921174,-0.12010854282955996,-4.294532925908454,-11.444228650580568,12.224066775036105,-2.1752456536184535,12.278248112192143,-1.9910999567681547,-0.46615528,0.11641224,-1.0813412666666666,1.6639087866666666,1.1832799709662827,1.1832799709662827,1.1832799709662827,1.1832799709662827
LBP09_S06,LBP09,-1612,39,6,38,-1612,1716542640.52,2024-05-24 09:24:00.520000+00:00,2024-05-24 18:24:00.520000+09:00,2024,5,24,9,24,0,520,,,,,,,,,-0.017578,0.070801,0.1521,1.403809,-77.209473,6.164551,,,,,,,,,,,0.0,1.0,1.0,6.0,0.0,0.0,0.0,12.0,0.0,-0.02698238666666666,-0.05909502666666666,0.9763671733333332,-0.1928710666666664,-0.3597005333333334,-6.926269520000001,16.062466560143122,-8.686433678024995,2.5128099876641983,0.5223901195761649,-4.641990273029454,-11.343716251074,12.267879340652614,-1.9996664263859338,12.377121866196187,-1.9763204729665678,0.00940438666666666,0.12989602666666666,-0.8242671733333332,0.9635675866666665,0.8344925363760223,1.0088862536711525,1.0088862536711525,1.0088862536711525
LBP09_S06,LBP09,-1611,40,6,39,-1611,1716542640.56,2024-05-24 09:24:00.560000+00:00,2024-05-24 18:24:00.560000+09:00,2024,5,24,9,24,0,560,,,,,,,,,0.409912,0.001709,0.705566,7.69043,-72.387695,-25.939941,,,,,,,,,,,0.0,1.0,1.0,6.0,0.0,0.0,0.0,12.0,0.0,-0.023219359999999998,-0.05916013333333333,0.96699868,-1.343587213333333,1.3134765466666667,-6.389160146666667,21.075566729131396,-7.135446640597407,2.3449258265385557,1.3654127887414207,-4.92740813865335,-11.249919218012458,12.357361589770363,-1.9453435528222827,12.50021721655826,-1.9916380007058063,0.43313136,0.06086913333333333,-0.26143268,0.7554331733333333,0.5095634136986122,0.8424453070136391,0.8424453070136391,0.8424453070136391
LBP09_S06,LBP09,-1610,41,6,40,-1610,1716542640.6,2024-05-24 09:24:00.600000+00:00,2024-05-24 18:24:00.600000+09:00,2024,5,24,9,24,0,600,,,,,,,,,0.364258,-0.12915,1.158203,-13.244629,63.110352,-1.037598,,,,,,,,,,,0.0,1.0,1.0,6.0,0.0,0.0,0.0,12.0,0.0,-0.021201119999999997,-0.06302081333333334,0.9813150800000001,-2.1793619599999996,-0.019531266666667005,-6.22314452,25.183694616684576,-4.362776524553885,1.9419563201354473,2.3727605734088035,-5.101919199635505,-11.17224096520704,12.50913827739477,-1.895869240279615,12.649032505280385,-2.003987670124186,0.38545912000000004,-0.06612918666666665,0.17688791999999998,0.6284762266666667,0.42923319857892595,0.7391422799049607,0.7391422799049607,0.7391422799049607
LBP09_S06,LBP09,-1609,42,6,41,-1609,1716542640.64,2024-05-24 09:24:00.640000+00:00,2024-05-24 18:24:00.640000+09:00,2024,5,24,9,24,0,640,,,,,,,,,-0.421143,-0.37915,1.766113,29.174805,36.499023,22.094727,,,,,,,,,,,0.0,1.0,1.0,6.0,0.0,0.0,0.0,12.0,0.0,-0.024736266666666666,-0.06415688,1.0035774533333333,-2.072753893333333,-0.18554689333333363,-6.11409504,27.885539502677933,-0.8148541951858843,1.416237763973525,3.488182153515921,-5.13451336744294,-11.115591454648099,12.731339899759297,-1.9393749107344878,12.818759014219626,-2.005187838156033,-0.3964067333333333,-0.31499312,0.7625355466666668,1.4739354000000002,0.9153247641190372,0.7743787767477761,0.7743787767477761,0.7743787767477761
LBP09_S06,LBP09,-1608,43,6,42,-1608,1716542640.68,2024-05-24 09:24:00.680000+00:00,2024-05-24 18:24:00.680000+09:00,2024,5,24,9,24,0,680,,,,,,,,,-0.236328,0.001709,2.005615,56.884766,-113.037109,-32.348633,,,,,,,,,,,0.0,1.0,1.0,6.0,0.0,0.0,0.0,12.0,0.0,-0.024300066666666665,-0.07071938666666666,1.0173697733333333,-1.481933573333333,0.810546853333333,-5.5493164,28.707482487490175,2.9021958466204407,0.8882062171097993,4.636481453015528,-5.018425533578123,-11.080063205963707,13.017271440220359,-1.9024230539586344,12.99816175015232,-2.0022584992383132,-0.21202793333333333,0.07242838666666666,0.9882452266666668,1.2727015466666667,1.0133263757241258,0.8142033765771677,0.8142033765771677,0.8142033765771677
LBP09_S06,LBP09,-1607,44,6,43,-1607,1716542640.72,2024-05-24 09:24:00.720000+00:00,2024-05-24 18:24:00.720000+09:00,2024,5,24,9,24,0,720,,,,,,,,,0.251709,-0.180908,1.578125,34.667969,92.651367,23.132324,,,,,,,,,,,0.0,1.0,1.0,6.0,0.0,0.0,0.0,12.0,0.0,-0.038382093333333325,-0.06828449333333333,1.00836912,0.007324240000000278,2.4527994666666664,-4.932454413333333,27.34013777070246,6.18680091436385,0.48104265650666883,5.730086963843626,-4.7709534970035685,-11.06082149970344,13.339327799109036,-2.083543167141237,13.17096075640348,-1.9681429967745552,0.2900910933333333,-0.11262350666666668,0.56975588,0.97247048,0.6491984746437717,0.7906312477295396,0.7906312477295396,0.7906312477295396
LBP09_S06,LBP09,-1606,45,6,44,-1606,1716542640.76,2024-05-24 09:24:00.760000+00:00,2024-05-24 18:24:00.760000+09:00,2024,5,24,9,24,0,760,,,,,,,,,-0.58667,0.020264,-0.074463,30.883789,63.842773,46.99707,,,,,,,,,,,0.0,1.0,1.0,6.0,0.0,0.0,0.0,12.0,0.0,-0.037906826666666664,-0.06636066666666667,0.9925064933333332,0.8886718933333339,0.46874998666666623,-4.852701813333333,23.773671280202795,8.594247336340883,0.31747555955439044,6.681033815051738,-4.427183603549933,-11.048122477321265,13.649072414318034,-2.0904353560528413,13.31835292202499,-1.9517889135821267,-0.5487631733333334,0.08662466666666667,-1.0669694933333331,1.702357333333333,1.2029417080581963,0.8421700552706217,0.8421700552706217,0.8421700552706217
LBP09_S06,LBP09,-1605,46,6,45,-1605,1716542640.8,2024-05-24 09:24:00.800000+00:00,2024-05-24 18:24:00.800000+09:00,2024,5,24,9,24,0,800,,,,,,,,,-0.010742,0.183838,0.271484,50.598145,-38.330078,-56.57959,,,,,,,,,,,0.0,1.0,1.0,6.0,0.0,0.0,0.0,12.0,0.0,-0.03134106666666667,-0.06600585333333334,0.9727604000000001,1.6975911600000004,-0.40852865333333377,-4.939778639999999,18.3609665558311,9.92521484800791,0.5013472329507105,7.4154724772849825,-4.030175009629617,-11.028068588003237,13.887038541435603,-2.014789182410809,13.42193208097466,-1.9471807813434172,0.020599066666666666,0.24984385333333334,-0.7012764,0.97171932,0.7447381162482192,0.8313442842681327,0.8313442842681327,0.8313442842681327
LBP09_S06,LBP09,-1604,47,6,46,-1604,1716542640.84,2024-05-24 09:24:00.840000+00:00,2024-05-24 18:24:00.840000+09:00,2024,5,24,9,24,0,840,,,,,,,,,0.496582,-0.152832,0.794189,-21.42334,-51.330566,-4.943848,,,,,,,,,,,0.0,1.0,1.0,6.0,0.0,0.0,0.0,12.0,0.0,-0.028450439999999997,-0.06647786666666668,0.9540429599999999,1.7862955866666672,-0.5159505200000003,-4.885253893333333,11.76945775153807,10.22163113220722,1.0786039318685754,7.886250787346505,-3.621309764341328,-10.984924430728494,13.999121423827031,-1.9758944489788388,13.466273621634917,-1.9563896677624377,0.52503244,-0.08635413333333332,-0.15985395999999985,0.7712405333333332,0.5555802263614017,0.8037678784774596,0.8037678784774596,0.8037678784774596
LBP09_S06,LBP09,-1603,48,6,47,-1603,1716542640.88,2024-05-24 09:24:00.880000+00:00,2024-05-24 18:24:00.880000+09:00,2024,5,24,9,24,0,880,,,,,,,,,0.161377,-0.141113,1.38916,-28.991699,84.960938,25.939941,,,,,,,,,,,0.0,1.0,1.0,6.0,0.0,0.0,0.0,12.0,0.0,-0.017757079999999998,-0.06602213333333333,0.95480468,1.5974935066666671,-2.9768880133333333,-5.5151367066666666,4.835477614010285,9.686360871147466,1.9958421579034007,8.079669891906915,-3.2338553294954293,-10.905090744412359,13.952056837547689,-1.8340906289808732,13.440854257025814,-1.9656737514798046,0.17913408,-0.07509086666666666,0.43435532,0.6885802666666667,0.4758068945344318,0.7739532435735478,0.7739532435735478,0.7739532435735478
LBP09_S06,LBP09,-1602,49,6,48,-1602,1716542640.92,2024-05-24 09:24:00.920000+00:00,2024-05-24 18:24:00.920000+09:00,2024,5,24,9,24,0,920,,,,,,,,,-0.457031,-0.109375,1.782959,18.493652,1.281738,-8.605957,,,,,,,,,,,0.0,1.0,1.0,6.0,0.0,0.0,0.0,12.0,0.0,-0.01777336,-0.06554361333333333,0.9743359333333332,1.3395182533333339,-1.7846679600000002,-5.790201813333333,-1.6216986265952913,8.580984931754495,3.0855465119941754,8.014801946843104,-2.8906159322252494,-10.781668883932591,13.74180099686772,-1.8361255944616468,13.341431530814365,-1.9699059202684808,-0.43925764,-0.043831386666666666,0.8086230666666667,1.2917120933333335,0.9212707141231056,0.7862296994526777,0.7862296994526777,0.7862296994526777
LBP09_S06,LBP09,-1601,50,6,49,-1601,1716542640.96,2024-05-24 09:24:00.960000+00:00,2024-05-24 18:24:00.960000+09:00,2024,5,24,9,24,0,960,,,,,,,,,-0.156494,-0.062988,1.897461,6.774902,-93.994141,-6.286621,,,,,,,,,,,0.0,1.0,1.0,6.0,0.0,0.0,0.0,12.0,0.0,-0.023583906666666665,-0.06934894666666666,0.9905956933333334,1.1539713733333337,-0.7446289066666669,-5.19368488,-6.960332070721883,7.15116722069571,4.092737382122513,7.736388664014228,-2.604569243397421,-10.61795938864769,13.393153179267058,-1.8992622304351867,13.17103997428678,-1.9566926804934581,-0.13291009333333334,0.006360946666666659,0.9068653066666666,1.0461363466666667,0.9165752773165982,0.796256282365287,0.796256282365287,0.796256282365287
LBP09_S06,LBP09,-1600,51,6,50,-1600,1716542641.0,2024-05-24 09:24:01+00:00,2024-05-24 18:24:01+09:00,2024,5,24,9,24,1,0,9.0,24.0,0.0,40.560585,141.547699,-5.897,3.0,14.0,0.041016,-0.212158,1.258545,-16.845703,97.229004,33.02002,-299.0,175.0,247.0,184.0,0.0,1006.099976,17.76,-0.068377,59.664581,3.832031,0.0,1.0,1.0,6.0,0.0,0.0,0.0,10.0,0.0,-0.031087159999999992,-0.07028644,0.9982259066666668,1.4754231866666672,-0.40201822666666703,-4.073893213333333,-10.813007675841723,5.598986250301261,4.734999940287611,7.303868356980559,-2.3806097933853705,-10.428559391036186,12.952553683997348,-1.9879581044698247,12.940374331491086,-1.91716946925958,0.07210315999999999,-0.14187156,0.26031909333333325,0.47429381333333326,0.3051105300914865,0.7611744429171584,0.7611744429171584,0.7611744429171584
LBP09_S06,LBP09,-1599,52,6,51,-1599,1716542641.04,2024-05-24 09:24:01.040000+00:00,2024-05-24 18:24:01.040000+09:00,2024,5,24,9,24,1,40,,,,,,,,,-0.397949,0.456055,-0.072754,-27.587891,43.029785,-31.005859,,,,,,,,,,,0.0,1.0,1.0,6.0,0.0,0.0,0.0,10.0,0.0,-0.032203706666666665,-0.06487302666666667,0.9870084533333333,2.6920573066666673,-0.06998697333333363,-3.906249986666667,-13.115731526635857,4.093858332504396,4.776189861625119,6.779239095915125,-2.2168554600851946,-10.237511796571182,12.477146253668256,-2.032215747908152,12.667067979124614,-1.8846832647337781,-0.36574529333333333,0.5209280266666667,-1.0597624533333334,1.9464357733333335,1.236216844270211,0.7928439363406952,0.7928439363406952,0.7928439363406952
LBP09_S06,LBP09,-1598,53,6,52,-1598,1716542641.08,2024-05-24 09:24:01.080000+00:00,2024-05-24 18:24:01.080000+09:00,2024,5,24,9,24,1,80,,,,,,,,,0.001221,-0.335693,0.40625,-33.26416,-39.611816,47.302246,,,,,,,,,,,0.0,1.0,1.0,6.0,0.0,0.0,0.0,10.0,0.0,-0.023570893333333332,-0.06016598666666667,0.9616699066666666,3.060709653333334,0.5851237066666664,-3.6515299333333338,-14.078283165735572,2.791406689387635,4.0924407418633155,6.216107769285703,-2.1051991925096893,-10.07381416689665,12.023044178105858,-1.9447447418453998,12.373637698807375,-1.8683369426789014,0.024791893333333332,-0.27552701333333335,-0.5554199066666666,0.8557388133333332,0.6205006412350006,0.7820724803965893,0.7820724803965893,0.7820724803965893
LBP09_S06,LBP09,-1597,54,6,53,-1597,1716542641.12,2024-05-24 09:24:01.120000+00:00,2024-05-24 18:24:01.120000+09:00,2024,5,24,9,24,1,120,,,,,,,,,0.322266,0.06665,0.734131,25.085449,-52.856445,-19.592285,,,,,,,,,,,0.0,1.0,1.0,6.0,0.0,0.0,0.0,10.0,0.0,-0.022893813333333332,-0.057304666666666663,0.9461946533333332,3.570149760000001,-0.011393213333333657,-3.9160156133333333,-14.103821845977576,1.8278489937931661,2.7107854677206893,5.6519548954465995,-2.0320852327579626,-9.965382748187823,11.635412233833197,-1.9514107693910085,12.084446601880826,-1.8770199614849183,0.34515981333333334,0.12395466666666666,-0.2120636533333332,0.6811781333333332,0.4236402355700248,0.760988230700909,0.760988230700909,0.760988230700909
LBP09_S06,LBP09,-1596,55,6,54,-1596,1716542641.16,2024-05-24 09:24:01.160000+00:00,2024-05-24 18:24:01.160000+09:00,2024,5,24,9,24,1,160,,,,,,,,,0.232666,-0.144531,1.273193,-17.883301,62.744141,17.578125,,,,,,,,,,,0.0,1.0,1.0,6.0,0.0,0.0,0.0,10.0,0.0,-0.007298106666666664,-0.058466786666666666,0.9595052000000001,1.796061213333334,-2.0125325333333337,-4.645996093333333,-13.673905567672684,1.2896471682208481,0.8063945840324726,5.104998672739692,-1.9804993460291287,-9.933126964826524,11.34241598636109,-1.6952032437140625,11.822441233505103,-1.8836862209340075,0.23996410666666668,-0.08606421333333333,0.31368779999999996,0.63971612,0.40421511250058034,0.7411675019120019,0.7411675019120019,0.7411675019120019
LBP09_S06,LBP09,-1595,56,6,55,-1595,1716542641.2,2024-05-24 09:24:01.200000+00:00,2024-05-24 18:24:01.200000+09:00,2024,5,24,9,24,1,200,,,,,,,,,-0.360596,-0.17041,1.680176,-7.202148,20.996094,-2.746582,,,,,,,,,,,0.0,1.0,1.0,6.0,0.0,0.0,0.0,10.0,0.0,-0.007425053333333332,-0.062154933333333336,0.9787369733333332,0.24902345333333395,-0.17171221333333353,-4.322916666666667,-13.231021802331782,1.189276492672979,-1.3433444377420125,4.575757800646421,-1.9329282863222095,-9.986860742336205,11.153975017770891,-1.6899271371527882,11.60642874390982,-1.8705460222802313,-0.3531709466666667,-0.10825506666666668,0.7014390266666667,1.16286504,0.7927582135553782,0.7438828025248112,0.7438828025248112,0.7438828025248112
LBP09_S06,LBP09,-1594,57,6,56,-1594,1716542641.24,2024-05-24 09:24:01.240000+00:00,2024-05-24 18:24:01.240000+09:00,2024,5,24,9,24,1,240,,,,,,,,,-0.248291,0.089111,1.867676,-35.461426,-114.746094,-38.513184,,,,,,,,,,,0.0,1.0,1.0,6.0,0.0,0.0,0.0,10.0,0.0,-0.015921146666666667,-0.06472981333333333,0.9963183466666667,-0.28889971999999936,0.4996745066666665,-4.101562493333334,-13.092424363127467,1.4715873056366306,-3.432826669168301,4.052060826121322,-1.8740647940967443,-10.124173809102937,11.064818620654645,-1.8124312284300712,11.44943118022804,-1.8478609200511216,-0.23236985333333335,0.15384081333333333,0.8713576533333331,1.2575683199999999,0.9148370918408313,0.7524305169906123,0.7524305169906123,0.7524305169906123
LBP09_S06,LBP09,-1593,58,6,57,-1593,1716542641.28,2024-05-24 09:24:01.280000+00:00,2024-05-24 18:24:01.280000+09:00,2024,5,24,9,24,1,280,,,,,,,,,0.151123,-0.128906,1.282715,-1.953125,74.34082,-0.183105,,,,,,,,,,,0.0,1.0,1.0,6.0,0.0,0.0,0.0,10.0,0.0,-0.024039626666666664,-0.06595377333333333,1.0065331866666667,-1.130371066666666,-0.31249997333333346,-4.261067706666667,-13.410284061110046,2.0498898365108764,-5.202066152833774,3.5156494636769198,-1.7920692006363093,-10.332256455216287,11.060145868282195,-1.920920817041039,11.358377666464984,-1.7982370417315958,0.17516262666666668,-0.06295222666666667,0.27618181333333336,0.5142966666666667,0.3330485289550843,0.7324599461317776,0.7324599461317776,0.7324599461317776
LBP09_S06,LBP09,-1592,59,6,58,-1592,1716542641.32,2024-05-24 09:24:01.320000+00:00,2024-05-24 18:24:01.320000+09:00,2024,5,24,9,24,1,320,,,,,,,,,-0.633545,-0.000488,-0.086914,-6.774902,91.552734,20.202637,,,,,,,,,,,0.0,1.0,1.0,6.0,0.0,0.0,0.0,10.0,0.0,-0.021572186666666663,-0.06268227999999999,0.9954557066666666,-0.6787109066666661,0.73893232,-4.612630199999999,-14.173305189832377,2.8515792546523944,-6.484338082881218,2.948717256083625,-1.6780060304502136,-10.591629978531536,11.121747313110497,-1.902788188952544,11.335083769258308,-1.7654570686071502,-0.6119728133333333,0.06219427999999999,-1.0823697066666667,1.7565368,1.2449510169615186,0.7557549948058567,0.7557549948058567,0.7557549948058567
LBP09_S06,LBP09,-1591,60,6,59,-1591,1716542641.36,2024-05-24 09:24:01.360000+00:00,2024-05-24 18:24:01.360000+09:00,2024,5,24,9,24,1,360,,,,,,,,,-0.068115,0.009766,0.244385,-0.305176,-42.480469,4.943848,,,,,,,,,,,0.0,1.0,1.0,6.0,0.0,0.0,0.0,10.0,0.0,-0.013196533333333331,-0.06624348000000001,0.9732616933333335,-1.9010416399999992,1.4388021066666665,-4.125976546666666,-15.240088963136158,3.837549714986882,-7.22184095075609,2.3391136975581786,-1.5245040418507383,-10.88050361656178,11.233028283314233,-1.7678602438974234,11.378105687135147,-1.743430091996122,-0.054918466666666665,0.07600948,-0.7288766933333335,0.8598046400000001,0.7348841494517503,0.7548475667469824,0.7548475667469824,0.7548475667469824
LBP09_S06,LBP09,-1590,61,6,60,-1590,1716542641.4,2024-05-24 09:24:01.400000+00:00,2024-05-24 18:24:01.400000+09:00,2024,5,24,9,24,1,400,,,,,,,,,0.19165,-0.006104,0.544189,-42.419434,-73.791504,-31.25,,,,,,,,,,,0.0,1.0,1.0,6.0,0.0,0.0,0.0,10.0,0.0,-0.012421799999999997,-0.06462238666666667,0.9578222399999998,-1.102701799999999,1.2003580933333333,-3.995768213333333,-16.396593856072933,4.9652635599582,-7.4643306552231845,1.6832499433152612,-1.3258934994524103,-11.179076842770709,11.382578047179527,-1.761107082178725,11.48477985568252,-1.7519909202005277,0.20407179999999997,0.05851838666666667,-0.4136332399999998,0.6762234266666665,0.4649324234404468,0.7427677691092102,0.7427677691092102,0.7427677691092102
LBP09_S06,LBP09,-1589,62,6,61,-1589,1716542641.44,2024-05-24 09:24:01.440000+00:00,2024-05-24 18:24:01.440000+09:00,2024,5,24,9,24,1,440,,,,,,,,,0.441895,-0.130615,1.001221,-16.052246,19.897461,-28.015137,,,,,,,,,,,0.0,1.0,1.0,6.0,0.0,0.0,0.0,10.0,0.0,0.0020573733333333344,-0.059173159999999995,0.9685481466666666,-1.5641275866666657,-0.5957031066666667,-4.903157533333334,-17.423444783575032,6.114407367667387,-7.364099958975049,0.98631215197226,-1.081317204745715,-11.473640841129711,11.566611116037702,-1.5359769647128967,11.652756854498968,-1.7724279943522157,0.43983762666666665,-0.07144184,0.03267285333333336,0.54395232,0.4467981531735478,0.7309289844717837,0.7309289844717837,0.7309289844717837
LBP09_S06,LBP09,-1588,63,6,62,-1588,1716542641.48,2024-05-24 09:24:01.480000+00:00,2024-05-24 18:24:01.480000+09:00,2024,5,24,9,24,1,480,,,,,,,,,-0.071533,-0.149658,1.53418,-43.457031,63.964844,18.737793,,,,,,,,,,,0.0,1.0,1.0,6.0,0.0,0.0,0.0,10.0,0.0,-0.002867759999999999,-0.062220040000000004,0.9893879866666666,-2.6700846133333322,0.9944661733333333,-4.17561848,-18.146178121070047,7.043010583855208,-7.160874933225419,0.26046502712945807,-0.7995967813915066,-11.760075838458729,11.790105206039087,-1.6169450106009444,11.880650476330656,-1.7673387647839647,-0.06866524,-0.08743796000000001,0.5447920133333335,0.7008952133333335,0.5560203681745897,0.705838600360116,0.7242017299988147,0.7242017299988147
LBP09_S06,LBP09,-1587,64,6,63,-1587,1716542641.52,2024-05-24 09:24:01.520000+00:00,2024-05-24 18:24:01.520000+09:00,2024,5,24,9,24,1,520,,,,,,,,,-0.406982,-0.088135,1.769775,-12.512207,-62.866211,-18.188477,,,,,,,,,,,0.0,1.0,1.0,6.0,0.0,0.0,0.0,10.0,0.0,-0.010637946666666667,-0.06591144,1.0081607733333333,-3.3723958133333323,0.7259114933333334,-3.953450506666667,-18.441657100898194,7.4267896758783625,-7.140936401974073,-0.47720125690646975,-0.502525194356372,-12.045713294537691,12.065631412601585,-1.7311410032807262,12.167876822866493,-1.7536219407466251,-0.39634405333333333,-0.022223560000000003,0.7616142266666668,1.1801818400000001,0.8588589671726288,0.7068132575919802,0.7291890350793262,0.7291890350793262
LBP09_S06,LBP09,-1586,65,6,64,-1586,1716542641.56,2024-05-24 09:24:01.560000+00:00,2024-05-24 18:24:01.560000+09:00,2024,5,24,9,24,1,560,,,,,,,,,-0.026367,-0.105957,1.514404,-9.155273,17.272949,-11.779785,,,,,,,,,,,0.0,1.0,1.0,6.0,0.0,0.0,0.0,10.0,0.0,-0.014218666666666668,-0.06684242666666666,1.0158137733333332,-3.2690429466666657,0.37760420000000006,-4.187825506666666,-18.198147903509458,6.9712570366627755,-7.569039932742002,-1.205127173046848,-0.22367491288986097,-12.34847489184737,12.409157671834825,-1.7808115257581192,12.514082148672639,-1.715842502382534,-0.012148333333333334,-0.03911457333333333,0.49859022666666686,0.5498531333333335,0.500269673253681,0.7064415079741829,0.7210133435855532,0.7210133435855532
LBP09_S06,LBP09,-1585,66,6,65,-1585,1716542641.6,2024-05-24 09:24:01.600000+00:00,2024-05-24 18:24:01.600000+09:00,2024,5,24,9,24,1,600,,,,,,,,,-0.406738,0.110107,0.151855,35.27832,122.86377,16.296387,,,,,,,,,,,0.0,1.0,1.0,6.0,0.0,0.0,0.0,10.0,0.0,-0.02018546666666667,-0.060302720000000004,0.9957030933333332,-2.525227839999999,1.9930013466666665,-4.388834613333334,-17.26430190540713,5.538133481564814,-8.612223279860636,-1.8956992492631333,-0.002149573627268392,-12.692963823041795,12.833745005935382,-1.8942978786696663,12.918529990905153,-1.6934066348199075,-0.38655253333333334,0.17040972,-0.8438480933333332,1.4008103466666666,0.9436852962292026,0.727019591880194,0.7286916867801618,0.7286916867801618
LBP09_S06,LBP09,-1584,67,6,66,-1584,1716542641.64,2024-05-24 09:24:01.640000+00:00,2024-05-24 18:24:01.640000+09:00,2024,5,24,9,24,1,640,,,,,,,,,0.001953,0.029541,0.103271,1.953125,-42.724609,-10.742188,,,,,,,,,,,0.0,1.0,1.0,6.0,0.0,0.0,0.0,10.0,0.0,-0.012418533333333334,-0.06444985333333332,0.9750455333333334,-2.847493466666666,3.4342448400000003,-3.745930973333334,-15.446347124651588,3.218424868678674,-10.282585015079837,-2.5135531342491966,0.12658742111987858,-13.104267223644989,13.343754838971527,-1.7615389327475632,13.379452452532655,-1.6833372972585843,0.014371533333333334,0.09399085333333332,-0.8717745333333334,0.9801369200000001,0.8769445013507016,0.7254843813694606,0.7336334472658466,0.7336334472658466
LBP09_S06,LBP09,-1583,68,6,67,-1583,1716542641.68,2024-05-24 09:24:01.680000+00:00,2024-05-24 18:24:01.680000+09:00,2024,5,24,9,24,1,680,,,,,,,,,0.151123,0.003662,0.401367,-46.99707,-76.660156,-27.038574,,,,,,,,,,,0.0,1.0,1.0,6.0,0.0,0.0,0.0,10.0,0.0,-0.014361893333333334,-0.066569,0.96331376,-2.3225911199999993,2.1402995333333337,-3.5148111866666674,-12.595317610382052,0.3108553411271409,-12.41924325590581,-3.0173658386644786,0.1390216347649642,-13.601036953881222,13.932409333640564,-1.7837525766676436,13.89305390582724,-1.7037864072527,0.16548489333333333,0.070231,-0.5619467600000001,0.7976626533333334,0.5900015291141562,0.7085513875050617,0.7290001595835339,0.7290001595835339
LBP09_S06,LBP09,-1582,69,6,68,-1582,1716542641.72,2024-05-24 09:24:01.720000+00:00,2024-05-24 18:24:01.720000+09:00,2024,5,24,9,24,1,720,,,,,,,,,0.528564,-0.073975,1.000488,-47.607422,-4.333496,-35.339355,,,,,,,,,,,0.0,1.0,1.0,6.0,0.0,0.0,0.0,10.0,0.0,0.0031185733333333352,-0.06820310666666667,0.98262692,-2.4047851199999988,1.25895188,-3.995768226666667,-8.762748536277329,-2.7775428765696435,-14.713304590132724,-3.367875780115572,0.02791991970217847,-14.189569137486531,14.583800571171958,-1.5249938053116328,14.452060951824768,-1.7246761169544271,0.5254454266666667,-0.005771893333333333,0.017861080000000085,0.5490784000000002,0.5257805904903045,0.7036146721389229,0.7226495480493704,0.7226495480493704
LBP09_S06,LBP09,-1581,70,6,69,-1581,1716542641.76,2024-05-24 09:24:01.760000+00:00,2024-05-24 18:24:01.760000+09:00,2024,5,24,9,24,1,760,,,,,,,,,-0.000488,-0.352051,1.320801,-53.344727,69.396973,27.160645,,,,,,,,,,,0.0,1.0,1.0,6.0,0.0,0.0,0.0,10.0,0.0,0.001946693333333335,-0.07148436,1.00243812,-2.7652994399999993,2.491862026666667,-3.9811197999999997,-4.331480881669697,-5.642299589699351,-16.76401865029152,-3.54113501538236,-0.19777206388579557,-14.860129883498193,15.277506705639395,-1.543501568271157,15.044387308281447,-1.7276527352786588,-0.0024346933333333353,-0.28056664,0.3183628799999998,0.6013642133333331,0.42435656065908917,0.6724712662429588,0.7136103666133014,0.7136103666133014
LBP09_S06,LBP09,-1580,71,6,70,-1580,1716542641.8,2024-05-24 09:24:01.800000+00:00,2024-05-24 18:24:01.800000+09:00,2024,5,24,9,24,1,800,,,,,,,,,-0.484375,-0.24707,1.651367,2.258301,-39.428711,-21.240234,,,,,,,,,,,0.0,1.0,1.0,6.0,0.0,0.0,0.0,10.0,0.0,-0.006386639999999998,-0.07124673333333333,1.0194042666666667,-2.916666639999999,2.4845377999999996,-4.200846360000001,-0.00873380709694812,-7.949689428612696,-18.151754879935496,-3.541484367666238,-0.5157596410303034,-15.586200078695612,15.991802663454521,-1.6604137065654927,15.652956437186361,-1.7213013587543902,-0.47798836,-0.1758232666666667,0.6319627333333333,1.28577436,0.8116425258196894,0.6751474426258177,0.7164936654134892,0.7164936654134892
LBP09_S06,LBP09,-1579,72,6,71,-1579,1716542641.84,2024-05-24 09:24:01.840000+00:00,2024-05-24 18:24:01.840000+09:00,2024,5,24,9,24,1,840,,,,,,,,,-0.008789,-0.009766,1.601074,48.095703,-61.523438,-54.80957,,,,,,,,,,,0.0,1.0,1.0,6.0,0.0,0.0,0.0,10.0,0.0,-0.012158133333333331,-0.0711328,1.0272590933333334,-2.3242187333333324,2.0548502933333332,-4.550781253333333,3.367764093806863,-9.463863112574018,-18.520663335228154,-3.4067738039139632,-0.894314165533264,-16.32702661210474,16.70262564898358,-1.7404680646540547,16.257428207119272,-1.6873681670960206,0.0033691333333333313,0.0613668,0.5738149066666667,0.63855084,0.5770968569612325,0.6760081078498108,0.7125108994577104,0.7125108994577104
LBP09_S06,LBP09,-1578,73,6,72,-1578,1716542641.88,2024-05-24 09:24:01.880000+00:00,2024-05-24 18:24:01.880000+09:00,2024,5,24,9,24,1,880,,,,,,,,,-0.121826,0.015869,0.722168,43.518066,108.520508,1.281738,,,,,,,,,,,0.0,1.0,1.0,6.0,0.0,0.0,0.0,10.0,0.0,-0.017786386666666664,-0.06836587999999999,1.0062955466666668,-1.9490559733333324,3.3821614933333337,-3.8704427066666667,5.146202939354304,-10.0673115215086,-17.6634730048668,-3.200925686339791,-1.297006626393608,-17.03356553229941,17.38017566601435,-1.825842107618217,16.83765779238687,-1.6737434641679774,-0.10403961333333334,0.08423487999999998,-0.28412754666666673,0.4724020400000001,0.31408314014920125,0.6695391576744016,0.7014434616991408,0.7014434616991408
LBP09_S06,LBP09,-1577,74,6,73,-1577,1716542641.92,2024-05-24 09:24:01.920000+00:00,2024-05-24 18:24:01.920000+09:00,2024,5,24,9,24,1,920,,,,,,,,,-0.094482,0.112793,-0.086426,32.592773,-29.35791,-2.13623,,,,,,,,,,,0.0,1.0,1.0,6.0,0.0,0.0,0.0,10.0,0.0,-0.012984959999999999,-0.0676302,0.9849348666666666,-1.680501279999999,4.326985706666668,-3.3943684800000007,5.147207369866604,-9.800191413974703,-15.591295251148669,-2.995037391545127,-1.689014282952596,-17.657217342345355,17.988894977168357,-1.7609071865230421,17.377835616057673,-1.6653409707871227,-0.08149703999999999,0.1804232,-1.0713608666666667,1.3332811066666668,1.0894991533965288,0.6762682952453385,0.7119314533666378,0.7119314533666378
LBP09_S06,LBP09,-1576,75,6,74,-1576,1716542641.96,2024-05-24 09:24:01.960000+00:00,2024-05-24 18:24:01.960000+09:00,2024,5,24,9,24,1,960,,,,,,,,,0.161377,0.009277,0.294434,25.024414,-75.073242,-20.019531,,,,,,,,,,,0.0,1.0,1.0,6.0,0.0,0.0,0.0,10.0,0.0,-0.009921813333333333,-0.06739582666666667,0.9779459333333334,-1.0489908666666656,2.6700846666666673,-3.9070638,3.765862075861731,-8.916165991738652,-12.568521265069009,-2.8444029085106575,-2.045660922622142,-18.159958192948114,18.49484896088396,-1.7172977605154345,17.869928357466044,-1.6881384662304169,0.17129881333333333,0.07667282666666667,-0.6835119333333334,0.9314835733333333,0.7088092612314939,0.6679576546019343,0.7118492904157129,0.7118492904157129
LBP09_S06,LBP09,-1575,76,6,75,-1575,1716542642.0,2024-05-24 09:24:02+00:00,2024-05-24 18:24:02+09:00,2024,5,24,9,24,2,0,9.0,24.0,1.0,40.560612,141.547668,-7.125,3.0,14.0,0.435791,-0.073975,0.643066,-32.714844,-73.303223,-29.296875,-296.0,181.0,242.0,158.0,0.0,1006.400024,17.83,-0.065405,57.153881,3.832031,0.0,1.0,1.0,6.0,0.0,0.0,0.0,4.0,0.0,0.001103573333333335,-0.06987629333333333,1.0007389066666668,-1.524251293333332,2.63020836,-4.294433586666667,1.8214224312356477,-7.91268711206533,-9.098663960663801,-2.7715460112612313,-2.3621684071047553,-18.523904751374666,18.878462705264504,-1.554965962085967,18.315261365510935,-1.7078786349756239,0.43468742666666665,-0.004098706666666674,-0.35767290666666673,0.79645904,0.5629385991933846,0.6782707773660103,0.7080310675638584,0.7080310675638584
LBP09_S06,LBP09,-1574,77,6,76,-1574,1716542642.04,2024-05-24 09:24:02.040000+00:00,2024-05-24 18:24:02.040000+09:00,2024,5,24,9,24,2,40,,,,,,,,,0.485352,0.000488,0.946045,-31.25,23.742676,-41.809082,,,,,,,,,,,0.0,1.0,1.0,6.0,0.0,0.0,0.0,4.0,0.0,-0.003955026666666666,-0.07268554666666667,1.0230500933333333,-1.0668945333333324,3.6572266000000004,-4.416503906666667,0.21244379778025316,-7.462224917503783,-5.84915563626057,-2.7630482593500214,-2.6606574038049065,-18.75787097682509,19.14605069164751,-1.6252919034671314,18.7235628434837,-1.709485441542697,0.48930702666666664,0.07317354666666667,-0.07700509333333327,0.6394856666666666,0.5007050216209422,0.6488503044600396,0.7028479164152854,0.7028479164152854
LBP09_S06,LBP09,-1573,78,6,77,-1573,1716542642.08,2024-05-24 09:24:02.080000+00:00,2024-05-24 18:24:02.080000+09:00,2024,5,24,9,24,2,80,,,,,,,,,-0.040527,-0.262207,1.545166,-41.992188,57.434082,35.522461,,,,,,,,,,,0.0,1.0,1.0,6.0,0.0,0.0,0.0,4.0,0.0,-0.009186146666666666,-0.07101562666666666,1.03916012,-1.2434895866666658,3.889160186666667,-4.726562506666666,-0.4663120803018334,-8.20085000102514,-3.507372611673914,-2.7817007425620948,-2.988691403845912,-18.898165881292044,19.334187570348636,-1.6997276428590968,19.109443512579425,-1.6991307891103489,-0.031340853333333335,-0.19119137333333336,0.50600588,0.7285381066666667,0.5418287007157538,0.6457034268392696,0.6989206184713944,0.6989206184713944
LBP09_S06,LBP09,-1572,79,6,78,-1572,1716542642.12,2024-05-24 09:24:02.120000+00:00,2024-05-24 18:24:02.120000+09:00,2024,5,24,9,24,2,120,,,,,,,,,-0.307861,-0.196533,1.692383,-46.691895,-42.663574,11.047363,,,,,,,,,,,0.0,1.0,1.0,6.0,0.0,0.0,0.0,4.0,0.0,-0.012955679999999999,-0.07048502666666666,1.0401627199999999,-0.5867513066666656,4.499511746666667,-4.704589840000001,-0.16492688966778662,-10.427824140390225,-2.585526082664284,-2.788297818148806,-3.405804369461521,-19.001586924598616,19.504727985255617,-1.7529687597445753,19.48725697688861,-1.6619116193163659,-0.29490531999999997,-0.12604797333333334,0.6522202800000001,1.0731735733333334,0.7268070809981295,0.6578301006563939,0.6995845818648881,0.6995845818648881
LBP09_S06,LBP09,-1571,80,6,79,-1571,1716542642.16,2024-05-24 09:24:02.160000+00:00,2024-05-24 18:24:02.160000+09:00,2024,5,24,9,24,2,160,,,,,,,,,0.131104,-0.364502,1.345459,37.414551,6.286621,-5.310059,,,,,,,,,,,0.0,1.0,1.0,6.0,0.0,0.0,0.0,4.0,0.0,-0.01077468,-0.06284505333333334,1.0151236666666665,-1.4005533999999988,4.466145866666667,-5.097656253333334,0.6393424994576649,-13.856465148586333,-3.232723744921609,-2.7627241181704996,-3.9600629754049743,-19.13089587439548,19.730836786088325,-1.7409032557232282,19.866260755726067,-1.6378164361184768,0.14187868,-0.30165694666666665,0.3303353333333334,0.7738709600000001,0.46930577000420853,0.660433726956539,0.6942292606588258,0.6942292606588258
LBP09_S06,LBP09,-1570,81,6,80,-1570,1716542642.2,2024-05-24 09:24:02.200000+00:00,2024-05-24 18:24:02.200000+09:00,2024,5,24,9,24,2,200,,,,,,,,,-0.345947,0.220459,0.130371,61.279297,100.280762,11.59668,,,,,,,,,,,0.0,1.0,1.0,6.0,0.0,0.0,0.0,4.0,0.0,-0.0069270266666666665,-0.06543945333333333,0.9936913733333333,-2.1858724133333323,5.1334635733333345,-4.65413412,1.2112776047267457,-17.562517048508475,-5.134469508821951,-2.7142730139814297,-4.662563657345313,-19.336274654748358,20.074817443182113,-1.6764817722362235,20.248033600292107,-1.6336126609708006,-0.33901997333333334,0.2858984533333333,-0.8633203733333333,1.4882388,0.9705640292890172,0.6675459595858846,0.7005095963095119,0.7005095963095119
LBP09_S06,LBP09,-1569,82,6,81,-1569,1716542642.24,2024-05-24 09:24:02.240000+00:00,2024-05-24 18:24:02.240000+09:00,2024,5,24,9,24,2,240,,,,,,,,,0.048584,-0.111084,0.209717,-22.338867,-36.254883,41.870117,,,,,,,,,,,0.0,1.0,1.0,6.0,0.0,0.0,0.0,4.0,0.0,-0.004091746666666666,-0.06191081333333333,0.9815006133333333,-2.3323567866666655,2.8719075866666675,-5.376790373333333,0.9474451247966128,-20.207362107081693,-7.5610722515537026,-2.6763752089895654,-5.470858141628581,-19.638717544810508,20.561432339940858,-1.6369215403305721,20.62686468052768,-1.6455966052143478,0.05267574666666667,-0.049173186666666674,-0.7717836133333333,0.8736325466666667,0.7751404275250401,0.6619580930132528,0.7021680592254126,0.7021680592254126
LBP09_S06,LBP09,-1568,83,6,82,-1568,1716542642.28,2024-05-24 09:24:02.280000+00:00,2024-05-24 18:24:02.280000+09:00,2024,5,24,9,24,2,280,,,,,,,,,-0.215332,-0.020264,0.249756,77.026367,-112.915039,-36.376953,,,,,,,,,,,0.0,1.0,1.0,6.0,0.0,0.0,0.0,4.0,0.0,0.007265680000000002,-0.06185548,0.9973697599999999,-3.653157573333332,2.8881836400000007,-5.82763672,-0.30282061096135005,-20.501780934175557,-9.575725046451291,-2.6884880334280195,-6.290929378995603,-20.02174654666856,21.15831030910621,-1.4536504096783884,20.99226572909193,-1.6542897767727758,-0.22259768,0.04159148,-0.7476137599999999,1.0118029199999998,0.7811567784326717,0.6798824229923565,0.7038852052951355,0.7038852052951355
LBP09_S06,LBP09,-1567,84,6,83,-1567,1716542642.32,2024-05-24 09:24:02.320000+00:00,2024-05-24 18:24:02.320000+09:00,2024,5,24,9,24,2,320,,,,,,,,,0.440674,0.075195,0.474854,5.065918,-130.981445,-67.687988,,,,,,,,,,,0.0,1.0,1.0,6.0,0.0,0.0,0.0,4.0,0.0,0.0033496666666666688,-0.06596681333333333,1.01541664,-5.030924506666666,3.6946615066666673,-5.278320306666667,-2.1394153694902003,-17.745187627064944,-10.347812586750674,-2.7740646482076277,-7.000736884078201,-20.435659050138586,21.77893276554293,-1.5199553545441518,21.33197082263158,-1.6510546513204152,0.4373243333333333,0.14116181333333333,-0.54056264,1.1190487866666667,0.7094978490684584,0.6584642962766339,0.7040046232477596,0.7040046232477596
LBP09_S06,LBP09,-1566,85,6,84,-1566,1716542642.36,2024-05-24 09:24:02.360000+00:00,2024-05-24 18:24:02.360000+09:00,2024,5,24,9,24,2,360,,,,,,,,,0.569092,0.123047,0.656738,-26.489258,-19.165039,-53.466797,,,,,,,,,,,0.0,1.0,1.0,6.0,0.0,0.0,0.0,4.0,0.0,-0.006813093333333332,-0.06511069333333333,1.02962888,-5.055338573333332,3.118489626666667,-5.869954413333333,-3.7868943780867896,-12.18778806999837,-9.456039566118077,-2.9255404233310993,-7.488248406878135,-20.81390063278331,22.312577406544378,-1.6752600090386718,21.63403709295496,-1.6379468261537753,0.5759050933333334,0.18815769333333332,-0.3728908799999999,1.1369536666666666,0.7114194279572147,0.6575257074168526,0.7041590983458731,0.7041590983458731
LBP09_S06,LBP09,-1565,86,6,85,-1565,1716542642.4,2024-05-24 09:24:02.400000+00:00,2024-05-24 18:24:02.400000+09:00,2024,5,24,9,24,2,400,,,,,,,,,-0.001709,-0.25708,1.34375,-57.861328,58.044434,7.873535,,,,,,,,,,,0.0,1.0,1.0,6.0,0.0,0.0,0.0,4.0,0.0,-0.006835879999999999,-0.06561850666666666,1.02810544,-3.9656575866666657,2.823893266666667,-6.3370768,-4.468242784688759,-5.0101552594511904,-7.046263979364816,-3.1042701347186497,-7.688654617256183,-21.095751191957902,22.666773507620228,-1.6748054045214396,21.887630786370707,-1.6066039291375862,0.005126879999999999,-0.19146149333333332,0.31564455999999996,0.5122329333333333,0.36920898768252924,0.6536967699865359,0.6973233818017234,0.6973233818017234
LBP09_S06,LBP09,-1564,87,6,86,-1564,1716542642.44,2024-05-24 09:24:02.440000+00:00,2024-05-24 18:24:02.440000+09:00,2024,5,24,9,24,2,440,,,,,,,,,-0.125732,-0.156738,1.613281,-77.209473,18.432617,18.981934,,,,,,,,,,,0.0,1.0,1.0,6.0,0.0,0.0,0.0,4.0,0.0,-0.008639266666666664,-0.06078777333333332,1.0019172933333331,-3.3862304933333323,3.8680013466666665,-6.175130186666667,-3.8016831801825943,2.097263566623785,-3.764517811114552,-3.2563374619259533,-7.604764074591231,-21.246331904402485,22.80006117729,-1.7122236190514128,22.08328155143963,-1.5886027108746004,-0.11709273333333335,-0.09595022666666667,0.6113637066666668,0.8244066666666668,0.6298275446708107,0.6610179456464265,0.6959734650591051,0.6959734650591051
LBP09_S06,LBP09,-1563,88,6,87,-1563,1716542642.48,2024-05-24 09:24:02.480000+00:00,2024-05-24 18:24:02.480000+09:00,2024,5,24,9,24,2,480,,,,,,,,,0.07959,-0.259033,1.604004,-16.662598,41.07666,18.188477,,,,,,,,,,,0.0,1.0,1.0,6.0,0.0,0.0,0.0,4.0,0.0,-0.005813746666666663,-0.06012045333333333,0.9807096133333334,-3.096516946666666,4.374186253333334,-6.24104816,-2.020060790687624,7.563505203198928,-0.4960943237261569,-3.3371398935534584,-7.302223866463274,-21.26617567735153,22.73123850574512,-1.6673763883354868,22.214002870830587,-1.5884450908631604,0.08540374666666666,-0.1989125466666667,0.6232943866666666,0.9076106799999999,0.6598150450060222,0.6651697327196837,0.6855041665398999,0.6952644764306132
LBP09_S06,LBP09,-1562,89,6,88,-1562,1716542642.52,2024-05-24 09:24:02.520000+00:00,2024-05-24 18:24:02.520000+09:00,2024,5,24,9,24,2,520,,,,,,,,,-0.205811,-0.031006,0.743652,61.218262,132.8125,38.391113,,,,,,,,,,,0.0,1.0,1.0,6.0,0.0,0.0,0.0,4.0,0.0,-0.0028775599999999973,-0.056363946666666664,0.97229164,-2.7864583599999992,2.1582031733333333,-7.191568999999999,0.10741733769346062,10.488751879840713,1.9645160653911542,-3.33284320004572,-6.882673791269646,-21.187595034735885,22.525390688489416,-1.6218905080781771,22.277896469578344,-1.6073580928623723,-0.20293344,0.025357946666666666,-0.22863964000000003,0.4569310266666667,0.30675901210675577,0.6430857345170488,0.6749494960545144,0.6877932175013082
LBP09_S06,LBP09,-1561,90,6,89,-1561,1716542642.56,2024-05-24 09:24:02.560000+00:00,2024-05-24 18:24:02.560000+09:00,2024,5,24,9,24,2,560,,,,,,,,,-0.005127,0.056641,-0.004639,29.174805,-27.648926,12.634277,,,,,,,,,,,0.0,1.0,1.0,6.0,0.0,0.0,0.0,4.0,0.0,0.00874678666666667,-0.06072268000000001,0.9869628666666665,-3.095703146666666,2.235514373333334,-6.9775390533333335,1.6161323269700298,10.886324004986946,3.16741795174882,-3.2681979069669187,-6.447220831070168,-21.06089831666593,22.26677372024582,-1.4274742855613365,22.281072003425106,-1.6261644937970843,-0.013873786666666669,0.11736368,-0.9916018666666665,1.122839333333333,0.9986195358175365,0.6630197290196029,0.684730618496893,0.6936578650167088
LBP09_S06,LBP09,-1560,91,6,90,-1560,1716542642.6,2024-05-24 09:24:02.600000+00:00,2024-05-24 18:24:02.600000+09:00,2024,5,24,9,24,2,600,,,,,,,,,0.117676,0.010742,0.386475,67.871094,-88.439941,-22.888184,,,,,,,,,,,0.0,1.0,1.0,6.0,0.0,0.0,0.0,4.0,0.0,0.004407586666666669,-0.059293653333333335,1.00310544,-3.6572265866666656,3.366699266666667,-7.389322906666666,1.7739959247797528,9.541240050076524,3.092782732832642,-3.197238069975729,-6.065571229067107,-20.937187007352627,22.031325093871327,-1.4964695896063662,22.238698650187104,-1.6213572790950157,0.11326841333333333,0.07003565333333334,-0.6166304399999999,0.7999345066666665,0.6308469114860364,0.6505061936298763,0.6887628927550352,0.6924946992105853
LBP09_S06,LBP09,-1559,92,6,91,-1559,1716542642.64,2024-05-24 09:24:02.640000+00:00,2024-05-24 18:24:02.640000+09:00,2024,5,24,9,24,2,640,,,,,,,,,0.642578,0.075439,1.02002,3.112793,-43.457031,-19.775391,,,,,,,,,,,0.0,1.0,1.0,6.0,0.0,0.0,0.0,4.0,0.0,-0.0038931999999999973,-0.06033532,1.0179980133333333,-4.256184919999999,2.7856445733333337,-7.495117173333335,0.38140551301578324,7.596550450714581,2.06406692366117,-3.1819818494550973,-5.761709211038523,-20.85462433040618,21.868645533850447,-1.6353453402161746,22.17290803482243,-1.6155669424546653,0.6464712,0.13577432,0.002021986666666642,0.7842675066666667,0.6605783578281857,0.6418515478889758,0.6836679646292183,0.6919144020945417
LBP09_S06,LBP09,-1558,93,6,92,-1558,1716542642.68,2024-05-24 09:24:02.680000+00:00,2024-05-24 18:24:02.680000+09:00,2024,5,24,9,24,2,680,,,,,,,,,-0.028076,-0.118896,1.548096,-43.579102,67.138672,8.789062,,,,,,,,,,,0.0,1.0,1.0,6.0,0.0,0.0,0.0,4.0,0.0,-0.004394506666666664,-0.061051466666666665,1.0192805733333334,-3.9477539333333325,2.496744826666667,-7.921549466666667,-2.1900433490024995,6.094722677984968,0.5595474127687771,-3.2695835834151974,-5.517920303919125,-20.832242433895427,21.797246296583758,-1.6427804296705082,22.10819658322486,-1.5765908380962965,-0.023681493333333338,-0.05784453333333334,0.5288154266666665,0.6103414533333331,0.5324965339264626,0.639551348081468,0.674051367793265,0.6890676544486831
LBP09_S06,LBP09,-1557,94,6,93,-1557,1716542642.72,2024-05-24 09:24:02.720000+00:00,2024-05-24 18:24:02.720000+09:00,2024,5,24,9,24,2,720,,,,,,,,,-0.41748,-0.081055,1.887207,-39.978027,-35.888672,-15.74707,,,,,,,,,,,0.0,1.0,1.0,6.0,0.0,0.0,0.0,4.0,0.0,-0.0075357733333333305,-0.054651733333333334,0.9954231466666666,-3.146158893333332,3.54817712,-7.858072906666666,-5.207669821743389,5.6789751883326804,-0.9806766024311436,-3.477890376284933,-5.290761296385817,-20.871469497992674,21.810688104010566,-1.7080193638912684,22.066298444837706,-1.5450865154955946,-0.4099442266666667,-0.026403266666666668,0.8917838533333334,1.3281313466666669,0.9818502138992744,0.6577941330178269,0.680704402578375,0.6942041905793952
LBP09_S06,LBP09,-1556,95,6,94,-1556,1716542642.76,2024-05-24 09:24:02.760000+00:00,2024-05-24 18:24:02.760000+09:00,2024,5,24,9,24,2,760,,,,,,,,,0.171143,-0.230469,2.054443,-34.118652,-22.888184,-21.362305,,,,,,,,,,,0.0,1.0,1.0,6.0,0.0,0.0,0.0,4.0,0.0,-0.003395146666666663,-0.06025720000000001,0.9750976266666667,-2.497558626666666,4.512532586666667,-6.751302066666667,-7.903722051007756,6.530667763727278,-2.2782239956257007,-3.794039258325243,-5.029534585836726,-20.962598457817702,21.888843874164348,-1.6271878620179865,22.062511952892976,-1.5324640623912353,0.17453814666666664,-0.1702118,1.0793453733333334,1.42409532,1.1065360619686768,0.6850813130702104,0.6787762896565844,0.7013133607757621
LBP09_S06,LBP09,-1555,96,6,95,-1555,1716542642.8,2024-05-24 09:24:02.800000+00:00,2024-05-24 18:24:02.800000+09:00,2024,5,24,9,24,2,800,,,,,,,,,-0.171387,-0.024658,0.784668,21.484375,160.217285,25.756836,,,,,,,,,,,0.0,1.0,1.0,6.0,0.0,0.0,0.0,4.0,0.0,-0.002643186666666663,-0.05738936,0.9642805733333332,-1.2337239866666656,2.4804687866666675,-7.14518228,-9.75285184292298,8.487463766414983,-3.243454644866281,-4.184153332042162,-4.6900360351801265,-21.092336643612352,22.00886735397349,-1.6169020381179349,22.104495400600456,-1.5474191594270605,-0.16874381333333335,0.03273136,-0.17961257333333314,0.3810877466666665,0.24860911681824227,0.6625599767101523,0.6688537096679851,0.6936404074883465
LBP09_S06,LBP09,-1554,97,6,96,-1554,1716542642.84,2024-05-24 09:24:02.840000+00:00,2024-05-24 18:24:02.840000+09:00,2024,5,24,9,24,2,840,,,,,,,,,0.023926,-0.279053,0.161377,-61.340332,-17.456055,15.563965,,,,,,,,,,,0.0,1.0,1.0,6.0,0.0,0.0,0.0,4.0,0.0,0.014270880000000003,-0.056367226666666666,0.9808495866666668,-1.4916992533333324,1.3305664533333337,-7.348632800000001,-10.595045747685653,11.221219756165926,-3.9237164079951925,-4.607955161949588,-4.2411872449334895,-21.24928529993216,22.152946661314324,-1.3224625754677264,22.193322272945995,-1.5694495449103114,0.009655119999999996,-0.22268577333333334,-0.8194725866666668,1.05181348,0.8492452503755537,0.6734459124467252,0.6747270101482681,0.6962338215364666
LBP09_S06,LBP09,-1553,98,6,97,-1553,1716542642.88,2024-05-24 09:24:02.880000+00:00,2024-05-24 18:24:02.880000+09:00,2024,5,24,9,24,2,880,,,,,,,,,0.212646,-0.098145,0.73291,66.772461,-71.166992,-15.74707,,,,,,,,,,,0.0,1.0,1.0,6.0,0.0,0.0,0.0,4.0,0.0,0.012809293333333334,-0.05778976,0.9980891733333332,-1.7423502933333324,2.9134115066666673,-7.4462890533333335,-10.593217279040962,14.36481126521809,-4.4187904970073095,-5.031683853111227,-3.666594794324766,-21.426036919812454,22.312257121873532,-1.3523331623284667,22.325730074179294,-1.567298356819574,0.19983670666666667,-0.040355239999999994,-0.2651791733333333,0.50537112,0.33448953450980645,0.6742621682211495,0.6719006629477755,0.6903035873229149
LBP09_S06,LBP09,-1552,99,6,98,-1552,1716542642.92,2024-05-24 09:24:02.920000+00:00,2024-05-24 18:24:02.920000+09:00,2024,5,24,9,24,2,920,,,,,,,,,0.631592,0.253174,1.182373,0.427246,30.456543,-23.864746,,,,,,,,,,,0.0,1.0,1.0,6.0,0.0,0.0,0.0,4.0,0.0,0.004248106666666671,-0.05652348,1.0161132666666666,-1.7765299733333322,2.74820968,-7.577311186666668,-10.088236152571724,17.549598082990272,-4.810889941608117,-5.435213299214096,-2.964610871005155,-21.61847251747678,22.487525769042144,-1.495665977034584,22.496320784512704,-1.5571127476978641,0.6273438933333334,0.30969748,0.16625973333333333,1.1033011066666667,0.7191072163099507,0.6594464907376864,0.6678573929915125,0.690768161983996
LBP09_S06,LBP09,-1551,100,6,99,-1551,1716542642.96,2024-05-24 09:24:02.960000+00:00,2024-05-24 18:24:02.960000+09:00,2024,5,24,9,24,2,960,,,,,,,,,-0.254639,-0.357666,1.77124,-47.424316,69.458008,28.625488,,,,,,,,,,,0.0,1.0,1.0,6.0,0.0,0.0,0.0,4.0,0.0,-0.000354759999999996,-0.05704106666666667,1.0245572666666667,-1.6446940399999987,2.5463867600000007,-7.718912746666667,-9.437075832061431,20.398308779258308,-5.13300779965329,-5.812696332496554,-2.1486785198348226,-21.82379282946291,22.68660819732062,-1.5770252559195885,22.698898168518895,-1.5160155372036233,-0.25428424,-0.3006249333333333,0.7466827333333332,1.3015919066666666,0.8441391647780515,0.6648596868795487,0.6664086707407415,0.6932026223458064
LBP09_S06,LBP09,-1550,101,6,100,-1550,1716542643.0,2024-05-24 09:24:03+00:00,2024-05-24 18:24:03+09:00,2024,5,24,9,24,3,0,9.0,24.0,2.0,40.560646,141.547653,-6.949,3.0,14.0,-0.387207,-0.128662,2.053467,-27.648926,-60.72998,-18.859863,-292.0,179.0,242.0,70.0,0.0,1006.900024,17.889999,-0.06045,52.971413,3.832031,0.0,1.0,1.0,6.0,0.0,0.0,0.0,4.0,0.0,-0.007760359999999995,-0.05285486666666667,1.0038573866666667,-0.46142581333333216,3.2104492533333335,-7.763671866666667,-8.892415619084153,22.54220652181109,-5.3723540854172995,-6.16839295725992,-1.246990258962379,-22.0386869928796,22.919593817326724,-1.7167734444388747,22.926791821588353,-1.4867117923054558,-0.37944664,-0.07580713333333333,1.0496096133333332,1.5048633866666665,1.1186629583897272,0.6870886612474024,0.6826797193067062,0.6998504400964927
LBP09_S06,LBP09,-1549,102,6,101,-1549,1716542643.04,2024-05-24 09:24:03.040000+00:00,2024-05-24 18:24:03.040000+09:00,2024,5,24,9,24,3,40,,,,,,,,,0.195801,-0.051758,1.834717,-6.713867,28.869629,-38.635254,,,,,,,,,,,0.0,1.0,1.0,6.0,0.0,0.0,0.0,4.0,0.0,-0.002226506666666663,-0.05177413333333333,0.9830175466666666,0.14241533333333456,3.524576853333333,-7.626139306666667,-8.533285315236542,23.69010732817497,-5.49277553465986,-6.509724369869382,-0.29938596583538,-22.258398014265996,23.192723546183423,-1.6138334593088004,23.172546271619275,-1.4759657527727634,0.19802750666666666,1.6133333333334665e-05,0.8516994533333333,1.0497430933333334,0.8744180078573405,0.7020371806968584,0.675443742578449,0.7025360949851212
LBP09_S06,LBP09,-1548,103,6,102,-1548,1716542643.08,2024-05-24 09:24:03.080000+00:00,2024-05-24 18:24:03.080000+09:00,2024,5,24,9,24,3,80,,,,,,,,,-0.678711,0.106201,0.186035,43.273926,163.513184,20.629883,,,,,,,,,,,0.0,1.0,1.0,6.0,0.0,0.0,0.0,4.0,0.0,0.0014063066666666706,-0.04711918666666667,0.9702376,0.46061194666666777,2.5382487333333335,-8.096516906666666,-8.232070879393671,23.72189973546803,-5.4588398716830895,-6.839007205045128,0.6494900235833412,-22.47675160913332,23.503153399917867,-1.54092433845341,23.42759475984094,-1.5058852204288227,-0.6801173066666666,0.15332018666666666,-0.7842026,1.6176400933333333,1.0493046975563305,0.7223362205704814,0.6840198237048755,0.7077901647210485
LBP09_S06,LBP09,-1547,104,6,103,-1547,1716542643.12,2024-05-24 09:24:03.120000+00:00,2024-05-24 18:24:03.120000+09:00,2024,5,24,9,24,3,120,,,,,,,,,0.108643,-0.158691,0.325439,-30.151367,-28.198242,5.065918,,,,,,,,,,,0.0,1.0,1.0,6.0,0.0,0.0,0.0,4.0,0.0,0.014186253333333336,-0.050582720000000005,0.9826562266666665,-0.41259767999999886,1.4916992533333338,-8.752441386666668,-7.659982563864762,22.74585159246471,-5.249941413313538,-7.145406507599718,1.5593240872819296,-22.68674926566586,23.836461944072497,-1.29704725894886,23.682496148931612,-1.5506905527134687,0.09445674666666667,-0.10810828,-0.6572172266666665,0.8597822533333331,0.6727138769364236,0.7201724924080131,0.6890012965322034,0.7072666380376958
LBP09_S06,LBP09,-1546,105,6,104,-1546,1716542643.16,2024-05-24 09:24:03.160000+00:00,2024-05-24 18:24:03.160000+09:00,2024,5,24,9,24,3,160,,,,,,,,,0.064453,-0.263184,0.687012,13.977051,-43.884277,-1.037598,,,,,,,,,,,0.0,1.0,1.0,6.0,0.0,0.0,0.0,4.0,0.0,0.012822320000000002,-0.05323897333333333,1.0019010266666668,-0.4736328399999989,2.859700546666667,-8.659667946666668,-6.3556227743890945,21.064626786132447,-4.8659575162413,-7.399631418575282,2.4019091587272277,-22.88138756631551,24.16778040485891,-1.334150413036312,23.92800943597486,-1.5702373364386655,0.05163068,-0.20994502666666665,-0.31488902666666685,0.5764647333333335,0.38196562732058836,0.7166788867006683,0.6885563068286037,0.7024827996447973
LBP09_S06,LBP09,-1545,106,6,105,-1545,1716542643.2,2024-05-24 09:24:03.200000+00:00,2024-05-24 18:24:03.200000+09:00,2024,5,24,9,24,3,200,,,,,,,,,0.632812,0.134766,1.23877,1.77002,32.531738,-25.20752,,,,,,,,,,,0.0,1.0,1.0,6.0,0.0,0.0,0.0,4.0,0.0,0.003336640000000002,-0.05439132000000001,1.0207193866666666,0.14322913333333448,2.58707684,-8.772786439999999,-3.8700015872589937,19.05134134446874,-4.336075480226916,-7.554431482065642,3.1639628125059773,-23.054830585524588,24.466411854282704,-1.509441642791012,24.156790630160152,-1.5756998000013513,0.62947536,0.18915732000000002,0.2180506133333333,1.0366832933333334,0.6925068884363208,0.7055566010665605,0.6865512803262225,0.702338221221486
LBP09_S06,LBP09,-1544,107,6,106,-1544,1716542643.24,2024-05-24 09:24:03.240000+00:00,2024-05-24 18:24:03.240000+09:00,2024,5,24,9,24,3,240,,,,,,,,,-0.115723,-0.28833,1.698975,-36.376953,47.790527,13.427734,,,,,,,,,,,0.0,1.0,1.0,6.0,0.0,0.0,0.0,4.0,0.0,-0.0027180399999999984,-0.053466839999999995,1.0257682133333332,1.0009765333333345,2.6822916800000005,-8.414713533333334,0.04034097957493234,17.005292288801634,-3.7352574822529805,-7.552817842882645,3.8441745040580426,-23.204240884814705,24.703431543531007,-1.6216572520283197,24.365038499385058,-1.5416565653152507,-0.11300496,-0.23486316,0.6732067866666667,1.0210749066666667,0.7218990251578443,0.7034269449718725,0.6826925189925628,0.7026176612777197
LBP09_S06,LBP09,-1543,108,6,107,-1543,1716542643.28,2024-05-24 09:24:03.280000+00:00,2024-05-24 18:24:03.280000+09:00,2024,5,24,9,24,3,280,,,,,,,,,-0.316895,0.02832,1.98291,-26.367188,-69.396973,-30.822754,,,,,,,,,,,0.0,1.0,1.0,6.0,0.0,0.0,0.0,4.0,0.0,-0.011578719999999999,-0.04959965333333333,1.0070475066666666,2.6383463333333346,2.8588867333333337,-8.398437493333335,5.240987417135628,15.070067553785725,-3.19542325023796,-7.343178346197219,4.446977206209471,-23.332057814824225,24.86127101278023,-1.800386485174928,24.553297755269792,-1.522179655028028,-0.30531628,0.07791965333333332,0.9758624933333333,1.3590984266666666,1.0254740899229853,0.7131996374314852,0.6965410302119208,0.7071649349206108
LBP09_S06,LBP09,-1542,109,6,108,-1542,1716542643.32,2024-05-24 09:24:03.320000+00:00,2024-05-24 18:24:03.320000+09:00,2024,5,24,9,24,3,320,,,,,,,,,0.06665,-0.183105,1.87085,8.728027,40.710449,-10.192871,,,,,,,,,,,0.0,1.0,1.0,6.0,0.0,0.0,0.0,4.0,0.0,-0.005074813333333333,-0.04200525333333333,0.9860611866666669,3.6083984133333344,2.3787435066666673,-8.4391276,11.149088477374015,13.248424838275769,-2.8912346408750467,-6.897214807102259,4.976914199740502,-23.447707200459227,24.942658639474597,-1.6911338142865506,24.726046720129396,-1.5333385158640094,0.07172481333333333,-0.14109974666666666,0.884788813333333,1.097613373333333,0.8988352638592384,0.7207731340231163,0.6896187151498752,0.7098270228225362
LBP09_S06,LBP09,-1541,110,6,109,-1541,1716542643.36,2024-05-24 09:24:03.360000+00:00,2024-05-24 18:24:03.360000+09:00,2024,5,24,9,24,3,360,,,,,,,,,-0.79541,0.147949,0.084961,50.292969,140.319824,25.024414,,,,,,,,,,,0.0,1.0,1.0,6.0,0.0,0.0,0.0,4.0,0.0,-0.0024511199999999998,-0.04026370666666667,0.9708886666666666,2.612304666666668,2.21191408,-8.203938800000001,16.815538099424092,11.486206762032792,-2.9921715206976245,-6.224593283125295,5.436362470221814,-23.567394061287132,24.974420139173535,-1.6316498915464466,24.89046293253101,-1.5758765503427667,-0.7929588799999999,0.18821270666666667,-0.8859276666666667,1.8670992533333333,1.2037755766284226,0.7404673799699647,0.6989965436934085,0.7165934413678222
LBP09_S06,LBP09,-1540,111,6,110,-1540,1716542643.4,2024-05-24 09:24:03.400000+00:00,2024-05-24 18:24:03.400000+09:00,2024,5,24,9,24,3,400,,,,,,,,,0.052734,-0.071289,0.378662,12.817383,-43.701172,11.657715,,,,,,,,,,,0.0,1.0,1.0,6.0,0.0,0.0,0.0,4.0,0.0,0.008281293333333333,-0.04208662666666667,0.9752571599999998,2.311197906666668,0.7861328266666668,-8.883463533333332,21.14714739330818,9.756754300632794,-3.59645756671246,-5.378707387392968,5.826632642247126,-23.71125236395563,25.002072509575818,-1.3763410975778694,25.05528184845802,-1.6356578360715943,0.04445270666666667,-0.029202373333333337,-0.5965951599999999,0.6702502399999999,0.5989612731001208,0.7496574713866683,0.701677120686602,0.7150038174723128
LBP09_S06,LBP09,-1539,112,6,111,-1539,1716542643.44,2024-05-24 09:24:03.440000+00:00,2024-05-24 18:24:03.440000+09:00,2024,5,24,9,24,3,440,,,,,,,,,0.373535,-0.14624,0.835449,38.269043,-74.584961,-18.615723,,,,,,,,,,,0.0,1.0,1.0,6.0,0.0,0.0,0.0,4.0,0.0,0.007581413333333333,-0.04964196,0.9954817733333334,1.9360351466666679,2.3746744933333335,-8.32682292,23.195579742682927,8.082060472215426,-4.681897073057953,-4.45088419768565,6.149915061135743,-23.898528246877948,25.075316105030765,-1.4190643564365717,25.23042479104339,-1.683087456726155,0.36595358666666666,-0.09659804000000001,-0.16003277333333343,0.6225844,0.41093028297607515,0.7409015809188788,0.7009597632826526,0.7109495036790296
LBP09_S06,LBP09,-1538,113,6,112,-1538,1716542643.48,2024-05-24 09:24:03.480000+00:00,2024-05-24 18:24:03.480000+09:00,2024,5,24,9,24,3,480,,,,,,,,,0.319336,-0.129639,1.617676,24.719238,48.461914,1.464844,,,,,,,,,,,0.0,1.0,1.0,6.0,0.0,0.0,0.0,4.0,0.0,-0.004072226666666666,-0.04978193333333333,1.0148339866666667,2.652180986666668,2.1419270933333334,-8.392740893333333,22.41847830388503,6.487261862546203,-6.105825802867655,-3.554145065530249,6.409405535637591,-24.142761278992655,25.23064304851388,-1.6525129468132234,25.427206276247304,-1.7090060414788482,0.3234082266666667,-0.07985706666666667,0.6028420133333332,1.0061073066666666,0.6887586843097292,0.7420593264910272,0.7036145296053554,0.7043558865236089
LBP09_S06,LBP09,-1537,114,6,113,-1537,1716542643.52,2024-05-24 09:24:03.520000+00:00,2024-05-24 18:24:03.520000+09:00,2024,5,24,9,24,3,520,,,,,,,,,-0.396973,-0.139893,1.825439,35.705566,-0.183105,-2.990723,,,,,,,,,,,0.0,1.0,1.0,6.0,0.0,0.0,0.0,4.0,0.0,-0.0077310799999999995,-0.05065432,1.0307975333333332,3.1233724000000014,1.9864908933333334,-8.18603516,18.837632892273223,4.950665948711425,-7.659474785512347,-2.80063974983932,6.607432173586048,-24.44914027041315,25.48062406808864,-1.7224276037364357,25.658183852151097,-1.7008435642198254,-0.38924192,-0.08923867999999999,0.7946414666666668,1.2731220666666667,0.8893412589324641,0.7653626163640554,0.704224175440552,0.7050872028243614
LBP09_S06,LBP09,-1536,115,6,114,-1536,1716542643.56,2024-05-24 09:24:03.560000+00:00,2024-05-24 18:24:03.560000+09:00,2024,5,24,9,24,3,560,,,,,,,,,0.017578,0.126953,1.913818,-5.554199,-54.992676,-49.194336,,,,,,,,,,,0.0,1.0,1.0,6.0,0.0,0.0,0.0,4.0,0.0,-0.020019493333333336,-0.053059920000000003,1.0216536533333334,4.685058600000001,3.1917317733333332,-6.584472666666667,13.056041924785866,3.412325755613011,-9.150741967358432,-2.278398072847885,6.743925203810568,-24.815169949107485,25.815969564129013,-1.9319632703245853,25.9357910143543,-1.693085350272049,0.037597493333333336,0.18001292000000002,0.8921643466666667,1.10977476,0.9109201086456685,0.7618546392771808,0.712437184148392,0.7104386254236555
LBP09_S06,LBP09,-1535,116,6,115,-1535,1716542643.6,2024-05-24 09:24:03.600000+00:00,2024-05-24 18:24:03.600000+09:00,2024,5,24,9,24,3,600,,,,,,,,,0.081543,-0.089355,1.233398,36.010742,108.886719,0.610352,,,,,,,,,,,0.0,1.0,1.0,6.0,0.0,0.0,0.0,4.0,0.0,-0.019492159999999998,-0.044524760000000004,1.0001497466666667,6.6585286533333345,1.76350912,-7.853190120000001,6.132691442366891,1.843901629321777,-10.473827901882592,-2.0330904151532097,6.817681268983439,-25.23412306518279,26.217841280136426,-1.983737849336619,26.269826726646926,-1.7040660453914716,0.10103516,-0.04483024,0.23324825333333332,0.37911365333333336,0.2581135441191222,0.7469453045825043,0.6987257491061902,0.7081570300308582
LBP09_S06,LBP09,-1534,117,6,116,-1534,1716542643.64,2024-05-24 09:24:03.640000+00:00,2024-05-24 18:24:03.640000+09:00,2024,5,24,9,24,3,640,,,,,,,,,-0.257568,0.193848,-0.111816,-31.860352,33.996582,-7.385254,,,,,,,,,,,0.0,1.0,1.0,6.0,0.0,0.0,0.0,4.0,0.0,-0.013229146666666667,-0.041324893333333335,0.9830696666666667,6.997070320000002,1.600748706666667,-8.659667986666667,-0.6546101397628307,0.3228163311785221,-11.631241357769472,-2.059274820743723,6.83059392223058,-25.699372719493567,26.67124639557013,-1.8808430995552536,26.66493217759936,-1.729464871375018,-0.24433885333333336,0.23517289333333333,-1.0948856666666666,1.5743974133333334,1.146203467137982,0.766370308954896,0.704110928421936,0.7112354127377775
LBP09_S06,LBP09,-1533,118,6,117,-1533,1716542643.68,2024-05-24 09:24:03.680000+00:00,2024-05-24 18:24:03.680000+09:00,2024,5,24,9,24,3,680,,,,,,,,,0.052246,-0.192871,0.398193,-2.01416,-62.988281,0.915527,,,,,,,,,,,0.0,1.0,1.0,6.0,0.0,0.0,0.0,4.0,0.0,-0.005807279999999998,-0.03899090666666667,0.9791341199999999,7.331542973333335,1.2784830800000002,-9.79410808,-6.1044438348679995,-0.9592925423101462,-12.699628617473481,-2.303452574138443,6.792222220538174,-26.207357864192506,27.171046771818165,-1.7187617125846986,27.11944154193038,-1.7690923832356387,0.05805328,-0.1538800933333333,-0.5809411199999999,0.7928744933333332,0.6037730131016854,0.769221368121905,0.7043863581016865,0.7057747012361449
LBP09_S06,LBP09,-1532,119,6,118,-1532,1716542643.72,2024-05-24 09:24:03.720000+00:00,2024-05-24 18:24:03.720000+09:00,2024,5,24,9,24,3,720,,,,,,,,,0.464355,0.08374,0.663818,23.681641,-76.965332,-31.066895,,,,,,,,,,,0.0,1.0,1.0,6.0,0.0,0.0,0.0,4.0,0.0,-0.0018619733333333326,-0.04356448,0.99600912,5.791829426666668,1.3094075600000001,-9.409993506666666,-9.378226369525969,-1.7775355313396992,-13.760998331241256,-2.6785816289194817,6.721120799284586,-26.757797797442155,27.718730261506586,-1.6135516748087904,27.62615270601064,-1.8051308080646755,0.46621697333333334,0.12730448,-0.33219111999999995,0.9257125733333332,0.5864432087244414,0.7534050879149118,0.7055996104663693,0.7049379643572206
LBP09_S06,LBP09,-1531,120,6,119,-1531,1716542643.76,2024-05-24 09:24:03.760000+00:00,2024-05-24 18:24:03.760000+09:00,2024,5,24,9,24,3,760,,,,,,,,,0.265137,0.024414,1.115723,-68.17627,65.063477,13.183594,,,,,,,,,,,0.0,1.0,1.0,6.0,0.0,0.0,0.0,4.0,0.0,-0.00730468,-0.04242190666666667,1.0157324266666667,6.332194013333335,0.8439127733333336,-10.058593759999999,-10.208650173344804,-1.9933298291321588,-14.835657596027298,-3.086927635853274,6.6413876061193,-27.351224101283247,28.31477726209986,-1.7414568427406698,28.174289614549348,-1.8338464329777089,0.27244168,0.06683590666666667,0.09999057333333328,0.43926815999999996,0.2978080290668915,0.7210559665988403,0.7030686398345253,0.6928695153040031
LBP09_S06,LBP09,-1530,121,6,120,-1530,1716542643.8,2024-05-24 09:24:03.800000+00:00,2024-05-24 18:24:03.800000+09:00,2024,5,24,9,24,3,800,,,,,,,,,-0.304443,-0.124512,1.625,-52.734375,22.155762,-15.380859,,,,,,,,,,,0.0,1.0,1.0,6.0,0.0,0.0,0.0,4.0,0.0,-0.0026399733333333326,-0.04433270666666667,1.0355598933333332,5.264485680000002,1.6560872533333337,-9.174804693333334,-8.965557534581333,-1.629653732396295,-15.846675118949923,-3.4455499372365272,6.576201456823448,-27.985091106041242,28.953127019100133,-1.6303293574133328,28.75128125888879,-1.8266435951682478,-0.3018030266666667,-0.08017929333333332,0.5894401066666668,0.9714224266666668,0.6670482931031343,0.7377935336502359,0.7001767551801942,0.691833650995402
LBP09_S06,LBP09,-1529,122,6,121,-1529,1716542643.84,2024-05-24 09:24:03.840000+00:00,2024-05-24 18:24:03.840000+09:00,2024,5,24,9,24,3,840,,,,,,,,,-0.265625,-0.088623,1.860107,-23.254395,-94.543457,-49.316406,,,,,,,,,,,0.0,1.0,1.0,6.0,0.0,0.0,0.0,4.0,0.0,-0.011259773333333332,-0.04516278666666666,1.0360546800000001,5.590006506666668,5.445149746666667,-7.759602879999999,-6.53159812422364,-0.8600412734282337,-16.627329642301472,-3.7068138622054727,6.541799805886319,-28.6501842917333,29.620409748340997,-1.8153394750427785,29.343440895545484,-1.8129005364004254,-0.25436522666666667,-0.04346021333333333,0.8240523199999998,1.1218777599999998,0.863511832447909,0.7383641969331302,0.7059050546899277,0.6959394057432221
LBP09_S06,LBP09,-1528,123,6,122,-1528,1716542643.88,2024-05-24 09:24:03.880000+00:00,2024-05-24 18:24:03.880000+09:00,2024,5,24,9,24,3,880,,,,,,,,,0.159668,-0.179199,1.274902,52.734375,62.866211,-9.094238,,,,,,,,,,,0.0,1.0,1.0,6.0,0.0,0.0,0.0,4.0,0.0,-0.02132488,-0.04508466666666667,1.0273502533333334,5.706380213333335,5.866699226666666,-6.638997413333333,-3.990237969853559,0.06903850713929477,-16.96322623188023,-3.866423380999615,6.54456134617189,-29.32871334100851,30.29775468931647,-2.0128971951035903,29.935705227331653,-1.8199419255158151,0.18099288,-0.13411433333333334,0.24755174666666657,0.5626589599999999,0.3347042639313941,0.7383727861099936,0.7063174771655716,0.6940580373351816
LBP09_S06,LBP09,-1527,124,6,123,-1527,1716542643.92,2024-05-24 09:24:03.920000+00:00,2024-05-24 18:24:03.920000+09:00,2024,5,24,9,24,3,920,,,,,,,,,-0.592285,0.25293,-0.181152,61.950684,79.589844,3.540039,,,,,,,,,,,0.0,1.0,1.0,6.0,0.0,0.0,0.0,4.0,0.0,-0.021061213333333335,-0.044912146666666666,1.0151953066666666,6.802571613333335,4.274902346666667,-6.111653666666667,-2.2177027754266323,0.9327983612229394,-16.64919595175705,-3.9551314920166805,6.581873280620807,-29.994681179078793,30.961993153475696,-2.0095838528667733,30.511415578774386,-1.8423238172264385,-0.5712237866666666,0.29784214666666664,-1.1963473066666666,2.06541324,1.3587690889012014,0.7639592610136436,0.711702875875665,0.6998913489988896
LBP09_S06,LBP09,-1526,125,6,124,-1526,1716542643.96,2024-05-24 09:24:03.960000+00:00,2024-05-24 18:24:03.960000+09:00,2024,5,24,9,24,3,960,,,,,,,,,0.05542,-0.012939,0.306885,28.503418,-56.030273,-11.230469,,,,,,,,,,,0.0,1.0,1.0,6.0,0.0,0.0,0.0,4.0,0.0,-0.012200546666666668,-0.041044960000000005,1.0035481733333333,8.199869800000002,3.4106445333333335,-6.697591173333333,-1.5495308778663595,1.5889182126934447,-15.54513898667799,-4.017112727131335,6.645430009128545,-30.616486738545913,31.58588600752343,-1.8599348922299697,31.053171038494916,-1.8768420483538617,0.06762054666666667,0.028105960000000006,-0.6966631733333333,0.79238968,0.7005012922171453,0.7582137461112075,0.711536716495378,0.6970103625308969
LBP09_S06,LBP09,-1525,126,6,125,-1525,1716542644.0,2024-05-24 09:24:04+00:00,2024-05-24 18:24:04+09:00,2024,5,24,9,24,4,0,9.0,24.0,3.0,40.560696,141.547653,-7.355,3.0,14.0,0.26123,0.06958,0.627197,6.408691,-68.969727,-38.269043,-296.0,176.0,247.0,209.0,0.0,1006.700012,17.959999,-0.062432,54.644299,3.832031,0.0,1.0,1.0,6.0,0.0,0.0,0.0,6.0,0.0,-0.012115906666666667,-0.04289392,1.0016276,7.375488293333334,3.99739584,-5.965983106666666,-1.6877716661591082,1.9758706703600173,-13.626050678093296,-4.084623593777699,6.724464835942946,-31.161528765669644,32.13943764670339,-1.8463072616583962,31.545096530604365,-1.918458735040185,0.2733459066666667,0.11247392,-0.37443059999999995,0.7602504266666666,0.4770394549593864,0.7325488059739937,0.709818733610698,0.6993027481958022
LBP09_S06,LBP09,-1524,127,6,126,-1524,1716542644.04,2024-05-24 09:24:04.040000+00:00,2024-05-24 18:24:04.040000+09:00,2024,5,24,9,24,4,40,,,,,,,,,0.473877,0.12915,1.027588,-50.78125,48.828125,-14.953613,,,,,,,,,,,0.0,1.0,1.0,6.0,0.0,0.0,0.0,6.0,0.0,-0.017858093333333335,-0.044687533333333335,1.0144108133333334,8.002115893333334,1.6780599066666666,-6.856282586666667,-1.904774179015246,2.068272497556906,-11.021650051225114,-4.1608145609383085,6.807195735845222,-31.60239476771865,32.59388971343182,-1.951256990709152,31.9759259250147,-1.9732369391558109,0.4917350933333333,0.17383753333333332,0.013177186666666563,0.6787498133333332,0.5217245712628532,0.7184410685102143,0.7102391246035363,0.689776184555704
LBP09_S06,LBP09,-1523,128,6,127,-1523,1716542644.08,2024-05-24 09:24:04.080000+00:00,2024-05-24 18:24:04.080000+09:00,2024,5,24,9,24,4,80,,,,,,,,,-0.324219,-0.228516,1.616943,-75.378418,45.227051,16.418457,,,,,,,,,,,0.0,1.0,1.0,6.0,0.0,0.0,0.0,6.0,0.0,-0.01743492,-0.04474938666666667,1.0415201866666666,7.769368493333334,0.7910156399999998,-7.115071639999999,-1.4439410994890087,1.8438999417991078,-8.031303961169083,-4.218572204917868,6.880951733517186,-31.923646926165414,32.9281502862455,-1.942580629690932,32.3417455003197,-1.97792022900936,-0.30678407999999996,-0.18376661333333333,0.5754228133333334,1.0659735066666667,0.677493951280672,0.703568638659188,0.7129524296148346,0.690536095356313
LBP09_S06,LBP09,-1522,129,6,128,-1522,1716542644.12,2024-05-24 09:24:04.120000+00:00,2024-05-24 18:24:04.120000+09:00,2024,5,24,9,24,4,120,,,,,,,,,-0.300293,-0.011475,1.851074,-19.836426,-96.435547,-27.526855,,,,,,,,,,,0.0,1.0,1.0,6.0,0.0,0.0,0.0,6.0,0.0,-0.019306666666666666,-0.047285186666666666,1.05188476,7.616373693333333,3.6295573066666673,-6.265462253333333,0.08759293313437953,1.2979248325900488,-5.098523889499865,-4.215068487592493,6.9328687268207885,-32.127587881745406,33.136284858711896,-1.9587339860830186,32.64741883609327,-1.9659864935730542,-0.28098633333333334,0.03581018666666667,0.79918924,1.11598576,0.8479027835318093,0.7105761949230033,0.7153743436655082,0.6961929293291368
LBP09_S06,LBP09,-1521,130,6,129,-1521,1716542644.16,2024-05-24 09:24:04.160000+00:00,2024-05-24 18:24:04.160000+09:00,2024,5,24,9,24,4,160,,,,,,,,,0.195068,-0.198242,1.369385,5.249023,41.07666,-14.404297,,,,,,,,,,,0.0,1.0,1.0,6.0,0.0,0.0,0.0,6.0,0.0,-0.032252626666666666,-0.04853192,1.0377994666666668,8.447265626666669,4.265950533333333,-5.441080733333333,2.530326035797233,0.4929031667885915,-2.7409189124936395,-4.113855446160604,6.952584853492332,-32.23722463824515,33.23403218319433,-2.1576237096039073,32.90637327542831,-1.9637218241645926,0.22732062666666666,-0.14971008,0.3315855333333333,0.70861624,0.4289950364254621,0.7124573712871982,0.7145681289939333,0.6965233283148019
LBP09_S06,LBP09,-1520,131,6,130,-1520,1716542644.2,2024-05-24 09:24:04.200000+00:00,2024-05-24 18:24:04.200000+09:00,2024,5,24,9,24,4,200,,,,,,,,,-0.596191,0.30957,-0.109131,52.91748,99.853516,2.01416,,,,,,,,,,,0.0,1.0,1.0,6.0,0.0,0.0,0.0,6.0,0.0,-0.029580106666666665,-0.042584666666666667,1.0229719866666667,8.908691413333335,2.718098973333333,-5.96842448,5.266942479298428,-0.39534365428073,-1.4449683335961276,-3.9031777469886664,6.9367711073211025,-32.295023371589,33.26142096320348,-2.178111398569592,33.139018380259515,-1.9774357655353008,-0.5666108933333334,0.35215466666666667,-1.1321029866666668,2.050868546666667,1.3140464170335446,0.7373189524310872,0.7214377767488238,0.7034738376945108
LBP09_S06,LBP09,-1519,132,6,131,-1519,1716542644.24,2024-05-24 09:24:04.240000+00:00,2024-05-24 18:24:04.240000+09:00,2024,5,24,9,24,4,240,,,,,,,,,0.062256,-0.331299,0.343262,13.183594,-42.419434,44.494629,,,,,,,,,,,0.0,1.0,1.0,6.0,0.0,0.0,0.0,6.0,0.0,-0.013206413333333333,-0.04407229333333333,1.0118391733333334,8.798828133333332,2.967122413333333,-6.294759119999999,7.527460607027353,-1.081282216060136,-1.547308041345307,-3.6020793227075725,6.893519818678697,-32.35691569324281,33.27860550139107,-1.8621723735782691,33.3702775358211,-1.9987507741924646,0.07546241333333334,-0.28722670666666666,-0.6685771733333334,1.0312662933333334,0.7315662605335627,0.737705641846116,0.7205662934089944,0.7010302266104138
LBP09_S06,LBP09,-1518,133,6,132,-1518,1716542644.28,2024-05-24 09:24:04.280000+00:00,2024-05-24 18:24:04.280000+09:00,2024,5,24,9,24,4,280,,,,,,,,,0.20752,0.086182,0.471436,92.834473,-78.063965,-29.724121,,,,,,,,,,,0.0,1.0,1.0,6.0,0.0,0.0,0.0,6.0,0.0,-0.016998733333333335,-0.05088218666666666,1.0064322799999998,8.072102866666667,4.55240888,-4.73632812,8.734300965716605,-1.2501462757628152,-3.137790738414659,-3.2527072840789084,6.843513967648184,-32.4824273227794,33.3544880470521,-1.8935598407405336,33.62664006412724,-2.0227166627996622,0.22451873333333333,0.13706418666666664,-0.5349962799999999,0.8965791999999999,0.5961679901655552,0.7205333978558188,0.716866517643652,0.7045384860932201
LBP09_S06,LBP09,-1517,134,6,133,-1517,1716542644.32,2024-05-24 09:24:04.320000+00:00,2024-05-24 18:24:04.320000+09:00,2024,5,24,9,24,4,320,,,,,,,,,0.63501,0.076172,1.155762,-26.123047,5.310059,4.943848,,,,,,,,,,,0.0,1.0,1.0,6.0,0.0,0.0,0.0,6.0,0.0,-0.0231348,-0.05240237333333333,1.0207617066666665,8.430175786666666,1.6080729466666666,-5.162760413333333,8.718229272956512,-0.6912024435774076,-6.022654417375455,-2.903978113160648,6.815865869905088,-32.72333349947442,33.55153754682605,-1.986937158782155,33.93300167317641,-2.040461448754427,0.6581448,0.12857437333333332,0.1350002933333334,0.9217194666666667,0.6840402228269807,0.7119415962145286,0.7163573651188224,0.6970596755047597
LBP09_S06,LBP09,-1516,135,6,134,-1516,1716542644.36,2024-05-24 09:24:04.360000+00:00,2024-05-24 18:24:04.360000+09:00,2024,5,24,9,24,4,360,,,,,,,,,-0.177734,-0.096924,1.537354,-19.104004,76.23291,-2.380371,,,,,,,,,,,0.0,1.0,1.0,6.0,0.0,0.0,0.0,6.0,0.0,-0.021917360000000004,-0.048304066666666666,1.0425390533333332,9.46533204,1.0042318000000001,-5.34505208,7.7240595738688285,0.5895445355367559,-9.765702863091526,-2.595015730205895,6.839447651326558,-33.11396161399808,33.91233705583546,-1.997074305937054,34.309481824225486,-2.0382741523365215,-0.15581664,-0.04861993333333333,0.4948149466666669,0.6992515200000002,0.5210417974241258,0.6846322450463567,0.7125498125081607,0.6942084441443913
LBP09_S06,LBP09,-1515,136,6,135,-1515,1716542644.4,2024-05-24 09:24:04.400000+00:00,2024-05-24 18:24:04.400000+09:00,2024,5,24,9,24,4,400,,,,,,,,,-0.450439,0.088867,1.895996,-44.98291,-86.181641,-41.07666,,,,,,,,,,,0.0,1.0,1.0,6.0,0.0,0.0,0.0,6.0,0.0,-0.024563840000000003,-0.046233746666666665,1.04525716,9.657389333333334,3.745117213333333,-4.474283853333333,6.245416173540467,2.3411330350880055,-13.79168586907958,-2.3451990832642764,6.933092972730078,-33.66562904876126,34.45202920231928,-2.0594573482300325,34.768467285800284,-2.01938235006163,-0.42587516,0.13510074666666666,0.85073884,1.4117147466666666,0.9609258231203187,0.6991108270471647,0.7243841492169163,0.7008216894734562
LBP09_S06,LBP09,-1514,137,6,136,-1514,1716542644.44,2024-05-24 09:24:04.440000+00:00,2024-05-24 18:24:04.440000+09:00,2024,5,24,9,24,4,440,,,,,,,,,0.09668,-0.169434,1.634521,-6.164551,4.760742,-38.635254,,,,,,,,,,,0.0,1.0,1.0,6.0,0.0,0.0,0.0,6.0,0.0,-0.03460941333333334,-0.04849286666666667,1.0288802133333332,8.500976573333334,3.2438151333333334,-3.8183593733333328,4.811272365408886,4.132848714777851,-17.51189233320139,-2.152748188647921,7.098406921321192,-34.36610474208932,35.15751499649316,-2.190915876781131,35.312354491143694,-1.9933391130976257,0.13128941333333333,-0.12094113333333334,0.6056407866666667,0.8578713333333333,0.6313987886111129,0.7079295672725661,0.7244155740957224,0.7032830312792905
LBP09_S06,LBP09,-1513,138,6,137,-1513,1716542644.48,2024-05-24 09:24:04.480000+00:00,2024-05-24 18:24:04.480000+09:00,2024,5,24,9,24,4,480,,,,,,,,,-0.626953,0.164307,-0.018311,45.288086,113.769531,15.380859,,,,,,,,,,,0.0,1.0,1.0,6.0,0.0,0.0,0.0,6.0,0.0,-0.029072293333333336,-0.04753258666666666,1.0134635466666666,9.165039066666667,1.56901044,-3.96972656,3.843771022009279,5.477862307506645,-20.430072586883362,-1.99899734776755,7.317521413621458,-35.18330764556465,35.99176637673731,-2.120028489238579,35.93267720206306,-1.9964041821682141,-0.5978807066666666,0.21183958666666666,-1.0317745466666666,1.8414948399999997,1.211154847669175,0.7288254138069438,0.7354423701489856,0.7120181576725516
LBP09_S06,LBP09,-1512,139,6,138,-1512,1716542644.52,2024-05-24 09:24:04.520000+00:00,2024-05-24 18:24:04.520000+09:00,2024,5,24,9,24,4,520,,,,,,,,,0.008057,-0.00708,0.206787,32.775879,-39.306641,-7.873535,,,,,,,,,,,0.0,1.0,1.0,6.0,0.0,0.0,0.0,6.0,0.0,-0.017021506666666665,-0.044440146666666666,1.0011295599999999,9.672851573333334,2.4666341333333333,-3.9819335999999996,3.627566344770365,5.963903044852915,-22.206829054545555,-1.8538946939767353,7.556077535415575,-36.07158080774648,36.901086369202616,-1.9368610219039628,36.61120746755834,-2.012804212244337,0.025078506666666667,0.03736014666666666,-0.7943425599999998,0.8567812133333331,0.7956159970003985,0.7250764033296613,0.7452195098468585,0.7111749180702551
LBP09_S06,LBP09,-1511,140,6,139,-1511,1716542644.56,2024-05-24 09:24:04.560000+00:00,2024-05-24 18:24:04.560000+09:00,2024,5,24,9,24,4,560,,,,,,,,,0.246094,0.243164,0.555908,14.709473,-56.70166,-47.058105,,,,,,,,,,,0.0,1.0,1.0,6.0,0.0,0.0,0.0,6.0,0.0,-0.02017906666666667,-0.04805342666666667,0.9972070266666668,9.584147146666668,3.0517578266666665,-2.8011067733333332,4.3441180742267145,5.343247858747949,-22.687922761713093,-1.6801299710076667,7.769807449765493,-36.979097718215,37.823886798942326,-1.9687056868549937,37.323096935245324,-2.026961876260244,0.26627306666666667,0.29121742666666667,-0.44129902666666687,0.9987895200000002,0.5919913568316467,0.7123192532571003,0.7370869462671407,0.7123978738512948
LBP09_S06,LBP09,-1510,141,6,140,-1510,1716542644.6,2024-05-24 09:24:04.600000+00:00,2024-05-24 18:24:04.600000+09:00,2024,5,24,9,24,4,600,,,,,,,,,0.551758,-0.149658,1.083252,-30.212402,44.372559,-32.897949,,,,,,,,,,,0.0,1.0,1.0,6.0,0.0,0.0,0.0,6.0,0.0,-0.0172982,-0.047897173333333334,1.0185026000000001,9.867350266666667,-0.3198242133333334,-3.148600266666666,6.097941176884806,3.5629603361561837,-21.912101962750388,-1.4362123239322744,7.91232586321174,-37.85558179672502,38.700293016637524,-1.9176790289295484,38.04145374517174,-2.0335223080545064,0.5690562,-0.10176082666666668,0.06474939999999996,0.7355664266666666,0.5816981256654378,0.7252626365189531,0.7361039705507285,0.7075713782437778
LBP09_S06,LBP09,-1509,142,6,141,-1509,1716542644.64,2024-05-24 09:24:04.640000+00:00,2024-05-24 18:24:04.640000+09:00,2024,5,24,9,24,4,640,,,,,,,,,-0.100342,-0.169678,1.546631,-2.624512,59.875488,-3.78418,,,,,,,,,,,0.0,1.0,1.0,6.0,0.0,0.0,0.0,6.0,0.0,-0.015716173333333337,-0.04714848,1.0360221333333335,9.9210612,-0.3702799466666667,-3.099772146666666,8.903802767339663,0.7514679845490155,-20.101241176145653,-1.0800602132386878,7.942384582593701,-38.65963144377085,39.48183261058482,-1.8928230642841493,38.74234544525242,-2.01926562122099,-0.08462582666666667,-0.12252952,0.5106088666666666,0.7177642133333333,0.5318800884871183,0.7006897013729185,0.7335300051639072,0.7029705194055967
LBP09_S06,LBP09,-1508,143,6,142,-1508,1716542644.68,2024-05-24 09:24:04.680000+00:00,2024-05-24 18:24:04.680000+09:00,2024,5,24,9,24,4,680,,,,,,,,,-0.560303,-0.082764,1.812744,-0.732422,-97.106934,-35.522461,,,,,,,,,,,0.0,1.0,1.0,6.0,0.0,0.0,0.0,6.0,0.0,-0.02217450666666667,-0.04192386666666666,1.03023112,9.42301432,2.3486328133333334,-2.970377613333333,12.661944665342375,-2.8162519566591127,-17.62336454844135,-0.5735824266249928,7.8297345043273365,-39.364566025708505,40.1397907020048,-2.0575601415017606,39.409232894059116,-1.9996787621171976,-0.5381284933333333,-0.04084013333333334,0.7825128799999999,1.3614815066666666,0.9505664622706725,0.714561439339678,0.7418914037307914,0.7077780518476836
LBP09_S06,LBP09,-1507,144,6,143,-1507,1716542644.72,2024-05-24 09:24:04.720000+00:00,2024-05-24 18:24:04.720000+09:00,2024,5,24,9,24,4,720,,,,,,,,,0.074463,-0.004639,1.37915,16.723633,2.807617,-8.483887,,,,,,,,,,,0.0,1.0,1.0,6.0,0.0,0.0,0.0,6.0,0.0,-0.032770200000000006,-0.05257817333333333,1.01750976,6.844075506666668,1.5258789066666667,-1.39160156,17.165701628360527,-6.766463040282981,-14.926529282717881,0.11304563850942828,7.559075982716017,-39.96162719701722,40.67043222369596,-2.1285137989412246,40.03605865158794,-1.9804684950227371,0.1072332,0.047939173333333335,0.36164024000000006,0.5168126133333334,0.3802378028410392,0.7063132231043419,0.7298591555096268,0.7058374813456935
LBP09_S06,LBP09,-1506,145,6,144,-1506,1716542644.76,2024-05-24 09:24:04.760000+00:00,2024-05-24 18:24:04.760000+09:00,2024,5,24,9,24,4,760,,,,,,,,,-0.665039,-0.062012,-0.083252,69.458008,82.641602,28.381348,,,,,,,,,,,0.0,1.0,1.0,6.0,0.0,0.0,0.0,6.0,0.0,-0.027893893333333343,-0.05210942666666667,1.0039322800000001,8.310546853333333,-0.25472005333333336,-1.5641275999999997,22.151861903175533,-10.682378271891967,-12.459715957707985,0.9991201146364496,7.131780851840339,-40.46001583532554,41.095905155099594,-2.062678623879682,40.62836062917207,-1.9749430738041656,-0.6371451066666667,-0.009902573333333331,-1.0871842800000002,1.7342319600000002,1.2601672930952537,0.7448075936654764,0.7329317801321583,0.7169816244448423
LBP09_S06,LBP09,-1505,146,6,145,-1505,1716542644.8,2024-05-24 09:24:04.800000+00:00,2024-05-24 18:24:04.800000+09:00,2024,5,24,9,24,4,800,,,,,,,,,0.003418,0.32251,0.077393,75.012207,-75.439453,-24.291992,,,,,,,,,,,0.0,1.0,1.0,6.0,0.0,0.0,0.0,6.0,0.0,-0.017763680000000004,-0.0493132,0.9921451733333333,8.591308573333333,1.3338216133333334,-0.6591796799999996,27.35478584726673,-14.16072669257696,-10.606577105086453,2.0933115485271188,6.565351784137261,-40.884278919529,41.46094620312608,-1.9168904798948703,41.20187323598214,-1.9879527324550037,0.021181680000000005,0.3718232,-0.9147521733333333,1.3077570533333334,0.9876602119372426,0.7576320704188407,0.7477128020345383,0.7193285269264097
LBP09_S06,LBP09,-1504,147,6,146,-1504,1716542644.84,2024-05-24 09:24:04.840000+00:00,2024-05-24 18:24:04.840000+09:00,2024,5,24,9,24,4,840,,,,,,,,,0.187988,0.12085,0.463135,-26.611328,-74.035645,-37.17041,,,,,,,,,,,0.0,1.0,1.0,6.0,0.0,0.0,0.0,6.0,0.0,-0.022037760000000003,-0.048837946666666666,0.9881966,7.514648426666666,1.9099934933333331,0.13834636000000017,32.50894472605485,-16.86375227880755,-9.647697813927172,3.393669337569313,5.890801692984959,-41.27018683208609,41.82638948456016,-1.9950472857432053,41.7784177472946,-2.006288207542287,0.21002576,0.16968794666666667,-0.5250615999999999,0.9047753066666666,0.5904189215312183,0.7467083539821731,0.7425362754576516,0.7195061544540095
LBP09_S06,LBP09,-1503,148,6,147,-1503,1716542644.88,2024-05-24 09:24:04.880000+00:00,2024-05-24 18:24:04.880000+09:00,2024,5,24,9,24,4,880,,,,,,,,,0.683105,-0.12085,1.049805,20.935059,1.586914,-49.682617,,,,,,,,,,,0.0,1.0,1.0,6.0,0.0,0.0,0.0,6.0,0.0,-0.01874349333333334,-0.05028650666666666,1.0129687333333333,6.53727212,-1.2052408800000003,-0.5338541599999999,37.28439966077737,-18.553987304887873,-9.739880340724907,4.885045324000408,5.148642200789444,-41.65978204571508,42.26002395202555,-1.9279258182939731,42.379661925552774,-2.0130638425040805,0.7018484933333333,-0.07056349333333334,0.03683626666666684,0.8092482533333335,0.706347948767186,0.7615741013756048,0.7499734437427992,0.7247363519022493
LBP09_S06,LBP09,-1502,149,6,148,-1502,1716542644.92,2024-05-24 09:24:04.920000+00:00,2024-05-24 18:24:04.920000+09:00,2024,5,24,9,24,4,920,,,,,,,,,-0.146973,-0.453857,1.43042,4.455566,89.782715,39.611816,,,,,,,,,,,0.0,1.0,1.0,6.0,0.0,0.0,0.0,6.0,0.0,-0.017265626666666676,-0.05381516,1.0341243333333334,6.0099283733333335,-1.3574218666666669,-1.0188802,41.20828260302334,-19.09574120789886,-10.881473573567385,6.533376628121341,4.38481255247349,-42.09504098865778,42.824106145043935,-1.8816068097182488,43.02025912109856,-1.995740031092882,-0.12970737333333332,-0.40004184,0.3962956666666666,0.9260448799999998,0.5778474987973868,0.7303372377714523,0.747148249392548,0.7179143298409274
LBP09_S06,LBP09,-1501,150,6,149,-1501,1716542644.96,2024-05-24 09:24:04.960000+00:00,2024-05-24 18:24:04.960000+09:00,2024,5,24,9,24,4,960,,,,,,,,,-0.712646,-0.001221,1.74585,78.735352,-92.529297,-24.963379,,,,,,,,,,,0.0,1.0,1.0,6.0,0.0,0.0,0.0,6.0,0.0,-0.02722981333333334,-0.04671881333333333,1.0282584533333334,5.5712890533333335,2.128906253333333,-0.4947916533333332,43.65984148410705,-18.432389610480236,-12.84948717805687,8.279770287485624,3.6475169680542807,-42.609020475780056,43.559012867043,-2.0988022733633738,43.70235089600128,-1.978014705459703,-0.6854161866666667,0.04549781333333333,0.7175915466666665,1.4485055466666665,0.9933795990507598,0.7420523700447967,0.7501330580780021,0.7217086010118509
LBP09_S06,LBP09,-1500,151,6,150,-1500,1716542645.0,2024-05-24 09:24:05+00:00,2024-05-24 18:24:05+09:00,2024,5,24,9,24,5,0,9.0,24.0,4.0,40.560753,141.547668,-6.683,3.0,14.0,0.161377,-0.139404,1.840332,2.624512,-84.960938,-13.793945,-289.0,169.0,247.0,132.0,0.0,1006.900024,18.030001,-0.06045,52.971413,3.832031,0.0,1.0,1.0,6.0,0.0,0.0,0.0,4.0,0.0,-0.03192057333333334,-0.054502013333333335,1.0102994666666667,3.015136706666667,0.7527669333333332,0.4687500133333335,43.99134223488421,-16.57353497031586,-15.14020810165076,10.039423976880991,2.9845755692416462,-43.21462879984609,44.465738129762045,-2.1010337798023824,44.41304716934063,-1.9711008657506401,0.19329757333333333,-0.08490198666666667,0.8300325333333334,1.1082320933333334,0.8564615026889728,0.7572292519539802,0.7448890289639871,0.7256222397251254
LBP09_S06,LBP09,-1499,152,6,151,-1499,1716542645.04,2024-05-24 09:24:05.040000+00:00,2024-05-24 18:24:05.040000+09:00,2024,5,24,9,24,5,40,,,,,,,,,-0.436279,-0.179932,0.260254,85.876465,114.135742,78.308105,,,,,,,,,,,0.0,1.0,1.0,6.0,0.0,0.0,0.0,4.0,0.0,-0.02131836000000001,-0.05195317333333334,0.99639648,3.3471679600000006,0.05615234666666671,-0.17903643999999977,41.74957633287494,-13.610023539804349,-16.978898090078765,11.709407030195988,2.4401746276494722,-43.89378472344924,45.494274393166585,-1.9605794139020873,45.125452529058016,-1.9763158072604021,-0.41496064,-0.12797882666666666,-0.73614248,1.2790819466666667,0.854679275333582,0.7705474401168094,0.7444942543135119,0.730341896441294
LBP09_S06,LBP09,-1498,153,6,152,-1498,1716542645.08,2024-05-24 09:24:05.080000+00:00,2024-05-24 18:24:05.080000+09:00,2024,5,24,9,24,5,80,,,,,,,,,-0.000977,0.37793,-0.067627,106.018066,-49.682617,-59.631348,,,,,,,,,,,0.0,1.0,1.0,6.0,0.0,0.0,0.0,4.0,0.0,-0.017480466666666673,-0.05398768,0.9869986933333333,2.063802066666667,1.9604492266666667,0.5354817866666668,36.90686308207152,-9.743272567606962,-17.453991491393793,13.18568155347885,2.0504437249451937,-44.59194438310499,46.54576265746269,-1.884322027389772,45.802661961553916,-1.9956355688426881,0.016503466666666675,0.43191767999999997,-1.0546256933333333,1.50304684,1.1397633963886602,0.7890382179211289,0.7463034282901585,0.7383143590502661
LBP09_S06,LBP09,-1497,154,6,153,-1497,1716542645.12,2024-05-24 09:24:05.120000+00:00,2024-05-24 18:24:05.120000+09:00,2024,5,24,9,24,5,120,,,,,,,,,0.161865,0.043457,0.411377,-21.30127,-54.870605,-49.438477,,,,,,,,,,,0.0,1.0,1.0,6.0,0.0,0.0,0.0,4.0,0.0,-0.02152669333333334,-0.053890026666666674,0.991722,1.0994466,1.1539713600000001,0.06835938666666683,29.990314363010146,-5.309056869915807,-15.774555808312472,14.385294127999256,1.8380814501485614,-45.22292661543749,47.491349972723185,-1.9512605426094372,46.40347807168896,-2.023670230070714,0.18339169333333336,0.09734702666666667,-0.580345,0.86108372,0.6163678088686236,0.7797768189346016,0.7451765069288026,0.7368418354218726
LBP09_S06,LBP09,-1496,155,6,154,-1496,1716542645.16,2024-05-24 09:24:05.160000+00:00,2024-05-24 18:24:05.160000+09:00,2024,5,24,9,24,5,160,,,,,,,,,0.687744,-0.189453,1.050293,62.5,-17.883301,-90.393066,,,,,,,,,,,0.0,1.0,1.0,6.0,0.0,0.0,0.0,4.0,0.0,-0.027041026666666676,-0.06019212000000001,1.0208854,0.7535807200000001,-0.7096354133333332,-0.30110675999999986,22.033749368770923,-0.778966066189376,-11.568758939584809,15.266644102750092,1.8069228075009864,-45.68567697302088,48.20286788849302,-1.9935402267890476,46.88861830642403,-2.0503715424782607,0.7147850266666667,-0.12926088,0.029407599999999867,0.8734535066666665,0.7269737384410814,0.7916959670152263,0.7520766691512124,0.7402774083343643
LBP09_S06,LBP09,-1495,156,6,155,-1495,1716542645.2,2024-05-24 09:24:05.200000+00:00,2024-05-24 18:24:05.200000+09:00,2024,5,24,9,24,5,200,,,,,,,,,-0.050049,-0.122559,1.395996,-54.199219,102.600098,40.405273,,,,,,,,,,,0.0,1.0,1.0,6.0,0.0,0.0,0.0,4.0,0.0,-0.02377605333333334,-0.05658209333333333,1.0316699066666666,1.8204752533333335,0.6616210933333334,-0.7478840933333333,14.354714100701583,3.2823014113890423,-5.086678972284447,15.840832666778155,1.9382148639565482,-45.88914413191226,48.58499980029995,-1.969039894992494,47.22660315110298,-2.044842651751522,-0.026272946666666665,-0.06597690666666667,0.36432609333333343,0.4565759466666668,0.37118286897886377,0.7539814250930391,0.7456501887620632,0.732285659530229
LBP09_S06,LBP09,-1494,157,6,156,-1494,1716542645.24,2024-05-24 09:24:05.240000+00:00,2024-05-24 18:24:05.240000+09:00,2024,5,24,9,24,5,240,,,,,,,,,-0.359619,-0.025391,1.688965,18.188477,-71.166992,-6.774902,,,,,,,,,,,0.0,1.0,1.0,6.0,0.0,0.0,0.0,4.0,0.0,-0.03983724000000001,-0.05614589333333332,1.0193717333333334,2.0304361866666665,2.3339843733333336,-0.0537109066666666,8.236814024275613,6.314723763592925,2.8034648352945437,16.17030522774918,2.1908038145002653,-45.77700553850048,48.59848380951925,-2.1882449015660628,47.398790319148546,-2.0561203016455796,-0.31978176,0.03075489333333332,0.6695932666666666,1.02012992,0.7426717850154132,0.754425646072313,0.7460656439592145,0.7318527442967673
LBP09_S06,LBP09,-1493,158,6,157,-1493,1716542645.28,2024-05-24 09:24:05.280000+00:00,2024-05-24 18:24:05.280000+09:00,2024,5,24,9,24,5,280,,,,,,,,,0.134521,-0.163574,1.736816,-3.051758,-52.001953,29.907227,,,,,,,,,,,0.0,1.0,1.0,6.0,0.0,0.0,0.0,4.0,0.0,-0.04098633333333334,-0.055377666666666665,1.0077962133333334,3.8671874933333332,0.3393554666666667,-0.5834960666666666,4.62850648429571,7.896386532951222,10.837429422174177,16.355445487121006,2.5066592758183144,-45.343508361613516,48.26818505337597,-2.208272430574233,47.40284503735031,-2.0619242661892025,0.17550733333333335,-0.10819633333333334,0.7290197866666666,1.0127234533333334,0.7576140969861025,0.7608834903451348,0.7407084441004769,0.7315388418774796
LBP09_S06,LBP09,-1492,159,6,158,-1492,1716542645.32,2024-05-24 09:24:05.320000+00:00,2024-05-24 18:24:05.320000+09:00,2024,5,24,9,24,5,320,,,,,,,,,-0.205811,0.012939,0.511963,29.47998,153.198242,38.452148,,,,,,,,,,,0.0,1.0,1.0,6.0,0.0,0.0,0.0,4.0,0.0,-0.032460946666666664,-0.04981777333333333,0.9957486933333333,4.530436186666667,-0.017089853333333273,-0.3238932133333332,3.9432610962411645,7.872744510299809,17.705804798751355,16.513175930970654,2.821569056230307,-44.63527616966346,47.67550849239463,-2.148619933793714,47.2536357937078,-2.0866065672826744,-0.17335005333333334,0.06275677333333333,-0.4837856933333333,0.7198925199999999,0.5177231409391461,0.7542308070696215,0.7330862016420749,0.7289818457690888
LBP09_S06,LBP09,-1491,160,6,159,-1491,1716542645.36,2024-05-24 09:24:05.360000+00:00,2024-05-24 18:24:05.360000+09:00,2024,5,24,9,24,5,360,,,,,,,,,-0.185791,0.128906,0.003906,-17.76123,12.451172,30.578613,,,,,,,,,,,0.0,1.0,1.0,6.0,0.0,0.0,0.0,4.0,0.0,-0.026793626666666674,-0.05244798666666667,0.9912369866666667,3.756510413333333,2.8841145733333335,0.8593750133333334,5.992185925341436,6.433730178572089,22.401642434042174,16.75286336798431,3.0789182633731906,-43.73921047230178,46.938861313832454,-2.043513366095992,46.98077431467086,-2.1009861140999413,-0.15899737333333333,0.18135398666666666,-0.9873309866666667,1.3276823466666667,1.0163620961246864,0.7740436190176441,0.7293379320320004,0.7330477480113218
LBP09_S06,LBP09,-1490,161,6,160,-1490,1716542645.4,2024-05-24 09:24:05.400000+00:00,2024-05-24 18:24:05.400000+09:00,2024,5,24,9,24,5,400,,,,,,,,,0.018066,-0.244141,0.432129,24.353027,-61.340332,47.424316,,,,,,,,,,,0.0,1.0,1.0,6.0,0.0,0.0,0.0,4.0,0.0,-0.03651368000000001,-0.04875984,0.9983300933333333,2.2998046800000003,2.0589192533333334,0.80891928,10.037884249628659,4.089217588577725,24.453581725202064,17.15437873796946,3.2424869669162995,-42.7610672032937,46.18760981021773,-2.2138102787429546,46.623017208365255,-2.10903673971829,0.054579680000000005,-0.19538116,-0.5662010933333333,0.8161619333333334,0.6014452736897266,0.7596643970404203,0.7293876120437924,0.736144231824751
LBP09_S06,LBP09,-1489,162,6,161,-1489,1716542645.44,2024-05-24 09:24:05.440000+00:00,2024-05-24 18:24:05.440000+09:00,2024,5,24,9,24,5,440,,,,,,,,,0.538818,0.133301,0.739746,27.587891,-46.386719,-24.963379,,,,,,,,,,,0.0,1.0,1.0,6.0,0.0,0.0,0.0,4.0,0.0,-0.027708346666666675,-0.05775073333333334,1.02940756,1.0815429600000002,-0.04801434666666656,0.16113282666666673,14.944419409045725,1.5273100635492456,23.988608458708804,17.75215551433129,3.3035793694582694,-41.80152286494535,45.53482157518421,-2.018619059338318,46.22097160263047,-2.1330417178071706,0.5665263466666667,0.19105173333333333,-0.2896615600000001,1.0472396400000001,0.6643468112505584,0.7609823179459981,0.7344559426092822,0.7366044887124811
LBP09_S06,LBP09,-1488,163,6,162,-1488,1716542645.48,2024-05-24 09:24:05.480000+00:00,2024-05-24 18:24:05.480000+09:00,2024,5,24,9,24,5,480,,,,,,,,,0.085938,-0.397705,1.459961,-78.491211,85.083008,73.059082,,,,,,,,,,,0.0,1.0,1.0,6.0,0.0,0.0,0.0,4.0,0.0,-0.033831400000000005,-0.05396493333333333,1.0305859466666665,0.8927408800000001,2.4324544,0.8105468933333335,19.40208130752106,-0.5914483753318807,21.630868949477133,18.528238766632132,3.279921434444994,-40.93628810696626,45.053670221037585,-2.1311450383244885,45.810154642952355,-2.1367841757708605,0.1197694,-0.3437400666666666,0.4293750533333336,0.8928845200000002,0.562907522629932,0.7350524249444284,0.7319389193756861,0.7353123884141332
LBP09_S06,LBP09,-1487,164,6,163,-1487,1716542645.52,2024-05-24 09:24:05.520000+00:00,2024-05-24 18:24:05.520000+09:00,2024,5,24,9,24,5,520,,,,,,,,,-0.636475,-0.165527,1.702393,108.215332,-41.137695,-28.381348,,,,,,,,,,,0.0,1.0,1.0,6.0,0.0,0.0,0.0,4.0,0.0,-0.03604818666666667,-0.062418706666666664,1.0269531333333333,-0.8300781199999999,2.690429666666667,1.2874349200000001,22.206060958989656,-1.8130221609647583,18.29051157978836,19.41648120499172,3.2074005480064036,-40.20466764377473,44.7627351823538,-2.0950560107821072,45.416089607766466,-2.1622414766427953,-0.6004268133333334,-0.10310829333333335,0.6754398666666668,1.3789749733333334,0.9095947953932119,0.7396115768801408,0.732343990104901,0.7433501988579526
LBP09_S06,LBP09,-1486,165,6,164,-1486,1716542645.56,2024-05-24 09:24:05.560000+00:00,2024-05-24 18:24:05.560000+09:00,2024,5,24,9,24,5,560,,,,,,,,,0.026611,0.052002,2.028564,11.71875,-94.177246,-6.774902,,,,,,,,,,,0.0,1.0,1.0,6.0,0.0,0.0,0.0,4.0,0.0,-0.03663412000000001,-0.06664070666666666,1.02806316,2.193196613333334,1.7805989333333339,1.2679036666666668,22.548868248161174,-1.9779310978009064,14.917177900717315,20.318435934918167,3.128283304094367,-39.60798052774604,44.62529682543701,-2.074046482972536,45.05213575838909,-2.1521533864546285,0.06324512000000002,0.11864270666666665,1.0005008399999997,1.1823886666666663,1.0094939167175363,0.7563116792755765,0.7343154662663385,0.7434951906032858
LBP09_S06,LBP09,-1485,166,6,165,-1485,1716542645.6,2024-05-24 09:24:05.600000+00:00,2024-05-24 18:24:05.600000+09:00,2024,5,24,9,24,5,600,,,,,,,,,-0.022705,-0.179443,1.163818,56.396484,124.450684,40.83252,,,,,,,,,,,0.0,1.0,1.0,6.0,0.0,0.0,0.0,4.0,0.0,-0.03391601333333334,-0.04573576,1.02779624,5.096842453333334,3.3951822666666667,0.3165690266666667,20.250327940967562,-1.2046121541079884,12.287135049914156,21.12844905255687,3.0800988179300477,-39.11649512574947,44.56454374295206,-2.209089675881298,44.71979219923999,-1.66797628153476,0.011211013333333342,-0.13370724,0.13602176,0.28094001333333335,0.1910634241341743,0.7406862912143259,0.7329744638666394,0.7376314107719276
LBP09_S06,LBP09,-1484,167,6,166,-1484,1716542645.64,2024-05-24 09:24:05.640000+00:00,2024-05-24 18:24:05.640000+09:00,2024,5,24,9,24,5,640,,,,,,,,,-0.328369,-0.018066,-0.036377,65.429688,4.272461,42.053223,,,,,,,,,,,0.0,1.0,1.0,6.0,0.0,0.0,0.0,4.0,0.0,-0.03993489333333334,-0.05203133333333333,1.02425132,-1.1100260266666668,4.442545546666666,1.8196614666666668,15.829041791708761,0.20604253017383511,10.86710054768939,21.76161072422522,3.088340519137001,-38.681811103841895,44.49031421273808,-2.2256694812029667,44.41073305278795,-1.6516935739265843,-0.2884341066666667,0.033965333333333333,-1.0606283200000002,1.3830277600000003,1.0996728199528556,0.7633980004729554,0.7320438509229369,0.7434860036002566
LBP09_S06,LBP09,-1483,168,6,167,-1483,1716542645.68,2024-05-24 09:24:05.680000+00:00,2024-05-24 18:24:05.680000+09:00,2024,5,24,9,24,5,680,,,,,,,,,0.172363,0.327148,0.436035,-8.972168,-48.950195,-30.761719,,,,,,,,,,,0.0,1.0,1.0,6.0,0.0,0.0,0.0,4.0,0.0,-0.05009765333333334,-0.040390706666666665,1.0021028799999998,0.8487955999999999,2.8279622133333326,-0.8683268133333335,10.352568913630893,1.8912117983834056,10.764317967371003,22.175713480770458,3.1639889910723373,-38.251238385147055,44.32753470151706,-2.46284543929358,44.109848119516,-1.6709437269536824,0.2224606533333333,0.36753870666666666,-0.5660678799999999,1.1560672399999998,0.7106379443481707,0.7538008597560554,0.7341811495478667,0.7458612224058794
LBP09_S06,LBP09,-1482,169,6,168,-1482,1716542645.72,2024-05-24 09:24:05.720000+00:00,2024-05-24 18:24:05.720000+09:00,2024,5,24,9,24,5,720,,,,,,,,,0.810547,-0.192627,1.052246,-48.217773,-17.211914,-40.222168,,,,,,,,,,,0.0,1.0,1.0,6.0,0.0,0.0,0.0,4.0,0.0,-0.05024414666666667,-0.09758797333333333,0.9791243599999999,16.872558626666667,-3.8688151333333343,-5.096028639999999,5.091175037805471,3.5182992235825843,11.7540616858768,22.379360482282678,3.304720960015641,-37.78107591771198,44.03596999862088,-2.0477390319120463,43.79875223926301,-1.7243692962107873,0.8607911466666667,-0.09503902666666666,0.0731216400000001,1.0289518133333333,0.8691033247006663,0.7733554806304405,0.7398343518673911,0.744357930549898
LBP09_S06,LBP09,-1481,170,6,169,-1481,1716542645.76,2024-05-24 09:24:05.760000+00:00,2024-05-24 18:24:05.760000+09:00,2024,5,24,9,24,5,760,,,,,,,,,-0.113281,-0.741211,1.648926,-88.623047,96.008301,95.52002,,,,,,,,,,,0.0,1.0,1.0,6.0,0.0,0.0,0.0,4.0,0.0,-0.03777018666666667,0.013492760000000008,0.9234570400000002,13.577473986666664,-1.1442057466666669,-6.7700195333333335,1.0997611299534764,4.831137199806466,13.377431942327052,22.42335092748082,3.4979664480078996,-37.2459786400189,43.61542572234149,2.7982576831026944,43.45922955699338,-1.7501553445085434,-0.07551081333333334,-0.75470376,0.7254689599999997,1.555683533333333,1.0495641286800346,0.7649313540538316,0.754869473859654,0.743598304772716
LBP09_S06,LBP09,-1480,171,6,170,-1480,1716542645.8,2024-05-24 09:24:05.800000+00:00,2024-05-24 18:24:05.800000+09:00,2024,5,24,9,24,5,800,,,,,,,,,-0.631592,-0.138672,1.859375,48.339844,-60.60791,-6.225586,,,,,,,,,,,0.0,1.0,1.0,6.0,0.0,0.0,0.0,4.0,0.0,-0.04752930666666668,-0.09165373333333332,0.8345996133333334,-6.3435872133333335,5.940755186666667,-4.235839853333332,-1.099444660672061,5.665649296688979,15.096772575903586,22.379373141053936,3.7245924198754587,-36.64210773698275,43.097018345697315,-2.0509832026611963,43.07588772813419,-1.814670565497001,-0.5840626933333334,-0.04701826666666667,1.0247753866666667,1.6558563466666667,1.1804679327546097,0.7726436628865262,0.7651378666526836,0.756023088985201
LBP09_S06,LBP09,-1479,172,6,171,-1479,1716542645.84,2024-05-24 09:24:05.840000+00:00,2024-05-24 18:24:05.840000+09:00,2024,5,24,9,24,5,840,,,,,,,,,0.115234,0.02832,1.794678,16.296387,-62.744141,1.89209,,,,,,,,,,,0.0,1.0,1.0,6.0,0.0,0.0,0.0,4.0,0.0,-0.07601889333333335,-0.10246427999999999,0.74186524,20.670572946666667,-1.8294271066666685,-8.796386733333332,-1.6108566267652702,5.954221073051689,16.470032790314797,22.314938875983326,3.9627612627975264,-35.98330642537016,42.52597224246479,-2.2111205896092994,42.637285212276126,-1.8448174585528399,0.19125289333333334,0.13078428,1.0528127600000001,1.3748499333333335,1.0780059854761046,0.7921471454443219,0.7694277497132473,0.759073232119875
LBP09_S06,LBP09,-1478,173,6,172,-1478,1716542645.88,2024-05-24 09:24:05.880000+00:00,2024-05-24 18:24:05.880000+09:00,2024,5,24,9,24,5,880,,,,,,,,,0.01416,0.057129,0.936768,81.176758,134.399414,49.560547,,,,,,,,,,,0.0,1.0,1.0,6.0,0.0,0.0,0.0,4.0,0.0,-0.11070314666666668,-0.05643889333333333,0.6185416666666667,-5.741373666666665,-0.08707684000000161,2.1704101466666663,-1.0375139168592682,5.729681615489549,17.28716233321779,22.273438319308955,4.191948527417108,-35.29181993204145,41.94271141850766,-2.665400730895535,42.135278775147164,-1.868675624720656,0.12486314666666669,0.11356789333333334,0.3182263333333334,0.5566573733333334,0.3602172553035886,0.778301917705778,0.7699380095406912,0.7594162683971254
LBP09_S06,LBP09,-1477,174,6,173,-1477,1716542645.92,2024-05-24 09:24:05.920000+00:00,2024-05-24 18:24:05.920000+09:00,2024,5,24,9,24,5,920,,,,,,,,,-0.121826,0.08374,-0.045898,-86.303711,-7.141113,25.32959,,,,,,,,,,,0.0,1.0,1.0,6.0,0.0,0.0,0.0,4.0,0.0,-0.15991213333333335,-0.16103523999999997,0.6175553333333333,-1.3387043999999992,2.5138346266666654,-1.2231445466666662,-0.23691878849249903,5.127301343710695,17.62330704775399,22.263961567769254,4.397040581165536,-34.58688765013129,41.36750835965743,-2.3529164937596705,41.5631473640285,-1.8741966187995664,0.03808613333333334,0.24477523999999995,-0.6634533333333333,0.9463147066666666,0.7081919211488177,0.783515694599835,0.7569264661856435,0.7592707311283103
LBP09_S06,LBP09,-1476,175,6,174,-1476,1716542645.96,2024-05-24 09:24:05.960000+00:00,2024-05-24 18:24:05.960000+09:00,2024,5,24,9,24,5,960,,,,,,,,,0.160645,-0.285645,0.61499,2.380371,-56.152344,17.272949,,,,,,,,,,,0.0,1.0,1.0,6.0,0.0,0.0,0.0,4.0,0.0,-0.11798830666666667,-0.052112706666666675,0.5594498666666666,17.714843773333335,1.4119466133333318,-10.91796876,-0.07682287855366488,4.365847402834862,17.791892954777413,22.260888652627106,4.57167447727893,-33.87521193194019,40.79187853684516,-2.7191986928571126,40.913644539906514,-1.925193452766219,0.2786333066666667,-0.2335322933333333,0.05554013333333341,0.5677057333333334,0.36777514601208605,0.7584915164782882,0.7502719432615425,0.7529192108780974
LBP09_S06,LBP09,-1475,176,6,175,-1475,1716542646.0,2024-05-24 09:24:06+00:00,2024-05-24 18:24:06+09:00,2024,5,24,9,24,6,0,9.0,24.0,5.0,40.56081,141.547699,-6.331,3.0,13.0,0.516602,0.103271,1.128418,10.437012,6.591797,-19.775391,-291.0,161.0,251.0,13.0,0.0,1006.799988,18.1,-0.061441,53.808075,3.832031,0.0,1.0,1.0,6.0,0.0,0.0,0.0,4.0,0.0,-0.12219729333333336,-0.08810554666666666,0.5071679733333333,-5.214843733333331,2.0532226533333318,-3.8338216133333316,-1.2449231522832624,3.692455284619043,18.211078488971765,22.211091726535773,4.719372688663691,-33.14676879238132,40.17851858437137,-2.5105586064396848,40.17812119055074,-2.45572565037917,0.6387992933333334,0.19137654666666665,0.6212500266666666,1.4514258666666668,0.9113951477874781,0.7606888622822283,0.7589590571181043,0.7501556400700675
LBP09_S06,LBP09,-1474,177,6,176,-1474,1716542646.04,2024-05-24 09:24:06.040000+00:00,2024-05-24 18:24:06.040000+09:00,2024,5,24,9,24,6,40,,,,,,,,,-0.041016,-0.322754,1.540527,-13.366699,72.753906,49.926758,,,,,,,,,,,0.0,1.0,1.0,6.0,0.0,0.0,0.0,4.0,0.0,-0.16114912,-0.12737312,0.50898112,2.647298186666669,1.8872070399999985,-6.830240879999998,-4.115352694874556,3.3086351191482635,19.227174827848717,22.04647761874079,4.851718093429622,-32.37768179926737,39.47024984144844,-2.4642511428811282,39.347313677671984,-2.499815443361376,0.12013312000000001,-0.19538087999999998,1.03154588,1.3470598799999998,1.0567367493067907,0.7687711612411567,0.7696593006789831,0.7525865566227268
LBP09_S06,LBP09,-1473,178,6,177,-1473,1716542646.08,2024-05-24 09:24:06.080000+00:00,2024-05-24 18:24:06.080000+09:00,2024,5,24,9,24,6,80,,,,,,,,,-0.462646,0.11792,1.783203,64.51416,-89.355469,-5.432129,,,,,,,,,,,0.0,1.0,1.0,6.0,0.0,0.0,0.0,4.0,0.0,-0.14530602666666667,-0.10244148,0.49943360000000003,12.003580733333335,1.2076822933333313,-12.128092453333332,-8.67767712015139,3.3162475540667473,20.957080641533754,21.699370533934736,4.984367995592292,-31.53939857360602,38.60622059033053,-2.5180553800826875,38.4137308817393,-2.5281256949826307,-0.3173399733333333,0.22036148,1.2837694000000002,1.8214708533333335,1.3406445140003937,0.776806405945626,0.7829223119333776,0.7564710875086477
LBP09_S06,LBP09,-1472,179,6,178,-1472,1716542646.12,2024-05-24 09:24:06.120000+00:00,2024-05-24 18:24:06.120000+09:00,2024,5,24,9,24,6,120,,,,,,,,,0.227295,-0.102539,1.639404,-26.123047,-31.982422,8.728027,,,,,,,,,,,0.0,1.0,1.0,6.0,0.0,0.0,0.0,4.0,0.0,-0.15303714666666668,-0.09846361333333334,0.49150065333333337,6.222330733333335,1.5673828133333316,-8.575846359999998,-14.556468434830657,3.710826185428927,23.20550114638446,21.11711179654151,5.132801043009449,-30.611178527750642,37.540941757400994,-2.5577073715785708,37.37516919388986,-2.504470359690003,0.3803321466666667,-0.004075386666666667,1.1479033466666668,1.5323108800000003,1.2092771575834431,0.8005227798942188,0.7901497994144102,0.7636252645839412
LBP09_S06,LBP09,-1471,180,6,179,-1471,1716542646.16,2024-05-24 09:24:06.160000+00:00,2024-05-24 18:24:06.160000+09:00,2024,5,24,9,24,6,160,,,,,,,,,-0.419922,0.128662,0.252686,-23.376465,160.03418,8.666992,,,,,,,,,,,0.0,1.0,1.0,6.0,0.0,0.0,0.0,4.0,0.0,-0.15496422666666668,-0.11146817333333334,0.4831445333333333,7.298990893333334,1.743164066666665,-7.431640626666664,-21.137107656749574,4.423091983740651,25.486636308774013,20.271627490271527,5.309724722359075,-29.59171307539968,36.26019222878367,-2.507064293026812,36.23872190823731,-2.5091482454760685,-0.26495777333333337,0.24013017333333334,-0.23045853333333327,0.73554648,0.4254130432661954,0.7884603520872235,0.7900781595512248,0.764204563463216
LBP09_S06,LBP09,-1470,181,6,180,-1470,1716542646.2,2024-05-24 09:24:06.200000+00:00,2024-05-24 18:24:06.200000+09:00,2024,5,24,9,24,6,200,,,,,,,,,-0.161865,-0.664307,0.284668,-191.650391,-29.174805,93.200684,,,,,,,,,,,0.0,1.0,1.0,6.0,0.0,0.0,0.0,4.0,0.0,-0.14208010666666668,-0.10589850666666668,0.46762696000000004,10.78857422666667,2.757161466666665,-8.697916666666664,-27.755631868310928,5.3789238582325964,27.145071265893357,19.16140221553909,5.524881676688379,-28.505910224763948,34.78894321690981,-2.49188113248326,35.02442066441927,-2.4802186093421796,-0.01978489333333333,-0.5584084933333333,-0.18295896000000006,0.7611523466666668,0.5879502261886599,0.7971310463756153,0.7755562357343271,0.7628104746332472
LBP09_S06,LBP09,-1469,182,6,181,-1469,1716542646.24,2024-05-24 09:24:06.240000+00:00,2024-05-24 18:24:06.240000+09:00,2024,5,24,9,24,6,240,,,,,,,,,0.25,-0.253174,0.680664,73.608398,-85.754395,0.488281,,,,,,,,,,,0.0,1.0,1.0,6.0,0.0,0.0,0.0,4.0,0.0,-0.14074873333333335,-0.10435553333333333,0.46143555999999997,11.46484376,3.1079101733333316,-8.946126293333332,-33.85468774933412,6.528713793606857,27.53342384617317,17.807214705565727,5.7860302284326535,-27.40457327091702,33.19014428313791,-2.494223105821846,33.767226254578965,-2.4754177093372602,0.3907487333333334,-0.14881846666666668,0.21922844000000008,0.7587956400000001,0.4721150469191338,0.7863087768517641,0.7703672114620386,0.7594800215900644
LBP09_S06,LBP09,-1468,183,6,182,-1468,1716542646.28,2024-05-24 09:24:06.280000+00:00,2024-05-24 18:24:06.280000+09:00,2024,5,24,9,24,6,280,,,,,,,,,0.442871,0.238037,1.098877,-5.310059,49.743652,37.04834,,,,,,,,,,,0.0,1.0,1.0,6.0,0.0,0.0,0.0,4.0,0.0,-0.12788739999999998,-0.1095834,0.48707032,9.703776053333335,2.8784179866666646,-9.323730466666664,-39.02078189715965,7.821010047780517,26.18099945778129,16.24638342967934,6.098870630343874,-26.35733329260577,31.557094540013264,-2.4288473779692605,32.51588048581797,-2.4746915845660573,0.5707584,0.3476204,0.6118066800000002,1.53018548,0.9060422216206829,0.7922459018371474,0.7765646960911411,0.757887596679367
