file_name,test_id,_program_index,program_index,session_id,index,_index,unixtime,datetime_utc,datetime_jst,rtc_year,rtc_month,rtc_day,rtc_hour,rtc_min,rtc_sec,rtc_msec,gps_hour,gps_min,gps_sec,latitude,longitude,altitude,fix_type,SIV,acc_x,acc_y,acc_z,gyro_x,gyro_y,gyro_z,mag_x,mag_y,mag_z,illuminance,atmopress,water_pressure,water_temp,depth,alt_wps,battery_level,behavior_class,camera_command,camera_recording,camera_count,play_audio,speaker_on,audio_file,prev_sd_write_time_ms,delay_occurred_counter,acc_x_ma,acc_y_ma,acc_z_ma,gyro_x_ma,gyro_y_ma,gyro_z_ma,gyro_x_lowpass,gyro_y_lowpass,gyro_z_lowpass,angle_x,angle_y,angle_z,combined_angle_change,gravity_adjusted_angle,smoothed_angle_change,smoothed_gravity_angle,acc_x_dy,acc_y_dy,acc_z_dy,ODBA,VeDBA,smoothed_VeDBA_1s,smoothed_VeDBA_2s,smoothed_VeDBA_3s
LBP09_S00,LBP09,-1650,1,0,0,-1650,1716536653.0,2024-05-24 07:44:13+00:00,2024-05-24 16:44:13+09:00,2024,5,24,7,44,13,0,7.0,44.0,12.0,40.54076,141.543655,13.124,3.0,15.0,0.20166,-0.242676,1.485352,-52.55127,41.259766,5.432129,-301.0,171.0,248.0,185.0,0.0,1005.099976,22.059999,-0.078287,68.036591,3.99375,0.0,1.0,1.0,0.0,0.0,0.0,0.0,5.0,0.0,,,,,,,-51.96234898212543,41.451333680824824,5.369615245780425,-2.078493959285017,1.658053347232993,0.214784609831217,2.6674726745882866,,3.9036474644174555,,,,,,,,,
LBP09_S00,LBP09,-1649,2,0,1,-1649,1716536653.04,2024-05-24 07:44:13.040000+00:00,2024-05-24 16:44:13.040000+09:00,2024,5,24,7,44,13,40,,,,,,,,,-0.271729,-0.134521,1.856934,-2.685547,6.347656,0.488281,,,,,,,,,,,0.0,1.0,1.0,0.0,0.0,0.0,0.0,5.0,0.0,,,,,,,-29.06593872223572,24.481629534843307,4.0653888439442145,-3.241131508174446,2.637318528626725,0.3774001635889856,4.195570683255853,,3.6596224735363614,,,,,,,,,
LBP09_S00,LBP09,-1648,3,0,2,-1648,1716536653.08,2024-05-24 07:44:13.080000+00:00,2024-05-24 16:44:13.080000+09:00,2024,5,24,7,44,13,80,,,,,,,,,0.023193,-0.212158,1.707275,8.056641,28.686523,15.930176,,,,,,,,,,,0.0,1.0,1.0,0.0,0.0,0.0,0.0,5.0,0.0,,,,,,,-8.853664830871947,8.853513447374597,2.627596534867181,-3.5952781014093236,2.991459066521709,0.48250402498367284,4.701878572153242,,3.321842639230755,,,,,,,,,
LBP09_S00,LBP09,-1647,4,0,3,-1647,1716536653.12,2024-05-24 07:44:13.120000+00:00,2024-05-24 16:44:13.120000+09:00,2024,5,24,7,44,13,120,,,,,,,,,-0.395996,0.03833,0.452637,94.360352,112.121582,32.043457,,,,,,,,,,,0.0,1.0,1.0,0.0,0.0,0.0,0.0,5.0,0.0,,,,,,,6.7321936219886505,-4.004220952544881,1.0277018051991151,-3.3259903565297777,2.8312902284199137,0.5236120971916375,4.399157400866738,,2.960352675365911,,,,,,,,,
LBP09_S00,LBP09,-1646,5,0,4,-1646,1716536653.16,2024-05-24 07:44:13.160000+00:00,2024-05-24 16:44:13.160000+09:00,2024,5,24,7,44,13,160,,,,,,,,,0.06543,0.116211,0.024658,62.194824,-58.532715,-6.04248,,,,,,,,,,,0.0,1.0,1.0,0.0,0.0,0.0,0.0,5.0,0.0,,,,,,,16.87739658960303,-12.92472051733733,-0.6201779305792974,-2.6508944929456564,2.3143014077264206,0.49880497996846557,3.554157991223159,,2.7273674780822685,,,,,,,,,
LBP09_S00,LBP09,-1645,6,0,5,-1645,1716536653.2,2024-05-24 07:44:13.200000+00:00,2024-05-24 16:44:13.200000+09:00,2024,5,24,7,44,13,200,,,,,,,,,0.058838,0.209717,0.318604,-8.850098,-100.524902,-23.010254,,,,,,,,,,,0.0,1.0,1.0,0.0,0.0,0.0,0.0,5.0,0.0,,,,,,,21.95981816802608,-17.25963735259504,-2.0933854865324686,-1.7725017662246132,1.6239159136226191,0.4150695605071668,2.439497519130891,,2.614317558014456,,,,,,,,,
LBP09_S00,LBP09,-1644,7,0,6,-1644,1716536653.24,2024-05-24 07:44:13.240000+00:00,2024-05-24 16:44:13.240000+09:00,2024,5,24,7,44,13,240,,,,,,,,,0.501953,-0.326416,0.706787,-57.067871,-90.454102,-7.263184,,,,,,,,,,,0.0,1.0,1.0,0.0,0.0,0.0,0.0,5.0,0.0,,,,,,,23.22310983217109,-17.113761448763757,-3.1561697037604266,-0.8435773729377696,0.9393654556720689,0.28882277235674975,1.2951636333971168,,2.5749513278731944,,,,,,,,,
LBP09_S00,LBP09,-1643,8,0,7,-1643,1716536653.28,2024-05-24 07:44:13.280000+00:00,2024-05-24 16:44:13.280000+09:00,2024,5,24,7,44,13,280,,,,,,,,,0.273926,-0.030762,1.029541,-6.530762,7.8125,-21.240234,,,,,,,,,,,0.0,1.0,1.0,0.0,0.0,0.0,0.0,5.0,0.0,,,,,,,22.225377221996624,-13.404833327570023,-3.665522030635728,0.045437715942095336,0.40317212256926793,0.14220189113132062,0.4299229283120026,,2.4465067528531486,,,,,,,,,
LBP09_S00,LBP09,-1642,9,0,8,-1642,1716536653.32,2024-05-24 07:44:13.320000+00:00,2024-05-24 16:44:13.320000+09:00,2024,5,24,7,44,13,320,,,,,,,,,-0.168457,-0.017578,1.688232,-17.211914,50.476074,7.629395,,,,,,,,,,,0.0,1.0,1.0,0.0,0.0,0.0,0.0,5.0,0.0,,,,,,,20.31370919473911,-7.647928416995183,-3.631069555185,0.8579860837316599,0.09725498588946063,-0.003040891076079383,0.8634858998131276,,2.3279343497177694,,,,,,,,,
LBP09_S00,LBP09,-1641,10,0,9,-1641,1716536653.36,2024-05-24 07:44:13.360000+00:00,2024-05-24 16:44:13.360000+09:00,2024,5,24,7,44,13,360,,,,,,,,,-0.11377,0.065918,1.800537,54.443359,-9.82666,-22.033691,,,,,,,,,,,0.0,1.0,1.0,0.0,0.0,0.0,0.0,5.0,0.0,,,,,,,18.326872209279458,-1.5157881886927542,-3.200027242903456,1.5910609721028381,0.03662345834175046,-0.13104198079221763,1.5968682774041465,,2.2955708793681047,,,,,,,,,
LBP09_S00,LBP09,-1640,11,0,10,-1640,1716536653.4,2024-05-24 07:44:13.400000+00:00,2024-05-24 16:44:13.400000+09:00,2024,5,24,7,44,13,400,,,,,,,,,-0.073242,-0.209717,1.156738,40.95459,109.680176,27.526855,,,,,,,,,,,0.0,1.0,1.0,0.0,0.0,0.0,0.0,5.0,0.0,,,,,,,16.58292520956755,3.6362226564045295,-2.578606122977457,2.25437798048554,0.18207236459793164,-0.23418622571131592,2.2738103731756647,,2.396707771838826,,,,,,,,,
LBP09_S00,LBP09,-1639,12,0,11,-1639,1716536653.44,2024-05-24 07:44:13.440000+00:00,2024-05-24 16:44:13.440000+09:00,2024,5,24,7,44,13,440,,,,,,,,,-0.417236,-0.01001,-0.018066,67.749023,30.273438,20.751953,,,,,,,,,,,0.0,1.0,1.0,0.0,0.0,0.0,0.0,5.0,0.0,,,,,,,15.06186456652245,7.067145055703273,-1.933221742491345,2.8568525631464383,0.4647581668260626,-0.3115150954109697,2.911124933055399,,2.6487256407733533,,,,,,,,,
LBP09_S00,LBP09,-1638,13,0,12,-1638,1716536653.48,2024-05-24 07:44:13.480000+00:00,2024-05-24 16:44:13.480000+09:00,2024,5,24,7,44,13,480,,,,,,,,,-0.004395,0.20874,0.312988,24.719238,-55.480957,-9.58252,,,,,,,,,,,0.0,1.0,1.0,0.0,0.0,0.0,0.0,5.0,0.0,,,,,,,13.626379022699561,8.652697551604673,-1.3247104101167702,3.401907724054421,0.8108660688902495,-0.36450351181564056,3.51615454079945,,3.0426113988069945,,,,,,,,,
LBP09_S00,LBP09,-1637,14,0,13,-1637,1716536653.52,2024-05-24 07:44:13.520000+00:00,2024-05-24 16:44:13.520000+09:00,2024,5,24,7,44,13,520,,,,,,,,,0.291016,-0.126709,0.609619,-55.358887,-95.336914,-7.141113,,,,,,,,,,,0.0,1.0,1.0,0.0,0.0,0.0,0.0,5.0,0.0,,,,,,,12.157974711492887,8.63788367036623,-0.7095908797620505,3.8882267125141365,1.1563814157048986,-0.3928871470061226,4.075522697370089,,3.537193583675421,,,,,,,,,
LBP09_S00,LBP09,-1636,15,0,14,-1636,1716536653.56,2024-05-24 07:44:13.560000+00:00,2024-05-24 16:44:13.560000+09:00,2024,5,24,7,44,13,560,,,,,,,,,0.369873,0.069336,1.104736,18.920898,-7.8125,-32.775879,,,,,,,,,,,0.0,1.0,1.0,0.0,0.0,0.0,0.0,5.0,0.0,,,,,,,10.581994450799293,7.323629789202949,-0.0012686421695803415,4.311506490546108,1.4493266072730164,-0.3929378926929058,4.56552691593037,,3.9902913790186347,,,,,,,,,
LBP09_S00,LBP09,-1635,16,0,15,-1635,1716536653.6,2024-05-24 07:44:13.600000+00:00,2024-05-24 16:44:13.600000+09:00,2024,5,24,7,44,13,600,,,,,,,,,0.016113,-0.307373,1.754639,-22.827148,48.64502,15.319824,,,,,,,,,,,0.0,1.0,1.0,0.0,0.0,0.0,0.0,5.0,0.0,,,,,,,8.840066961585208,4.894498724740549,0.8523495343889329,4.665109169009517,1.6451065562626384,-0.3588439113173485,4.959676208476166,,4.36334667355336,,,,,,,,,
LBP09_S00,LBP09,-1634,17,0,16,-1634,1716536653.64,2024-05-24 07:44:13.640000+00:00,2024-05-24 16:44:13.640000+09:00,2024,5,24,7,44,13,640,,,,,,,,,-0.256348,-0.047119,1.898682,35.095215,-9.70459,3.967285,,,,,,,,,,,0.0,1.0,1.0,0.0,0.0,0.0,0.0,5.0,0.0,,,,,,,6.885297564379027,1.4786221268661597,1.8228186307466734,4.940521071584678,1.7042514413372847,-0.2859311660874816,5.234021213733526,,4.658776215663515,,,,,,,,,
LBP09_S00,LBP09,-1633,18,0,17,-1633,1716536653.68,2024-05-24 07:44:13.680000+00:00,2024-05-24 16:44:13.680000+09:00,2024,5,24,7,44,13,680,,,,,,,,,0.052979,-0.063477,1.606689,19.470215,58.959961,1.647949,,,,,,,,,,,0.0,1.0,1.0,0.0,0.0,0.0,0.0,5.0,0.0,,,,,,,4.7268217784908995,-2.639564627875626,2.8069243583373895,5.1295939427243145,1.5986688562222597,-0.173654191753986,5.375744776996272,,4.881636408328424,,,,,,,,,
LBP09_S00,LBP09,-1632,19,0,18,-1632,1716536653.72,2024-05-24 07:44:13.720000+00:00,2024-05-24 16:44:13.720000+09:00,2024,5,24,7,44,13,720,,,,,,,,,-0.45752,0.084961,0.213379,14.709473,108.642578,22.705078,,,,,,,,,,,0.0,1.0,1.0,0.0,0.0,0.0,0.0,5.0,0.0,,,,,,,2.488127190276579,-6.839744334706934,3.6706020497223526,5.229119030335378,1.3250790828339825,-0.026830109765091897,5.394463853245265,,5.037427533295655,,,,,,,,,
LBP09_S00,LBP09,-1631,20,0,19,-1631,1716536653.76,2024-05-24 07:44:13.760000+00:00,2024-05-24 16:44:13.760000+09:00,2024,5,24,7,44,13,760,,,,,,,,,-0.018799,0.036377,0.186035,24.291992,-54.443359,-7.873535,,,,,,,,,,,0.0,1.0,1.0,0.0,0.0,0.0,0.0,5.0,0.0,,,,,,,0.41739850426739744,-10.190299316965904,4.301892511776515,5.245814970506074,0.9174671101553463,0.1452455907059687,5.327421222751395,,5.1314822031145875,,,,,,,,,
LBP09_S00,LBP09,-1630,21,0,20,-1630,1716536653.8,2024-05-24 07:44:13.800000+00:00,2024-05-24 16:44:13.800000+09:00,2024,5,24,7,44,13,800,,,,,,,,,0.070068,0.061768,0.375,-12.329102,-112.121582,-4.211426,,,,,,,,,,,0.0,1.0,1.0,0.0,0.0,0.0,0.0,5.0,0.0,,,,,,,-1.1881848259219954,-11.723849868405418,4.650332149434105,5.198287577469194,0.4485131154191296,0.33125887668333287,5.2281057942772176,,5.169573975840512,,,,,,,,,
LBP09_S00,LBP09,-1629,22,0,21,-1629,1716536653.84,2024-05-24 07:44:13.840000+00:00,2024-05-24 16:44:13.840000+09:00,2024,5,24,7,44,13,840,,,,,,,,,0.64502,-0.17627,0.762939,-45.715332,-93.87207,4.577637,,,,,,,,,,,0.0,1.0,1.0,0.0,0.0,0.0,0.0,5.0,0.0,,,,,,,-2.1266558656262955,-10.840044874212293,4.745839393519445,5.113221342844142,0.014911320450637866,0.5210924524241107,5.139726859704493,,5.1593464414706265,,,,,,,,,
LBP09_S00,LBP09,-1628,23,0,22,-1628,1716536653.88,2024-05-24 07:44:13.880000+00:00,2024-05-24 16:44:13.880000+09:00,2024,5,24,7,44,13,880,,,,,,,,,0.35376,-0.206787,1.198242,-24.169922,26.123047,22.827148,,,,,,,,,,,0.0,1.0,1.0,0.0,0.0,0.0,0.0,5.0,0.0,,,,,,,-2.432023351565507,-7.605465309303303,4.69955305590112,5.015940408781521,-0.28930729192149424,0.7090745746601556,5.074065790471756,,5.111219375998624,,,,,,,,,
LBP09_S00,LBP09,-1627,24,0,23,-1627,1716536653.92,2024-05-24 07:44:13.920000+00:00,2024-05-24 16:44:13.920000+09:00,2024,5,24,7,44,13,920,,,,,,,,,-0.253418,-0.093994,1.84668,-17.944336,34.484863,7.263184,,,,,,,,,,,0.0,1.0,1.0,0.0,0.0,0.0,0.0,5.0,0.0,,,,,,,-2.4221021379061196,-2.769451881534265,4.686423664508699,4.919056323265276,-0.4000853671828648,0.8965315212405035,5.016069395559411,,5.037934141933793,,,,,,,,,
LBP09_S00,LBP09,-1626,25,0,24,-1626,1716536653.96,2024-05-24 07:44:13.960000+00:00,2024-05-24 16:44:13.960000+09:00,2024,5,24,7,44,13,960,,,,,,,,,-0.123047,0.037354,1.90625,46.875,-16.723633,-10.253906,,,,,,,,,,,0.0,1.0,1.0,0.0,0.0,0.0,0.0,5.0,0.0,,,,,,,-2.603186360037878,2.511238491105508,4.904208271459199,4.8149288688637615,-0.2996358275386445,1.0926998520988715,4.946444643189624,,4.9527555497448805,,,,,,,,,
LBP09_S00,LBP09,-1625,26,0,25,-1625,1716536654.0,2024-05-24 07:44:14+00:00,2024-05-24 16:44:14+09:00,2024,5,24,7,44,14,0,7.0,44.0,13.0,40.540787,141.543533,12.87,3.0,15.0,-0.08374,-0.070557,0.956299,-13.366699,143.981934,23.925781,-299.0,176.0,247.0,163.0,0.0,1005.099976,22.049999,-0.078287,68.036591,3.99375,0.0,1.0,1.0,0.0,0.0,0.0,0.0,6.0,0.0,,,,,,,-3.4599141790682686,7.080340651867667,5.50893267999296,4.67653230170103,-0.016422201463937802,1.31305715929859,4.857400864777309,,4.866735682571969,,,,,,,,,
LBP09_S00,LBP09,-1624,27,0,26,-1624,1716536654.04,2024-05-24 07:44:14.040000+00:00,2024-05-24 16:44:14.040000+09:00,2024,5,24,7,44,14,40,,,,,,,,,-0.201904,-0.003906,0.05127,27.832031,5.859375,-0.671387,,,,,,,,,,,0.0,1.0,1.0,0.0,0.0,0.0,0.0,6.0,0.0,,,,,,,-5.226693620312347,10.112954019441297,6.541862791438313,4.467464556888537,0.3880959593137141,1.5747316709561225,4.752750559013505,,4.786045335409274,,,,,,,,,
LBP09_S00,LBP09,-1623,28,0,27,-1623,1716536654.08,2024-05-24 07:44:14.080000+00:00,2024-05-24 16:44:14.080000+09:00,2024,5,24,7,44,14,80,,,,,,,,,0.041504,0.125488,0.404541,33.813477,-73.852539,-26.000977,,,,,,,,,,,0.0,1.0,1.0,0.0,0.0,0.0,0.0,6.0,0.0,,,,,,,-7.751983580330085,11.234597793827348,7.875926299374551,4.157385213675333,0.8374798710668081,1.8897687229311046,4.642892436347953,,4.711212302440889,,,,,,,,,
LBP09_S00,LBP09,-1622,29,0,28,-1622,1716536654.12,2024-05-24 07:44:14.120000+00:00,2024-05-24 16:44:14.120000+09:00,2024,5,24,7,44,14,120,,,,,,,,,0.61377,-0.158203,0.846436,-46.936035,-71.105957,14.526367,,,,,,,,,,,0.0,1.0,1.0,0.0,0.0,0.0,0.0,6.0,0.0,,,,,,,-10.523421337096025,10.439186863964942,9.21225077602147,3.736448360191492,1.2550473456254059,2.2582587539719636,4.542677931356137,,4.639276044461231,,,,,,,,,
LBP09_S00,LBP09,-1621,30,0,29,-1621,1716536654.16,2024-05-24 07:44:14.160000+00:00,2024-05-24 16:44:14.160000+09:00,2024,5,24,7,44,14,160,,,,,,,,,0.339844,0.002441,1.403076,-62.072754,50.90332,20.935059,,,,,,,,,,,0.0,1.0,1.0,0.0,0.0,0.0,0.0,6.0,0.0,,,,,,,-12.844354133806707,7.939544386558261,10.14536108889718,3.2226741948392235,1.5726291210877363,2.664073197527851,4.46722255102229,,4.5672057384936044,,,,,,,,,
LBP09_S00,LBP09,-1620,31,0,30,-1620,1716536654.2,2024-05-24 07:44:14.200000+00:00,2024-05-24 16:44:14.200000+09:00,2024,5,24,7,44,14,200,,,,,,,,,-0.397217,-0.179443,2.157959,-12.390137,13.61084,10.864258,,,,,,,,,,,0.0,1.0,1.0,0.0,0.0,0.0,0.0,6.0,0.0,,,,,,,-14.078392855205266,4.092887555731287,10.286857448705645,2.6595384806310127,1.736344623316988,3.075547495476077,4.421202322650265,,4.493834799121334,,,,,,,,,
LBP09_S00,LBP09,-1619,32,0,31,-1619,1716536654.24,2024-05-24 07:44:14.240000+00:00,2024-05-24 16:44:14.240000+09:00,2024,5,24,7,44,14,240,,,,,,,,,0.118896,-0.162842,2.118408,-4.638672,2.502441,20.141602,,,,,,,,,,,0.0,1.0,1.0,0.0,0.0,0.0,0.0,6.0,0.0,,,,,,,-13.850860369266384,-0.5651057030511781,9.404091751910848,2.1055040658603574,1.7137403951949408,3.451711165552511,4.391396530020636,,4.419395093309679,,,,,,,,,
LBP09_S00,LBP09,-1618,33,0,32,-1618,1716536654.28,2024-05-24 07:44:14.280000+00:00,2024-05-24 16:44:14.280000+09:00,2024,5,24,7,44,14,280,,,,,,,,,-0.367676,-0.086182,0.776855,-14.953613,144.042969,45.837402,,,,,,,,,,,0.0,1.0,1.0,0.0,0.0,0.0,0.0,6.0,0.0,,,,,,,-12.133101581619849,-5.270016492643938,7.514300030824792,1.6201800025955635,1.5029397354891834,3.7522831667855026,4.354703210675177,,4.343913847607487,,,,,,,,,
LBP09_S00,LBP09,-1617,34,0,33,-1617,1716536654.32,2024-05-24 07:44:14.320000+00:00,2024-05-24 16:44:14.320000+09:00,2024,5,24,7,44,14,320,,,,,,,,,0.044434,0.041504,0.03418,5.615234,-52.246094,-10.314941,,,,,,,,,,,0.0,1.0,1.0,0.0,0.0,0.0,0.0,6.0,0.0,,,,,,,-9.205919952138316,-9.093624680160675,4.887669606590418,1.251943204510031,1.1391947482827565,3.9477899510491192,4.295366335883153,,4.266141651739574,-0.9567349933438131,,,,,,,,
LBP09_S00,LBP09,-1616,35,0,34,-1616,1716536654.36,2024-05-24 07:44:14.360000+00:00,2024-05-24 16:44:14.360000+09:00,2024,5,24,7,44,14,360,,,,,,,,,0.037598,-0.003418,0.465576,10.803223,-105.651855,-19.104004,,,,,,,,,,,0.0,1.0,1.0,0.0,0.0,0.0,0.0,6.0,0.0,,,,,,,-5.549792874295163,-11.17963438140177,1.9514795402813772,1.0299514895382245,0.6920093730266856,4.025849132660374,4.212735249466916,,4.183642752042862,-0.964393752945739,,,,,,,,
LBP09_S00,LBP09,-1615,36,0,35,-1615,1716536654.4,2024-05-24 07:44:14.400000+00:00,2024-05-24 16:44:14.400000+09:00,2024,5,24,7,44,14,400,,,,,,,,,0.735352,-0.135254,0.802246,-8.728027,-101.989746,-27.404785,,,,,,,,,,,0.0,1.0,1.0,0.0,0.0,0.0,0.0,6.0,0.0,,,,,,,-1.7191107247269912,-11.063721832715679,-0.8630596227137278,0.9611870605491448,0.2494604997180585,3.9913267477518253,4.113003806660754,,4.093898015542142,-0.9580402624558105,,,,,,,,
LBP09_S00,LBP09,-1614,37,0,36,-1614,1716536654.44,2024-05-24 07:44:14.440000+00:00,2024-05-24 16:44:14.440000+09:00,2024,5,24,7,44,14,440,,,,,,,,,0.324219,0.007324,1.38208,-24.963379,40.83252,-0.183105,,,,,,,,,,,0.0,1.0,1.0,0.0,0.0,0.0,0.0,6.0,0.0,,,,,,,1.7638574835804328,-8.889207034138224,-3.2567475299589645,1.0317413598923622,-0.10610778164747042,3.861056846553467,3.9979381019915867,,3.996242066683307,-0.9552947042553599,,,,,,,,
LBP09_S00,LBP09,-1613,38,0,37,-1613,1716536654.48,2024-05-24 07:44:14.480000+00:00,2024-05-24 16:44:14.480000+09:00,2024,5,24,7,44,14,480,,,,,,,,,-0.192627,-0.251221,1.958984,8.300781,11.962891,-11.291504,,,,,,,,,,,0.0,1.0,1.0,0.0,0.0,0.0,0.0,6.0,0.0,0.03840166666666667,-0.05451173333333333,1.0106249733333335,1.3728840799999995,-0.7609049066666671,1.5234375066666666,4.490001308618806,-5.365072118375006,-5.116152755035556,1.2113414122371144,-0.3207106663824707,3.656410736352045,3.865170477668818,-0.9567349933438131,3.8939939352186683,-0.9425852148331822,-0.23102866666666666,-0.1967092666666667,0.9483590266666666,1.37609696,0.9957176426449733,0.9957176426449733,0.9957176426449733,0.9957176426449733
LBP09_S00,LBP09,-1612,39,0,38,-1612,1716536654.52,2024-05-24 07:44:14.520000+00:00,2024-05-24 16:44:14.520000+09:00,2024,5,24,7,44,14,520,,,,,,,,,0.009277,-0.125977,1.963867,-8.972168,2.075195,11.352539,,,,,,,,,,,0.0,1.0,1.0,0.0,0.0,0.0,0.0,6.0,0.0,0.03441404000000001,-0.050472013333333336,1.01518552,2.2932942399999994,-1.6373697600000006,1.20279948,6.230108167984657,-1.4711785411437144,-6.469285118712466,1.4605457389565006,-0.37955780802821926,3.3976393316035463,3.7176889343890207,-0.972052512547665,3.795227969701623,-0.9259218968782875,-0.025137040000000006,-0.07550498666666666,0.9486814800000001,1.0493235066666666,0.9520133529979953,0.9738654978214842,0.9738654978214842,0.9738654978214842
LBP09_S00,LBP09,-1611,40,0,39,-1611,1716536654.56,2024-05-24 07:44:14.560000+00:00,2024-05-24 16:44:14.560000+09:00,2024,5,24,7,44,14,560,,,,,,,,,-0.07959,-0.023926,0.926025,53.833008,120.483398,27.404785,,,,,,,,,,,0.0,1.0,1.0,0.0,0.0,0.0,0.0,6.0,0.0,0.03731769333333334,-0.05170574666666666,1.0051464533333332,2.721354133333333,-0.24739580000000028,1.4534505199999999,6.985953659822942,1.9286552638704566,-7.383350754957909,1.7399838853494183,-0.30241159747340096,3.10230530140523,3.5697751860150895,-0.9453332814759535,3.710992106182202,-0.9141383122938204,-0.11690769333333334,0.027779746666666664,-0.0791214533333332,0.2238088933333332,0.14387260845262975,0.6972012013651995,0.6972012013651995,0.6972012013651995
LBP09_S00,LBP09,-1610,41,0,40,-1610,1716536654.6,2024-05-24 07:44:14.600000+00:00,2024-05-24 16:44:14.600000+09:00,2024,5,24,7,44,14,600,,,,,,,,,-0.229492,0.286377,-0.078857,59.387207,11.291504,-19.714355,,,,,,,,,,,0.0,1.0,1.0,0.0,0.0,0.0,0.0,6.0,0.0,0.033570960000000004,-0.04667970666666667,0.9829459333333334,2.7978515199999996,-0.22298173333333382,1.3313802,6.996535649192151,4.3592065292655375,-7.873550436737875,2.019845311317104,-0.12804333630277945,2.787363283935715,3.4446428340619186,-0.9470580296540082,3.6517551960327816,-0.9146210950158637,-0.26306296,0.33305670666666665,-1.0618029333333334,1.6579226,1.1434834323307352,0.8087717591065834,0.8087717591065834,0.8087717591065834
LBP09_S00,LBP09,-1609,42,0,41,-1609,1716536654.64,2024-05-24 07:44:14.640000+00:00,2024-05-24 16:44:14.640000+09:00,2024,5,24,7,44,14,640,,,,,,,,,-0.032715,0.006836,0.343262,-48.400879,-53.771973,3.417969,,,,,,,,,,,0.0,1.0,1.0,0.0,0.0,0.0,0.0,6.0,0.0,0.03855468,-0.047789733333333334,0.9815624666666666,1.9091796399999994,-2.5358072533333336,0.73649088,6.661629941432393,5.764217029572743,-7.878628563780778,2.2863105089744,0.10252534488013026,2.472218141384484,3.3689152153742485,-0.8917472571444711,3.62435277575689,-0.9265999500669236,-0.07126968,0.054625733333333336,-0.6383004666666665,0.7641958799999998,0.6445857768958225,0.7759345626644312,0.7759345626644312,0.7759345626644312
LBP09_S00,LBP09,-1608,43,0,42,-1608,1716536654.68,2024-05-24 07:44:14.680000+00:00,2024-05-24 16:44:14.680000+09:00,2024,5,24,7,44,14,680,,,,,,,,,0.429199,-0.370361,0.71582,-37.963867,-99.121094,-39.245605,,,,,,,,,,,0.0,1.0,1.0,0.0,0.0,0.0,0.0,6.0,0.0,0.04354490666666667,-0.04884768,0.9899771866666667,0.9399413599999995,-3.120930946666667,0.61523436,6.381990836358111,6.318625135701133,-7.312995164399606,2.541590142428724,0.3552703503081756,2.1796983348084997,3.367043555504725,-0.8426053071038149,3.6308657453313202,-0.9348269666296936,0.38565409333333334,-0.32151332,-0.27415718666666666,0.9813246,0.5720682281364341,0.7419568402430984,0.7419568402430984,0.7419568402430984
LBP09_S00,LBP09,-1607,44,0,43,-1607,1716536654.72,2024-05-24 07:44:14.720000+00:00,2024-05-24 16:44:14.720000+09:00,2024,5,24,7,44,14,720,,,,,,,,,0.309814,0.057129,1.104736,27.099609,10.986328,-31.555176,,,,,,,,,,,0.0,1.0,1.0,0.0,0.0,0.0,0.0,6.0,0.0,0.04689452,-0.05269533333333334,1.0015559600000001,0.2042642799999995,-1.4290364133333335,0.9244791466666665,6.379206335904062,6.182166544583883,-6.155556684261122,2.7967583958648867,0.6025570120915309,1.933476067438055,3.453007700688942,-0.843436804787017,3.668899143354119,-0.9471095984554256,0.26291948,0.10982433333333333,0.1031800399999998,0.4759238533333331,0.30304151169432725,0.6792546504504168,0.6792546504504168,0.6792546504504168
LBP09_S00,LBP09,-1606,45,0,44,-1606,1716536654.76,2024-05-24 07:44:14.760000+00:00,2024-05-24 16:44:14.760000+09:00,2024,5,24,7,44,14,760,,,,,,,,,-0.04834,-0.226562,1.742432,-15.686035,48.461914,26.428223,,,,,,,,,,,0.0,1.0,1.0,0.0,0.0,0.0,0.0,6.0,0.0,0.038440746666666664,-0.05029950666666667,1.01691404,0.8520507333333328,0.4361979733333331,1.1051432133333332,6.590084036420051,5.376648976149905,-4.513893767893145,3.060361757321689,0.8176229711375271,1.752920316722329,3.6203661479727107,-0.9180005740701677,3.7321566121269925,-0.9535755965662605,-0.08678074666666666,-0.17626249333333335,0.7255179599999999,0.9885611999999999,0.7516486378825342,0.6883038988794314,0.6883038988794314,0.6883038988794314
LBP09_S00,LBP09,-1605,46,0,45,-1605,1716536654.8,2024-05-24 07:44:14.800000+00:00,2024-05-24 16:44:14.800000+09:00,2024,5,24,7,44,14,800,,,,,,,,,-0.191162,0.018066,1.831055,2.441406,-14.160156,-15.075684,,,,,,,,,,,0.0,1.0,1.0,0.0,0.0,0.0,0.0,6.0,0.0,0.031093733333333335,-0.05094077333333333,1.0289648266666667,0.9594726133333328,0.11881515999999977,1.4534504933333332,6.696215271573424,3.858573115408618,-2.621806162420054,3.328210368184626,0.9719658957538718,1.648048070225527,3.838979603901843,-1.022430790475401,3.811022706628807,-0.948040273450243,-0.22225573333333334,0.06900677333333333,0.8020901733333334,1.0933526800000002,0.8351695587863058,0.7046223055357508,0.7046223055357508,0.7046223055357508
LBP09_S00,LBP09,-1604,47,0,46,-1604,1716536654.84,2024-05-24 07:44:14.840000+00:00,2024-05-24 16:44:14.840000+09:00,2024,5,24,7,44,14,840,,,,,,,,,-0.01001,-0.050049,1.115967,21.362305,102.600098,9.216309,,,,,,,,,,,0.0,1.0,1.0,0.0,0.0,0.0,0.0,6.0,0.0,0.03384764,-0.05380210666666667,1.0253906133333333,1.5795897999999995,1.0530599599999997,1.7439778266666668,6.276771023875085,1.7050946337103141,-0.7713783775464041,3.579281209139629,1.0401696811022845,1.6171929351236707,4.063067797735891,-1.0088701156946254,3.8933791810291276,-0.9413244193666925,-0.043857639999999996,0.0037531066666666654,0.09057638666666668,0.13818713333333332,0.10070581024752488,0.6442306560069282,0.6442306560069282,0.6442306560069282
LBP09_S00,LBP09,-1603,48,0,47,-1603,1716536654.88,2024-05-24 07:44:14.880000+00:00,2024-05-24 16:44:14.880000+09:00,2024,5,24,7,44,14,880,,,,,,,,,-0.437256,0.086914,0.064209,61.523438,34.362793,6.225586,,,,,,,,,,,0.0,1.0,1.0,0.0,0.0,0.0,0.0,6.0,0.0,0.028570960000000003,-0.053460306666666665,1.0022395733333334,1.2548827733333328,1.935221413333333,2.31445308,5.010290614228572,-0.7500973990443472,0.7845193268726622,3.779692833708772,1.0101657851405106,1.6485737081985772,4.245504457896799,-1.079561311601134,3.9657674287410103,-0.9508949129079671,-0.46582695999999996,0.14037430666666667,-0.9380305733333334,1.5442318400000001,1.0566934556166472,0.6817272741532663,0.6817272741532663,0.6817272741532663
LBP09_S00,LBP09,-1602,49,0,48,-1602,1716536654.92,2024-05-24 07:44:14.920000+00:00,2024-05-24 16:44:14.920000+09:00,2024,5,24,7,44,14,920,,,,,,,,,0.017822,0.128418,0.213379,28.625488,-47.363281,8.789062,,,,,,,,,,,0.0,1.0,1.0,0.0,0.0,0.0,0.0,6.0,0.0,0.029671213333333335,-0.0502116,0.9914713466666668,1.3354491733333327,-0.3483072400000003,1.8115233999999998,2.8254100049244673,-2.958225341112842,1.9150815260172298,3.8927092339057507,0.8918367714959969,1.7251769692392664,4.350263622117754,-1.0367124936560117,4.015123775966804,-0.9764399714152118,-0.011849213333333334,0.1786296,-0.7780923466666668,0.9685711600000002,0.7984213410186499,0.6914517797253815,0.6914517797253815,0.6914517797253815
LBP09_S00,LBP09,-1601,50,0,49,-1601,1716536654.96,2024-05-24 07:44:14.960000+00:00,2024-05-24 16:44:14.960000+09:00,2024,5,24,7,44,14,960,,,,,,,,,0.172607,0.152588,0.50708,-51.940918,-97.412109,0.671387,,,,,,,,,,,0.0,1.0,1.0,0.0,0.0,0.0,0.0,6.0,0.0,0.039759093333333335,-0.04910482666666667,1.00178384,0.013834599999999569,-1.9824218266666669,1.3387043866666668,-0.0767314538313173,-4.377380221192892,2.6482170069675433,3.889639975752498,0.7167415626482813,1.8311056495179683,4.358436131033242,-0.8899800503157792,4.0317371661760815,-1.0003651214326506,0.13284790666666668,0.20169282666666666,-0.4947038400000001,0.8292445733333335,0.5505092659939986,0.6806100478998907,0.6806100478998907,0.6806100478998907
LBP09_S00,LBP09,-1600,51,0,50,-1600,1716536655.0,2024-05-24 07:44:15+00:00,2024-05-24 16:44:15+09:00,2024,5,24,7,44,15,0,7.0,44.0,14.0,40.54081,141.543396,12.805,3.0,15.0,0.57666,-0.262939,1.084229,-11.59668,-45.410156,-6.286621,-302.0,172.0,250.0,189.0,0.0,1005.299988,22.08,-0.076305,66.361549,3.99375,0.0,1.0,1.0,0.0,0.0,0.0,0.0,5.0,0.0,0.042568346666666666,-0.05150390666666667,1.0130370933333335,-0.7698568000000005,-0.9700520400000004,1.184082,-3.3342850038929335,-4.743494952413956,3.1503125410258423,3.756268575596781,0.527001764551723,1.957118151159002,4.268207578065121,-0.8798994888185034,4.013602965248155,-1.0207222083018501,0.5340916533333333,-0.21143509333333332,0.07119190666666664,0.8167186533333333,0.5788151522101371,0.673338983922051,0.673338983922051,0.673338983922051
LBP09_S00,LBP09,-1599,52,0,51,-1599,1716536655.04,2024-05-24 07:44:15.040000+00:00,2024-05-24 16:44:15.040000+09:00,2024,5,24,7,44,15,40,,,,,,,,,0.16748,-0.103271,1.511963,-51.818848,44.006348,20.019531,,,,,,,,,,,0.0,1.0,1.0,0.0,0.0,0.0,0.0,5.0,0.0,0.034804666666666664,-0.05277669333333333,1.0303352666666665,-0.4614258000000005,0.9659831199999996,1.5519205333333335,-6.59336085709099,-4.210028309494664,3.65890181515518,3.492534141313141,0.3586006321719364,2.1034742237652093,4.092797692493081,-0.9874521925572161,3.970040094453984,-1.0298286386764413,0.1326753333333333,-0.05049430666666667,0.4816277333333334,0.6647973733333334,0.5021132268688637,0.6619239334518385,0.6619239334518385,0.6619239334518385
LBP09_S00,LBP09,-1598,53,0,52,-1598,1716536655.08,2024-05-24 07:44:15.080000+00:00,2024-05-24 16:44:15.080000+09:00,2024,5,24,7,44,15,80,,,,,,,,,-0.250488,-0.165039,1.948242,-7.263184,4.577637,-10.437012,,,,,,,,,,,0.0,1.0,1.0,0.0,0.0,0.0,0.0,5.0,0.0,0.02733396,-0.05349934666666666,1.0421744666666668,-0.7356770933333338,0.6510417199999997,1.93847652,-9.621461146259614,-3.258650107798659,4.391968430134139,3.1076756954627567,0.22825462785999,2.279152960970575,3.860607027762651,-1.098055892176262,3.920202797579072,-1.0268549001708736,-0.27782196,-0.11153965333333332,0.9060675333333332,1.2954291466666665,0.9542455190802379,0.6801940325536135,0.6801940325536135,0.6801940325536135
LBP09_S00,LBP09,-1597,54,0,53,-1597,1716536655.12,2024-05-24 07:44:15.120000+00:00,2024-05-24 16:44:15.120000+09:00,2024,5,24,7,44,15,120,,,,,,,,,0.03125,-0.023438,1.689697,-15.991211,11.352539,-6.958008,,,,,,,,,,,0.0,1.0,1.0,0.0,0.0,0.0,0.0,5.0,0.0,0.027063786666666666,-0.05101562666666667,1.0374153466666667,-0.1684570533333338,1.4819336399999996,2.1321614133333338,-12.295133429687247,-2.4357821565219018,5.4626158563106655,2.615870358275267,0.13082334159911393,2.497657595223002,3.619141602781726,-1.082688304961407,3.8853976671748667,-1.0110873719974496,0.004186213333333334,0.027577626666666667,0.6522816533333333,0.6840454933333333,0.6528777873001232,0.6785871945975259,0.6785871945975259,0.6785871945975259
LBP09_S00,LBP09,-1596,55,0,54,-1596,1716536655.16,2024-05-24 07:44:15.160000+00:00,2024-05-24 16:44:15.160000+09:00,2024,5,24,7,44,15,160,,,,,,,,,-0.296143,-0.025879,0.602783,42.602539,128.723145,17.272949,,,,,,,,,,,0.0,1.0,1.0,0.0,0.0,0.0,0.0,5.0,0.0,0.024661453333333333,-0.05120442666666667,1.0129784933333335,0.05859371999999951,2.328287813333333,2.3738606399999997,-14.48068011736781,-2.078593387128086,6.825698552137118,2.0366431535805547,0.04767960611399048,2.7706855373084864,3.439024138693439,-1.1215714427621624,3.881177934077646,-1.0027801821543227,-0.3208044533333333,0.02532542666666667,-0.4101954933333335,0.7563253733333335,0.5213609280194713,0.6698524020098562,0.6698524020098562,0.6698524020098562
LBP09_S00,LBP09,-1595,56,0,55,-1595,1716536655.2,2024-05-24 07:44:15.200000+00:00,2024-05-24 16:44:15.200000+09:00,2024,5,24,7,44,15,200,,,,,,,,,0.019043,0.034912,0.089355,55.786133,-48.400879,2.990723,,,,,,,,,,,0.0,1.0,1.0,0.0,0.0,0.0,0.0,5.0,0.0,0.02377602666666667,-0.04835937333333333,0.9958723733333333,0.08707678666666618,0.6974284399999996,2.5065103866666667,-15.90723471113925,-2.1940886276301796,8.27397941509454,1.4003537651349847,-0.040083938991216705,3.1016447139122683,3.4033508959601413,-1.1134950942213138,3.9144522154408916,-1.0215185492463141,-0.004733026666666668,0.08327137333333333,-0.9065173733333334,0.9945217733333334,0.9103462370512733,0.6825099722751939,0.6825099722751939,0.6825099722751939
LBP09_S00,LBP09,-1594,57,0,56,-1594,1716536655.24,2024-05-24 07:44:15.240000+00:00,2024-05-24 16:44:15.240000+09:00,2024,5,24,7,44,15,240,,,,,,,,,0.096191,0.178711,0.43457,-32.958984,-82.763672,12.207031,,,,,,,,,,,0.0,1.0,1.0,0.0,0.0,0.0,0.0,5.0,0.0,0.03428710666666667,-0.0510612,1.0027473733333332,-0.5948893600000005,-2.1289062000000003,2.2037760133333335,-16.151157012674982,-2.554713784450006,9.485559028178157,0.7543074846279854,-0.14227249036921694,3.4810670750393946,3.5646948289867653,-0.9791327306389435,3.9850965615353937,-1.0478686016638739,0.06190389333333333,0.2297722,-0.5681773733333332,0.8598534666666665,0.6159974703443437,0.6791843471786514,0.6791843471786514,0.6791843471786514
LBP09_S00,LBP09,-1593,58,0,57,-1593,1716536655.28,2024-05-24 07:44:15.280000+00:00,2024-05-24 16:44:15.280000+09:00,2024,5,24,7,44,15,280,,,,,,,,,0.459717,-0.280273,0.716553,-92.956543,-76.23291,15.808105,,,,,,,,,,,0.0,1.0,1.0,0.0,0.0,0.0,0.0,5.0,0.0,0.03905598666666666,-0.05152018666666667,1.0147493333333333,-1.2060547200000005,-1.3175455333333337,2.2444661200000002,-14.784962206968407,-2.9293777148329565,10.108180052390084,0.16290899634924905,-0.2594475989625352,3.885394277134998,3.89745315385475,-0.9218860298668953,4.089452337050556,-1.064355904239802,0.42066101333333333,-0.22875281333333333,-0.2981963333333333,0.94761016,0.5640962603669574,0.6737039620923803,0.6737039620923803,0.6737039620923803
LBP09_S00,LBP09,-1592,59,0,58,-1592,1716536655.32,2024-05-24 07:44:15.320000+00:00,2024-05-24 16:44:15.320000+09:00,2024,5,24,7,44,15,320,,,,,,,,,0.332764,-0.057861,1.157959,-50.476074,17.272949,-1.159668,,,,,,,,,,,0.0,1.0,1.0,0.0,0.0,0.0,0.0,5.0,0.0,0.03653972,-0.05152345333333333,1.0331770666666666,-1.0262044533333339,0.7356771199999997,2.1232096133333336,-11.623784990362623,-3.2725898947517185,9.857641349218893,-0.3020424032652559,-0.39035119475260394,4.279699931103753,4.3080662911455425,-0.9536405952247445,4.223331879268509,-1.0686950529044938,0.29622428,-0.006337546666666673,0.12478193333333332,0.42734376,0.3214957533866894,0.6576944980603034,0.6576944980603034,0.6576944980603034
LBP09_S00,LBP09,-1591,60,0,59,-1591,1716536655.36,2024-05-24 07:44:15.360000+00:00,2024-05-24 16:44:15.360000+09:00,2024,5,24,7,44,15,360,,,,,,,,,-0.147949,-0.193115,1.79248,-13.61084,33.38623,10.437012,,,,,,,,,,,0.0,1.0,1.0,0.0,0.0,0.0,0.0,5.0,0.0,0.02598306666666667,-0.04834961333333333,1.0487467333333333,-0.03011070666666716,1.6300455999999997,1.8693033600000002,-6.914784626997157,-3.7275662424604192,8.607383803788293,-0.5786337883451422,-0.5394538444510207,4.623995283255285,4.691178944665697,-1.0773637212356928,4.382678011893902,-1.0643057313103803,-0.17393206666666666,-0.14476538666666666,0.7437332666666667,1.06243072,0.7773985804838843,0.6628990233830677,0.6628990233830677,0.6628990233830677
LBP09_S00,LBP09,-1590,61,0,60,-1590,1716536655.4,2024-05-24 07:44:15.400000+00:00,2024-05-24 16:44:15.400000+09:00,2024,5,24,7,44,15,400,,,,,,,,,-0.112549,-0.150635,1.92334,0.549316,-0.305176,20.996094,,,,,,,,,,,0.0,1.0,1.0,0.0,0.0,0.0,0.0,5.0,0.0,0.02150064,-0.047242839999999994,1.0506673066666665,0.5200195066666661,2.4104817999999995,1.6861978933333335,-1.335819317392551,-4.443648710066496,6.448441543599914,-0.6320665610408442,-0.7171997928536806,4.881932944999281,4.974651039010145,-1.1434000129941004,4.561283146455436,-1.041208401806472,-0.13404964,-0.10339216,0.8726726933333335,1.1101144933333336,0.8889414347544216,0.6723174571902075,0.6723174571902075,0.6723174571902075
LBP09_S00,LBP09,-1589,62,0,61,-1589,1716536655.44,2024-05-24 07:44:15.440000+00:00,2024-05-24 16:44:15.440000+09:00,2024,5,24,7,44,15,440,,,,,,,,,-0.072266,-0.017334,1.095459,64.39209,103.820801,14.709473,,,,,,,,,,,0.0,1.0,1.0,0.0,0.0,0.0,0.0,5.0,0.0,0.01960936,-0.04412434666666667,1.0274088399999999,0.9993489333333329,2.9532877866666665,1.5641275733333333,4.212409512639155,-5.350502082934848,3.6996373785960883,-0.46357018053527804,-0.9312198761710746,5.029918440143125,5.136355447644704,-1.152325218316499,4.747742554355208,-1.0208337986641896,-0.09187535999999999,0.02679034666666667,0.06805016000000008,0.18671586666666673,0.11742924987274417,0.6501219288975091,0.6501219288975091,0.6501219288975091
LBP09_S00,LBP09,-1588,63,0,62,-1588,1716536655.48,2024-05-24 07:44:15.480000+00:00,2024-05-24 16:44:15.480000+09:00,2024,5,24,7,44,15,480,,,,,,,,,-0.345215,0.018799,0.019043,51.330566,23.254395,9.094238,,,,,,,,,,,0.0,1.0,1.0,0.0,0.0,0.0,0.0,5.0,0.0,0.020709626666666665,-0.04527018666666667,1.00587564,0.4182942399999995,2.4715169599999998,1.71712236,8.909325259311686,-6.070356661123447,0.8516500620409858,-0.1071971701628106,-1.1740341426160126,5.063984442624764,5.199402449942173,-1.1414473788231807,4.926323696511721,-1.0351827843953836,-0.36592462666666664,0.06406918666666667,-0.9868326399999999,1.4168264533333332,1.0544403029335692,0.6524708353090528,0.6656726355912036,0.6656726355912036
LBP09_S00,LBP09,-1587,64,0,63,-1587,1716536655.52,2024-05-24 07:44:15.520000+00:00,2024-05-24 16:44:15.520000+09:00,2024,5,24,7,44,15,520,,,,,,,,,0.101562,0.113037,0.304688,33.38623,-92.285156,-15.74707,,,,,,,,,,,0.0,1.0,1.0,0.0,0.0,0.0,0.0,5.0,0.0,0.025638013333333334,-0.043583986666666664,1.0006412666666666,0.23600257333333288,-0.8455403333333338,1.1482747066666668,12.249294674961094,-6.065610201816266,-1.555140378041894,0.3827746168356332,-1.4166585506886633,5.001778827503088,5.2126029290356595,-1.0387950890202702,5.083021933164497,-1.0629331761889886,0.07592398666666667,0.15662098666666666,-0.6959532666666666,0.9284982399999999,0.7173879944631111,0.6430858209676574,0.667588019253126,0.667588019253126
LBP09_S00,LBP09,-1586,65,0,64,-1586,1716536655.56,2024-05-24 07:44:15.560000+00:00,2024-05-24 16:44:15.560000+09:00,2024,5,24,7,44,15,560,,,,,,,,,0.323975,-0.084717,0.564453,-34.545898,-119.750977,-22.949219,,,,,,,,,,,0.0,1.0,1.0,0.0,0.0,0.0,0.0,5.0,0.0,0.03482421333333333,-0.04305990666666666,1.0168977733333333,-0.45247398666666716,-0.8723958000000005,0.9895833066666667,14.0961298116374,-4.9603200148934645,-3.089383453526707,0.9466198093011292,-1.615071351284402,4.878203489362019,5.225075484308787,-0.8905981477230782,5.2109353794900635,-1.0873433272459991,0.28915078666666666,-0.04165709333333334,-0.4524447733333333,0.7832526533333333,0.5385626832334242,0.6588734239588893,0.6629799715381368,0.6629799715381368
LBP09_S00,LBP09,-1585,66,0,65,-1585,1716536655.6,2024-05-24 07:44:15.600000+00:00,2024-05-24 16:44:15.600000+09:00,2024,5,24,7,44,15,600,,,,,,,,,0.424072,-0.029297,0.944336,-36.376953,-10.681152,-16.723633,,,,,,,,,,,0.0,1.0,1.0,0.0,0.0,0.0,0.0,5.0,0.0,0.036110013333333336,-0.04644532,1.0325130133333333,-1.5771484666666673,1.021321653333333,1.46077472,14.563510968955715,-2.8361281709956114,-3.5671022551267906,1.5291602480593578,-1.7285164781242264,4.7355193991569475,5.267944974957855,-0.9097490627984902,5.310530442043424,-1.1014812021551994,0.38796198666666665,0.017148319999999998,-0.08817701333333339,0.49328732000000003,0.39822575714983083,0.6290631169516531,0.6538505158695745,0.6538505158695745
LBP09_S00,LBP09,-1584,67,0,66,-1584,1716536655.64,2024-05-24 07:44:15.640000+00:00,2024-05-24 16:44:15.640000+09:00,2024,5,24,7,44,15,640,,,,,,,,,0.09668,-0.242432,1.618896,-12.817383,43.395996,-6.774902,,,,,,,,,,,0.0,1.0,1.0,0.0,0.0,0.0,0.0,5.0,0.0,0.022041,-0.04587566666666666,1.0478775866666667,-0.9790039333333338,1.8904622799999993,1.1848958133333332,13.834988343360859,-0.29299849900041763,-3.1099539473582545,2.082559781793792,-1.7402364180842431,4.611121241262618,5.350506250551903,-1.1226225879508835,5.386598587331401,-1.0970891103819662,0.074639,-0.19655633333333333,0.5710184133333331,0.8422137466666665,0.6084960154842115,0.6276195264951886,0.6523386991900624,0.6523386991900624
LBP09_S00,LBP09,-1583,68,0,67,-1583,1716536655.68,2024-05-24 07:44:15.680000+00:00,2024-05-24 16:44:15.680000+09:00,2024,5,24,7,44,15,680,,,,,,,,,-0.1875,-0.196045,1.861328,26.428223,11.962891,10.192871,,,,,,,,,,,0.0,1.0,1.0,0.0,0.0,0.0,0.0,5.0,0.0,0.018466773333333332,-0.04745444,1.0538020666666668,-0.07893882666666716,1.284179733333333,0.9383137733333332,12.05987451088116,1.7921734386200217,-2.093984962982462,2.5649547622290387,-1.6685494805394423,4.5273618427433195,5.464435520382509,-1.199389947802948,5.444853093662427,-1.0800935420314046,-0.20596677333333333,-0.14859055999999998,0.8075259333333333,1.1620832666666665,0.8465220606956025,0.6385976797975554,0.6586026785934669,0.6586026785934669
LBP09_S00,LBP09,-1582,69,0,68,-1582,1716536655.72,2024-05-24 07:44:15.720000+00:00,2024-05-24 16:44:15.720000+09:00,2024,5,24,7,44,15,720,,,,,,,,,0.031738,-0.12207,1.501709,46.569824,67.993164,8.178711,,,,,,,,,,,0.0,1.0,1.0,0.0,0.0,0.0,0.0,5.0,0.0,0.017981746666666666,-0.045983093333333336,1.0301464666666666,0.6412760266666662,2.862141973333333,1.1580403333333333,9.38584816664978,2.6827162595049767,-1.0082529511416842,2.94038868889503,-1.5612408301592433,4.487031724697652,5.5872007544012,-1.1977421057948492,5.489395600682867,-1.0632679012467505,0.013756253333333336,-0.07608690666666666,0.4715625333333333,0.5614056933333333,0.47785947172325044,0.6455903981987123,0.6529544533787727,0.6529544533787727
LBP09_S00,LBP09,-1581,70,0,69,-1581,1716536655.76,2024-05-24 07:44:15.760000+00:00,2024-05-24 16:44:15.760000+09:00,2024,5,24,7,44,15,760,,,,,,,,,-0.368896,-0.019287,0.27417,57.250977,99.975586,21.66748,,,,,,,,,,,0.0,1.0,1.0,0.0,0.0,0.0,0.0,5.0,0.0,0.01661456,-0.04526694666666666,1.0039029733333333,0.07649738666666613,2.4796549999999997,1.0400390266666666,6.075010803498327,2.1411590640593148,-0.2827151939468118,3.183389121034963,-1.4755944675968706,4.47572311693978,5.68712957019931,-1.2187424703276943,5.521419388560407,-1.0817681184992431,-0.38551056,0.025979946666666663,-0.7297329733333333,1.1412234799999998,0.8257139709791907,0.6485530115225785,0.6581895902757551,0.6581895902757551
LBP09_S00,LBP09,-1580,71,0,70,-1580,1716536655.8,2024-05-24 07:44:15.800000+00:00,2024-05-24 16:44:15.800000+09:00,2024,5,24,7,44,15,800,,,,,,,,,0.057129,0.208252,0.251465,25.756836,-48.88916,-2.075195,,,,,,,,,,,0.0,1.0,1.0,0.0,0.0,0.0,0.0,5.0,0.0,0.022086573333333335,-0.04336916,0.9991666533333333,0.0870768133333328,-0.671386666666667,0.36865230666666676,2.5823244954869877,0.5315122723517324,-0.15490113099537695,3.2866821008544425,-1.4543339767028014,4.469527071699965,5.735332491889901,-1.0994790952617701,5.539420371978691,-1.1248678125742013,0.03504242666666667,0.25162116,-0.7477016533333334,1.03436524,0.7896828111487767,0.6467335416170773,0.6620570379484909,0.6620570379484909
LBP09_S00,LBP09,-1579,72,0,71,-1579,1716536655.84,2024-05-24 07:44:15.840000+00:00,2024-05-24 16:44:15.840000+09:00,2024,5,24,7,44,15,840,,,,,,,,,0.10376,0.05249,0.439697,-58.654785,-93.383789,-3.417969,,,,,,,,,,,0.0,1.0,1.0,0.0,0.0,0.0,0.0,5.0,0.0,0.030358053333333336,-0.04552085333333333,1.0105370933333333,-0.23274740000000055,-0.7796223466666671,0.35725906666666674,-0.49892809187399034,-1.3855163489478604,-0.6217628022855262,3.2667249771794826,-1.509754630660716,4.4446565596085446,5.718900510954971,-0.9823695348108809,5.540629744422419,-1.1694000889657827,0.07340194666666666,0.09801085333333334,-0.5708400933333333,0.7422528933333333,0.5838256463212224,0.6660583350600252,0.659821855330569,0.659821855330569
LBP09_S00,LBP09,-1578,73,0,72,-1578,1716536655.88,2024-05-24 07:44:15.880000+00:00,2024-05-24 16:44:15.880000+09:00,2024,5,24,7,44,15,880,,,,,,,,,0.649902,-0.197266,0.882568,-31.555176,-70.556641,-23.132324,,,,,,,,,,,0.0,1.0,1.0,0.0,0.0,0.0,0.0,5.0,0.0,0.032890600000000006,-0.048352879999999994,1.0238574133333334,-0.8015950666666672,1.318359413333333,0.8561197466666666,-2.6213222808891827,-2.8357208790981416,-1.4808868998630766,3.1618720859439153,-1.6231834658246416,4.3854210836140215,5.644827520146581,-0.9731909709766414,5.522662126680105,-1.1933688979114259,0.6170114,-0.14891312,-0.14128941333333334,0.9072139333333333,0.6502621650981794,0.6498010834392867,0.6595563083796693,0.6595563083796693
LBP09_S00,LBP09,-1577,74,0,73,-1577,1716536655.92,2024-05-24 07:44:15.920000+00:00,2024-05-24 16:44:15.920000+09:00,2024,5,24,7,44,15,920,,,,,,,,,0.291504,-0.137451,1.405273,-25.32959,34.667969,5.92041,,,,,,,,,,,0.0,1.0,1.0,0.0,0.0,0.0,0.0,5.0,0.0,0.017327440000000003,-0.047959,1.0389029866666666,-0.4239909066666672,2.6676432666666665,1.2662760000000002,-3.495198895245732,-3.3645427691283465,-2.4274426764858608,3.022064130134086,-1.7577651765897755,4.288323376554587,5.5328408078110565,-1.2237972615451969,5.48471781385297,-1.2050228122962383,0.27417655999999996,-0.08949199999999999,0.3663700133333334,0.7300385733333333,0.4662709413927706,0.6365150674542515,0.6543323795421855,0.6543323795421855
LBP09_S00,LBP09,-1576,75,0,74,-1576,1716536655.96,2024-05-24 07:44:15.960000+00:00,2024-05-24 16:44:15.960000+09:00,2024,5,24,7,44,15,960,,,,,,,,,-0.394775,-0.174561,1.890625,-3.356934,21.240234,-5.432129,,,,,,,,,,,0.0,1.0,1.0,0.0,0.0,0.0,0.0,5.0,0.0,0.012584600000000001,-0.04950196,1.04430012,-0.0813802266666672,2.190755239999999,1.3378905733333333,-3.2004057638198056,-2.9435699713320567,-3.159105895475709,2.894047899581294,-1.8755079754430577,4.161959140735559,5.405085318491623,-1.3215950884726597,5.428566446255398,-1.2015175292413134,-0.4073596,-0.12505904,0.8463248800000001,1.37874352,0.9475481041640558,0.6523966209810537,0.6620485828217084,0.6620485828217084
LBP09_S00,LBP09,-1575,76,0,75,-1575,1716536656.0,2024-05-24 07:44:16+00:00,2024-05-24 16:44:16+09:00,2024,5,24,7,44,16,0,7.0,44.0,15.0,40.540836,141.543259,12.983,3.0,15.0,-0.097412,0.060303,1.827393,16.479492,-24.475098,-18.615723,-299.0,177.0,247.0,165.0,0.0,1005.5,22.129999,-0.074323,64.686775,3.99375,0.0,1.0,1.0,0.0,0.0,0.0,0.0,5.0,0.0,0.010169240000000003,-0.04645182666666667,1.0241796799999998,0.2897135199999995,3.6702474266666667,1.7740884933333332,-2.1312235321439674,-1.8341887704852686,-3.4528141341189342,2.8087989582955353,-1.9488755262624684,4.0238465753708015,5.2800386993951305,-1.3550718267143043,5.359461949862759,-1.1886798583284826,-0.10758124,0.10675482666666666,0.8032133200000002,1.017549386666667,0.8173872727428477,0.661939505802362,0.6660316261530197,0.6660316261530197
LBP09_S00,LBP09,-1574,77,0,76,-1574,1716536656.04,2024-05-24 07:44:16.040000+00:00,2024-05-24 16:44:16.040000+09:00,2024,5,24,7,44,16,40,,,,,,,,,-0.053955,-0.227051,1.104004,29.418945,110.595703,19.287109,,,,,,,,,,,0.0,1.0,1.0,0.0,0.0,0.0,0.0,5.0,0.0,0.009788386666666668,-0.04631510666666667,0.9997558533333334,0.6111653466666661,3.0867513333333325,1.6642252133333333,-0.8066938376979115,-0.3374568950892086,-3.2005562473450677,2.7765312047876187,-1.9623738020660368,3.895824325476999,5.170830073128763,-1.3623106774073153,5.2863927345490405,-1.1988139254506736,-0.06374338666666667,-0.18073589333333334,0.1042481466666666,0.3487274266666666,0.2181658968908043,0.6505816126032397,0.6548349829214642,0.6548349829214642
LBP09_S00,LBP09,-1573,78,0,77,-1573,1716536656.08,2024-05-24 07:44:16.080000+00:00,2024-05-24 16:44:16.080000+09:00,2024,5,24,7,44,16,80,,,,,,,,,-0.257812,0.164795,0.042236,13.793945,30.517578,6.774902,,,,,,,,,,,0.0,1.0,1.0,0.0,0.0,0.0,0.0,5.0,0.0,0.011503880000000001,-0.044195960000000006,0.9925423199999999,-0.2522786666666672,-0.05859370666666697,1.0725911066666667,0.35017200969333984,1.3960340195300145,-2.4114684301337386,2.7905380851753523,-1.9065324412848363,3.7993655882716495,5.084992392111164,-1.3159290916510722,5.220980107919176,-1.2319883805406735,-0.26931588,0.20899096,-0.9503063199999998,1.4286131599999998,1.0095991117338792,0.6527957563093854,0.6634877665510354,0.6634877665510354
LBP09_S00,LBP09,-1572,79,0,78,-1572,1716536656.12,2024-05-24 07:44:16.120000+00:00,2024-05-24 16:44:16.120000+09:00,2024,5,24,7,44,16,120,,,,,,,,,-0.022217,-0.044922,0.348877,27.709961,-61.340332,-12.573242,,,,,,,,,,,0.0,1.0,1.0,0.0,0.0,0.0,0.0,5.0,0.0,0.021601533333333336,-0.05000975999999999,1.0031738266666665,-1.4103190266666672,-1.416829386666667,1.3582356266666666,1.1520756513840584,3.3819878419198983,-1.1965660762288812,2.8366211112307145,-1.7712529276080404,3.7515029452224944,5.025687078425484,-1.1626892752455993,5.175073745146168,-1.266042983617569,-0.04381853333333334,0.005087759999999997,-0.6542968266666666,0.7032031199999998,0.6557821944452075,0.6529119325951888,0.6633043005485157,0.6633043005485157
LBP09_S00,LBP09,-1571,80,0,79,-1571,1716536656.16,2024-05-24 07:44:16.160000+00:00,2024-05-24 16:44:16.160000+09:00,2024,5,24,7,44,16,160,,,,,,,,,0.439697,0.036865,0.655762,-10.498047,-102.416992,-15.136719,,,,,,,,,,,0.0,1.0,1.0,0.0,0.0,0.0,0.0,5.0,0.0,0.026513640000000005,-0.05092121333333333,1.0133951733333333,-1.6422526133333337,-0.22379553333333366,1.53889968,1.6440625121122525,5.654307614213433,0.2528320197219477,2.9023836117152046,-1.545080623039503,3.7616162260113724,4.996084606272913,-1.0903657611993867,5.158008751386875,-1.275453286734524,0.41318336,0.08778621333333333,-0.35763317333333333,0.8586027466666667,0.5534694164095837,0.6541962721307932,0.6607500009173778,0.6607500009173778
LBP09_S00,LBP09,-1570,81,0,80,-1570,1716536656.2,2024-05-24 07:44:16.200000+00:00,2024-05-24 16:44:16.200000+09:00,2024,5,24,7,44,16,200,,,,,,,,,0.310059,-0.078857,1.187012,-64.025879,26.367188,0.183105,,,,,,,,,,,0.0,1.0,1.0,0.0,0.0,0.0,0.0,5.0,0.0,0.01851885333333333,-0.047792959999999995,1.0282714800000001,-1.3037109466666672,1.7366536933333332,1.8937173866666668,1.9760583670623764,8.084021196789033,1.6966203551394252,2.9814259463976995,-1.2217197751679418,3.8294810402169492,5.004640338752718,-1.200819766483679,5.174938513405966,-1.2769141322541,0.29154014666666667,-0.03106404,0.15874051999999983,0.4813447066666665,0.33340543545271345,0.6311186400668509,0.6533103517022717,0.6533103517022717
LBP09_S00,LBP09,-1569,82,0,81,-1569,1716536656.24,2024-05-24 07:44:16.240000+00:00,2024-05-24 16:44:16.240000+09:00,2024,5,24,7,44,16,240,,,,,,,,,-0.13208,-0.146729,1.858643,-8.483887,49.438477,6.286621,,,,,,,,,,,0.0,1.0,1.0,0.0,0.0,0.0,0.0,5.0,0.0,0.012708306666666665,-0.04846678666666667,1.0387695333333333,-1.4412434933333336,1.5161133333333332,2.1289061866666663,2.240912088918765,10.322302595880666,2.898386938986119,3.0710624299544502,-0.8088276713327152,3.945416517776394,5.064774244656324,-1.3141140857108806,5.227121475528392,-1.2541221642903075,-0.14478830666666667,-0.09826221333333332,0.8198734666666667,1.0629239866666667,0.8383386056126629,0.6400122854775836,0.6574220906780581,0.6574220906780581
LBP09_S00,LBP09,-1568,83,0,82,-1568,1716536656.28,2024-05-24 07:44:16.280000+00:00,2024-05-24 16:44:16.280000+09:00,2024,5,24,7,44,16,280,,,,,,,,,-0.2771,-0.078857,1.93335,1.525879,-15.991211,4.882812,,,,,,,,,,,0.0,1.0,1.0,0.0,0.0,0.0,0.0,5.0,0.0,0.01155596,-0.043997386666666666,1.0272591066666665,-1.0058593866666672,2.735188853333333,1.70003248,2.3862864860254316,11.926342558964427,3.6975697935236354,3.1665138893954676,-0.3317739689741381,4.093319309517339,5.185763892416504,-1.3137370017455974,5.313811944190199,-1.2252747302494378,-0.28865596,-0.03485961333333333,0.9060908933333334,1.2296064666666666,0.9515976896077822,0.6555123426472167,0.6638172123939218,0.6638172123939218
LBP09_S00,LBP09,-1567,84,0,83,-1567,1716536656.32,2024-05-24 07:44:16.320000+00:00,2024-05-24 16:44:16.320000+09:00,2024,5,24,7,44,16,320,,,,,,,,,0.038086,-0.232178,1.420166,29.296875,120.544434,29.418945,,,,,,,,,,,0.0,1.0,1.0,0.0,0.0,0.0,0.0,5.0,0.0,0.01108396,-0.04292641333333333,1.0027962133333332,-1.7521158933333338,3.053385466666666,1.763509053333333,2.2577035735119666,12.58506375546377,4.076441211621287,3.2568220323359465,0.17162858124441277,4.256376957982191,5.362190870218119,-1.3179002927147452,5.43443802083971,-1.2107593672511718,0.02700204,-0.18925158666666667,0.4173697866666668,0.6336234133333335,0.4590673284412553,0.6610152056493993,0.6594608318842905,0.6594608318842905
LBP09_S00,LBP09,-1566,85,0,84,-1566,1716536656.36,2024-05-24 07:44:16.360000+00:00,2024-05-24 16:44:16.360000+09:00,2024,5,24,7,44,16,360,,,,,,,,,-0.509521,0.091553,0.064209,30.090332,56.335449,20.751953,,,,,,,,,,,0.0,1.0,1.0,0.0,0.0,0.0,0.0,5.0,0.0,0.010471986666666667,-0.0438574,0.9926334533333333,-2.3144531333333336,0.7202148933333329,1.5616861333333332,1.7394159272676586,12.287563007547686,4.1829418054827,3.326398669426653,0.6631311015463202,4.423694630201499,5.574382938682543,-1.3362035436684205,5.5895944358044005,-1.2311094457468874,-0.5199929866666667,0.1354104,-0.9284244533333333,1.58382784,1.0727071586215777,0.672827548774907,0.6680701303579841,0.6680701303579841
LBP09_S00,LBP09,-1565,86,0,85,-1565,1716536656.4,2024-05-24 07:44:16.400000+00:00,2024-05-24 16:44:16.400000+09:00,2024,5,24,7,44,16,400,,,,,,,,,0.009277,0.033936,0.349121,46.99707,-61.584473,-10.192871,,,,,,,,,,,0.0,1.0,1.0,0.0,0.0,0.0,0.0,5.0,0.0,0.02155272,-0.04538734666666667,1.0004003866666666,-3.302408866666667,-1.1035155733333337,1.2410481066666668,0.892176445826949,11.314678852738966,4.280467049219056,3.362085727259731,1.115718255655879,4.594913312170261,5.801868320619391,-1.127152147076379,5.7801128962186805,-1.2628288969267296,-0.01227572,0.07932334666666667,-0.6512793866666666,0.7428784533333332,0.6562070756436782,0.6635181744104773,0.6678280272005493,0.6678280272005493
LBP09_S00,LBP09,-1564,87,0,86,-1564,1716536656.44,2024-05-24 07:44:16.440000+00:00,2024-05-24 16:44:16.440000+09:00,2024,5,24,7,44,16,440,,,,,,,,,0.339355,0.072998,0.755371,-31.37207,-92.285156,-14.709473,,,,,,,,,,,0.0,1.0,1.0,0.0,0.0,0.0,0.0,5.0,0.0,0.025442693333333335,-0.046946586666666665,1.0114127599999998,-4.522298186666667,-0.04231766666666696,1.02701816,-0.011773694639176858,10.05519643775136,4.630533828353956,3.361614779474164,1.5179261131659332,4.78013466530442,6.037734759746835,-1.0738363369986172,6.004812091432373,-1.2884797024398442,0.3139123066666667,0.11994458666666666,-0.2560417599999998,0.6898986533333331,0.4224748785564917,0.6757199995578271,0.662920964227668,0.662920964227668
LBP09_S00,LBP09,-1563,88,0,87,-1563,1716536656.48,2024-05-24 07:44:16.480000+00:00,2024-05-24 16:44:16.480000+09:00,2024,5,24,7,44,16,480,,,,,,,,,0.206299,0.028809,1.156982,-34.057617,20.446777,-21.179199,,,,,,,,,,,0.0,1.0,1.0,0.0,0.0,0.0,0.0,5.0,0.0,0.02104490666666667,-0.04982093333333333,1.0283821599999998,-3.8248698000000005,2.00195316,0.7194009733333333,-0.588216139340911,8.775609246467303,5.356733480316813,3.3380861339005277,1.8689504830246253,4.994404004517093,6.291253158606267,-1.1707754616684145,6.258607755370692,-1.3028541398561333,0.18525409333333334,0.07862993333333333,0.12859984000000013,0.3924838666666668,0.23882978114294176,0.643095578686202,0.6477832069976275,0.65460545083385
LBP09_S00,LBP09,-1562,89,0,88,-1562,1716536656.52,2024-05-24 07:44:16.520000+00:00,2024-05-24 16:44:16.520000+09:00,2024,5,24,7,44,16,520,,,,,,,,,-0.29126,-0.222168,1.906982,-32.226562,49.865723,20.446777,,,,,,,,,,,0.0,1.0,1.0,0.0,0.0,0.0,0.0,5.0,0.0,0.009635400000000002,-0.04647784,1.0389973866666666,-3.4415690133333334,2.1248372666666664,0.52734368,-0.5173989888265983,7.507609216305716,6.358918937282874,3.3173901743474636,2.169254851676854,5.248760762008407,6.577251228072389,-1.3661900602027537,6.532523572263701,-1.2994756156337517,-0.30089540000000004,-0.17569016,0.8679846133333333,1.3445701733333335,0.9353086993316174,0.6518124068809423,0.6474491139242999,0.6600035902280378
LBP09_S00,LBP09,-1561,90,0,89,-1561,1716536656.56,2024-05-24 07:44:16.560000+00:00,2024-05-24 16:44:16.560000+09:00,2024,5,24,7,44,16,560,,,,,,,,,-0.19043,0.015137,1.992676,-1.647949,-31.433105,-3.78418,,,,,,,,,,,0.0,1.0,1.0,0.0,0.0,0.0,0.0,5.0,0.0,0.007679026666666669,-0.04666990666666666,1.0358496000000001,-2.386881506666667,2.6586914266666666,0.4850259733333333,0.30936499682698937,6.124918093748134,7.326038136840879,3.329764774220543,2.4142515754267793,5.541802287482042,6.901269210415709,-1.4075602729978083,6.815652768628486,-1.28125044226773,-0.19810902666666666,0.06180690666666666,0.9568263999999997,1.216742333333333,0.9790730513580055,0.6694328216059255,0.6641531227824073,0.666023768739924
LBP09_S00,LBP09,-1560,91,0,90,-1560,1716536656.6,2024-05-24 07:44:16.600000+00:00,2024-05-24 16:44:16.600000+09:00,2024,5,24,7,44,16,600,,,,,,,,,-0.00415,-0.121094,1.397705,19.714355,110.961914,29.846191,,,,,,,,,,,0.0,1.0,1.0,0.0,0.0,0.0,0.0,5.0,0.0,0.004938133333333335,-0.043372386666666665,1.0094335866666666,-1.5079752533333335,3.2682291866666664,0.6754556666666667,1.7539630370945285,4.538823101808254,7.84588230798016,3.3999232957043244,2.5958044994991094,5.8556375798012485,7.251632290889645,-1.4573278216148264,7.097452717273107,-1.2595349834967744,-0.009088133333333335,-0.07772161333333333,0.38827141333333337,0.47508116,0.3960781914704278,0.6693469189787494,0.6492050179652012,0.6610247765682666
LBP09_S00,LBP09,-1559,92,0,91,-1559,1716536656.64,2024-05-24 07:44:16.640000+00:00,2024-05-24 16:44:16.640000+09:00,2024,5,24,7,44,16,640,,,,,,,,,-0.436523,-0.061279,0.065918,52.124023,53.771973,22.094727,,,,,,,,,,,0.0,1.0,1.0,0.0,0.0,0.0,0.0,5.0,0.0,0.004768866666666668,-0.04208332,0.9907747333333333,-0.8203124933333338,2.291666693333333,0.6746418666666667,3.5084428169519692,2.861089960843534,7.562430343263573,3.5402610083824033,2.7102480979328507,6.158134793531792,7.602730884039516,-1.4578584598737712,7.36858154552816,-1.2796244841871351,-0.44129186666666664,-0.01919568,-0.9248567333333333,1.38534428,1.0249229058367355,0.6860039945928504,0.6568117605440196,0.6676411061913297
LBP09_S00,LBP09,-1558,93,0,92,-1558,1716536656.68,2024-05-24 07:44:16.680000+00:00,2024-05-24 16:44:16.680000+09:00,2024,5,24,7,44,16,680,,,,,,,,,-0.013428,0.149902,0.32373,21.606445,-63.354492,11.59668,,,,,,,,,,,0.0,1.0,1.0,0.0,0.0,0.0,0.0,5.0,0.0,0.012229813333333336,-0.04088865333333333,0.98953776,-1.608072906666667,-0.8715820133333333,0.33610019999999996,5.2151790888566945,1.4099936438169547,6.312106826379391,3.748868171936671,2.766647843685529,6.410619066586968,7.924922061346594,-1.2799517595217789,7.619973988284653,-1.3154198859896404,-0.025657813333333335,0.19079065333333334,-0.6658077600000001,0.8822562266666667,0.69307962750367,0.6798662972651732,0.6592319885313641,0.6680953655004787
LBP09_S00,LBP09,-1557,94,0,93,-1557,1716536656.72,2024-05-24 07:44:16.720000+00:00,2024-05-24 16:44:16.720000+09:00,2024,5,24,7,44,16,720,,,,,,,,,0.330811,-0.117676,0.729004,-36.437988,-103.33252,0.0,,,,,,,,,,,0.0,1.0,1.0,0.0,0.0,0.0,0.0,5.0,0.0,0.019889320000000002,-0.042815733333333335,1.0004394533333334,-2.7726236933333337,-0.8797200266666666,0.17578118666666664,6.549434013617236,0.5474235493458025,4.184928172549397,4.01084553248136,2.788544785659361,6.578016193488944,8.193482833865978,-1.1356485590545307,7.841478943530889,-1.3456210638933612,0.31092168000000003,-0.07486026666666667,-0.2714354533333334,0.6572174000000002,0.4194681822804908,0.6775306456874627,0.6615605219430876,0.6637334850931104
LBP09_S00,LBP09,-1556,95,0,94,-1556,1716536656.76,2024-05-24 07:44:16.760000+00:00,2024-05-24 16:44:16.760000+09:00,2024,5,24,7,44,16,760,,,,,,,,,0.338867,0.001953,1.086182,-21.54541,6.408691,-4.821777,,,,,,,,,,,0.0,1.0,1.0,0.0,0.0,0.0,0.0,5.0,0.0,0.022067053333333333,-0.045514306666666664,1.0126725333333333,-2.43977864,0.8772786666666668,-0.005696680000000039,7.235805198686966,0.46224332562164033,1.494336220788807,4.300277740428839,2.8070345186842265,6.637789642320496,8.392382425128742,-1.119048955958863,8.021827276078367,-1.3524404672821402,0.31679994666666667,0.04746730666666667,0.07350946666666669,0.43777672,0.32866243031385256,0.6576485840608491,0.6531007977917139,0.6579563979417439
LBP09_S00,LBP09,-1555,96,0,95,-1555,1716536656.8,2024-05-24 07:44:16.800000+00:00,2024-05-24 16:44:16.800000+09:00,2024,5,24,7,44,16,800,,,,,,,,,-0.118652,0.061523,1.75708,1.159668,41.870117,-13.305664,,,,,,,,,,,0.0,1.0,1.0,0.0,0.0,0.0,0.0,5.0,0.0,0.01105468,-0.04468097333333334,1.0288834666666669,-1.1336262933333339,2.0222982000000003,-0.18554693333333339,7.03701199475994,1.059948533158871,-1.3200511999386566,4.581758220219236,2.8494324600105814,6.58498759432295,8.513156603169922,-1.328047153979987,8.150771947111839,-1.3523687903217567,-0.12970668,0.10620397333333334,0.7281965333333331,0.9641071866666664,0.7472438008756539,0.6559510236499243,0.6513422826335008,0.659469743754183
LBP09_S00,LBP09,-1554,97,0,96,-1554,1716536656.84,2024-05-24 07:44:16.840000+00:00,2024-05-24 16:44:16.840000+09:00,2024,5,24,7,44,16,840,,,,,,,,,-0.146729,0.061768,1.930664,28.991699,-26.794434,-14.465332,,,,,,,,,,,0.0,1.0,1.0,0.0,0.0,0.0,0.0,5.0,0.0,0.006487613333333335,-0.046416,1.0369694,-0.45735676000000053,1.7887370000000002,0.08707675999999998,5.7740277978430035,2.0371876236218998,-3.8097425485322947,4.812719332132956,2.930919964955457,6.432597892381658,8.551659187311765,-1.4317903550236701,8.222653430884073,-1.323750806656935,-0.15321661333333333,0.108184,0.8936945999999999,1.1550952133333332,0.9131643589882908,0.6691245721566069,0.6675914536083161,0.6636979873414182
LBP09_S00,LBP09,-1553,98,0,97,-1553,1716536656.88,2024-05-24 07:44:16.880000+00:00,2024-05-24 16:44:16.880000+09:00,2024,5,24,7,44,16,880,,,,,,,,,0.017578,-0.123779,1.342285,17.089844,84.655762,9.094238,,,,,,,,,,,0.0,1.0,1.0,0.0,0.0,0.0,0.0,5.0,0.0,0.004228493333333334,-0.043043613333333335,1.0193424533333333,0.3906250133333329,2.9597982000000003,0.1717121733333333,3.3956727618927482,3.0812212418466847,-5.61119262549126,4.948546242608666,3.0541688146293247,6.2081501873620075,8.506302711068633,-1.4727872407056233,8.239516512948084,-1.2909346013753453,0.013349506666666667,-0.08073538666666666,0.32294254666666666,0.41702743999999997,0.3331490663892242,0.6564400482082487,0.6531205658237677,0.6582791525717101
LBP09_S00,LBP09,-1552,99,0,98,-1552,1716536656.92,2024-05-24 07:44:16.920000+00:00,2024-05-24 16:44:16.920000+09:00,2024,5,24,7,44,16,920,,,,,,,,,-0.395264,0.139893,0.102295,18.005371,75.195312,-1.89209,,,,,,,,,,,0.0,1.0,1.0,0.0,0.0,0.0,0.0,5.0,0.0,0.005546853333333334,-0.04044269333333333,0.9941699200000002,0.26367189333333285,2.5040690399999996,-0.13509121333333335,0.05708576249489289,4.049422921981882,-6.4959795036077566,4.950829673108462,3.2161457315086,5.948311007217697,8.380734553547168,-1.434384094090544,8.211924822200938,-1.2898343226409001,-0.40081085333333333,0.18033569333333332,-0.8918749200000001,1.4730214666666668,0.9942892815296841,0.6775607818137253,0.6570379246339884,0.6636986707807097
LBP09_S00,LBP09,-1551,100,0,99,-1551,1716536656.96,2024-05-24 07:44:16.960000+00:00,2024-05-24 16:44:16.960000+09:00,2024,5,24,7,44,16,960,,,,,,,,,-0.040527,-0.048584,0.29126,3.295898,-52.856445,1.220703,,,,,,,,,,,0.0,1.0,1.0,0.0,0.0,0.0,0.0,5.0,0.0,0.006647120000000001,-0.040211573333333334,0.9840364533333333,-0.5102538933333337,-0.09684242666666668,-0.7405599733333333,-3.8564101526550782,5.002711319182858,-6.383498576952228,4.796573267002259,3.4162541842759144,5.692971064139608,8.190715920750412,-1.4068435033939723,8.15670790121498,-1.3206020785309776,-0.04717412,-0.008372426666666669,-0.6927764533333334,0.7483230000000001,0.6944312128779749,0.6674361061622821,0.6599163635716678,0.6641864889092377
LBP09_S00,LBP09,-1550,101,0,100,-1550,1716536657.0,2024-05-24 07:44:17+00:00,2024-05-24 16:44:17+09:00,2024,5,24,7,44,17,0,7.0,44.0,16.0,40.540863,141.543137,12.933,3.0,15.0,0.285889,0.055908,0.563721,-27.038574,-104.797363,-18.737793,-303.0,175.0,248.0,191.0,0.0,1005.400024,22.200001,-0.075314,65.523872,3.99375,0.0,1.0,1.0,0.0,0.0,0.0,0.0,6.0,0.0,0.018102200000000002,-0.042890613333333334,0.9924283866666667,-1.328124986666667,-1.8554687333333333,-1.1328125733333334,-7.795767914517287,6.071144502491887,-5.334087317121783,4.484742550421568,3.65909996437559,5.4796075714547365,7.970447128611999,-1.1711479849666109,8.092586181906555,-1.3572387302671067,0.2677868,0.09879861333333334,-0.42870738666666663,0.7952927999999999,0.5150349110821443,0.655342011695854,0.6586407587491081,0.6618559955056893
LBP09_S00,LBP09,-1549,102,0,101,-1549,1716536657.04,2024-05-24 07:44:17.040000+00:00,2024-05-24 16:44:17.040000+09:00,2024,5,24,7,44,17,40,,,,,,,,,0.487061,0.0354,1.270508,-23.803711,3.845215,-12.573242,,,,,,,,,,,0.0,1.0,1.0,0.0,0.0,0.0,0.0,6.0,0.0,0.02094074666666667,-0.04438801333333334,1.0026464800000001,-2.2485351333333337,-0.39469400000000004,-1.0555013733333334,-11.186707623811309,7.255616461156259,-3.532999438354658,4.037274245469115,3.94932462282184,5.33828759392055,7.771361704679634,-1.1296964070578734,8.035957305416408,-1.3750593033226672,0.46612025333333335,0.07978801333333334,0.26786151999999985,0.8137697866666666,0.5434924208633652,0.6683550726547566,0.6594683426289981,0.660035017434269
LBP09_S00,LBP09,-1548,103,0,102,-1548,1716536657.08,2024-05-24 07:44:17.080000+00:00,2024-05-24 16:44:17.080000+09:00,2024,5,24,7,44,17,80,,,,,,,,,0.137939,-0.128418,1.575684,-50.537109,68.17627,9.338379,,,,,,,,,,,0.0,1.0,1.0,0.0,0.0,0.0,0.0,6.0,0.0,0.014433586666666666,-0.04639973333333333,1.0190299466666666,-1.7317708133333338,1.7968750133333333,-0.61360684,-13.57809956436625,8.321756429047854,-1.2617833606764903,3.494150262894465,4.282194879983754,5.287816259493491,7.649005153875128,-1.2689489721773264,7.998796366909093,-1.3808996503582187,0.12350541333333334,-0.08201826666666667,0.5566540533333335,0.7621777333333335,0.5760593010116855,0.6510134802258688,0.651904618267627,0.6587626580945329
LBP09_S00,LBP09,-1547,104,0,103,-1547,1716536657.12,2024-05-24 07:44:17.120000+00:00,2024-05-24 16:44:17.120000+09:00,2024,5,24,7,44,17,120,,,,,,,,,-0.441406,-0.115479,1.998779,-2.075195,-5.92041,-6.164551,,,,,,,,,,,0.0,1.0,1.0,0.0,0.0,0.0,0.0,6.0,0.0,0.005914706666666667,-0.046194653333333335,1.03095052,-0.9358723733333337,1.6381835999999999,-0.56884772,-14.731391484327036,8.870136885227955,1.1497493745853367,2.9048946035213836,4.637000355392872,5.333806234476905,7.64131362400641,-1.443326117955305,7.988806780635414,-1.3617112632752062,-0.4473207066666667,-0.06928434666666666,0.9678284800000001,1.4844335333333334,1.068451263280129,0.6675202429792655,0.6602160877872271,0.6648774133958104
LBP09_S00,LBP09,-1546,105,0,104,-1546,1716536657.16,2024-05-24 07:44:17.160000+00:00,2024-05-24 16:44:17.160000+09:00,2024,5,24,7,44,17,160,,,,,,,,,0.071777,-0.115967,1.847412,5.432129,5.432129,2.441406,,,,,,,,,,,0.0,1.0,1.0,0.0,0.0,0.0,0.0,6.0,0.0,0.0038639200000000016,-0.04518878666666667,1.02303712,-0.33691404000000025,2.5667317733333332,0.0024413333333332806,-14.618708638501584,8.53427819040134,3.3874782575378775,2.32014625798132,4.978371483008925,5.469305364778419,7.751165232044483,-1.4854154733201554,8.01041554915559,-1.335031817978014,0.06791307999999999,-0.07077821333333334,0.8243748800000001,0.9630661733333334,0.8301901497203877,0.6785890723116978,0.6663926722212455,0.6673084830476425
LBP09_S00,LBP09,-1545,106,0,105,-1545,1716536657.2,2024-05-24 07:44:17.200000+00:00,2024-05-24 16:44:17.200000+09:00,2024,5,24,7,44,17,200,,,,,,,,,-0.433594,-0.069092,0.383789,41.625977,131.958008,27.34375,,,,,,,,,,,0.0,1.0,1.0,0.0,0.0,0.0,0.0,6.0,0.0,0.0025813733333333345,-0.039970693333333335,0.9979199333333334,0.3694661599999999,2.7132161466666664,-0.1871745466666667,-13.355865841006954,7.1752304404795355,5.215847261994886,1.785911624341042,5.265380700628107,5.677939255258215,7.946867838268458,-1.5062528845355916,8.065096552134221,-1.3199708157200458,-0.43617537333333334,-0.029121306666666666,-0.6141309333333334,1.0794276133333334,0.7538261139555448,0.695405899451811,0.6632622697593308,0.6685623617564526
LBP09_S00,LBP09,-1544,107,0,106,-1544,1716536657.24,2024-05-24 07:44:17.240000+00:00,2024-05-24 16:44:17.240000+09:00,2024,5,24,7,44,17,240,,,,,,,,,0.016357,-0.109131,0.150146,-46.99707,-26.184082,11.291504,,,,,,,,,,,0.0,1.0,1.0,0.0,0.0,0.0,0.0,6.0,0.0,0.0030078133333333347,-0.03726236,0.9827441466666667,-0.02197264000000009,1.0286458400000003,-0.31656908,-11.135875851456731,4.951991471327731,6.51645172226048,1.3404765902827727,5.463460359481216,5.938597324148634,8.180049802238619,-1.4901938253791838,8.15053315917407,-1.3588082107767097,0.013349186666666665,-0.07186864000000001,-0.8325981466666666,0.9178159733333333,0.8358007992535538,0.6953043871974467,0.6676583363375151,0.6709514822921255
LBP09_S00,LBP09,-1543,108,0,107,-1543,1716536657.28,2024-05-24 07:44:17.280000+00:00,2024-05-24 16:44:17.280000+09:00,2024,5,24,7,44,17,280,,,,,,,,,0.042725,0.056152,0.421631,-14.160156,-92.285156,-4.516602,,,,,,,,,,,0.0,1.0,1.0,0.0,0.0,0.0,0.0,6.0,0.0,0.011435546666666668,-0.03836262666666667,0.98618164,-1.19222004,-1.7325846266666667,-0.7031250666666667,-8.215588018234,2.22734405584107,7.285211741206562,1.0118530695534127,5.552554121714858,6.230005793796896,8.406406848331827,-1.2809033698755004,8.259371596746918,-1.4090971229488676,0.03128945333333333,0.09451462666666667,-0.56455064,0.69035472,0.5732621299791639,0.680170964812302,0.6678416537297592,0.6695755759215204
LBP09_S00,LBP09,-1542,109,0,108,-1542,1716536657.32,2024-05-24 07:44:17.320000+00:00,2024-05-24 16:44:17.320000+09:00,2024,5,24,7,44,17,320,,,,,,,,,0.664795,-0.119873,0.886963,-18.371582,-60.36377,-11.169434,,,,,,,,,,,0.0,1.0,1.0,0.0,0.0,0.0,0.0,6.0,0.0,0.01608724,-0.037734373333333335,0.9969759066666668,-1.2499999866666667,-1.131998693333333,-1.1067709066666667,-4.9519737830579205,-0.6218993260397315,7.589797020626583,0.8137741182310959,5.527678148673269,6.5335976746219595,8.596822238748933,-1.167589641118621,8.37900488949098,-1.4517062240536602,0.6487077600000001,-0.08213862666666666,-0.11001290666666685,0.8408592933333336,0.6630771836733281,0.6883313590215847,0.6746732823354921,0.6694853204736289
LBP09_S00,LBP09,-1541,110,0,109,-1541,1716536657.36,2024-05-24 07:44:17.360000+00:00,2024-05-24 16:44:17.360000+09:00,2024,5,24,7,44,17,360,,,,,,,,,0.227539,-0.21582,1.4646,-31.860352,51.696777,18.310547,,,,,,,,,,,0.0,1.0,1.0,0.0,0.0,0.0,0.0,6.0,0.0,0.01401692,-0.043115226666666666,1.0148339866666667,-1.1173502533333335,0.8650716133333333,-0.5745443466666666,-1.8334741606517062,-3.349304523031001,7.510964365055778,0.7404351518050276,5.393705967752029,6.834036249224191,8.737525950536721,-1.2562334808142908,8.493508588008607,-1.4740719434807312,0.21352208,-0.17270477333333334,0.4497660133333332,0.8359928666666665,0.5269801553468636,0.6665022788905961,0.6696649138327515,0.6675331949239471
LBP09_S00,LBP09,-1540,111,0,110,-1540,1716536657.4,2024-05-24 07:44:17.400000+00:00,2024-05-24 16:44:17.400000+09:00,2024,5,24,7,44,17,400,,,,,,,,,-0.431885,-0.105713,1.930664,19.592285,-0.793457,3.356934,,,,,,,,,,,0.0,1.0,1.0,0.0,0.0,0.0,0.0,6.0,0.0,0.0004719999999999998,-0.04189777333333333,1.0278711066666666,0.02685548000000002,1.4200846399999996,-0.205892,0.5531731355116277,-5.832012235017878,7.098939158113254,0.7625620772254927,5.160425478351314,7.117993815548721,8.824813199010485,-1.5595219355332486,8.587501496000474,-1.48551053027267,-0.432357,-0.06381522666666667,0.9027928933333333,1.39896512,1.0030154369981996,0.680374613344777,0.6719463938776271,0.6720667387357613
LBP09_S00,LBP09,-1539,112,0,111,-1539,1716536657.44,2024-05-24 07:44:17.440000+00:00,2024-05-24 16:44:17.440000+09:00,2024,5,24,7,44,17,440,,,,,,,,,-0.031494,-0.108398,1.786865,0.732422,5.065918,5.187988,,,,,,,,,,,0.0,1.0,1.0,0.0,0.0,0.0,0.0,6.0,0.0,-0.0026269600000000002,-0.042496733333333335,1.0300813999999998,0.11149089333333331,1.5633137999999998,0.12939446666666665,1.6395517674730968,-7.9325750214784705,6.362122731191682,0.8281441479244166,4.843122477492176,7.372478724796388,8.859746080408106,-1.6325855287794544,8.650316366727719,-1.46584311509228,-0.02886704,-0.06590126666666665,0.7567836000000001,0.8515519066666668,0.7601958301487801,0.6938834514084686,0.6848017254831479,0.6732417932879349
LBP09_S00,LBP09,-1538,113,0,112,-1538,1716536657.48,2024-05-24 07:44:17.480000+00:00,2024-05-24 16:44:17.480000+09:00,2024,5,24,7,44,17,480,,,,,,,,,-0.373779,-0.022461,0.449951,36.132812,122.924805,21.42334,,,,,,,,,,,0.0,1.0,1.0,0.0,0.0,0.0,0.0,6.0,0.0,-0.004902360000000001,-0.03928384,1.00601564,0.83821616,2.4796549466666664,0.42724602666666667,1.0390819813542602,-9.360558393525698,5.283545090118656,0.869707427178587,4.468700141751148,7.583820528401135,8.845338081315761,-1.6950399832252507,8.67879728315934,-1.444310570093498,-0.36887664,0.016822840000000002,-0.55606464,0.94176412,0.6675034586739493,0.7110303985097088,0.6770629885979553,0.6688656041683212
LBP09_S00,LBP09,-1537,114,0,113,-1537,1716536657.52,2024-05-24 07:44:17.520000+00:00,2024-05-24 16:44:17.520000+09:00,2024,5,24,7,44,17,520,,,,,,,,,-0.019287,-0.115723,0.13208,15.136719,-41.687012,3.112793,,,,,,,,,,,0.0,1.0,1.0,0.0,0.0,0.0,0.0,6.0,0.0,-0.0038086133333333333,-0.0395052,0.9847395866666666,0.9277343866666666,2.3315429733333333,0.79101556,-1.3152605314205679,-9.676184155126423,3.847663411485425,0.8170970059217643,4.0816527755460905,7.737727064860552,8.786350609182684,-1.666983312226015,8.677992135039279,-1.4684733687740041,-0.015478386666666665,-0.0762178,-0.8526595866666666,0.9443557733333333,0.8561992199396199,0.7078660193340289,0.6798392131074855,0.6675880823942095
LBP09_S00,LBP09,-1536,115,0,114,-1536,1716536657.56,2024-05-24 07:44:17.560000+00:00,2024-05-24 16:44:17.560000+09:00,2024,5,24,7,44,17,560,,,,,,,,,0.049072,0.13501,0.38501,-10.925293,-115.41748,-16.967773,,,,,,,,,,,0.0,1.0,1.0,0.0,0.0,0.0,0.0,6.0,0.0,-0.0010644800000000007,-0.036715479999999995,0.9763411466666667,0.31656902666666664,-0.42887369333333347,0.4557291066666666,-5.126999282375913,-8.483023719659208,2.0617913255722473,0.6120170346267277,3.742331826759722,7.820198717883442,8.69109431196313,-1.5998013412395455,8.659598238910576,-1.5111808410642669,0.05013648,0.17172547999999999,-0.5913311466666666,0.8131931066666667,0.6177991843035531,0.6934150646518509,0.6814239431288882,0.6739071034055553
LBP09_S00,LBP09,-1535,116,0,115,-1535,1716536657.6,2024-05-24 07:44:17.600000+00:00,2024-05-24 16:44:17.600000+09:00,2024,5,24,7,44,17,600,,,,,,,,,0.527832,-0.149658,0.718506,-27.46582,-90.576172,1.708984,,,,,,,,,,,0.0,1.0,1.0,0.0,0.0,0.0,0.0,6.0,0.0,0.010429653333333332,-0.03904296,0.9896093866666666,0.2343750266666666,-1.3826497333333334,0.13590489333333328,-9.808434532064515,-5.710708198259221,-0.032572506064473955,0.21967965334414713,3.5139034988293534,7.818895817640863,8.57501654554091,-1.3095787327316895,8.638284069035409,-1.5545029487641169,0.5174023466666666,-0.11061504000000001,-0.27110338666666667,0.8991207733333333,0.5945064521706314,0.7013521950798589,0.6853495570293042,0.6665874103367538
LBP09_S00,LBP09,-1534,117,0,116,-1534,1716536657.64,2024-05-24 07:44:17.640000+00:00,2024-05-24 16:44:17.640000+09:00,2024,5,24,7,44,17,640,,,,,,,,,0.335693,-0.061523,1.109863,-65.795898,35.705566,16.967773,,,,,,,,,,,0.0,1.0,1.0,0.0,0.0,0.0,0.0,6.0,0.0,0.012493453333333333,-0.04100910666666667,1.00617188,-0.7682291466666668,0.19775390666666642,0.6477864,-14.6301762554517,-1.7926481587042156,-2.354065592125454,-0.36552739687392083,3.442197572481185,7.724733193955845,8.46485896655485,-1.2748683753913634,8.626856300346736,-1.5624928837486147,0.32319954666666667,-0.02051389333333333,0.10369112000000014,0.4474045600000001,0.34004501930198106,0.6739570796184688,0.6799805371056595,0.6625268669021692
LBP09_S00,LBP09,-1533,118,0,117,-1533,1716536657.68,2024-05-24 07:44:17.680000+00:00,2024-05-24 16:44:17.680000+09:00,2024,5,24,7,44,17,680,,,,,,,,,-0.17041,-0.135742,1.831543,-12.573242,47.912598,-12.634277,,,,,,,,,,,0.0,1.0,1.0,0.0,0.0,0.0,0.0,6.0,0.0,0.0020344666666666654,-0.04215493333333333,1.0233724000000002,-0.5053710666666666,1.3907877599999996,0.7836913466666666,-18.871348458483812,2.411055435252212,-4.778299959925667,-1.1203813352132734,3.538639789891273,7.533601195558818,8.398355367131192,-1.5225313566805643,8.632133925070898,-1.5652775650034048,-0.17244446666666668,-0.09358706666666666,0.8081705999999997,1.0742021333333331,0.8316461698556555,0.6794997413125483,0.6796830192888608,0.6659879061250923
LBP09_S00,LBP09,-1532,119,0,118,-1532,1716536657.72,2024-05-24 07:44:17.720000+00:00,2024-05-24 16:44:17.720000+09:00,2024,5,24,7,44,17,720,,,,,,,,,-0.125977,0.006592,1.89209,16.784668,-5.554199,-13.916016,,,,,,,,,,,0.0,1.0,1.0,0.0,0.0,0.0,0.0,6.0,0.0,-0.0010449600000000008,-0.04381184,1.0316992133333331,0.38248701333333335,1.210123693333333,0.7739257333333334,-21.909416293766057,5.928836339597692,-7.140988838422124,-1.9967579869639156,3.7757932434751806,7.247961642021933,8.412883277461912,-1.594664364021247,8.653043250794534,-1.5265449656029233,-0.12493204000000001,0.05040384,0.8603907866666669,1.035726666666667,0.8708736231429869,0.6975559589470481,0.6875433023172555,0.6735590009444078
LBP09_S00,LBP09,-1531,120,0,119,-1531,1716536657.76,2024-05-24 07:44:17.760000+00:00,2024-05-24 16:44:17.760000+09:00,2024,5,24,7,44,17,760,,,,,,,,,-0.134766,0.108643,0.87915,16.967773,139.892578,-5.737305,,,,,,,,,,,0.0,1.0,1.0,0.0,0.0,0.0,0.0,6.0,0.0,-0.005143266666666667,-0.04318032,1.0116145733333333,0.9163411866666666,2.291666653333333,0.86344396,-23.248259706224932,8.056831062528802,-9.251605218052768,-2.9266883752129127,4.098066485976332,6.877897433299822,8.524384251785056,-1.6894545578127897,8.681188230455568,-1.483124642531553,-0.12962273333333332,0.15182332,-0.13246457333333328,0.4139106266666666,0.2395813779929669,0.6939927168542127,0.6758206504575309,0.6667314374792135
LBP09_S00,LBP09,-1530,121,0,120,-1530,1716536657.8,2024-05-24 07:44:17.800000+00:00,2024-05-24 16:44:17.800000+09:00,2024,5,24,7,44,17,800,,,,,,,,,-0.226562,0.098389,-0.003662,-53.527832,9.70459,-10.314941,,,,,,,,,,,0.0,1.0,1.0,0.0,0.0,0.0,0.0,6.0,0.0,-0.002854853333333333,-0.04157225333333334,0.9853482933333333,1.25162764,2.351888013333333,0.8398437066666666,-22.53674197317003,8.590717224261597,-10.915647834464052,-3.828158054139714,4.441695174946796,6.441271519921259,8.71053551212376,-1.639421285378227,8.703199359633647,-1.4671364748326954,-0.2237071466666667,0.13996125333333334,-0.9890102933333333,1.3526786933333335,1.0236090074943973,0.7050473251189624,0.6804991743844433,0.669243963461988
LBP09_S00,LBP09,-1529,122,0,121,-1529,1716536657.84,2024-05-24 07:44:17.840000+00:00,2024-05-24 16:44:17.840000+09:00,2024,5,24,7,44,17,840,,,,,,,,,-0.055908,-0.119873,0.35376,-20.812988,-72.387695,-5.92041,,,,,,,,,,,0.0,1.0,1.0,0.0,0.0,0.0,0.0,6.0,0.0,-0.003251986666666667,-0.036207666666666666,0.9704426933333332,0.5607096666666667,-0.17496746666666715,0.4541015199999999,-19.62822626562216,7.793355314802456,-11.960610813378858,-4.6132871047646,4.753429387538894,5.9628470873861055,8.912522327649715,-1.6604323413273558,8.703783885683553,-1.492329441032197,-0.052656013333333335,-0.08366533333333333,-0.6166826933333331,0.7530040399999998,0.6245559126281583,0.6935029872645572,0.6813137797105822,0.6762286314937298
LBP09_S00,LBP09,-1528,123,0,122,-1528,1716536657.88,2024-05-24 07:44:17.880000+00:00,2024-05-24 16:44:17.880000+09:00,2024,5,24,7,44,17,880,,,,,,,,,0.393799,-0.027832,0.646729,-12.573242,-102.416992,-17.822266,,,,,,,,,,,0.0,1.0,1.0,0.0,0.0,0.0,0.0,6.0,0.0,0.010628213333333334,-0.03949217333333333,0.97971352,-0.69824216,-1.830240906666667,0.17252599999999993,-14.677502981631438,6.14516403781505,-12.263055371625311,-5.200387224029858,4.999235949051496,5.472324872521093,9.054431338552122,-1.3077139892204344,8.668408886372719,-1.5159920488978773,0.38317078666666665,0.011660173333333333,-0.33298452,0.7278154800000001,0.5077740658566031,0.7004879872432522,0.6784640177257505,0.6689097062969293
LBP09_S00,LBP09,-1527,124,0,123,-1527,1716536657.92,2024-05-24 07:44:17.920000+00:00,2024-05-24 16:44:17.920000+09:00,2024,5,24,7,44,17,920,,,,,,,,,0.30957,0.011475,1.039307,-62.866211,32.226562,-7.263184,,,,,,,,,,,0.0,1.0,1.0,0.0,0.0,0.0,0.0,6.0,0.0,0.014449826666666669,-0.04113931999999999,0.9909244533333333,-1.9067382533333335,-0.4825846533333337,0.4256184399999999,-8.21634783002799,4.0573449633527945,-11.774828829476526,-5.529041137230977,5.1615297475856075,5.001331719342032,9.067800405793033,-1.2327800815123144,8.585099503818196,-1.518311809236769,0.29512017333333335,0.05261431999999999,0.04838254666666664,0.39611704,0.3036528514592137,0.6728625300404336,0.6752116559270794,0.6623127931028034
LBP09_S00,LBP09,-1526,125,0,124,-1526,1716536657.96,2024-05-24 07:44:17.960000+00:00,2024-05-24 16:44:17.960000+09:00,2024,5,24,7,44,17,960,,,,,,,,,-0.157227,-0.062988,1.779785,0.366211,55.908203,-22.399902,,,,,,,,,,,0.0,1.0,1.0,0.0,0.0,0.0,0.0,6.0,0.0,0.005670533333333333,-0.04311848,1.0064062266666665,-1.85139972,1.3671874799999997,0.6722004799999999,-1.1352892916660828,1.7335572268311266,-10.542463534852027,-5.574452708897621,5.230872036658853,4.579633177947951,8.91120560374393,-1.4399196642509688,8.445716131656226,-1.5123269997437767,-0.16289753333333334,-0.01986952,0.7733787733333335,0.9561458266666668,0.7905979580252446,0.6767091998463244,0.6720726530043032,0.6655139756632201
LBP09_S00,LBP09,-1525,126,0,125,-1525,1716536658.0,2024-05-24 07:44:18+00:00,2024-05-24 16:44:18+09:00,2024,5,24,7,44,18,0,7.0,44.0,17.0,40.540882,141.542999,13.567,3.0,15.0,-0.279053,-0.012207,1.880371,17.150879,-36.193848,-20.690918,-300.0,179.0,244.0,166.0,0.0,1005.099976,22.26,-0.078287,68.036591,3.99375,0.0,1.0,1.0,0.0,0.0,0.0,0.0,5.0,0.0,0.00041662666666666736,-0.04489908,1.0180794133333333,-1.8416340933333333,0.6372070133333331,0.8797200133333333,5.467496127384614,-0.762753459064686,-8.70999256478429,-5.355752863802236,5.200361898296265,4.2312334753565795,8.580861806039968,-1.5615083947267052,8.247301594212995,-1.4641907648364887,-0.27946962666666664,0.03269208,0.8622915866666667,1.1744532933333334,0.9070384913332235,0.6923893430563675,0.6738656773761107,0.6698902868515278
LBP09_S00,LBP09,-1524,127,0,126,-1524,1716536658.04,2024-05-24 07:44:18.040000+00:00,2024-05-24 16:44:18.040000+09:00,2024,5,24,7,44,18,40,,,,,,,,,0.020752,-0.117676,1.275879,27.282715,84.04541,16.845703,,,,,,,,,,,0.0,1.0,1.0,0.0,0.0,0.0,0.0,5.0,0.0,0.002431600000000001,-0.040989573333333335,1.00564452,-1.3769531066666667,1.7325846133333331,0.5444335599999999,10.546262320803383,-3.331471657061263,-6.4985277982314535,-4.933902370970101,5.067103032013814,3.971292363427321,8.111108973446488,-1.5114944540481667,7.9932130145982585,-1.4174601112539529,0.018320399999999997,-0.07668642666666667,0.27023448000000005,0.3652413066666667,0.28150154399564575,0.6819097079816586,0.6751323903182075,0.6669487977465516
LBP09_S00,LBP09,-1523,128,0,127,-1523,1716536658.08,2024-05-24 07:44:18.080000+00:00,2024-05-24 16:44:18.080000+09:00,2024,5,24,7,44,18,80,,,,,,,,,-0.456055,0.082275,-0.032959,58.654785,50.292969,3.845215,,,,,,,,,,,0.0,1.0,1.0,0.0,0.0,0.0,0.0,5.0,0.0,0.00101884,-0.040670573333333335,0.9792578,-1.9026692533333331,2.4291991866666662,0.6713866933333332,13.389420568334103,-5.709979558421363,-4.167708407575931,-4.398325548236737,4.83870384967696,3.804584027124284,7.565261541585978,-1.5457289600694786,7.693031785789759,-1.386715428795822,-0.45707384,0.12294557333333334,-1.0122168,1.5922362133333334,1.1174144080943504,0.7035639122649653,0.677288696245417,0.6691243829334064
LBP09_S00,LBP09,-1522,129,0,128,-1522,1716536658.12,2024-05-24 07:44:18.120000+00:00,2024-05-24 16:44:18.120000+09:00,2024,5,24,7,44,18,120,,,,,,,,,0.018555,0.073242,0.290283,35.583496,-61.889648,-7.019043,,,,,,,,,,,0.0,1.0,1.0,0.0,0.0,0.0,0.0,5.0,0.0,0.0014257333333333336,-0.03964192,0.9649544133333332,-2.0296223733333334,-0.14404300000000017,0.2490234133333332,13.808580209496009,-7.510898421010991,-1.9762598209582503,-3.845982339856896,4.53826791283652,3.725533634285954,7.0190495558422,-1.5348162690913258,7.360882533739877,-1.4064841524790606,0.017129266666666663,0.11288392,-0.6746714133333331,0.8046845999999999,0.6842643547199441,0.6881964359225579,0.6778583394509117,0.6695428704990041
LBP09_S00,LBP09,-1521,130,0,129,-1521,1716536658.16,2024-05-24 07:44:18.160000+00:00,2024-05-24 16:44:18.160000+09:00,2024,5,24,7,44,18,160,,,,,,,,,0.263428,0.063721,0.51001,-16.479492,-108.520508,-8.117676,,,,,,,,,,,0.0,1.0,1.0,0.0,0.0,0.0,0.0,5.0,0.0,0.014466093333333332,-0.038144533333333334,0.9736685999999999,-3.2682291333333335,-2.21842452,-0.08951825333333345,12.153386914857588,-8.416565332868865,-0.15760852750312038,-3.3598468632625926,4.201605299521765,3.7192292931858293,6.540238877352755,-1.208092208739911,7.012843000700125,-1.4347001306942708,0.24896190666666668,0.10186553333333334,-0.4636585999999999,0.8144860399999999,0.5360390985798951,0.676430393876938,0.6775097330943178,0.6697385794398097
LBP09_S00,LBP09,-1520,131,0,130,-1520,1716536658.2,2024-05-24 07:44:18.200000+00:00,2024-05-24 16:44:18.200000+09:00,2024,5,24,7,44,18,200,,,,,,,,,0.593506,-0.109619,0.906982,-31.555176,-49.01123,-9.033203,,,,,,,,,,,0.0,1.0,1.0,0.0,0.0,0.0,0.0,5.0,0.0,0.017880813333333332,-0.04248046666666667,0.9855436,-4.2325846,-0.8512370266666669,-0.053710960000000106,9.152000537716804,-8.399920685726713,1.09041380304052,-2.9937668417539207,3.865608472092697,3.7628458453074503,6.169649715976395,-1.172114749552868,6.664289900783141,-1.4430839070632973,0.5756251866666666,-0.06713853333333333,-0.07856160000000001,0.7213253199999999,0.5848280629191334,0.6696704718354816,0.6825381856436463,0.6653983371180479
LBP09_S00,LBP09,-1519,132,0,131,-1519,1716536658.24,2024-05-24 07:44:18.240000+00:00,2024-05-24 16:44:18.240000+09:00,2024,5,24,7,44,18,240,,,,,,,,,0.259521,-0.023682,1.352051,-7.995605,49.01123,-1.403809,,,,,,,,,,,0.0,1.0,1.0,0.0,0.0,0.0,0.0,5.0,0.0,0.009671173333333333,-0.04373697333333334,1.0009765466666667,-3.4936523066666663,1.0335286000000001,0.008951799999999892,5.661455676554863,-7.800560377249367,1.6188557560298098,-2.7673086146917263,3.5535860570027222,3.827600075548643,5.910710039564719,-1.352985516746047,6.327549592295114,-1.4382208729337478,0.24984982666666666,0.020054973333333337,0.3510744533333332,0.6209792533333331,0.431370385659543,0.6534932552917212,0.674398821244584,0.6629366426555838
LBP09_S00,LBP09,-1518,133,0,132,-1518,1716536658.28,2024-05-24 07:44:18.280000+00:00,2024-05-24 16:44:18.280000+09:00,2024,5,24,7,44,18,280,,,,,,,,,-0.366211,-0.217773,1.932373,5.004883,9.643555,2.319336,,,,,,,,,,,0.0,1.0,1.0,0.0,0.0,0.0,0.0,5.0,0.0,0.00283524,-0.04333332,1.0107421733333333,-2.818196573333333,0.47200517333333325,-0.0382487200000001,2.445630607137853,-7.173943441803887,1.3589076338648018,-2.6694833904062123,3.2666283193305667,3.881956380903235,5.732938818053305,-1.5054012260528176,6.009872549483896,-1.4179458761729309,-0.36904624,-0.17443967999999999,0.9216308266666666,1.4651167466666666,1.0079819987871426,0.6708820500440404,0.6755265074281712,0.668855119167853
LBP09_S00,LBP09,-1517,134,0,133,-1517,1716536658.32,2024-05-24 07:44:18.320000+00:00,2024-05-24 16:44:18.320000+09:00,2024,5,24,7,44,18,320,,,,,,,,,-0.009766,-0.187988,1.764404,0.244141,-0.244141,19.287109,,,,,,,,,,,0.0,1.0,1.0,0.0,0.0,0.0,0.0,5.0,0.0,0.002486933333333334,-0.04452146666666667,0.9975716,-1.9734700133333332,1.4786783466666666,0.4923502399999999,0.06052553583472825,-6.989700929908722,0.3660025464651396,-2.667062368972823,2.9870402821342177,3.8965964827618405,5.587405075395495,-1.514939863664419,5.711927199007641,-1.383596457160086,-0.012252933333333334,-0.1434665333333333,0.7668324000000001,0.9225518666666668,0.7802337535967767,0.6755683128409783,0.6819498359312816,0.6749716258373208
LBP09_S00,LBP09,-1516,135,0,134,-1516,1716536658.36,2024-05-24 07:44:18.360000+00:00,2024-05-24 16:44:18.360000+09:00,2024,5,24,7,44,18,360,,,,,,,,,-0.317383,0.059814,0.470459,49.987793,121.21582,16.784668,,,,,,,,,,,0.0,1.0,1.0,0.0,0.0,0.0,0.0,5.0,0.0,0.0021093333333333333,-0.044856759999999996,0.9726725066666666,-2.0035806933333333,1.79687496,0.8561197733333332,-1.1509796047722667,-7.360778172895234,-1.1506896971837755,-2.7131015531637135,2.6926091552184084,3.8505688948744896,5.425674604574098,-1.5237574279412334,5.42768817252571,-1.3647850961969294,-0.3194923333333334,0.10467076,-0.5022135066666666,0.9263766,0.6043589375000468,0.6786634641271057,0.672582871508851,0.6726644305975362
LBP09_S00,LBP09,-1515,136,0,135,-1515,1716536658.4,2024-05-24 07:44:18.400000+00:00,2024-05-24 16:44:18.400000+09:00,2024,5,24,7,44,18,400,,,,,,,,,-0.013672,0.044434,0.0354,-8.972168,-34.484863,-2.01416,,,,,,,,,,,0.0,1.0,1.0,0.0,0.0,0.0,0.0,5.0,0.0,0.0024739199999999997,-0.04270832,0.9593977733333334,-1.2963866799999997,-0.4907226933333334,0.29703774666666655,-1.0144458031643844,-7.972801407537449,-2.846599024950057,-2.753679385290289,2.3736970989169106,3.7367049338764873,5.213458721159701,-1.5128780534312123,5.147055589166886,-1.3947217223853285,-0.01614592,0.08714232,-0.9239977733333334,1.0272860133333335,0.9282383098065857,0.6756723790394412,0.678023496192109,0.6731883889315651
LBP09_S00,LBP09,-1514,137,0,136,-1514,1716536658.44,2024-05-24 07:44:18.440000+00:00,2024-05-24 16:44:18.440000+09:00,2024,5,24,7,44,18,440,,,,,,,,,0.010254,0.0,0.335449,6.347656,-91.247559,-30.700684,,,,,,,,,,,0.0,1.0,1.0,0.0,0.0,0.0,0.0,5.0,0.0,0.012499960000000001,-0.046653639999999996,0.9678775866666668,-1.1555989199999996,-2.871907586666667,-0.2669270933333335,0.500810474378245,-8.268807126407582,-4.320598876927778,-2.7336469663151592,2.0429448138606072,3.563880978799376,4.934338545334321,-1.3087444864399957,4.861742742395843,-1.4324254640635643,-0.0022459600000000017,0.046653639999999996,-0.6324285866666668,0.6813281866666668,0.6341510259352805,0.670630586870901,0.682257019139685,0.680078012612399
LBP09_S00,LBP09,-1513,138,0,137,-1513,1716536658.48,2024-05-24 07:44:18.480000+00:00,2024-05-24 16:44:18.480000+09:00,2024,5,24,7,44,18,480,,,,,,,,,0.513916,-0.182129,0.648438,-10.009766,-108.642578,-20.324707,,,,,,,,,,,0.0,1.0,1.0,0.0,0.0,0.0,0.0,5.0,0.0,0.01729488,-0.04482096,0.9798209466666666,-1.1222330266666665,-1.8676758133333335,-0.5395507866666668,3.256042342922331,-7.788218480810293,-5.229142083009016,-2.603405272598266,1.7314160746281955,3.354715295479015,4.585808036823415,-1.2022347699410323,4.572528627070615,-1.4484751423107851,0.49662112,-0.13730804000000002,-0.3313829466666667,0.9653121066666668,0.6126179005058364,0.6684351645441766,0.6897327815269427,0.6741870472466959
LBP09_S00,LBP09,-1512,139,0,138,-1512,1716536658.52,2024-05-24 07:44:18.520000+00:00,2024-05-24 16:44:18.520000+09:00,2024,5,24,7,44,18,520,,,,,,,,,0.314453,0.000732,1.071045,-35.644531,17.272949,-9.94873,,,,,,,,,,,0.0,1.0,1.0,0.0,0.0,0.0,0.0,5.0,0.0,0.011171826666666664,-0.049072253333333336,0.99756508,-0.802408813333333,0.07405595999999984,0.18310546666666658,6.894864434002734,-6.451830094362672,-5.38232611384079,-2.327610695238157,1.4733428708536886,3.1394222509253837,4.176659291022893,-1.3467026594597573,4.292692937578871,-1.4525323402798187,0.3032811733333333,0.04980425333333334,0.07347992000000003,0.4265653466666667,0.3160051145025039,0.6468274003266921,0.6773467098303605,0.6688352755138878
LBP09_S00,LBP09,-1511,140,0,139,-1511,1716536658.56,2024-05-24 07:44:18.560000+00:00,2024-05-24 16:44:18.560000+09:00,2024,5,24,7,44,18,560,,,,,,,,,-0.164062,-0.235596,1.793213,4.211426,44.616699,10.192871,,,,,,,,,,,0.0,1.0,1.0,0.0,0.0,0.0,0.0,5.0,0.0,0.0032063199999999986,-0.050618466666666674,1.0060807066666666,-0.04557287999999971,-0.46956384000000023,0.5541992133333332,10.836748549125936,-4.613026390056515,-4.774652425243988,-1.8941407532731194,1.2888218152514281,2.9484361539156243,3.7339130437645176,-1.507458470623902,4.043039857610928,-1.43577293228157,-0.16726832000000003,-0.18497753333333333,0.7871322933333333,1.1393781466666666,0.8256952379188701,0.6551432424713046,0.6742791535615779,0.6726637095763605
LBP09_S00,LBP09,-1510,141,0,140,-1510,1716536658.6,2024-05-24 07:44:18.600000+00:00,2024-05-24 16:44:18.600000+09:00,2024,5,24,7,44,18,600,,,,,,,,,-0.214844,-0.013916,1.838379,23.31543,-22.583008,-13.366699,,,,,,,,,,,0.0,1.0,1.0,0.0,0.0,0.0,0.0,5.0,0.0,0.0010806799999999986,-0.04998370666666666,1.0015462,1.0693359733333336,-0.24414066666666676,0.7845051999999998,14.365533944710423,-2.8509331643542453,-3.541184772001678,-1.3195193954847024,1.1747844886772583,2.806788763035557,3.3165212482659707,-1.5491521663352257,3.8433029825058633,-1.4050257880088783,-0.21592468,0.036067706666666664,0.8368328,1.0888251866666667,0.8649933422016236,0.6659627180725444,0.6836574565762017,0.678887277377051
LBP09_S00,LBP09,-1509,142,0,141,-1509,1716536658.64,2024-05-24 07:44:18.640000+00:00,2024-05-24 16:44:18.640000+09:00,2024,5,24,7,44,18,640,,,,,,,,,-0.057129,-0.166992,1.025391,32.104492,113.037109,36.071777,,,,,,,,,,,0.0,1.0,1.0,0.0,0.0,0.0,0.0,5.0,0.0,0.002825466666666666,-0.04930661333333334,0.9758723733333333,1.26790368,0.5680338133333331,1.2532552,16.811574465624393,-1.6464611790412957,-1.871845988294399,-0.6470564168597267,1.1089260415156064,2.731914923503781,3.0185688863124343,-1.513482299218257,3.708359356406336,-1.3799989525359346,-0.059954466666666664,-0.11768538666666667,0.04951862666666662,0.22715847999999994,0.14105489248912992,0.6580031130000303,0.6659800963092496,0.6726547290704499
LBP09_S00,LBP09,-1508,143,0,142,-1508,1716536658.68,2024-05-24 07:44:18.680000+00:00,2024-05-24 16:44:18.680000+09:00,2024,5,24,7,44,18,680,,,,,,,,,-0.283691,0.195312,-0.022461,79.406738,22.949219,-4.02832,,,,,,,,,,,0.0,1.0,1.0,0.0,0.0,0.0,0.0,5.0,0.0,0.0011587999999999987,-0.046728479999999996,0.9551660000000001,1.6349284133333337,-0.19287113333333356,1.1458333333333333,17.759928070184895,-1.143548479799432,0.06420788173790783,0.06334070594766905,1.063184102323629,2.7344832387732976,2.9345819231358585,-1.5459732057431514,3.6488417851666264,-1.399729454967291,-0.28484980000000004,0.24204048,-0.977627,1.50451728,1.0466506359085015,0.6666032916421442,0.6730515164773462,0.6753231100732885
LBP09_S00,LBP09,-1507,144,0,143,-1507,1716536658.72,2024-05-24 07:44:18.720000+00:00,2024-05-24 16:44:18.720000+09:00,2024,5,24,7,44,18,720,,,,,,,,,0.063721,0.081055,0.363525,17.211914,-58.349609,-1.525879,,,,,,,,,,,0.0,1.0,1.0,0.0,0.0,0.0,0.0,5.0,0.0,0.010683546666666665,-0.04706701333333333,0.95835936,1.141764346666667,-3.4057617600000003,0.5167643199999999,17.18382809435527,-1.1317634890457513,2.1441888806180494,0.7506938297218799,1.017913562761799,2.8202507939980195,3.0908742757160765,-1.3473457836819327,3.6723409648974212,-1.4357127036692297,0.05303745333333333,0.12812201333333334,-0.59483436,0.7759938266666666,0.6107832165288123,0.6561996753775772,0.6768778171623127,0.6770954266706961
LBP09_S00,LBP09,-1506,145,0,144,-1506,1716536658.76,2024-05-24 07:44:18.760000+00:00,2024-05-24 16:44:18.760000+09:00,2024,5,24,7,44,18,760,,,,,,,,,0.263184,-0.101807,0.531982,-30.517578,-107.116699,-7.324219,,,,,,,,,,,0.0,1.0,1.0,0.0,0.0,0.0,0.0,5.0,0.0,0.016064413333333333,-0.04343745333333333,0.9703092400000001,1.8774414266666668,-3.0712891066666668,0.1684570266666666,15.431023201052101,-1.2413130815375764,4.262147961274228,1.367934757763964,0.968261039500296,2.9907367124489888,3.428305853523448,-1.2162859852143166,3.7835536788526825,-1.4552533588349743,0.24711958666666664,-0.05836954666666667,-0.4383272400000001,0.7438163733333334,0.506562793164277,0.6668789319844296,0.6804358244193212,0.6728400776331639
LBP09_S00,LBP09,-1505,146,0,145,-1505,1716536658.8,2024-05-24 07:44:18.800000+00:00,2024-05-24 16:44:18.800000+09:00,2024,5,24,7,44,18,800,,,,,,,,,0.406006,0.255371,1.061035,21.42334,-3.845215,-32.348633,,,,,,,,,,,0.0,1.0,1.0,0.0,0.0,0.0,0.0,5.0,0.0,0.014970653333333335,-0.047076773333333335,0.9881738266666665,1.6878255333333336,-1.2931315600000004,0.35563150666666654,13.068509144167606,-1.203855299409382,6.2771734316883006,1.8906751235306682,0.9201068275239207,3.2418236497165207,3.8640224601644313,-1.2626096987017748,3.9829141629821665,-1.4565869474741253,0.3910353466666666,0.30244777333333334,0.07286117333333342,0.7663442933333334,0.4996919536239518,0.6459222498296117,0.6754847874742872,0.6689735328661661
LBP09_S00,LBP09,-1504,147,0,146,-1504,1716536658.84,2024-05-24 07:44:18.840000+00:00,2024-05-24 16:44:18.840000+09:00,2024,5,24,7,44,18,840,,,,,,,,,-0.051514,-0.351074,1.779053,-48.706055,56.396484,36.499023,,,,,,,,,,,0.0,1.0,1.0,0.0,0.0,0.0,0.0,5.0,0.0,0.0029035999999999984,-0.04482742666666667,1.0013639333333333,2.2460937600000004,-0.7625326000000001,0.4923502666666666,10.667654126794432,-0.9977374682667609,7.988569042494467,2.3173812886024456,0.8801973287932503,3.5613664114162993,4.339162832937214,-1.5060495107535594,4.2637654367317435,-1.4375559437325909,-0.054417599999999997,-0.3062465733333333,0.7776890666666667,1.13835324,0.8375849349654277,0.6544434107231025,0.6739731989938299,0.672356990048089
LBP09_S00,LBP09,-1503,148,0,147,-1503,1716536658.88,2024-05-24 07:44:18.880000+00:00,2024-05-24 16:44:18.880000+09:00,2024,5,24,7,44,18,880,,,,,,,,,-0.365967,-0.105957,1.860352,54.260254,-28.930664,4.516602,,,,,,,,,,,0.0,1.0,1.0,0.0,0.0,0.0,0.0,5.0,0.0,0.0003677999999999985,-0.042171186666666666,1.0035318933333335,2.658691426666667,-0.9602865066666667,0.2441406266666666,8.633984119926314,-0.7930873761165604,9.168485449504606,2.6627406533994984,0.8484738337485879,3.9281058293964835,4.82079983413137,-1.5620672569604208,4.609367230919171,-1.4001581492756034,-0.36633479999999996,-0.06378581333333333,0.8568201066666665,1.2869407199999998,0.9340291809477436,0.6714936153267481,0.6859908012850002,0.6761405502594164
LBP09_S00,LBP09,-1502,149,0,148,-1502,1716536658.92,2024-05-24 07:44:18.920000+00:00,2024-05-24 16:44:18.920000+09:00,2024,5,24,7,44,18,920,,,,,,,,,0.059082,-0.182373,1.571045,-18.981934,45.410156,31.066895,,,,,,,,,,,0.0,1.0,1.0,0.0,0.0,0.0,0.0,5.0,0.0,0.0011295199999999993,-0.039394493333333336,0.9837792933333332,2.901204453333334,0.8129882266666666,0.37190754666666664,7.144094390148707,-0.7588063148080358,9.640587185671544,2.9485044290054465,0.8181215811562664,4.313729316823345,5.288786430575502,-1.5421092111172023,4.993317997805403,-1.3628605892526449,0.05795248,-0.14297850666666667,0.5872657066666668,0.7881966933333334,0.6071921883007718,0.6836351888004104,0.678248859420422,0.6780195002181897
LBP09_S00,LBP09,-1501,150,0,149,-1501,1716536658.96,2024-05-24 07:44:18.960000+00:00,2024-05-24 16:44:18.960000+09:00,2024,5,24,7,44,18,960,,,,,,,,,-0.56543,0.066406,0.085693,51.147461,89.96582,16.906738,,,,,,,,,,,0.0,1.0,1.0,0.0,0.0,0.0,0.0,5.0,0.0,0.001940066666666665,-0.038798799999999994,0.9635644533333334,2.8011068,0.3597004666666665,0.48502603999999994,6.182450594714619,-0.8789243282607035,9.359247399185564,3.195802452794031,0.7829646080258383,4.6880992127907675,5.727517885059357,-1.520794357015413,5.386467013708646,-1.3767651692263585,-0.5673700666666667,0.1052048,-0.8778714533333334,1.55044632,1.0505403995420437,0.6940328864610824,0.6853710431537032,0.6793927308232296
LBP09_S00,LBP09,-1500,151,0,150,-1500,1716536659.0,2024-05-24 07:44:19+00:00,2024-05-24 16:44:19+09:00,2024,5,24,7,44,19,0,7.0,44.0,18.0,40.540909,141.542877,13.539,3.0,15.0,-0.015381,0.043701,0.231689,23.193359,-35.583496,8.666992,-300.0,175.0,249.0,189.0,0.0,1005.700012,22.32,-0.072341,63.012268,3.99375,0.0,1.0,1.0,0.0,0.0,0.0,0.0,8.0,0.0,0.008131466666666665,-0.03781572,0.9645931066666666,2.1028646133333337,-2.38199876,0.19531249333333328,5.619617779771198,-0.9091453185132211,8.44139890639109,3.4205871639848793,0.7465987952853095,5.025755169046411,6.125033985761737,-1.3588421289198789,5.765026280031764,-1.4151882286514965,-0.023512466666666666,0.08151671999999999,-0.7329041066666666,0.8379332933333332,0.73779823888186,0.6872632763630279,0.6898263097096978,0.6783315437050832
LBP09_S00,LBP09,-1499,152,0,151,-1499,1716536659.04,2024-05-24 07:44:19.040000+00:00,2024-05-24 16:44:19.040000+09:00,2024,5,24,7,44,19,40,,,,,,,,,0.151855,-0.017822,0.474121,-16.418457,-96.435547,-5.859375,,,,,,,,,,,0.0,1.0,1.0,0.0,0.0,0.0,0.0,8.0,0.0,0.016298786666666665,-0.03543616,0.9782747466666666,1.4689127866666671,-2.0621745333333337,0.1855468666666666,5.266847956079138,-0.509556530557917,7.131370477234975,3.6312610822280447,0.7262165340629928,5.31100998813581,6.474586828186706,-1.1395043546483847,6.1121820352795355,-1.4554453528441984,0.13555621333333331,0.01761416,-0.5041537466666666,0.6573241199999998,0.5223569142682187,0.696897491173931,0.6894035995777947,0.682387423936782
LBP09_S00,LBP09,-1498,153,0,152,-1498,1716536659.08,2024-05-24 07:44:19.080000+00:00,2024-05-24 16:44:19.080000+09:00,2024,5,24,7,44,19,80,,,,,,,,,0.604248,-0.009766,1.037354,7.629395,-41.015625,-17.211914,,,,,,,,,,,0.0,1.0,1.0,0.0,0.0,0.0,0.0,8.0,0.0,0.016458293333333332,-0.039192679999999994,0.9952636800000001,0.767415386666667,0.4475910799999997,0.7796223866666666,4.8782970070061955,0.5322256516273693,5.717173677955133,3.8263929625082924,0.7475055601280876,5.539696935254015,6.774089591998184,-1.1729976055135654,6.415279754144146,-1.4679858540745743,0.5877897066666666,0.029426679999999993,0.042090320000000014,0.6593067066666667,0.5900290364014392,0.6758020763062142,0.6896829942855898,0.6767931562656828
LBP09_S00,LBP09,-1497,154,0,153,-1497,1716536659.12,2024-05-24 07:44:19.120000+00:00,2024-05-24 16:44:19.120000+09:00,2024,5,24,7,44,19,120,,,,,,,,,0.132568,-0.192383,1.591064,-47.485352,57.189941,25.817871,,,,,,,,,,,0.0,1.0,1.0,0.0,0.0,0.0,0.0,8.0,0.0,0.003190066666666665,-0.03773109333333333,1.0119205733333332,1.005859386666667,1.2768553999999996,0.9741210933333332,4.1258331998236475,2.1432400261053894,4.440772526962343,3.9914262905012383,0.8332351611723031,5.717327836332508,7.022364434748518,-1.486391583419068,6.664138383107766,-1.4670288765115418,0.12937793333333333,-0.15465190666666667,0.5791434266666668,0.8631732666666668,0.6132397333184215,0.6729610914501535,0.6805787636863557,0.676225923450659
LBP09_S00,LBP09,-1496,155,0,154,-1496,1716536659.16,2024-05-24 07:44:19.160000+00:00,2024-05-24 16:44:19.160000+09:00,2024,5,24,7,44,19,160,,,,,,,,,-0.344727,-0.049072,1.945801,9.216309,-12.939453,-4.943848,,,,,,,,,,,0.0,1.0,1.0,0.0,0.0,0.0,0.0,8.0,0.0,-0.0011361066666666685,-0.03824217333333333,1.0215169333333334,1.9710286533333339,0.607910093333333,0.5761718799999999,2.6049941253950686,3.984517889644664,3.4415217357621963,4.095626055517041,0.9926158767580897,5.854988705762996,7.2138985167546235,-1.6005165794656977,6.85267370999946,-1.4398767028294894,-0.3435908933333333,-0.010829826666666667,0.9242840666666665,1.2787047866666665,0.9861404681996876,0.6909651462349451,0.6836977700559416,0.6819948708078604
LBP09_S00,LBP09,-1495,156,0,155,-1495,1716536659.2,2024-05-24 07:44:19.200000+00:00,2024-05-24 16:44:19.200000+09:00,2024,5,24,7,44,19,200,,,,,,,,,0.079102,-0.203125,1.811523,2.563477,12.817383,-0.549316,,,,,,,,,,,0.0,1.0,1.0,0.0,0.0,0.0,0.0,8.0,0.0,-0.003362666666666668,-0.035543613333333335,1.0007845066666665,2.62288412,1.5128579999999998,1.0498046933333331,-0.08207583834556949,5.633129102336397,2.747887813040383,4.092343021983218,1.2179410408515456,5.9649042182846115,7.335580012642139,-1.6651809406287943,6.982911320463546,-1.4043562685122866,0.08246466666666667,-0.16758138666666667,0.8107384933333335,1.0607845466666668,0.831974066289311,0.7008509863697523,0.685260729102617,0.6886424525523483
LBP09_S00,LBP09,-1494,157,0,156,-1494,1716536659.24,2024-05-24 07:44:19.240000+00:00,2024-05-24 16:44:19.240000+09:00,2024,5,24,7,44,19,240,,,,,,,,,-0.439453,-0.099365,0.352295,31.555176,130.554199,13.000488,,,,,,,,,,,0.0,1.0,1.0,0.0,0.0,0.0,0.0,8.0,0.0,-0.0022493733333333343,-0.0370638,0.9772102800000001,2.322591146666667,1.3419595599999996,1.3012695466666666,-4.174597639474715,6.805058098665408,2.3080562691233824,3.9253591164042296,1.490143364798162,6.057226469049547,7.370140021583323,-1.6314545230573185,7.068534136396133,-1.4087327568358048,-0.4372036266666666,-0.062301199999999994,-0.6249152800000001,1.1244201066666668,0.7652107930952128,0.7142046026671791,0.6838489289794503,0.6876674150521157
LBP09_S00,LBP09,-1493,158,0,157,-1493,1716536659.28,2024-05-24 07:44:19.280000+00:00,2024-05-24 16:44:19.280000+09:00,2024,5,24,7,44,19,280,,,,,,,,,-0.105469,0.041748,-0.036621,26.672363,-11.474609,3.112793,,,,,,,,,,,0.0,1.0,1.0,0.0,0.0,0.0,0.0,8.0,0.0,0.0006835733333333323,-0.03737956,0.9713216133333333,2.2143554800000005,-1.8758138800000002,1.2060547066666665,-9.598743171997107,7.475850287823158,2.0383688593553244,3.5414093895243455,1.789177376311088,6.13876122342376,7.309386123767563,-1.5524974813300951,7.134171618364945,-1.4464136250682351,-0.10615257333333332,0.07912756,-1.0079426133333333,1.1932227466666667,1.0166011269667528,0.7145493677943635,0.6927157089192019,0.6885341275502351
LBP09_S00,LBP09,-1492,159,0,158,-1492,1716536659.32,2024-05-24 07:44:19.320000+00:00,2024-05-24 16:44:19.320000+09:00,2024,5,24,7,44,19,320,,,,,,,,,0.008301,0.170166,0.302246,-22.521973,-68.969727,0.488281,,,,,,,,,,,0.0,1.0,1.0,0.0,0.0,0.0,0.0,8.0,0.0,0.012486946666666665,-0.04036784,0.9824121066666667,2.265625013333333,-2.7856446133333335,1.2833658933333332,-15.897826739712624,7.823423596165914,1.8682776899389193,2.9054963199358403,2.1021143201577246,6.213492331021317,7.174139699492449,-1.2705874742966792,7.208481585125855,-1.4822858902958798,-0.004185946666666666,0.21053384000000003,-0.6801661066666667,0.8948858933333333,0.7120168204422794,0.7118206904681835,0.6936945016545809,0.6919067874435822
LBP09_S00,LBP09,-1491,160,0,159,-1491,1716536659.36,2024-05-24 07:44:19.360000+00:00,2024-05-24 16:44:19.360000+09:00,2024,5,24,7,44,19,360,,,,,,,,,0.531494,-0.154785,0.759521,-64.331055,-67.810059,-0.366211,,,,,,,,,,,0.0,1.0,1.0,0.0,0.0,0.0,0.0,8.0,0.0,0.017067026666666665,-0.03981445333333333,0.9954752533333334,1.8513997466666667,-1.1783855066666673,1.4542643333333332,-22.295714545788552,8.037889831693024,1.7664985483520421,2.0136677381042984,2.4236299134254455,6.2841522729553985,7.029893989700216,-1.1655900138433828,7.314426164346517,-1.4804301491656389,0.5144269733333333,-0.11497054666666667,-0.23595425333333342,0.8653517733333334,0.5775186119596641,0.7107470774465683,0.694705270786837,0.6853042734880901
LBP09_S00,LBP09,-1490,161,0,160,-1490,1716536659.4,2024-05-24 07:44:19.400000+00:00,2024-05-24 16:44:19.400000+09:00,2024,5,24,7,44,19,400,,,,,,,,,0.295898,-0.0896,1.189941,-43.640137,39.489746,8.789062,,,,,,,,,,,0.0,1.0,1.0,0.0,0.0,0.0,0.0,8.0,0.0,0.0071549199999999995,-0.04217448,1.0124055866666666,1.8457031333333336,0.41748037333333293,1.7089843866666665,-27.86806653850024,8.141498170493207,1.742274852054552,0.8989450765642888,2.749289840245174,6.353843267037581,6.981262145087614,-1.40260701215506,7.46287421616937,-1.467115049294863,0.28874308,-0.04742552,0.17753541333333334,0.5137040133333333,0.34225804473027993,0.687307866843516,0.6814901229414787,0.6811182864092448
LBP09_S00,LBP09,-1489,162,0,161,-1489,1716536659.44,2024-05-24 07:44:19.440000+00:00,2024-05-24 16:44:19.440000+09:00,2024,5,24,7,44,19,440,,,,,,,,,-0.319092,-0.075439,1.916504,-27.22168,46.447754,3.78418,,,,,,,,,,,0.0,1.0,1.0,0.0,0.0,0.0,0.0,8.0,0.0,0.0023730266666666658,-0.04355144,1.0214192533333335,2.6961263066666667,-0.19449878666666712,1.6935221466666666,-31.740390537536662,7.954057083080656,1.8243007071269217,-0.37067054493717766,3.0674521235684002,6.426815295322657,7.13096164787482,-1.5163130369726896,7.651805592921216,-1.4221577799005398,-0.32146502666666665,-0.03188756000000001,0.8950847466666665,1.2484373333333332,0.9515951258638754,0.7000056308406599,0.6853181088557805,0.6881732230400099
LBP09_S00,LBP09,-1488,163,0,162,-1488,1716536659.48,2024-05-24 07:44:19.480000+00:00,2024-05-24 16:44:19.480000+09:00,2024,5,24,7,44,19,480,,,,,,,,,-0.187744,-0.104736,2.032471,-33.325195,-34.301758,-5.615234,,,,,,,,,,,0.0,1.0,1.0,0.0,0.0,0.0,0.0,8.0,0.0,0.0016633999999999993,-0.04258465333333333,1.0056738133333332,3.212890626666667,0.8317056399999996,2.35514324,-33.23498299225025,7.225215055694728,2.02578424419577,-1.7000698646271877,3.3564607257961896,6.507846665090488,7.517189259607289,-1.5317202577900118,7.869067130047107,-1.374536855443211,-0.1894074,-0.06215134666666666,1.026797186666667,1.2783559333333336,1.0459686494411877,0.7173396607980739,0.6928874126711253,0.6989350746173197
LBP09_S00,LBP09,-1487,164,0,163,-1487,1716536659.52,2024-05-24 07:44:19.520000+00:00,2024-05-24 16:44:19.520000+09:00,2024,5,24,7,44,19,520,,,,,,,,,-0.140137,0.071045,0.974365,2.624512,132.019043,-4.699707,,,,,,,,,,,0.0,1.0,1.0,0.0,0.0,0.0,0.0,8.0,0.0,0.004332679999999999,-0.04196941333333333,0.981569,3.0061848933333337,0.9733072133333329,2.704264333333333,-31.940434961178894,5.831912539201281,2.3091775027019192,-2.977687263074343,3.5897372273642407,6.600213765198565,8.081810226955128,-1.4678341721166612,8.095922796131898,-1.3493778362973186,-0.14446968000000002,0.11301441333333333,-0.007203999999999988,0.2646880933333333,0.18356373191995176,0.7120420054947718,0.6794347029107319,0.6889118083851643
LBP09_S00,LBP09,-1486,165,0,164,-1486,1716536659.56,2024-05-24 07:44:19.560000+00:00,2024-05-24 16:44:19.560000+09:00,2024,5,24,7,44,19,560,,,,,,,,,-0.296387,0.039062,0.013672,-41.07666,20.812988,5.737305,,,,,,,,,,,0.0,1.0,1.0,0.0,0.0,0.0,0.0,8.0,0.0,0.004182933333333333,-0.04033204,0.96946288,2.7335612000000005,-1.259765706666667,2.3982747466666665,-27.730340099279317,3.897541395064375,2.567827380435128,-4.086900867045516,3.7456388831668157,6.70292686041597,8.698379034983153,-1.4673655807579382,8.309854022032837,-1.3725460424646392,-0.3005699333333334,0.07939404,-0.95579088,1.3357548533333334,1.0050780590096973,0.7192173183384049,0.6871802804048548,0.6892585418205202
LBP09_S00,LBP09,-1485,166,0,165,-1485,1716536659.6,2024-05-24 07:44:19.600000+00:00,2024-05-24 16:44:19.600000+09:00,2024,5,24,7,44,19,600,,,,,,,,,0.026367,-0.043945,0.324951,10.192871,-82.03125,-1.831055,,,,,,,,,,,0.0,1.0,1.0,0.0,0.0,0.0,0.0,8.0,0.0,0.015670573333333333,-0.04228190666666667,0.9792675733333334,1.618652346666667,-3.088378986666667,2.316894533333333,-20.7743427845235,1.7451090363810025,2.6391366028441032,-4.917874578426456,3.8154432446220556,6.808492324529734,9.224893780160592,-1.2156082466855616,8.486562710794907,-1.4143629520661989,0.010696426666666668,-0.0016630933333333306,-0.6543165733333334,0.6666760933333333,0.6544061105777865,0.7107938290734515,0.688378273572998,0.692702914075285
LBP09_S00,LBP09,-1484,167,0,166,-1484,1716536659.64,2024-05-24 07:44:19.640000+00:00,2024-05-24 16:44:19.640000+09:00,2024,5,24,7,44,19,640,,,,,,,,,0.541504,0.051025,0.719482,-40.771484,-101.806641,-3.295898,,,,,,,,,,,0.0,1.0,1.0,0.0,0.0,0.0,0.0,8.0,0.0,0.019414053333333334,-0.0440332,0.98995768,0.5721028666666669,-2.0336914933333334,2.5553385466666665,-11.561193739071498,-0.2859806506784366,2.3526534973649227,-5.380322327989316,3.804004018594918,6.902598464424331,9.542755392842247,-1.1552452784840295,8.602606436036972,-1.4326926211428452,0.5220899466666666,0.09505820000000001,-0.27047568,0.8876238266666666,0.5956266173275883,0.7289766980669897,0.69348990553351,0.6869789635618296
LBP09_S00,LBP09,-1483,168,0,167,-1483,1716536659.68,2024-05-24 07:44:19.680000+00:00,2024-05-24 16:44:19.680000+09:00,2024,5,24,7,44,19,680,,,,,,,,,0.242676,-0.175293,1.214355,-50.720215,39.18457,14.282227,,,,,,,,,,,0.0,1.0,1.0,0.0,0.0,0.0,0.0,8.0,0.0,0.012985013333333333,-0.04698568,1.0071289066666667,0.5859374933333336,-0.23356128000000032,2.98177084,-0.9117584031824123,-2.024320168980866,1.6015962712031033,-5.416792664116612,3.7230312118356834,6.966662315272456,9.577942784615473,-1.3009072898711707,8.640858660747828,-1.4387859383099948,0.22969098666666668,-0.12830732,0.20722609333333342,0.5652244000000001,0.33490800450225827,0.70050699281074,0.683555142226442,0.6822033419218108
LBP09_S00,LBP09,-1482,169,0,168,-1482,1716536659.72,2024-05-24 07:44:19.720000+00:00,2024-05-24 16:44:19.720000+09:00,2024,5,24,7,44,19,720,,,,,,,,,-0.284912,-0.211914,1.886475,18.981934,38.024902,4.699707,,,,,,,,,,,0.0,1.0,1.0,0.0,0.0,0.0,0.0,8.0,0.0,0.003124986666666666,-0.04557617333333333,1.0205175866666665,1.4444986933333337,-0.18391936000000034,2.8531901066666663,10.06927581264911,-3.5118645316450374,0.4137646953301256,-5.014021631610648,3.582556630569882,6.9832129030856605,9.313451958501842,-1.5022695359698843,8.598362637304174,-1.4258112793334008,-0.28803698666666666,-0.16633782666666666,0.8659574133333334,1.3203322266666668,0.9276399193518794,0.7131812609236627,0.68469046815062,0.6889789650827627
LBP09_S00,LBP09,-1481,170,0,169,-1481,1716536659.76,2024-05-24 07:44:19.760000+00:00,2024-05-24 16:44:19.760000+09:00,2024,5,24,7,44,19,760,,,,,,,,,-0.173828,0.032227,1.818604,29.11377,-35.705566,-8.361816,,,,,,,,,,,0.0,1.0,1.0,0.0,0.0,0.0,0.0,8.0,0.0,-0.0006119866666666674,-0.04725910666666666,1.0193912799999998,1.813964826666667,0.6567381999999997,3.236490893333333,20.14370409993146,-4.881644912019397,-1.008349423663567,-4.20827346761339,3.387290834089106,6.942878926139118,8.796980877320898,-1.5837591098589827,8.490312184606484,-1.4054911168594568,-0.17321601333333334,0.07948610666666667,0.7992127200000003,1.0519148400000002,0.8216220543765346,0.725783631372153,0.6963312816782913,0.6955517600702651
LBP09_S00,LBP09,-1480,171,0,170,-1480,1716536659.8,2024-05-24 07:44:19.800000+00:00,2024-05-24 16:44:19.800000+09:00,2024,5,24,7,44,19,800,,,,,,,,,-0.144775,-0.027588,0.769287,64.51416,117.370605,26.489258,,,,,,,,,,,0.0,1.0,1.0,0.0,0.0,0.0,0.0,8.0,0.0,-0.0006412800000000011,-0.042483719999999996,0.9931087333333333,2.08333332,0.9415689199999997,3.1795247466666665,28.17920187662046,-6.17157835039088,-2.305053368880434,-3.0811053925485714,3.1404277000734706,6.850676791383901,8.141699397508278,-1.5859037029215226,8.345114880834606,-1.384058319058776,-0.14413372,0.014895719999999994,-0.22382173333333322,0.3828511733333332,0.2666319186213356,0.7164612299720483,0.6811917399008302,0.6891436016402075
LBP09_S00,LBP09,-1479,172,0,171,-1479,1716536659.84,2024-05-24 07:44:19.840000+00:00,2024-05-24 16:44:19.840000+09:00,2024,5,24,7,44,19,840,,,,,,,,,-0.175049,0.036621,0.063232,26.733398,-2.929688,12.817383,,,,,,,,,,,0.0,1.0,1.0,0.0,0.0,0.0,0.0,8.0,0.0,-0.0002539066666666678,-0.03939778666666666,0.9732877733333334,2.0743814933333335,0.1440428799999997,2.890625013333333,33.40269685935748,-7.224001941767823,-3.047278578284947,-1.7449975181742723,2.8514676224027578,6.728785648252503,7.513483894983369,-1.5772462086441856,8.195801111554445,-1.413910186823795,-0.17479509333333335,0.07601878666666667,-0.9100557733333334,1.1608696533333336,0.9298030389050213,0.720149954129632,0.6872966824263673,0.6893654507057639
LBP09_S00,LBP09,-1478,173,0,172,-1478,1716536659.88,2024-05-24 07:44:19.880000+00:00,2024-05-24 16:44:19.880000+09:00,2024,5,24,7,44,19,880,,,,,,,,,0.044922,0.037354,0.34668,70.129395,-86.914062,-32.836914,,,,,,,,,,,0.0,1.0,1.0,0.0,0.0,0.0,0.0,8.0,0.0,0.00685872,-0.04027342666666667,0.9744205866666668,0.9513346133333335,-2.8181966933333333,2.74739584,35.569026097399274,-7.756198918121253,-2.8827147294758735,-0.32223647427830127,2.541219665677908,6.6134770590734675,7.092229025170752,-1.401973668024072,8.07485161603056,-1.4579391427539137,0.03806328,0.07762742666666667,-0.6277405866666668,0.7434312933333335,0.6336663749985935,0.7081354418916661,0.6898145286092071,0.6933723481538888
LBP09_S00,LBP09,-1477,174,0,173,-1477,1716536659.92,2024-05-24 07:44:19.920000+00:00,2024-05-24 16:44:19.920000+09:00,2024,5,24,7,44,19,920,,,,,,,,,0.356689,-0.156006,0.738281,28.564453,-103.393555,-44.189453,,,,,,,,,,,0.0,1.0,1.0,0.0,0.0,0.0,0.0,8.0,0.0,0.013134759999999999,-0.041585279999999995,0.9881738533333333,1.30371092,-2.5756836800000005,2.6798502666666666,34.977309997258345,-7.559963051777883,-1.694131976587366,1.0768559256120325,2.2388211436067924,6.545711780009973,7.001305699978247,-1.2646325473772202,8.012096847866019,-1.496534980888136,0.34355423999999996,-0.11442072,-0.24989285333333333,0.7078678133333333,0.43996369751875075,0.7014463022603853,0.6925407455303979,0.6859813403670765
LBP09_S00,LBP09,-1476,175,0,174,-1476,1716536659.96,2024-05-24 07:44:19.960000+00:00,2024-05-24 16:44:19.960000+09:00,2024,5,24,7,44,19,960,,,,,,,,,0.319092,0.088867,1.187012,5.79834,22.460938,-19.226074,,,,,,,,,,,0.0,1.0,1.0,0.0,0.0,0.0,0.0,8.0,0.0,0.013642573333333333,-0.041510413333333336,1.00565432,1.5673828,-0.791015706666667,3.046875013333333,32.3313903572747,-6.6824878641532885,0.3047459506377135,2.3701115399030206,1.971521629040661,6.557901618035482,7.246405997264367,-1.253037602751132,8.032573459511397,-1.5087511524241164,0.30544942666666663,0.13037741333333333,0.18135767999999985,0.6171845199999998,0.37840220698810484,0.6745607745582276,0.684296830509655,0.6817676202885448
LBP09_S00,LBP09,-1475,176,0,175,-1475,1716536660.0,2024-05-24 07:44:20+00:00,2024-05-24 16:44:20+09:00,2024,5,24,7,44,20,0,7.0,44.0,19.0,40.540936,141.542755,13.652,3.0,15.0,-0.17334,-0.262939,1.894531,-3.051758,40.83252,35.461426,-299.0,174.0,248.0,165.0,0.0,1005.400024,22.370001,-0.075314,65.523872,3.99375,0.0,1.0,1.0,0.0,0.0,0.0,0.0,5.0,0.0,0.0023437466666666653,-0.04134765333333333,1.0218782666666668,1.9335937466666666,0.3393553866666663,3.397623706666667,28.504000245447994,-5.442894875160634,2.6023975146896534,3.5102715497209402,1.7538058340342357,6.6619975186230675,7.731756087358982,-1.5141269243357516,8.153120446366907,-1.5069518854112287,-0.17568374666666667,-0.22159134666666663,0.8726527333333332,1.2699278266666665,0.9173278022356686,0.6817419570923801,0.684502616727704,0.6871315255039251
LBP09_S00,LBP09,-1474,177,0,176,-1474,1716536660.04,2024-05-24 07:44:20.040000+00:00,2024-05-24 16:44:20.040000+09:00,2024,5,24,7,44,20,40,,,,,,,,,-0.110352,-0.080566,1.90918,32.958984,-36.92627,15.258789,,,,,,,,,,,0.0,1.0,1.0,0.0,0.0,0.0,0.0,5.0,0.0,-0.0010384133333333344,-0.042001946666666665,1.0289225333333334,2.527669266666667,0.43945303999999963,3.565266933333333,24.298292268145268,-4.256941519473404,4.559533858679025,4.482203240446751,1.5835281732552995,6.844378872970228,8.33326043760339,-1.5955348377852143,8.378192056496337,-1.4743133164216322,-0.10931358666666667,-0.038564053333333334,0.8802574666666667,1.0281351066666666,0.8878568882775224,0.6963619560527521,0.6966297236133415,0.6917230517361139
LBP09_S00,LBP09,-1473,178,0,177,-1473,1716536660.08,2024-05-24 07:44:20.080000+00:00,2024-05-24 16:44:20.080000+09:00,2024,5,24,7,44,20,80,,,,,,,,,-0.021484,-0.080811,1.235596,33.081055,85.083008,26.611328,,,,,,,,,,,0.0,1.0,1.0,0.0,0.0,0.0,0.0,5.0,0.0,-0.004352226666666668,-0.03735350666666667,1.0081640666666667,2.8263346266666667,1.3289387199999998,3.4041341199999997,20.287358401226278,-3.3804887339389103,5.647318352628712,5.293697576495802,1.4483086238977432,7.070271607075377,8.950395102970056,-1.6868656712133936,8.696278224373621,-1.4409469567230402,-0.017131773333333333,-0.043457493333333326,0.22743193333333322,0.28802119999999987,0.23217953330149313,0.6820479759287543,0.6789250261174843,0.6871379881666446
LBP09_S00,LBP09,-1472,179,0,178,-1472,1716536660.12,2024-05-24 07:44:20.120000+00:00,2024-05-24 16:44:20.120000+09:00,2024,5,24,7,44,20,120,,,,,,,,,-0.310547,-0.064697,0.073242,12.817383,54.992676,28.991699,,,,,,,,,,,0.0,1.0,1.0,0.0,0.0,0.0,0.0,5.0,0.0,-0.0020182400000000006,-0.03762044,0.9852441466666666,2.2290038933333336,1.2939452266666662,3.5555013066666667,16.761530338382904,-2.737894355075292,5.645442120504171,5.964158790031118,1.3387928496947314,7.296089291895544,9.518218074955627,-1.624431251329689,9.079517661953405,-1.4444573078486538,-0.30852876,-0.027076560000000006,-0.9120021466666666,1.2476074666666666,0.9631568155670078,0.6960446592186977,0.6845028753344257,0.6857340621971364
LBP09_S00,LBP09,-1471,180,0,179,-1471,1716536660.16,2024-05-24 07:44:20.160000+00:00,2024-05-24 16:44:20.160000+09:00,2024,5,24,7,44,20,160,,,,,,,,,-0.053223,0.077393,0.294434,32.958984,-51.635742,-5.615234,,,,,,,,,,,0.0,1.0,1.0,0.0,0.0,0.0,0.0,5.0,0.0,0.0001692666666666659,-0.03367188,0.9769042933333335,1.3476562400000005,-1.4908854933333335,2.659505213333333,13.760862895093876,-1.9520391064272085,4.713544091885009,6.5145933058348735,1.260711285437643,7.484631055570944,10.002450745876002,-1.5657664397301068,9.489703293573076,-1.4746866448334808,-0.05339226666666667,0.11106488,-0.6824702933333335,0.8469274400000002,0.6935069163257892,0.684339317143742,0.6876522316893435,0.6839116190852084
LBP09_S00,LBP09,-1470,181,0,180,-1470,1716536660.2,2024-05-24 07:44:20.200000+00:00,2024-05-24 16:44:20.200000+09:00,2024,5,24,7,44,20,200,,,,,,,,,0.280762,-0.094482,0.623291,4.638672,-109.008789,-19.836426,,,,,,,,,,,0.0,1.0,1.0,0.0,0.0,0.0,0.0,5.0,0.0,0.012685533333333332,-0.039456373333333336,0.9880696533333332,-0.4703776133333331,-2.64078784,2.6066080799999995,11.148152932870879,-0.5729603918226125,3.313570861989175,6.960519423149709,1.2377928697647385,7.617173890050511,10.392415498802578,-1.2595180130255583,9.889854613281274,-1.5131359081967717,0.2680764666666667,-0.05502562666666666,-0.36477865333333315,0.6878807466666665,0.4560222335569,0.6693012438344453,0.6850761151020989,0.6799409006798931
LBP09_S00,LBP09,-1469,182,0,181,-1469,1716536660.24,2024-05-24 07:44:20.240000+00:00,2024-05-24 16:44:20.240000+09:00,2024,5,24,7,44,20,240,,,,,,,,,0.419922,0.163086,1.046387,8.178711,-1.098633,-14.831543,,,,,,,,,,,0.0,1.0,1.0,0.0,0.0,0.0,0.0,5.0,0.0,0.014791653333333332,-0.04361653333333333,1.0002734400000002,-1.4786783999999997,-1.1490886266666667,2.738444013333333,8.688090903938143,1.625751486423525,2.0287428445499307,7.308043059307234,1.3028229292216795,7.698323603832508,10.694345573756214,-1.2435826116582633,10.253888462341024,-1.5162389499938163,0.4051303466666667,0.20670253333333333,0.046113559999999776,0.6579464399999998,0.4571465798762416,0.6569786753056865,0.6855916389864329,0.6748921777548623
LBP09_S00,LBP09,-1468,183,0,182,-1468,1716536660.28,2024-05-24 07:44:20.280000+00:00,2024-05-24 16:44:20.280000+09:00,2024,5,24,7,44,20,280,,,,,,,,,-0.039307,-0.216797,1.761475,-28.381348,41.07666,9.521484,,,,,,,,,,,0.0,1.0,1.0,0.0,0.0,0.0,0.0,5.0,0.0,0.0060904800000000005,-0.045319,1.0184668000000001,-1.484375013333333,0.6160480933333331,2.971191413333333,6.121904746389874,4.4641829889466464,1.3625263892456654,7.552919249162829,1.4813902487795454,7.752824659402334,10.924623400968587,-1.4370771792802082,10.569028954822812,-1.511895850126247,-0.045397480000000004,-0.171478,0.7430081999999998,0.9598836799999998,0.7638892726970251,0.6468702011348975,0.6807097844646305,0.6774338729911005
