file_name,test_id,_program_index,program_index,session_id,index,_index,unixtime,datetime_utc,datetime_jst,rtc_year,rtc_month,rtc_day,rtc_hour,rtc_min,rtc_sec,rtc_msec,gps_hour,gps_min,gps_sec,latitude,longitude,altitude,fix_type,SIV,acc_x,acc_y,acc_z,gyro_x,gyro_y,gyro_z,mag_x,mag_y,mag_z,illuminance,atmopress,water_pressure,water_temp,depth,alt_wps,battery_level,behavior_class,camera_command,camera_recording,camera_count,play_audio,speaker_on,audio_file,prev_sd_write_time_ms,delay_occurred_counter,acc_x_ma,acc_y_ma,acc_z_ma,gyro_x_ma,gyro_y_ma,gyro_z_ma,gyro_x_lowpass,gyro_y_lowpass,gyro_z_lowpass,angle_x,angle_y,angle_z,combined_angle_change,gravity_adjusted_angle,smoothed_angle_change,smoothed_gravity_angle,acc_x_dy,acc_y_dy,acc_z_dy,ODBA,VeDBA,smoothed_VeDBA_1s,smoothed_VeDBA_2s,smoothed_VeDBA_3s
LBP09_S04,LBP09,-1650,1,4,0,-1650,1716541006.0,2024-05-24 08:56:46+00:00,2024-05-24 17:56:46+09:00,2024,5,24,8,56,46,0,8.0,56.0,45.0,40.564007,141.546188,6.571,3.0,16.0,-0.202637,-0.0625,0.640381,43.823242,89.111328,12.268066,-289.0,166.0,245.0,349.0,0.0,1006.0,22.07,-0.069368,60.501274,3.888281,0.0,1.0,1.0,4.0,0.0,0.0,0.0,5.0,0.0,,,,,,,43.533502636072605,87.9060139850983,11.765484549333467,1.7413401054429043,3.516240559403932,0.4706193819733387,3.951923030261362,,6.476103668283727,,,,,,,,,
LBP09_S04,LBP09,-1649,2,4,1,-1649,1716541006.04,2024-05-24 08:56:46.040000+00:00,2024-05-24 17:56:46.040000+09:00,2024,5,24,8,56,46,40,,,,,,,,,-0.185303,0.184082,-0.059814,60.119629,-12.145996,-3.234863,,,,,,,,,,,0.0,1.0,1.0,4.0,0.0,0.0,0.0,5.0,0.0,,,,,,,22.746261757014665,55.600380753570256,5.960410353703723,2.651190575723491,5.740255789546742,0.7090357961214876,6.362552927749331,,6.497142887215635,,,,,,,,,
LBP09_S04,LBP09,-1648,3,4,2,-1648,1716541006.08,2024-05-24 08:56:46.080000+00:00,2024-05-24 17:56:46.080000+09:00,2024,5,24,8,56,46,80,,,,,,,,,-0.016602,-0.007812,0.24707,15.197754,-78.613281,3.723145,,,,,,,,,,,0.0,1.0,1.0,4.0,0.0,0.0,0.0,5.0,0.0,,,,,,,3.6856855643739457,27.66166906229381,0.8664075269556212,2.7986179982984485,6.846722552038495,0.7436920971997124,7.433905456785809,,6.47299482680427,,,,,,,,,
LBP09_S04,LBP09,-1647,4,4,3,-1647,1716541006.12,2024-05-24 08:56:46.120000+00:00,2024-05-24 17:56:46.120000+09:00,2024,5,24,8,56,46,120,,,,,,,,,0.340088,0.069824,0.355957,-10.192871,-125.305176,-14.099121,,,,,,,,,,,0.0,1.0,1.0,4.0,0.0,0.0,0.0,5.0,0.0,,,,,,,-12.023375552741095,7.228108222938993,-2.859733586161629,2.3176829761888045,7.135846880956055,0.6293027537532473,7.529142517076369,,6.454008826303773,,,,,,,,,
LBP09_S04,LBP09,-1646,5,4,4,-1646,1716541006.16,2024-05-24 08:56:46.160000+00:00,2024-05-24 17:56:46.160000+09:00,2024,5,24,8,56,46,160,,,,,,,,,0.487061,0.038086,0.813965,-31.860352,-15.136719,-6.408691,,,,,,,,,,,0.0,1.0,1.0,4.0,0.0,0.0,0.0,5.0,0.0,,,,,,,-23.0750978636326,-4.623636257911317,-4.767590544037668,1.3946790616435005,6.950901430639602,0.4385991319917406,7.102994409545763,,6.449999709276686,,,,,,,,,
LBP09_S04,LBP09,-1645,6,4,5,-1645,1716541006.2,2024-05-24 08:56:46.200000+00:00,2024-05-24 17:56:46.200000+09:00,2024,5,24,8,56,46,200,,,,,,,,,0.101318,-0.227051,1.499512,-35.27832,72.143555,25.085449,,,,,,,,,,,0.0,1.0,1.0,4.0,0.0,0.0,0.0,5.0,0.0,,,,,,,-28.692906494767218,-8.948887791394709,-4.692343514260692,0.24696280185281183,6.592945918983814,0.25090539142131296,6.602338981875181,,6.448100713933063,,,,,,,,,
LBP09_S04,LBP09,-1644,7,4,6,-1644,1716541006.24,2024-05-24 08:56:46.240000+00:00,2024-05-24 17:56:46.240000+09:00,2024,5,24,8,56,46,240,,,,,,,,,-0.204102,0.275635,1.738525,-48.278809,6.530762,-36.437988,,,,,,,,,,,0.0,1.0,1.0,4.0,0.0,0.0,0.0,5.0,0.0,,,,,,,-28.79869388436295,-8.285943808538342,-2.786130721342094,-0.9049849535217063,6.2615081666422805,0.1394601625676292,6.328106464336077,,6.67931453750644,,,,,,,,,
LBP09_S04,LBP09,-1643,8,4,7,-1643,1716541006.28,2024-05-24 08:56:46.280000+00:00,2024-05-24 17:56:46.280000+09:00,2024,5,24,8,56,46,280,,,,,,,,,0.034668,-0.395996,1.671387,-89.96582,87.646484,-8.422852,,,,,,,,,,,0.0,1.0,1.0,4.0,0.0,0.0,0.0,5.0,0.0,,,,,,,-24.06411775968899,-5.617150750941189,0.5000521787566213,-1.867549663909266,6.036822136604633,0.15946224971789405,6.321106822800294,,6.636001944250774,,,,,,,,,
LBP09_S04,LBP09,-1642,9,4,8,-1642,1716541006.32,2024-05-24 08:56:46.320000+00:00,2024-05-24 17:56:46.320000+09:00,2024,5,24,8,56,46,320,,,,,,,,,-0.4375,-0.117432,0.166992,19.226074,97.65625,24.902344,,,,,,,,,,,0.0,1.0,1.0,4.0,0.0,0.0,0.0,5.0,0.0,,,,,,,-15.79156376978119,-3.3804871511057635,4.484295439087416,-2.4992122147005134,5.9016026505604025,0.33883406728139065,6.417926773059993,,6.44471385329103,,,,,,,,,
LBP09_S04,LBP09,-1641,10,4,9,-1641,1716541006.36,2024-05-24 08:56:46.360000+00:00,2024-05-24 17:56:46.360000+09:00,2024,5,24,8,56,46,360,,,,,,,,,0.041748,0.048584,0.116699,64.086914,-48.522949,7.324219,,,,,,,,,,,0.0,1.0,1.0,4.0,0.0,0.0,0.0,5.0,0.0,,,,,,,-5.635790864557988,-2.8840085003716966,8.366649207588422,-2.724643849282833,5.786242310545535,0.6735000355849275,6.431009755840447,,6.208697352190011,,,,,,,,,
LBP09_S04,LBP09,-1640,11,4,10,-1640,1716541006.4,2024-05-24 08:56:46.400000+00:00,2024-05-24 17:56:46.400000+09:00,2024,5,24,8,56,46,400,,,,,,,,,0.180664,0.061279,0.437256,20.568848,-93.017578,13.000488,,,,,,,,,,,0.0,1.0,1.0,4.0,0.0,0.0,0.0,5.0,0.0,,,,,,,4.745499554844942,-4.2542362574880315,11.367741701344128,-2.534823867089035,5.616072860246013,1.1282097036386927,6.264061265995133,,5.996539638239669,,,,,,,,,
LBP09_S04,LBP09,-1639,12,4,11,-1639,1716541006.44,2024-05-24 08:56:46.440000+00:00,2024-05-24 17:56:46.440000+09:00,2024,5,24,8,56,46,440,,,,,,,,,0.577393,-0.300293,0.756592,-18.432617,-68.42041,14.587402,,,,,,,,,,,0.0,1.0,1.0,4.0,0.0,0.0,0.0,5.0,0.0,,,,,,,13.987109704214081,-6.803649786354236,12.863176353386466,-1.9753394789204717,5.3439268687918435,1.6427367577741512,5.929426995192666,,5.835905310104854,,,,,,,,,
LBP09_S04,LBP09,-1638,13,4,12,-1638,1716541006.48,2024-05-24 08:56:46.480000+00:00,2024-05-24 17:56:46.480000+09:00,2024,5,24,8,56,46,480,,,,,,,,,0.202637,-0.050781,1.280273,-3.356934,54.138184,10.742188,,,,,,,,,,,0.0,1.0,1.0,4.0,0.0,0.0,0.0,5.0,0.0,,,,,,,21.17462757021197,-9.553645307045416,12.487960226477576,-1.128354376111993,4.961781056510027,2.1422551668332543,5.521024547188377,,5.7213474254579975,,,,,,,,,
LBP09_S04,LBP09,-1637,14,4,13,-1637,1716541006.52,2024-05-24 08:56:46.520000+00:00,2024-05-24 17:56:46.520000+09:00,2024,5,24,8,56,46,520,,,,,,,,,-0.45459,-0.19165,1.913818,23.925781,-13.244629,5.004883,,,,,,,,,,,0.0,1.0,1.0,4.0,0.0,0.0,0.0,5.0,0.0,,,,,,,25.869513152027363,-11.66658365028662,10.198469476010283,-0.09357385003089846,4.495117710498563,2.5501939458736658,5.16897750606618,,5.638367379702152,,,,,,,,,
LBP09_S04,LBP09,-1636,15,4,14,-1636,1716541006.56,2024-05-24 08:56:46.560000+00:00,2024-05-24 17:56:46.560000+09:00,2024,5,24,8,56,46,560,,,,,,,,,-0.032471,-0.16333,1.993408,33.813477,-99.609375,-3.90625,,,,,,,,,,,0.0,1.0,1.0,4.0,0.0,0.0,0.0,5.0,0.0,,,,,,,28.06036683330222,-12.67173953513162,6.289251030472648,1.0288408233011903,3.988248129093298,2.8017639870925715,4.9814172700423445,,5.585584074906613,,,,,,,,,
LBP09_S04,LBP09,-1635,16,4,15,-1635,1716541006.6,2024-05-24 08:56:46.600000+00:00,2024-05-24 17:56:46.600000+09:00,2024,5,24,8,56,46,600,,,,,,,,,-0.133545,-0.187256,0.949707,54.626465,112.121582,41.748047,,,,,,,,,,,0.0,1.0,1.0,4.0,0.0,0.0,0.0,5.0,0.0,,,,,,,28.088946316721103,-12.496671974017088,1.362960692661756,2.1523986759700344,3.488381250132614,2.8562824147990415,4.995995700527031,,5.578980722636746,,,,,,,,,
LBP09_S04,LBP09,-1634,17,4,16,-1634,1716541006.64,2024-05-24 08:56:46.640000+00:00,2024-05-24 17:56:46.640000+09:00,2024,5,24,8,56,46,640,,,,,,,,,-0.161621,0.250732,-0.082275,32.714844,-1.89209,-8.666992,,,,,,,,,,,0.0,1.0,1.0,4.0,0.0,0.0,0.0,5.0,0.0,,,,,,,26.5574523195404,-11.377065525226355,-3.7525306736283137,3.2146967687516503,3.0332986291235597,2.706181187853909,5.182527617867517,,5.6432003184184225,,,,,,,,,
LBP09_S04,LBP09,-1633,18,4,17,-1633,1716541006.68,2024-05-24 08:56:46.680000+00:00,2024-05-24 17:56:46.680000+09:00,2024,5,24,8,56,46,680,,,,,,,,,0.076904,-0.034424,0.42041,10.498047,-72.570801,-14.831543,,,,,,,,,,,0.0,1.0,1.0,4.0,0.0,0.0,0.0,5.0,0.0,,,,,,,24.202440166881928,-9.725475111465613,-8.143700448511364,4.182794375426927,2.6442796246649354,2.3804331699134544,5.491306365241834,,5.800506674823842,,,,,,,,,
LBP09_S04,LBP09,-1632,19,4,18,-1632,1716541006.72,2024-05-24 08:56:46.720000+00:00,2024-05-24 17:56:46.720000+09:00,2024,5,24,8,56,46,720,,,,,,,,,0.671631,-0.354248,0.824463,15.441895,-69.885254,-39.001465,,,,,,,,,,,0.0,1.0,1.0,4.0,0.0,0.0,0.0,5.0,0.0,,,,,,,21.737826824436215,-8.007162179680762,-10.992472964680083,5.052307448404376,2.323993137477705,1.940734251326251,5.890093725104607,,6.062975764633238,,,,,,,,,
LBP09_S04,LBP09,-1631,20,4,19,-1631,1716541006.76,2024-05-24 08:56:46.760000+00:00,2024-05-24 17:56:46.760000+09:00,2024,5,24,8,56,46,760,,,,,,,,,0.133057,-0.068848,1.419189,-4.699707,78.491211,7.507324,,,,,,,,,,,0.0,1.0,1.0,4.0,0.0,0.0,0.0,5.0,0.0,,,,,,,19.703139413695762,-6.621723752738735,-11.756690528403688,5.8404330249522065,2.0591241873681554,1.4704666301901037,6.364976233141769,,6.4298680805118975,,,,,,,,,
LBP09_S04,LBP09,-1630,21,4,20,-1630,1716541006.8,2024-05-24 08:56:46.800000+00:00,2024-05-24 17:56:46.800000+09:00,2024,5,24,8,56,46,800,,,,,,,,,-0.587646,0.09375,1.964111,34.423828,-5.92041,-20.568848,,,,,,,,,,,0.0,1.0,1.0,4.0,0.0,0.0,0.0,5.0,0.0,,,,,,,18.370437329753592,-5.776217337302623,-10.29695512657982,6.57525051814235,1.8280754938760504,1.0585884251269109,6.906257223811902,,6.8907953122022665,,,,,,,,,
LBP09_S04,LBP09,-1629,22,4,21,-1629,1716541006.84,2024-05-24 08:56:46.840000+00:00,2024-05-24 17:56:46.840000+09:00,2024,5,24,8,56,46,840,,,,,,,,,0.039307,0.018799,2.149658,-36.987305,-48.400879,-26.855469,,,,,,,,,,,0.0,1.0,1.0,4.0,0.0,0.0,0.0,5.0,0.0,,,,,,,17.748428141800282,-5.377073911507768,-6.912526283389104,7.2851876438143615,1.6129925374157397,0.7820873737913467,7.502490559246853,,7.433101712972933,,,,,,,,,
LBP09_S04,LBP09,-1628,23,4,22,-1628,1716541006.88,2024-05-24 08:56:46.880000+00:00,2024-05-24 17:56:46.880000+09:00,2024,5,24,8,56,46,880,,,,,,,,,-0.221191,-0.247803,0.890381,63.415527,114.746094,20.141602,,,,,,,,,,,0.0,1.0,1.0,4.0,0.0,0.0,0.0,5.0,0.0,,,,,,,17.682125737011564,-5.008460269123074,-2.2774014119378996,7.992472673294824,1.4126541266508168,0.6909913173138308,8.145715445282335,,8.048217288970028,,,,,,,,,
LBP09_S04,LBP09,-1627,24,4,23,-1627,1716541006.92,2024-05-24 08:56:46.920000+00:00,2024-05-24 17:56:46.920000+09:00,2024,5,24,8,56,46,920,,,,,,,,,-0.14502,0.231445,-0.181152,88.684082,-8.117676,3.234863,,,,,,,,,,,0.0,1.0,1.0,4.0,0.0,0.0,0.0,5.0,0.0,,,,,,,17.997939003994823,-4.052007028946375,2.706609016585052,8.712390233454617,1.2505738454929618,0.7992556779772328,8.837900664852786,,8.732540054815512,,,,,,,,,
LBP09_S04,LBP09,-1626,25,4,24,-1626,1716541006.96,2024-05-24 08:56:46.960000+00:00,2024-05-24 17:56:46.960000+09:00,2024,5,24,8,56,46,960,,,,,,,,,-0.007812,0.052246,0.321533,4.02832,-93.322754,5.004883,,,,,,,,,,,0.0,1.0,1.0,4.0,0.0,0.0,0.0,5.0,0.0,,,,,,,18.610906748728603,-1.9395414216859979,7.104681075958911,9.45682650340376,1.172992188625522,1.0834429210155894,9.590689586946032,,9.484101725933531,,,,,,,,,
LBP09_S04,LBP09,-1625,26,4,25,-1625,1716541007.0,2024-05-24 08:56:47+00:00,2024-05-24 17:56:47+09:00,2024,5,24,8,56,47,0,8.0,56.0,46.0,40.564053,141.546188,5.959,3.0,17.0,0.741699,-0.099121,0.789795,6.286621,-96.130371,-3.662109,-282.0,167.0,242.0,370.0,0.0,1005.599976,22.08,-0.073332,63.849743,3.888281,0.0,1.0,1.0,4.0,0.0,0.0,0.0,5.0,0.0,,,,,,,19.524592095689346,1.5558361365525823,10.148532911611275,10.237810187231334,1.2352256340876253,1.4893842374800403,10.419059708233698,,10.298876111704269,,,,,,,,,
LBP09_S04,LBP09,-1624,27,4,26,-1624,1716541007.04,2024-05-24 08:56:47.040000+00:00,2024-05-24 17:56:47.040000+09:00,2024,5,24,8,56,47,40,,,,,,,,,0.129883,-0.329102,1.585449,-46.691895,78.918457,40.649414,,,,,,,,,,,0.0,1.0,1.0,4.0,0.0,0.0,0.0,5.0,0.0,,,,,,,20.725182917478172,6.143417710199613,11.40102775824112,11.06681750393046,1.4809623424956098,1.9454253478096852,11.333683377838476,,11.168753908253406,,,,,,,,,
LBP09_S04,LBP09,-1623,28,4,27,-1623,1716541007.08,2024-05-24 08:56:47.080000+00:00,2024-05-24 17:56:47.080000+09:00,2024,5,24,8,56,47,80,,,,,,,,,-0.338623,-0.012939,2.042236,18.859863,19.40918,10.925293,,,,,,,,,,,0.0,1.0,1.0,4.0,0.0,0.0,0.0,5.0,0.0,,,,,,,22.053517887446628,11.069340350017999,10.853687939871882,11.948958219428325,1.9237359564963297,2.3795728654045605,12.33453402369665,,12.080965081708541,,,,,,,,,
LBP09_S04,LBP09,-1622,29,4,28,-1622,1716541007.12,2024-05-24 08:56:47.120000+00:00,2024-05-24 17:56:47.120000+09:00,2024,5,24,8,56,47,120,,,,,,,,,-0.042725,-0.253174,2.049316,29.602051,4.943848,0.061035,,,,,,,,,,,0.0,1.0,1.0,4.0,0.0,0.0,0.0,5.0,0.0,,,,,,,23.160444770792665,15.38580708935928,8.932118464793097,12.875376010260032,2.5391682400707007,2.736857603996284,13.405710436284814,,13.018142708888552,,,,,,,,,
LBP09_S04,LBP09,-1621,30,4,29,-1621,1716541007.16,2024-05-24 08:56:47.160000+00:00,2024-05-24 17:56:47.160000+09:00,2024,5,24,8,56,47,160,,,,,,,,,-0.112061,0.05249,0.885742,75.866699,155.700684,39.978027,,,,,,,,,,,0.0,1.0,1.0,4.0,0.0,0.0,0.0,5.0,0.0,,,,,,,23.590215538340225,18.290784500827446,6.397416257949913,13.818984631793642,3.2707996201037988,2.992754254314281,14.51272009084914,,13.958861861781443,,,,,,,,,
LBP09_S04,LBP09,-1620,31,4,30,-1620,1716541007.2,2024-05-24 08:56:47.200000+00:00,2024-05-24 17:56:47.200000+09:00,2024,5,24,8,56,47,200,,,,,,,,,-0.064941,0.105957,0.06958,28.930664,-16.845703,-0.366211,,,,,,,,,,,0.0,1.0,1.0,4.0,0.0,0.0,0.0,5.0,0.0,,,,,,,22.94536149145484,19.36347729915343,4.155468988289991,14.736799091451836,4.0453387120699364,3.1589730138458805,15.605035189303287,,14.87907789757217,,,,,,,,,
LBP09_S04,LBP09,-1619,32,4,31,-1619,1716541007.24,2024-05-24 08:56:47.240000+00:00,2024-05-24 17:56:47.240000+09:00,2024,5,24,8,56,47,240,,,,,,,,,0.154541,-0.095947,0.738037,16.296387,-67.443848,-36.315918,,,,,,,,,,,0.0,1.0,1.0,4.0,0.0,0.0,0.0,5.0,0.0,,,,,,,21.038367938083354,18.597862397207827,3.0164167881145345,15.57833380897517,4.789253207958249,3.279629685370462,16.6246022937982,,15.754749320713406,,,,,,,,,
LBP09_S04,LBP09,-1618,33,4,32,-1618,1716541007.28,2024-05-24 08:56:47.280000+00:00,2024-05-24 17:56:47.280000+09:00,2024,5,24,8,56,47,280,,,,,,,,,0.526123,0.059326,1.247559,-24.291992,-11.84082,-36.804199,,,,,,,,,,,0.0,1.0,1.0,4.0,0.0,0.0,0.0,5.0,0.0,,,,,,,17.95962078873369,16.266237009108977,3.47466150667427,16.296718640524517,5.439902688322609,3.418616145637433,17.517491717082436,,16.56535561547352,,,,,,,,,
LBP09_S04,LBP09,-1617,34,4,33,-1617,1716541007.32,2024-05-24 08:56:47.320000+00:00,2024-05-24 17:56:47.320000+09:00,2024,5,24,8,56,47,320,,,,,,,,,-0.073242,-0.441162,2.007568,66.40625,60.302734,26.245117,,,,,,,,,,,0.0,1.0,1.0,4.0,0.0,0.0,0.0,5.0,0.0,,,,,,,14.053327825179405,12.741774434193907,5.587739867949676,16.85885175353169,5.949573665690365,3.6421257403554197,18.245092193781712,,17.29757749540823,-1.2508035130386808,,,,,,,,
LBP09_S04,LBP09,-1616,35,4,34,-1616,1716541007.36,2024-05-24 08:56:47.360000+00:00,2024-05-24 17:56:47.360000+09:00,2024,5,24,8,56,47,360,,,,,,,,,-0.312256,-0.345703,2.197021,-17.63916,-59.509277,43.029785,,,,,,,,,,,0.0,1.0,1.0,4.0,0.0,0.0,0.0,5.0,0.0,,,,,,,9.838004989148045,8.40369208213446,8.998649843275993,17.252371953097615,6.285721348975743,4.002071734086459,18.792849944853295,,17.948212154494048,-1.1780017539849421,,,,,,,,
LBP09_S04,LBP09,-1615,36,4,35,-1615,1716541007.4,2024-05-24 08:56:47.400000+00:00,2024-05-24 17:56:47.400000+09:00,2024,5,24,8,56,47,400,,,,,,,,,0.005127,-0.113037,1.61499,-58.044434,70.617676,8.911133,,,,,,,,,,,0.0,1.0,1.0,4.0,0.0,0.0,0.0,5.0,0.0,,,,,,,5.914376047339407,3.6542568596470124,13.079240564623136,17.488946994991192,6.431891623361624,4.525241356671384,19.175773939646085,,18.525355435735932,-1.1549823770872185,,,,,,,,
LBP09_S04,LBP09,-1614,37,4,36,-1614,1716541007.44,2024-05-24 08:56:47.440000+00:00,2024-05-24 17:56:47.440000+09:00,2024,5,24,8,56,47,440,,,,,,,,,-0.45166,-0.393799,0.456055,77.270508,109.313965,36.92627,,,,,,,,,,,0.0,1.0,1.0,4.0,0.0,0.0,0.0,5.0,0.0,,,,,,,2.886425781027178,-1.0233054062061981,17.119527346998073,17.604404026232277,6.390959407113376,5.210022450551307,19.43974632543961,,19.047175846999103,-1.1517106257368641,,,,,,,,
LBP09_S04,LBP09,-1613,38,4,37,-1613,1716541007.48,2024-05-24 08:56:47.480000+00:00,2024-05-24 17:56:47.480000+09:00,2024,5,24,8,56,47,480,,,,,,,,,0.063232,0.282959,0.013184,38.879395,-47.973633,-3.234863,,,,,,,,,,,0.0,1.0,1.0,4.0,0.0,0.0,0.0,5.0,0.0,0.02175781333333333,-0.06578452,0.9989778666666667,0.32226558666666655,-0.20100909333333333,5.42399088,1.2943207865317063,-5.0727120478677765,20.487987354415054,17.656176857693545,6.188050925198666,6.029541944727909,19.65675282304375,-1.2508035130386808,19.538272022444147,-1.1591884148290243,0.04147418666666666,0.34874352000000003,-0.9857938666666667,1.3760115733333333,1.0464854028887693,1.0464854028887693,1.0464854028887693,1.0464854028887693
LBP09_S04,LBP09,-1612,39,4,38,-1612,1716541007.52,2024-05-24 08:56:47.520000+00:00,2024-05-24 17:56:47.520000+09:00,2024,5,24,8,56,47,520,,,,,,,,,0.073242,-0.041504,0.395752,-38.146973,-102.844238,14.526367,,,,,,,,,,,0.0,1.0,1.0,4.0,0.0,0.0,0.0,5.0,0.0,0.03325846666666667,-0.06630209333333333,1.0033105466666665,-0.9667969066666667,-1.739908826666667,5.503743493333333,1.530627964067562,-7.992181464584147,22.729730435014897,17.717401976256248,5.8683636666153,6.938731162128505,19.91205702714294,-1.1051999949312035,20.024152620894863,-1.1869717058944746,0.039983533333333335,0.024798093333333326,-0.6075585466666665,0.6723401733333332,0.6093775644036286,0.827931483646199,0.827931483646199,0.827931483646199
LBP09_S04,LBP09,-1611,40,4,39,-1611,1716541007.56,2024-05-24 08:56:47.560000+00:00,2024-05-24 17:56:47.560000+09:00,2024,5,24,8,56,47,560,,,,,,,,,0.809082,-0.05127,0.866699,33.203125,-80.444336,8.911133,,,,,,,,,,,0.0,1.0,1.0,4.0,0.0,0.0,0.0,5.0,0.0,0.03691732,-0.07431316,1.0266634,-1.920572946666667,-0.5314127333333333,6.108398439999999,3.7119643246519023,-9.52116558354457,23.610905386607364,17.865880549242323,5.487517043273518,7.8831673775928,20.284152903268005,-1.108943623291771,20.52448979594373,-1.2016684878279984,0.7721646799999999,0.02304316,-0.1599643999999999,0.9551722399999998,0.7888966279111908,0.8149198650678628,0.8149198650678628,0.8149198650678628
LBP09_S04,LBP09,-1610,41,4,40,-1610,1716541007.6,2024-05-24 08:56:47.600000+00:00,2024-05-24 17:56:47.600000+09:00,2024,5,24,8,56,47,600,,,,,,,,,0.10376,-0.389648,1.633057,-67.687988,60.424805,78.613281,,,,,,,,,,,0.0,1.0,1.0,4.0,0.0,0.0,0.0,5.0,0.0,0.03401042666666666,-0.07452150666666665,1.0504231733333333,-0.7666016000000002,0.2962239866666667,6.133626293333332,7.5232940642120125,-9.743259830222625,23.12923490920504,18.166812311810805,5.097786650064613,8.808336773961,20.823239301935022,-1.1418953716858014,21.045889539155667,-1.2100011748570694,0.06974957333333334,-0.3151264933333333,0.5826338266666666,0.9675098933333333,0.6660569688525064,0.7777041410140237,0.7777041410140237,0.7777041410140237
LBP09_S04,LBP09,-1609,42,4,41,-1609,1716541007.64,2024-05-24 08:56:47.640000+00:00,2024-05-24 17:56:47.640000+09:00,2024,5,24,8,56,47,640,,,,,,,,,-0.324463,0.133301,2.008545,45.10498,-0.610352,-0.305176,,,,,,,,,,,0.0,1.0,1.0,4.0,0.0,0.0,0.0,5.0,0.0,0.030719413333333338,-0.07669924,1.06913736,0.08789058666666658,2.194010453333333,6.284179679999999,12.106357103362745,-9.003331319404015,21.495006874352182,18.651066595945316,4.737653397288453,9.668137048935089,21.53556404824859,-1.1890995711976655,21.575441685036967,-1.1987356716703457,-0.35518241333333334,0.21000024,0.9394076399999998,1.504590293333333,1.026031852152611,0.8273696832417412,0.8273696832417412,0.8273696832417412
LBP09_S04,LBP09,-1608,43,4,42,-1608,1716541007.68,2024-05-24 08:56:47.680000+00:00,2024-05-24 17:56:47.680000+09:00,2024,5,24,8,56,47,680,,,,,,,,,0.144775,-0.290771,1.608643,-8.850098,6.04248,15.563965,,,,,,,,,,,0.0,1.0,1.0,4.0,0.0,0.0,0.0,5.0,0.0,0.02041016,-0.08189129333333334,1.0646386533333334,1.3256835599999999,3.6962891066666663,7.015787746666667,16.076095622829488,-7.67687943424843,19.071834459876136,19.294110420858495,4.430578219918516,10.431010427330135,22.376297701589657,-1.3258881612217257,22.077031001653157,-1.1821673809942435,0.12436483999999999,-0.20887970666666666,0.5440043466666666,0.8772488933333333,0.5958507149258152,0.7887831885224202,0.7887831885224202,0.7887831885224202
LBP09_S04,LBP09,-1607,44,4,43,-1607,1716541007.72,2024-05-24 08:56:47.720000+00:00,2024-05-24 17:56:47.720000+09:00,2024,5,24,8,56,47,720,,,,,,,,,-0.234619,-0.325195,0.759521,5.79834,114.624023,44.555664,,,,,,,,,,,0.0,1.0,1.0,4.0,0.0,0.0,0.0,5.0,0.0,0.02131837333333333,-0.07404298666666667,1.0454622133333333,1.79524736,1.9327799866666668,6.295572906666666,17.709786861446926,-5.945481777500017,16.275914748521064,20.00250189531637,4.192758948818515,11.082047017270977,23.248463944270323,-1.289849179429141,22.492740017191917,-1.1619856274727287,-0.25593737333333333,-0.25115201333333337,-0.28594121333333333,0.7930306,0.4586323694994628,0.7416187858048549,0.7416187858048549,0.7416187858048549
LBP09_S04,LBP09,-1606,45,4,44,-1606,1716541007.76,2024-05-24 08:56:47.760000+00:00,2024-05-24 17:56:47.760000+09:00,2024,5,24,8,56,47,760,,,,,,,,,0.074463,0.286133,0.038086,47.424316,-34.729004,-54.016113,,,,,,,,,,,0.0,1.0,1.0,4.0,0.0,0.0,0.0,5.0,0.0,0.025208346666666666,-0.08101238666666667,1.02613604,1.5600585599999999,0.31331383999999995,6.260579413333333,15.291973248552274,-3.735218379609662,13.460860608378756,20.61418082525846,4.043350213634128,11.620481441606128,24.006847376972704,-1.2683299840605653,22.75131367870697,-1.1623118211084287,0.049254653333333336,0.3671453866666667,-0.98805004,1.40445008,1.0552083383719086,0.7808174798757366,0.7808174798757366,0.7808174798757366
LBP09_S04,LBP09,-1605,46,4,45,-1605,1716541007.8,2024-05-24 08:56:47.800000+00:00,2024-05-24 17:56:47.800000+09:00,2024,5,24,8,56,47,800,,,,,,,,,-0.040039,-0.146973,0.346436,13.305664,-86.669922,16.113281,,,,,,,,,,,0.0,1.0,1.0,4.0,0.0,0.0,0.0,5.0,0.0,0.03519858666666666,-0.07078452,1.0147265333333333,2.9402668933333334,-1.7757161066666662,5.537109373333333,7.544970063345717,-0.870334580153645,10.836731137849348,20.91597962779229,4.008536830427983,12.053950687120102,24.471295398459045,-1.1086116461765572,22.784452789332338,-1.1734621970283485,-0.07523758666666666,-0.07618847999999999,-0.6682905333333333,0.8197166,0.6768143141771498,0.7692615725758937,0.7692615725758937,0.7692615725758937
LBP09_S04,LBP09,-1604,47,4,46,-1604,1716541007.84,2024-05-24 08:56:47.840000+00:00,2024-05-24 17:56:47.840000+09:00,2024,5,24,8,56,47,840,,,,,,,,,0.714355,-0.053467,0.681396,-33.630371,-85.144043,10.009766,,,,,,,,,,,0.0,1.0,1.0,4.0,0.0,0.0,0.0,5.0,0.0,0.043017599999999996,-0.07224610666666667,1.0343391599999998,2.1272786133333335,-2.0410155866666666,5.366210933333333,-5.9546483774528625,2.653724404650922,8.466209520193479,20.677793692694173,4.11468580661402,12.39259906792784,24.45563949160152,-1.033052764909323,22.549377439642576,-1.1860942138556951,0.6713374,0.01877910666666667,-0.3529431599999998,1.0430596666666665,0.7586932408271102,0.7682047394010153,0.7682047394010153,0.7682047394010153
LBP09_S04,LBP09,-1603,48,4,47,-1603,1716541007.88,2024-05-24 08:56:47.880000+00:00,2024-05-24 17:56:47.880000+09:00,2024,5,24,8,56,47,880,,,,,,,,,0.352539,-0.084473,1.382812,-4.577637,37.780762,36.132812,,,,,,,,,,,0.0,1.0,1.0,4.0,0.0,0.0,0.0,5.0,0.0,0.040289733333333334,-0.0701758,1.0594986666666666,0.43457028,-0.7828775733333333,5.323079413333333,-24.475424983268212,6.470561420919868,6.343349595681627,19.698776693363445,4.373508263450814,12.646333051755105,23.813842978431367,-1.0489859778235338,22.051460103708337,-1.178854318241633,0.31224926666666664,-0.01429720000000001,0.32331333333333334,0.6498598,0.4497060439585199,0.7392503125426066,0.7392503125426066,0.7392503125426066
LBP09_S04,LBP09,-1602,49,4,48,-1602,1716541007.92,2024-05-24 08:56:47.920000+00:00,2024-05-24 17:56:47.920000+09:00,2024,5,24,8,56,47,920,,,,,,,,,-0.406494,-0.235352,2.004639,1.89209,24.597168,23.193359,,,,,,,,,,,0.0,1.0,1.0,4.0,0.0,0.0,0.0,5.0,0.0,0.03908205333333333,-0.07857749333333333,1.0791796533333333,-0.6648763333333333,1.4298502933333332,5.011393213333333,-46.03246368829076,9.873237074616638,4.508161763348372,17.857478145831816,4.76843774643548,12.82665952228904,22.497793642293452,-1.1084619312882036,21.351883406375794,-1.1484740443280548,-0.44557605333333333,-0.15677450666666667,0.9254593466666667,1.5278099066666666,1.0390338144533027,0.7642322710351647,0.7642322710351647,0.7642322710351647
LBP09_S04,LBP09,-1601,50,4,49,-1601,1716541007.96,2024-05-24 08:56:47.960000+00:00,2024-05-24 17:56:47.960000+09:00,2024,5,24,8,56,47,960,,,,,,,,,-0.010986,-0.078613,1.941162,-44.616699,35.705566,15.197754,,,,,,,,,,,0.0,1.0,1.0,4.0,0.0,0.0,0.0,5.0,0.0,0.026383479999999994,-0.07234051999999999,1.0773892799999998,-0.5688476933333334,4.649251333333333,4.778645826666667,-67.5560608193383,12.077862685961382,3.120367195385027,15.155235713058284,5.251552253873935,12.951474210104442,20.6155440095217,-1.2204473824909667,20.54238268434376,-1.1311012292360756,-0.03736948,-0.006272480000000011,0.8637727200000003,0.9074146800000003,0.8646034546871876,0.7719531313160896,0.7719531313160896,0.7719531313160896
LBP09_S04,LBP09,-1600,51,4,50,-1600,1716541008.0,2024-05-24 08:56:48+00:00,2024-05-24 17:56:48+09:00,2024,5,24,8,56,48,0,8.0,56.0,47.0,40.564098,141.546173,5.209,3.0,16.0,-0.310059,0.038086,0.709229,-45.959473,146.789551,-9.765625,-292.0,164.0,250.0,1060.0,0.0,1005.200012,22.110001,-0.077296,67.198784,3.888281,0.0,1.0,1.0,4.0,0.0,0.0,0.0,6.0,0.0,0.02287761333333333,-0.07344404,1.0640038666666667,-1.5014648800000001,3.6515299733333335,4.889322906666666,-85.35781848950575,12.565664855149922,2.4347769743078507,11.740922973478053,5.754178848079932,13.048865289076755,18.472485805037376,-1.2682155399592703,19.700673865015514,-1.133516387251163,-0.3329366133333333,0.11153004,-0.3547748666666667,0.79924152,0.49915022221634064,0.752467209237536,0.752467209237536,0.752467209237536
LBP09_S04,LBP09,-1599,52,4,51,-1599,1716541008.04,2024-05-24 08:56:48.040000+00:00,2024-05-24 17:56:48.040000+09:00,2024,5,24,8,56,48,40,,,,,,,,,-0.137695,-0.008789,-0.162109,-194.824219,1.831055,-10.437012,,,,,,,,,,,0.0,1.0,1.0,4.0,0.0,0.0,0.0,6.0,0.0,0.03391277333333333,-0.06959313333333333,1.0491536133333332,-2.2729492533333335,2.8198242400000004,4.24153644,-95.85291869911433,11.297733281321657,2.6789582504968195,7.9068062255134794,6.206088179332799,13.156023619096628,16.55639068890624,-1.1167006150570429,18.871163377308537,-1.154318018285144,-0.17160777333333335,0.060804133333333336,-1.2112626133333333,1.44367452,1.2248687639734872,0.7839606462199328,0.7839606462199328,0.7839606462199328
LBP09_S04,LBP09,-1598,53,4,52,-1598,1716541008.08,2024-05-24 08:56:48.080000+00:00,2024-05-24 17:56:48.080000+09:00,2024,5,24,8,56,48,80,,,,,,,,,0.045654,-0.177734,0.354736,-81.359863,-103.57666,-25.32959,,,,,,,,,,,0.0,1.0,1.0,4.0,0.0,0.0,0.0,6.0,0.0,0.04063804,-0.06655928,1.0424771866666667,-4.368489626666667,5.0366211199999995,3.69384764,-96.3955605704956,8.681689282227868,3.8941887401824795,4.050983802693655,6.553355750621914,13.311791168703927,15.380530728264208,-1.0220854220859443,18.080511510395016,-1.191221236454267,0.00501596,-0.11117472,-0.6877411866666667,0.8039318666666667,0.696687101975826,0.7785060497046761,0.7785060497046761,0.7785060497046761
LBP09_S04,LBP09,-1597,54,4,53,-1597,1716541008.12,2024-05-24 08:56:48.120000+00:00,2024-05-24 17:56:48.120000+09:00,2024,5,24,8,56,48,120,,,,,,,,,0.685547,0.133789,0.568115,-90.087891,-80.26123,-14.221191,,,,,,,,,,,0.0,1.0,1.0,4.0,0.0,0.0,0.0,6.0,0.0,0.034612653333333326,-0.07092777333333333,1.0567545333333335,-5.5045573333333335,4.2537435200000004,2.8027343599999996,-86.00557011494706,5.336377707457483,5.827883645718581,0.6107609980957727,6.766810858920213,13.54490651453267,15.153456723949985,-1.116121028509349,17.362012146585418,-1.2288033980837354,0.6509343466666667,0.20471677333333332,-0.48863953333333343,1.3442906533333336,0.8392812844872627,0.7820810635154164,0.7820810635154164,0.7820810635154164
LBP09_S04,LBP09,-1596,55,4,54,-1596,1716541008.16,2024-05-24 08:56:48.160000+00:00,2024-05-24 17:56:48.160000+09:00,2024,5,24,8,56,48,160,,,,,,,,,0.217285,-0.393555,1.221191,-162.414551,51.635742,39.306641,,,,,,,,,,,0.0,1.0,1.0,4.0,0.0,0.0,0.0,6.0,0.0,0.026207706666666664,-0.09202152000000001,1.0898144266666667,-5.398763066666667,2.9280599333333335,3.3203124799999997,-65.75918348676132,1.8326208258747023,7.944970283521055,-2.01960634137468,6.840115691955201,13.862705325873511,15.589759183690246,-1.2924815642114413,16.76782704540698,-1.2414127408723983,0.19107729333333334,-0.30153347999999996,0.1313765733333332,0.6239873466666666,0.3803850359955183,0.7597646175420887,0.7597646175420887,0.7597646175420887
LBP09_S04,LBP09,-1595,56,4,55,-1595,1716541008.2,2024-05-24 08:56:48.200000+00:00,2024-05-24 17:56:48.200000+09:00,2024,5,24,8,56,48,200,,,,,,,,,-0.243164,-0.028809,1.804199,-115.05127,57.617188,4.638672,,,,,,,,,,,0.0,1.0,1.0,4.0,0.0,0.0,0.0,6.0,0.0,0.023929066666666665,-0.09241214666666667,1.1015754933333333,-1.2508138533333333,4.363606813333333,4.039713519999999,-38.68873858859432,-1.4225265611653481,9.568346823415695,-3.567155884918453,6.783214629508587,14.24543919881014,16.17619052138927,-1.3166279565163639,16.36061594102413,-1.238967908746654,-0.26709306666666666,0.06360314666666667,0.7026235066666668,1.0333197200000002,0.7543632140075957,0.7594803331455365,0.7594803331455365,0.7594803331455365
LBP09_S04,LBP09,-1594,57,4,56,-1594,1716541008.24,2024-05-24 08:56:48.240000+00:00,2024-05-24 17:56:48.240000+09:00,2024,5,24,8,56,48,240,,,,,,,,,-0.367676,-0.946045,2.244141,29.23584,-42.358398,13.183594,,,,,,,,,,,0.0,1.0,1.0,4.0,0.0,0.0,0.0,6.0,0.0,0.013737013333333332,-0.08086592,1.0861100000000001,1.8725585333333337,4.800618533333333,5.043131493333333,-9.161851453166655,-4.130179262032841,10.09647075266734,-3.933629943045119,6.618007459027273,14.649298028916833,16.54912082246632,-1.4020849466005512,16.18586778543881,-1.233735992393775,-0.38141301333333333,-0.86517908,1.1580309999999998,2.404623093333333,1.4950071987019526,0.7962566764233573,0.7962566764233573,0.7962566764233573
LBP09_S04,LBP09,-1593,58,4,57,-1593,1716541008.28,2024-05-24 08:56:48.280000+00:00,2024-05-24 17:56:48.280000+09:00,2024,5,24,8,56,48,280,,,,,,,,,-0.010986,-0.009277,1.270996,179.931641,72.998047,50.354004,,,,,,,,,,,0.0,1.0,1.0,4.0,0.0,0.0,0.0,6.0,0.0,0.011575546666666665,-0.07893557333333333,1.07083332,3.1038410800000005,2.180989626666667,4.0690104,18.120140743282626,-5.981408060542929,9.211961646532815,-3.208824313313814,6.378751136605556,15.017776494778145,16.628849340335353,-1.4248075941182192,16.238368837498786,-1.2446541590023195,-0.022561546666666665,0.06965857333333333,0.20016268000000004,0.29238280000000005,0.21313478996074284,0.7684889675441853,0.7684889675441853,0.7684889675441853
LBP09_S04,LBP09,-1592,59,4,58,-1592,1716541008.32,2024-05-24 08:56:48.320000+00:00,2024-05-24 17:56:48.320000+09:00,2024,5,24,8,56,48,320,,,,,,,,,-0.418213,0.25293,-0.080322,155.639648,25.45166,3.356934,,,,,,,,,,,0.0,1.0,1.0,4.0,0.0,0.0,0.0,6.0,0.0,0.027724626666666665,-0.07952150666666666,1.0540234266666666,3.6653645200000007,0.5208333733333332,2.6660156133333333,39.19251001547296,-6.613321954227005,7.000259916692845,-1.6411239126948953,6.114218258436475,15.29778689144586,16.555942630509136,-1.234555359174835,16.448431598360777,-1.267568363826876,-0.44593762666666664,0.3324515066666667,-1.1343454266666666,1.9127345599999999,1.2633779791343596,0.7909839226164658,0.7909839226164658,0.7909839226164658
LBP09_S04,LBP09,-1591,60,4,59,-1591,1716541008.36,2024-05-24 08:56:48.360000+00:00,2024-05-24 17:56:48.360000+09:00,2024,5,24,8,56,48,360,,,,,,,,,0.024902,0.278564,0.141846,5.249023,-75.561523,0.183105,,,,,,,,,,,0.0,1.0,1.0,4.0,0.0,0.0,0.0,6.0,0.0,0.03175457333333333,-0.08092450666666667,1.0440982933333331,2.795410093333334,2.5179036933333334,3.39436848,51.592239464874986,-5.7031735439926,3.933171896305537,0.42256566590010425,5.886091316676771,15.455113767298082,16.543432965693125,-1.1959990612335245,16.711202853342407,-1.2949278089036182,-0.006852573333333327,0.35948850666666665,-0.9022522933333331,1.2685933733333332,0.971255962664826,0.7988218374011772,0.7988218374011772,0.7988218374011772
LBP09_S04,LBP09,-1590,61,4,60,-1590,1716541008.4,2024-05-24 08:56:48.400000+00:00,2024-05-24 17:56:48.400000+09:00,2024,5,24,8,56,48,400,,,,,,,,,0.421387,-0.390869,0.880371,-66.101074,-107.971191,-21.66748,,,,,,,,,,,0.0,1.0,1.0,4.0,0.0,0.0,0.0,6.0,0.0,0.028111986666666665,-0.07602541333333333,1.0594270666666668,1.9856770266666672,1.4900716533333336,2.736002586666667,54.58589139656575,-3.153069168867106,0.7246023272772006,2.6060013217627347,5.759968549922087,15.48409786038917,16.725004249184188,-1.2158963764304795,16.943343360281723,-1.3026950745157093,0.39327501333333337,-0.3148435866666667,-0.17905606666666674,0.8871746666666668,0.5346520318745662,0.7878147621709016,0.7878147621709016,0.7878147621709016
LBP09_S04,LBP09,-1589,62,4,61,-1589,1716541008.44,2024-05-24 08:56:48.440000+00:00,2024-05-24 17:56:48.440000+09:00,2024,5,24,8,56,48,440,,,,,,,,,0.495117,0.013672,1.397217,15.74707,37.841797,-11.169434,,,,,,,,,,,0.0,1.0,1.0,4.0,0.0,0.0,0.0,6.0,0.0,0.02917318666666666,-0.08139650666666667,1.0913378666666667,0.47526036000000055,1.1604818133333334,2.67903644,48.90751085769727,0.7650849217136353,-1.8842076375044887,4.562301756070625,5.7905719467906325,15.40872955488899,17.081401209506005,-1.2258822811424872,17.116853395581238,-1.2953063346711913,0.4659438133333333,0.09506850666666668,0.3058791333333333,0.8668914533333333,0.565423471702572,0.7789191105521686,0.7789191105521686,0.7789191105521686
LBP09_S04,LBP09,-1588,63,4,62,-1588,1716541008.48,2024-05-24 08:56:48.480000+00:00,2024-05-24 17:56:48.480000+09:00,2024,5,24,8,56,48,480,,,,,,,,,-0.372314,-0.209961,2.048828,45.654297,45.166016,0.0,,,,,,,,,,,0.0,1.0,1.0,4.0,0.0,0.0,0.0,6.0,0.0,0.02753581333333333,-0.08342450666666666,1.1012239333333331,1.0978189600000003,4.167480506666667,3.2446288799999996,36.268204007073976,5.427374809745165,-3.3295885661701017,6.0130299163535845,6.007666939180439,15.275546012242186,17.481158336884114,-1.2512274703315083,17.253894926095196,-1.2810065825263988,-0.3998498133333333,-0.12653649333333333,0.9476040666666667,1.4739903733333333,1.0362648428519627,0.7785102881506962,0.7888170233329299,0.7888170233329299
LBP09_S04,LBP09,-1587,64,4,63,-1587,1716541008.52,2024-05-24 08:56:48.520000+00:00,2024-05-24 17:56:48.520000+09:00,2024,5,24,8,56,48,520,,,,,,,,,-0.159668,-0.162842,2.188477,32.287598,-15.380859,-14.648438,,,,,,,,,,,0.0,1.0,1.0,4.0,0.0,0.0,0.0,6.0,0.0,0.015319013333333333,-0.08390953333333333,1.0915852666666666,1.2084960400000007,5.176595093333333,3.69710284,18.907342307973742,10.054311965903622,-3.3551335756962315,6.769323608672535,6.409839417816584,15.141340669214337,17.7811692737663,-1.3897154792767727,17.40164388535824,-1.277224075905677,-0.17498701333333333,-0.07893246666666666,1.0968917333333332,1.3508112133333332,1.1135628692554402,0.7986777003447688,0.8008446472559858,0.8008446472559858
LBP09_S04,LBP09,-1586,65,4,64,-1586,1716541008.56,2024-05-24 08:56:48.560000+00:00,2024-05-24 17:56:48.560000+09:00,2024,5,24,8,56,48,560,,,,,,,,,0.106445,0.146973,1.522705,12.145996,104.064941,7.202148,,,,,,,,,,,0.0,1.0,1.0,4.0,0.0,0.0,0.0,6.0,0.0,0.015419919999999997,-0.07599937333333333,1.0774837066666667,2.1386718266666676,2.99804692,2.8710937199999997,-0.6943229484614963,13.975598533148238,-2.039623464148481,6.7415506907340745,6.968863359142514,15.059755730648398,17.911164253083424,-1.3701542203323507,17.603315552807118,-1.2905774003159258,0.09102508000000001,0.2229723733333333,0.44522129333333327,0.7592187466666666,0.5061859781703872,0.7873692743551365,0.7903211233600714,0.7903211233600714
LBP09_S04,LBP09,-1585,66,4,65,-1585,1716541008.6,2024-05-24 08:56:48.600000+00:00,2024-05-24 17:56:48.600000+09:00,2024,5,24,8,56,48,600,,,,,,,,,-0.561035,0.374023,-0.022705,-19.53125,96.252441,14.526367,,,,,,,,,,,0.0,1.0,1.0,4.0,0.0,0.0,0.0,6.0,0.0,0.027509759999999998,-0.08103193333333333,1.0690722533333334,0.49967444000000055,2.90608728,2.954101533333333,-19.975747253996232,16.80415611094058,0.264860712016047,5.942520800574226,7.641029603580137,15.07035015912904,17.911290874384406,-1.2427405580711848,17.87648970644199,-1.313864237231811,-0.58854476,0.45505493333333336,-1.0917772533333334,2.1353769466666668,1.3211500663325646,0.8135729982543389,0.8086255696694679,0.8086255696694679
LBP09_S04,LBP09,-1584,67,4,66,-1584,1716541008.64,2024-05-24 08:56:48.640000+00:00,2024-05-24 17:56:48.640000+09:00,2024,5,24,8,56,48,640,,,,,,,,,-0.062988,-0.321777,0.200684,8.300781,-70.617676,6.103516,,,,,,,,,,,0.0,1.0,1.0,4.0,0.0,0.0,0.0,6.0,0.0,0.026207679999999997,-0.08154950666666667,1.0661718666666666,0.5794270400000004,3.8338216533333336,3.3496093466666665,-36.43642886662006,18.417785084045832,3.0499435437287903,4.485063645909423,8.377741006941969,15.192347900878191,17.91953612760591,-1.259087425152627,18.208437597743142,-1.3446819385092987,-0.08919568,-0.24022749333333332,-0.8654878666666667,1.19491104,0.9026263707820068,0.8086367789995147,0.8117589297065525,0.8117589297065525
LBP09_S04,LBP09,-1583,68,4,67,-1583,1716541008.68,2024-05-24 08:56:48.680000+00:00,2024-05-24 17:56:48.680000+09:00,2024,5,24,8,56,48,680,,,,,,,,,0.38916,0.085449,0.581543,31.616211,-144.165039,-41.687012,,,,,,,,,,,0.0,1.0,1.0,4.0,0.0,0.0,0.0,6.0,0.0,0.015986333333333328,-0.08625002666666667,1.08585612,-0.5110677466666662,0.7031250400000003,3.1290689866666663,-47.849495536080084,18.778446594216707,5.785493376078448,2.5710838244662195,9.128878870710638,15.42376763592133,18.1063389329658,-1.3869825279110004,18.568381143628187,-1.3697061205333874,0.3731736666666667,0.17169902666666667,-0.5043131200000001,1.0491858133333334,0.6504389781185163,0.8108203095272227,0.8065550603004867,0.8065550603004867
LBP09_S04,LBP09,-1582,69,4,68,-1582,1716541008.72,2024-05-24 08:56:48.720000+00:00,2024-05-24 17:56:48.720000+09:00,2024,5,24,8,56,48,720,,,,,,,,,0.48291,0.257812,0.965088,-155.822754,34.851074,38.024902,,,,,,,,,,,0.0,1.0,1.0,4.0,0.0,0.0,0.0,6.0,0.0,0.01904297333333333,-0.09296552,1.1063313866666666,-0.37597659999999944,0.7934570666666669,4.189453106666667,-52.576554791628006,17.74865104398615,8.044407432111552,0.4680216328010993,9.838824912470084,15.745543933205791,18.57265930499791,-1.368088603277324,18.92543519194416,-1.3753760201887149,0.4638670266666667,0.35077751999999995,-0.1412433866666667,0.9558879333333333,0.5984707020757105,0.8164138428302726,0.8000524241059626,0.8000524241059626
LBP09_S04,LBP09,-1581,70,4,69,-1581,1716541008.76,2024-05-24 08:56:48.760000+00:00,2024-05-24 17:56:48.760000+09:00,2024,5,24,8,56,48,760,,,,,,,,,0.142334,-0.098389,1.750977,-102.539062,100.524902,43.884277,,,,,,,,,,,0.0,1.0,1.0,4.0,0.0,0.0,0.0,6.0,0.0,0.012737639999999998,-0.08943362666666667,1.0956770933333333,-0.02685550666666624,2.447102906666667,5.19368488,-49.91903507806936,15.081870807373557,9.596646067573028,-1.5287397703216752,10.442099744765027,16.129409775908712,19.275174502041857,-1.4288674303923758,19.261218140800953,-1.3640912512176655,0.12959636,-0.008955373333333336,0.6552999066666667,0.79385164,0.6680519313003527,0.8009275865474104,0.7960524091724591,0.7960524091724591
LBP09_S04,LBP09,-1580,71,4,70,-1580,1716541008.8,2024-05-24 08:56:48.800000+00:00,2024-05-24 17:56:48.800000+09:00,2024,5,24,8,56,48,800,,,,,,,,,-0.134521,-0.108398,1.970459,-128.479004,40.771484,24.047852,,,,,,,,,,,0.0,1.0,1.0,4.0,0.0,0.0,0.0,6.0,0.0,0.0041113333333333306,-0.08822269333333334,1.0789062533333333,0.25065100000000046,2.128906293333334,5.52490232,-40.352304288212274,10.624942981748168,10.444965223795137,-3.142831941850166,10.867097464034954,16.547208384860518,20.044483162195696,-1.5240733892053553,19.57300755311642,-1.3540683560239368,-0.13863233333333333,-0.020175306666666656,0.8915527466666666,1.0503603866666666,0.902492253115458,0.8099547041049427,0.7991829928178414,0.7991829928178414
LBP09_S04,LBP09,-1579,72,4,71,-1579,1716541008.84,2024-05-24 08:56:48.840000+00:00,2024-05-24 17:56:48.840000+09:00,2024,5,24,8,56,48,840,,,,,,,,,-0.012207,0.136719,1.228516,29.724121,64.880371,-21.42334,,,,,,,,,,,0.0,1.0,1.0,4.0,0.0,0.0,0.0,6.0,0.0,0.00805013333333333,-0.08504886666666668,1.0571777466666668,-1.0156250399999995,-0.3287759999999995,4.734700493333333,-25.483347011690007,4.584943668755399,10.775277272564214,-4.162165822317766,11.05049521078517,16.978219475763087,20.68083666835646,-1.4761241013833748,19.8679041270355,-1.357872904355947,-0.02025713333333333,0.2217678666666667,0.1713382533333332,0.41336325333333324,0.2809771079502499,0.7908460587898684,0.7843771103930531,0.7843771103930531
LBP09_S04,LBP09,-1578,73,4,72,-1578,1716541008.88,2024-05-24 08:56:48.880000+00:00,2024-05-24 17:56:48.880000+09:00,2024,5,24,8,56,48,880,,,,,,,,,-0.429443,-0.284424,0.147705,90.270996,40.039062,8.056641,,,,,,,,,,,0.0,1.0,1.0,4.0,0.0,0.0,0.0,6.0,0.0,0.02165365333333333,-0.0806934,1.0373274933333332,-0.3092448399999995,-0.4907226133333327,3.6067708133333336,-7.693334892840948,-2.3538705510208113,10.8264831239554,-4.469899218031403,10.956340388744337,17.411278800721302,21.05169882004384,-1.3079264668847836,20.15109728470143,-1.3624899850587504,-0.4510966533333334,-0.2037306,-0.8896224933333332,1.5444497466666665,1.01804839210595,0.8135797527157655,0.7908679793295226,0.7908679793295226
LBP09_S04,LBP09,-1577,74,4,73,-1577,1716541008.92,2024-05-24 08:56:48.920000+00:00,2024-05-24 17:56:48.920000+09:00,2024,5,24,8,56,48,920,,,,,,,,,-0.065674,0.216309,0.062012,73.791504,-89.782715,-2.990723,,,,,,,,,,,0.0,1.0,1.0,4.0,0.0,0.0,0.0,6.0,0.0,0.024921879999999997,-0.08257165333333333,1.03280276,0.3759765200000004,-0.6290689733333327,4.093424453333333,10.395582002216502,-9.175872802857784,10.733967537716433,-4.054075937942743,10.589305476630026,17.84063750222996,21.138998762334204,-1.2768677895662772,20.414616922912156,-1.370553891149199,-0.09059587999999999,0.29888065333333336,-0.9707907600000001,1.3602672933333335,1.0197901539587997,0.8128100062959855,0.7970550651303139,0.7970550651303139
LBP09_S04,LBP09,-1576,75,4,74,-1576,1716541008.96,2024-05-24 08:56:48.960000+00:00,2024-05-24 17:56:48.960000+09:00,2024,5,24,8,56,48,960,,,,,,,,,0.32959,0.21875,0.318115,10.253906,-152.770996,-19.40918,,,,,,,,,,,0.0,1.0,1.0,4.0,0.0,0.0,0.0,6.0,0.0,0.025393879999999997,-0.08206384,1.0515788,-0.16682946666666634,-1.6202799066666662,4.192708306666667,26.39549135059451,-14.871066164400863,10.425781195012558,-2.9982562839189626,9.99446283005399,18.25766875003046,21.029058376238087,-1.2699252683950666,20.63443221480257,-1.381667911242837,0.30419612,0.30081384,-0.7334638,1.33847376,0.8491132973102234,0.8121904000009068,0.7984250186087325,0.7984250186087325
LBP09_S04,LBP09,-1575,76,4,75,-1575,1716541009.0,2024-05-24 08:56:49+00:00,2024-05-24 17:56:49+09:00,2024,5,24,8,56,49,0,8.0,56.0,48.0,40.56414,141.546158,4.549,3.0,16.0,0.659912,-0.101318,0.965332,-52.856445,-26.306152,18.249512,-291.0,181.0,238.0,753.0,0.0,1005.5,22.18,-0.074323,64.686775,3.888281,0.0,1.0,1.0,4.0,0.0,0.0,0.0,5.0,0.0,0.025224613333333333,-0.08476566666666667,1.0737858266666667,0.9138996933333335,-1.4469400666666663,4.393717413333333,38.40700297371347,-18.754185917932187,9.629583706009853,-1.461976164970424,9.244295393336703,18.642852098270854,20.860256613575245,-1.2807860413912857,20.778567628024426,-1.3679850468013384,0.6346873866666667,-0.016552333333333336,-0.1084538266666667,0.7596935466666667,0.6440995971518567,0.8179883749983274,0.7944679565200946,0.7944679565200946
LBP09_S04,LBP09,-1574,77,4,76,-1574,1716541009.04,2024-05-24 08:56:49.040000+00:00,2024-05-24 17:56:49.040000+09:00,2024,5,24,8,56,49,40,,,,,,,,,0.089111,-0.416748,1.69165,-11.413574,78.491211,42.114258,,,,,,,,,,,0.0,1.0,1.0,4.0,0.0,0.0,0.0,5.0,0.0,0.021562506666666665,-0.07948572000000001,1.0755501466666668,1.416015586666667,1.614583373333334,4.439290333333332,45.0647282714455,-20.56527237510662,7.9952968328067255,0.3406129658873962,8.421684498332437,18.962663971583122,20.751467704265163,-1.3052582321806603,20.820581170092748,-1.3453465091534995,0.06754849333333333,-0.33726228,0.6160998533333333,1.0209106266666668,0.7056115600950402,0.7972180868431896,0.7922465466094682,0.7922465466094682
LBP09_S04,LBP09,-1573,78,4,77,-1573,1716541009.08,2024-05-24 08:56:49.080000+00:00,2024-05-24 17:56:49.080000+09:00,2024,5,24,8,56,49,80,,,,,,,,,-0.234619,-0.023438,2.029053,101.745605,-16.540527,5.615234,,,,,,,,,,,0.0,1.0,1.0,4.0,0.0,0.0,0.0,5.0,0.0,0.008489586666666665,-0.08223310666666667,1.0644173333333333,-0.7446289466666661,2.8336588933333346,4.7794596,45.515591471634586,-20.309570215068554,5.281181080353783,2.16123662475278,7.609301689729695,19.173911214797275,20.741535315073104,-1.4676215888154867,20.75135058302863,-1.3309847316527696,-0.24310858666666665,0.058795106666666666,0.9646356666666669,1.2665393600000003,0.9965343039175589,0.809211974920859,0.7972291748364949,0.7972291748364949
LBP09_S04,LBP09,-1572,79,4,78,-1572,1716541009.12,2024-05-24 08:56:49.120000+00:00,2024-05-24 17:56:49.120000+09:00,2024,5,24,8,56,49,120,,,,,,,,,0.093262,-0.093506,1.759521,53.894043,17.028809,-2.807617,,,,,,,,,,,0.0,1.0,1.0,4.0,0.0,0.0,0.0,5.0,0.0,0.007138666666666665,-0.07795577333333333,1.0476920666666667,0.6315103733333339,0.6551107066666674,3.016764293333333,39.45817920375289,-17.984458327593874,1.518143783586395,3.7395637929028958,6.88992335662594,19.23463696614073,20.770812223902016,-1.479228804213703,20.58711549112921,-1.339454030232631,0.08612333333333333,-0.01555022666666668,0.7118289333333332,0.8135024933333332,0.717188586373417,0.8043282669963051,0.795323446539755,0.795323446539755
LBP09_S04,LBP09,-1571,80,4,79,-1571,1716541009.16,2024-05-24 08:56:49.160000+00:00,2024-05-24 17:56:49.160000+09:00,2024,5,24,8,56,49,160,,,,,,,,,-0.286133,-0.351318,0.476562,60.974121,97.53418,48.461914,,,,,,,,,,,0.0,1.0,1.0,4.0,0.0,0.0,0.0,5.0,0.0,0.022151693333333333,-0.07759770666666667,1.03110352,0.6518554266666673,-0.28727209333333253,2.591145813333333,27.255791870323428,-13.41788781848703,-2.9247768308693542,4.829795467715833,6.353207843886459,19.117645892905955,20.716528634260442,-1.2920387859773887,20.373514015164893,-1.3515804937004485,-0.30828469333333336,-0.27372029333333336,-0.5545415200000001,1.136546506666667,0.6909982261410111,0.8167527946021249,0.7928972786235051,0.7928972786235051
LBP09_S04,LBP09,-1570,81,4,80,-1570,1716541009.2,2024-05-24 08:56:49.200000+00:00,2024-05-24 17:56:49.200000+09:00,2024,5,24,8,56,49,200,,,,,,,,,0.169434,0.361572,0.061279,-0.061035,-60.119629,-28.930664,,,,,,,,,,,0.0,1.0,1.0,4.0,0.0,0.0,0.0,5.0,0.0,0.02177409333333333,-0.07793950666666666,1.0302701866666666,-0.1765950933333327,0.9285482266666676,3.0973307066666664,10.039566531800856,-6.365883852774752,-7.409061407396054,5.231378128987867,6.098572489775469,18.821283436610113,20.464618582878913,-1.2976880127269672,20.180352796619193,-1.3816265448871363,0.14765990666666667,0.43951150666666666,-0.9689911866666666,1.5561626,1.0742056285306305,0.8295464911830461,0.7992906502123034,0.7992906502123034
LBP09_S04,LBP09,-1569,82,4,81,-1569,1716541009.24,2024-05-24 08:56:49.240000+00:00,2024-05-24 17:56:49.240000+09:00,2024,5,24,8,56,49,240,,,,,,,,,0.087646,-0.24707,0.289062,-65.917969,-114.929199,-39.0625,,,,,,,,,,,0.0,1.0,1.0,4.0,0.0,0.0,0.0,5.0,0.0,0.01806641333333333,-0.07455409333333333,1.0457389466666667,0.23437496000000066,-0.2010090533333324,2.4137369599999996,-10.286335394194754,3.1520913998967504,-11.209660299941497,4.819924713220077,6.224656145771339,18.372897024612453,19.988530797715267,-1.3325063263760764,20.079434626280367,-1.4169447358426852,0.06957958666666667,-0.17251590666666666,-0.7566769466666667,0.9987724400000001,0.7792066853861791,0.8009144706504153,0.7988443398828339,0.7988443398828339
LBP09_S04,LBP09,-1568,83,4,82,-1568,1716541009.28,2024-05-24 08:56:49.280000+00:00,2024-05-24 17:56:49.280000+09:00,2024,5,24,8,56,49,280,,,,,,,,,0.783936,0.371094,0.815674,13.549805,-69.030762,-62.683105,,,,,,,,,,,0.0,1.0,1.0,4.0,0.0,0.0,0.0,5.0,0.0,0.01466797333333333,-0.08167649333333334,1.0754394666666667,-0.27913414666666597,-0.8569335333333322,3.0761718533333333,-31.168124937144157,14.469541501445867,-13.74115934781552,3.5731997157343107,6.803437805829174,17.823250650699833,19.409347901049678,-1.3926194526833993,20.112226904549114,-1.4339299732636213,0.7692680266666666,0.4527704933333333,-0.25976546666666667,1.4818039866666666,0.9296518241564895,0.829575152018245,0.8016879808453048,0.8016879808453048
LBP09_S04,LBP09,-1567,84,4,83,-1567,1716541009.32,2024-05-24 08:56:49.320000+00:00,2024-05-24 17:56:49.320000+09:00,2024,5,24,8,56,49,320,,,,,,,,,0.148926,-0.227051,1.637939,-41.748047,77.758789,12.084961,,,,,,,,,,,0.0,1.0,1.0,4.0,0.0,0.0,0.0,5.0,0.0,0.014371746666666664,-0.08263677333333334,1.0878776133333334,-0.2067057599999993,1.9881185466666678,3.2438150799999996,-49.63888669455789,26.100330446544916,-14.731597604481355,1.587644247951995,7.8474510236909705,17.23398674652058,19.00298400269101,-1.3981324242444508,20.270373160398844,-1.4304280821212958,0.13455425333333335,-0.14441422666666665,0.5500613866666666,0.8290298666666666,0.5844038373038616,0.8024161863450253,0.7970649139614443,0.7970649139614443
LBP09_S04,LBP09,-1566,85,4,84,-1566,1716541009.36,2024-05-24 08:56:49.360000+00:00,2024-05-24 17:56:49.360000+09:00,2024,5,24,8,56,49,360,,,,,,,,,-0.162842,0.203857,2.003662,-62.866211,45.837402,4.089355,,,,,,,,,,,0.0,1.0,1.0,4.0,0.0,0.0,0.0,5.0,0.0,3.255999999999704e-05,-0.07952478666666667,1.0770866,0.45817054666666723,3.4928386000000016,3.186035133333333,-62.64933476529405,35.94247744442895,-14.275013125947714,-0.9183291426597671,9.285150121468128,16.66298622148267,19.09744619078109,-1.5703857802619436,20.50112445171713,-1.4286474677629457,-0.16287455999999997,0.2833817866666667,0.9265753999999999,1.3728317466666666,0.9825351551953475,0.8028673540462461,0.800928877320484,0.800928877320484
LBP09_S04,LBP09,-1565,86,4,85,-1565,1716541009.4,2024-05-24 08:56:49.400000+00:00,2024-05-24 17:56:49.400000+09:00,2024,5,24,8,56,49,400,,,,,,,,,0.090088,-0.568848,1.91333,-61.889648,72.937012,-10.375977,,,,,,,,,,,0.0,1.0,1.0,4.0,0.0,0.0,0.0,5.0,0.0,-0.004921866666666669,-0.07801762666666666,1.0624153866666666,0.6152343466666673,1.979166720000001,2.7954101466666663,-67.48558985247841,41.81591154898552,-12.761616017551303,-3.6177527367589035,10.957786583427549,16.152521580780615,19.851074910186973,-1.6339679509467764,20.72995832197893,-1.446102135014316,0.09500986666666666,-0.49083037333333335,0.8509146133333334,1.4367548533333334,0.9869128681574547,0.8209577874975617,0.8047244689702181,0.8047244689702181
LBP09_S04,LBP09,-1564,87,4,86,-1564,1716541009.44,2024-05-24 08:56:49.440000+00:00,2024-05-24 17:56:49.440000+09:00,2024,5,24,8,56,49,440,,,,,,,,,-0.375,0.16748,0.622314,-11.230469,173.034668,-2.868652,,,,,,,,,,,0.0,1.0,1.0,4.0,0.0,0.0,0.0,5.0,0.0,0.007324226666666664,-0.07651372,1.0438216266666667,0.5371093466666673,0.5078125466666675,2.5089518133333333,-62.25639635419398,42.1125012382874,-10.743768394262288,-6.108008590926663,12.642286632959046,15.722770845010123,21.079390486952633,-1.4751106063900212,20.88847826480923,-1.4628211702723637,-0.38232422666666666,0.24399371999999997,-0.42150762666666663,1.0478255733333333,0.619171566719491,0.8231077112982383,0.8010134109252034,0.8010134109252034
LBP09_S04,LBP09,-1563,88,4,87,-1563,1716541009.48,2024-05-24 08:56:49.480000+00:00,2024-05-24 17:56:49.480000+09:00,2024,5,24,8,56,49,480,,,,,,,,,-0.060303,-0.133545,0.276367,-73.303223,-20.690918,19.042969,,,,,,,,,,,0.0,1.0,1.0,4.0,0.0,0.0,0.0,5.0,0.0,0.011171879999999999,-0.08056645333333333,1.03235028,1.173502573333334,0.49560552000000097,3.0151367066666666,-46.39484616714557,36.29381160797275,-8.806871583524256,-7.963802437612486,14.094039097277955,15.370495981669153,22.322997873570426,-1.4326026773922305,20.939514155173782,-1.492989413821275,-0.07147488,-0.05297854666666667,-0.7559832799999999,0.8804367066666666,0.7612004364932305,0.8121051350438891,0.7953077115972927,0.8002327643677138
LBP09_S04,LBP09,-1562,89,4,88,-1562,1716541009.52,2024-05-24 08:56:49.520000+00:00,2024-05-24 17:56:49.520000+09:00,2024,5,24,8,56,49,520,,,,,,,,,0.373047,0.097168,0.800049,-33.935547,-75.622559,-43.579102,,,,,,,,,,,0.0,1.0,1.0,4.0,0.0,0.0,0.0,5.0,0.0,0.009306653333333331,-0.08502609333333333,1.0477994933333334,2.3754882533333337,-0.9993489066666654,3.622233066666666,-21.067969735737023,25.068388549232854,-7.481901022994149,-8.806521227041967,15.096774639247268,15.071219940749387,23.078325137084846,-1.461422660630202,20.891707374952247,-1.5209355022706257,0.36374034666666666,0.18219409333333333,-0.24775049333333343,0.7936849333333335,0.4763213562141134,0.786615474522236,0.7926465874335024,0.7940036988262984
LBP09_S04,LBP09,-1561,90,4,89,-1561,1716541009.56,2024-05-24 08:56:49.560000+00:00,2024-05-24 17:56:49.560000+09:00,2024,5,24,8,56,49,560,,,,,,,,,0.471924,0.064209,1.492676,-123.352051,66.650391,-44.98291,,,,,,,,,,,0.0,1.0,1.0,4.0,0.0,0.0,0.0,5.0,0.0,0.008655613333333333,-0.08300136,1.0750390666666667,6.606445293333334,-1.7252603733333323,3.4700520799999994,10.664756990686259,10.238642878449243,-7.1906011568756245,-8.379930947414516,15.506320354385238,14.783595894474361,23.00486733687844,-1.4665854584910918,20.79120575396258,-1.5361110713064634,0.4632683866666667,0.14721035999999998,0.4176369333333332,1.02811568,0.6408658956912411,0.7920026712230702,0.7896859727891035,0.7911143063143162
LBP09_S04,LBP09,-1560,91,4,90,-1560,1716541009.6,2024-05-24 08:56:49.600000+00:00,2024-05-24 17:56:49.600000+09:00,2024,5,24,8,56,49,600,,,,,,,,,-0.585449,-0.514893,2.020508,-30.578613,53.405762,-25.085449,,,,,,,,,,,0.0,1.0,1.0,4.0,0.0,0.0,0.0,5.0,0.0,0.00813153333333333,-0.07667323999999999,1.0850911600000002,8.378092426666669,1.2744141066666679,4.123535159999999,44.12131768657594,-5.679003575500452,-8.184241068790621,-6.615078239951479,15.27916021136522,14.456226251722736,22.049818011181934,-1.4648783653074455,20.683247749276,-1.5194330859658909,-0.5935805333333333,-0.43821976000000007,0.9354168399999998,1.967217133333333,1.1913769647606618,0.786811747160194,0.8001923727072665,0.7985265777670263
LBP09_S04,LBP09,-1559,92,4,91,-1559,1716541009.64,2024-05-24 08:56:49.640000+00:00,2024-05-24 17:56:49.640000+09:00,2024,5,24,8,56,49,640,,,,,,,,,-0.791992,-1.331299,2.397217,40.649414,-101.318359,30.151367,,,,,,,,,,,0.0,1.0,1.0,4.0,0.0,0.0,0.0,5.0,0.0,-0.005006493333333336,-0.07908209333333333,1.07639976,8.55305988,2.7905273866666684,4.685058586666667,73.79787317699756,-19.944260112414298,-10.447091437019699,-3.6631633128715766,14.481389806868648,14.038342594241948,20.498889701360785,-1.6341887618651878,20.573669197019377,-1.5011576830251285,-0.7869855066666667,-1.2522169066666666,1.32081724,3.3600196533333335,1.9829149125785612,0.8300232888320562,0.8193300339157855,0.820060911127236
LBP09_S04,LBP09,-1558,93,4,92,-1558,1716541009.68,2024-05-24 08:56:49.680000+00:00,2024-05-24 17:56:49.680000+09:00,2024,5,24,8,56,49,680,,,,,,,,,-0.093994,-0.063721,1.30249,321.594238,35.095215,39.123535,,,,,,,,,,,0.0,1.0,1.0,4.0,0.0,0.0,0.0,5.0,0.0,-0.007796200000000003,-0.07690761333333333,1.0659212533333333,10.345052066666668,0.8235677600000012,3.9892577999999994,94.6030707807832,-30.116368830909074,-13.590959999073876,0.1209595183597516,13.276735053632285,13.494704194278993,18.931280098834343,-1.6720803371769069,20.435568363931832,-1.499155197659679,-0.08619779999999999,0.013186613333333333,0.2365687466666666,0.3359531599999999,0.2521283787983422,0.8140908648592493,0.812455587193236,0.80991925876422
LBP09_S04,LBP09,-1557,94,4,93,-1557,1716541009.72,2024-05-24 08:56:49.720000+00:00,2024-05-24 17:56:49.720000+09:00,2024,5,24,8,56,49,720,,,,,,,,,-0.092773,0.511719,-0.335449,249.694824,-37.109375,36.254883,,,,,,,,,,,0.0,1.0,1.0,4.0,0.0,0.0,0.0,5.0,0.0,0.0016308799999999969,-0.07820644,1.0500423466666668,11.879069,-1.1987304266666654,3.092447906666666,103.17204106243821,-34.54615633694278,-16.826743017035028,4.24784116085728,11.894888800154574,12.821634473597593,17.997967792794338,-1.5498881146028278,20.24888621768501,-1.5021022020418644,-0.09440388,0.58992544,-1.385491346666667,2.0698206666666668,1.5088109189048384,0.8505044735324144,0.8334591581813435,0.8221805159596696
LBP09_S04,LBP09,-1556,95,4,94,-1556,1716541009.76,2024-05-24 08:56:49.760000+00:00,2024-05-24 17:56:49.760000+09:00,2024,5,24,8,56,49,760,,,,,,,,,-0.029053,0.075928,0.273438,87.646484,-117.980957,-65.551758,,,,,,,,,,,0.0,1.0,1.0,4.0,0.0,0.0,0.0,5.0,0.0,0.01081057333333333,-0.06417649333333333,1.0336198133333332,11.402180973333333,-0.047200479999998775,2.8198241999999993,98.76267261201913,-32.74730952121346,-19.098039543059425,8.198348065338045,10.584996419306036,12.057712891875216,18.017866143915253,-1.4036059268562195,20.030761696959964,-1.5159571701300267,-0.03986357333333333,0.14010449333333333,-0.7601818133333331,0.9401498799999998,0.7740121206117166,0.854742881104869,0.8278352338261398,0.8213500263847048
LBP09_S04,LBP09,-1555,96,4,95,-1555,1716541009.8,2024-05-24 08:56:49.800000+00:00,2024-05-24 17:56:49.800000+09:00,2024,5,24,8,56,49,800,,,,,,,,,0.623535,0.049805,0.703369,76.538086,-130.432129,-125.793457,,,,,,,,,,,0.0,1.0,1.0,4.0,0.0,0.0,0.0,5.0,0.0,0.008033879999999997,-0.06699876,1.04035484,8.49039712,-0.3247069866666655,2.596842426666666,83.35635901267476,-25.53624108330835,-19.37619190993068,11.532602425845036,9.563546775973702,11.282665215477989,18.755289387620785,-1.4512139215391509,19.839161135710498,-1.5392191785591378,0.6155011199999999,0.11680376,-0.33698584,1.06929072,0.7113678397509249,0.8470979045702878,0.8285263043376152,0.8194859215265051
LBP09_S04,LBP09,-1554,97,4,96,-1554,1716541009.84,2024-05-24 08:56:49.840000+00:00,2024-05-24 17:56:49.840000+09:00,2024,5,24,8,56,49,840,,,,,,,,,0.341553,-0.086426,1.405273,-102.233887,101.379395,27.770996,,,,,,,,,,,0.0,1.0,1.0,4.0,0.0,0.0,0.0,5.0,0.0,0.008404973333333331,-0.07247728,1.06874676,6.445312493333334,-1.2703449999999987,2.7010090933333326,60.93544608036511,-14.853334101871964,-17.002467994882398,13.97002026905964,8.969413411898824,10.602566495682693,19.698382156077205,-1.4550857527355283,19.752346150659793,-1.5524065563512717,0.33314802666666665,-0.013948719999999998,0.33652624,0.6836229866666667,0.47374263547845263,0.8548085256714159,0.822827292230642,0.8137235334257042
LBP09_S04,LBP09,-1553,98,4,97,-1553,1716541009.88,2024-05-24 08:56:49.880000+00:00,2024-05-24 17:56:49.880000+09:00,2024,5,24,8,56,49,880,,,,,,,,,-0.494385,0.119629,2.040039,2.685547,37.658691,-29.23584,,,,,,,,,,,0.0,1.0,1.0,4.0,0.0,0.0,0.0,5.0,0.0,0.00834313333333333,-0.07662441333333332,1.0797754000000002,7.080891920000001,0.5900065600000013,2.8678385199999994,36.271411820318214,-3.273099969949048,-11.917936407192231,15.42087674187237,8.838489413100861,10.125849039395003,20.45617641110217,-1.4620727212140825,19.83332720227918,-1.533336015811913,-0.5027281333333333,0.19625341333333332,0.9602636,1.6592451466666667,1.101524924717894,0.8581475869758936,0.8358636698458297,0.8184415890206582
LBP09_S04,LBP09,-1552,99,4,98,-1552,1716541009.92,2024-05-24 08:56:49.920000+00:00,2024-05-24 17:56:49.920000+09:00,2024,5,24,8,56,49,920,,,,,,,,,-0.06543,-0.171387,2.212158,-24.597168,-32.836914,-1.037598,,,,,,,,,,,0.0,1.0,1.0,4.0,0.0,0.0,0.0,5.0,0.0,-0.0019726266666666697,-0.06772793333333334,1.0671582133333333,8.078613266666668,2.8328450933333342,3.3251952799999995,13.712412461891937,6.653084542360987,-4.684591922902328,15.969373240348046,9.104612794795301,9.93846536247891,20.897079929834398,-1.5999723415118263,20.093948420475684,-1.5106939722212267,-0.06345737333333333,-0.10365906666666667,1.1449997866666668,1.3121162266666668,1.1514323913279854,0.8634132764706609,0.8381116413833232,0.8238124084127117
LBP09_S04,LBP09,-1551,100,4,99,-1551,1716541009.96,2024-05-24 08:56:49.960000+00:00,2024-05-24 17:56:49.960000+09:00,2024,5,24,8,56,49,960,,,,,,,,,-0.130615,-0.099854,1.062988,50.720215,132.202148,47.424316,,,,,,,,,,,0.0,1.0,1.0,4.0,0.0,0.0,0.0,5.0,0.0,-0.008850880000000002,-0.06869148,1.0517838666666666,7.214355453333334,1.7382812933333347,3.7280273199999994,-3.6458900914829795,12.996990767434037,3.685261420240007,15.823537636688727,9.624492425492662,10.08587581928851,21.088861724383772,-1.699205542782204,20.481617280104484,-1.4989846498639223,-0.12176412,-0.03116252,0.011204133333333477,0.16413077333333348,0.1261869096851013,0.834496220965656,0.8233433104832814,0.8127389877979878
LBP09_S04,LBP09,-1550,101,4,100,-1550,1716541010.0,2024-05-24 08:56:50+00:00,2024-05-24 17:56:50+09:00,2024,5,24,8,56,50,0,8.0,56.0,49.0,40.564186,141.546127,4.104,3.0,15.0,-0.174561,-0.135498,0.066895,14.587402,-20.446777,30.273438,-297.0,170.0,252.0,185.0,0.0,1005.599976,22.26,-0.073332,63.849743,3.888281,0.0,1.0,1.0,4.0,0.0,0.0,0.0,11.0,0.0,-0.0017545333333333362,-0.06772793333333334,1.02878908,5.54036456,-0.3645832933333319,3.780924453333333,-14.271719154648265,14.809881051344503,11.996016575445529,15.252668870502795,10.216887667546441,10.565716482306332,21.181668160674864,-1.5967521432287848,20.909815751599105,-1.5012520904575344,-0.17280646666666666,-0.06777006666666667,-0.9618940799999999,1.2024706133333332,0.9796402798971,0.8479178482754658,0.8329531116368968,0.8153468204870365
LBP09_S04,LBP09,-1549,102,4,101,-1549,1716541010.04,2024-05-24 08:56:50.040000+00:00,2024-05-24 17:56:50.040000+09:00,2024,5,24,8,56,50,40,,,,,,,,,0.137451,0.26416,0.527832,23.071289,-84.472656,-21.30127,,,,,,,,,,,0.0,1.0,1.0,4.0,0.0,0.0,0.0,11.0,0.0,0.008359399999999998,-0.06543952,1.01101564,4.454752573333334,-0.6404621999999985,3.9388020666666663,-18.082427348248174,12.171533953998617,19.12795823969456,14.529371776572868,10.703749025706387,11.330834811894114,21.308700217554662,-1.4434833564715985,21.31399167683328,-1.5094895188179334,0.1290916,0.32959952000000003,-0.48318364000000014,0.9418747600000001,0.598971547519947,0.8436522477724622,0.8204351673078258,0.8120179701336967
LBP09_S04,LBP09,-1548,103,4,102,-1548,1716541010.08,2024-05-24 08:56:50.080000+00:00,2024-05-24 17:56:50.080000+09:00,2024,5,24,8,56,50,80,,,,,,,,,0.568115,-0.390381,1.411377,-104.064941,12.512207,17.150879,,,,,,,,,,,0.0,1.0,1.0,4.0,0.0,0.0,0.0,11.0,0.0,0.009023466666666664,-0.07191088,1.0102474133333335,3.7101236666666666,-1.2109374533333317,4.62809244,-16.091611888266772,5.996354025525765,24.227357123072753,13.885707301042197,10.943603186727417,12.299929096817024,21.537492280799384,-1.4456599012700437,21.680680428551693,-1.5271562232589502,0.5590915333333334,-0.31847011999999997,0.40112958666666665,1.2786912400000001,0.7582291904676337,0.8341200432344651,0.821666009077662,0.8112029886236047
LBP09_S04,LBP09,-1547,104,4,103,-1547,1716541010.12,2024-05-24 08:56:50.120000+00:00,2024-05-24 17:56:50.120000+09:00,2024,5,24,8,56,50,120,,,,,,,,,-0.140381,-0.291992,1.831787,35.583496,74.523926,29.724121,,,,,,,,,,,0.0,1.0,1.0,4.0,0.0,0.0,0.0,11.0,0.0,0.01072593333333333,-0.07744146666666667,1.0339616,4.520670546666667,-2.2998046399999987,4.458821613333333,-9.977450010546553,-2.27193464487051,26.820393436435843,13.486609300620335,10.852725800932596,13.372744834274458,21.874656389082347,-1.4327948910297836,22.036031160071712,-1.545746446695174,-0.15110693333333333,-0.2145505333333333,0.7978254,1.1634828666666666,0.8398753511921767,0.8390275138272155,0.8216778904117602,0.8116309343335835
LBP09_S04,LBP09,-1546,105,4,104,-1546,1716541010.16,2024-05-24 08:56:50.160000+00:00,2024-05-24 17:56:50.160000+09:00,2024,5,24,8,56,50,160,,,,,,,,,-0.878662,-0.300049,2.362061,-5.92041,-79.101562,23.4375,,,,,,,,,,,0.0,1.0,1.0,4.0,0.0,0.0,0.0,11.0,0.0,0.011175146666666663,-0.07698899999999999,1.0547135466666666,4.96419268,-1.2060546399999987,4.571126293333332,-1.6605551671673366,-10.967003922741103,26.868294063489042,13.420187093933642,10.414045644022952,14.44747659681402,22.299850858861486,-1.4262803327923421,22.41878898024121,-1.5373333419870843,-0.8898371466666667,-0.22306000000000004,1.3073474533333336,2.4202446,1.5970983923744422,0.8752715204765527,0.8460121575393387,0.8231819263635961
LBP09_S04,LBP09,-1545,106,4,105,-1545,1716541010.2,2024-05-24 08:56:50.200000+00:00,2024-05-24 17:56:50.200000+09:00,2024,5,24,8,56,50,200,,,,,,,,,0.164307,-0.397705,1.605225,39.0625,-10.070801,79.162598,,,,,,,,,,,0.0,1.0,1.0,4.0,0.0,0.0,0.0,11.0,0.0,0.0028645999999999962,-0.07715826666666667,1.0550390666666665,4.608561173333333,2.4039714000000014,5.572916666666667,7.058614505363979,-18.46788829160083,24.764862854948507,13.7025316741482,9.67533011235892,15.438071111011961,22.797048639962497,-1.533588205143139,22.858068219151,-1.5149573930564444,0.1614424,-0.3205467333333333,0.5501859333333334,1.0321750666666667,0.6569006150144041,0.8585793199359038,0.8440629055594749,0.8207720522860716
LBP09_S04,LBP09,-1544,107,4,106,-1544,1716541010.24,2024-05-24 08:56:50.240000+00:00,2024-05-24 17:56:50.240000+09:00,2024,5,24,8,56,50,240,,,,,,,,,-0.318359,0.168945,-0.061035,42.480469,56.57959,39.001465,,,,,,,,,,,0.0,1.0,1.0,4.0,0.0,0.0,0.0,11.0,0.0,-0.0049413866666666705,-0.08120773333333334,1.04332032,5.708821586666667,1.8538412000000013,5.017089853333333,14.754030231299883,-23.43505543559829,21.25162129875842,14.292692883400196,8.737927894934987,16.288135962962297,23.365269673261366,-1.631752797145696,23.362833135102957,-1.502420504788838,-0.31341761333333334,0.2501527333333333,-1.10435532,1.6679256666666666,1.1749075125957802,0.8744073530242876,0.8376609118373515,0.825831130290496
LBP09_S04,LBP09,-1543,108,4,107,-1543,1716541010.28,2024-05-24 08:56:50.280000+00:00,2024-05-24 17:56:50.280000+09:00,2024,5,24,8,56,50,280,,,,,,,,,-0.12085,0.150146,-0.010254,-3.479004,-35.705566,-11.962891,,,,,,,,,,,0.0,1.0,1.0,4.0,0.0,0.0,0.0,11.0,0.0,-0.00620114666666667,-0.08043298666666666,1.0259082,6.574707,-0.5582681733333319,4.43359376,20.48177980703556,-25.022930681556392,17.231607979948635,15.11196407568162,7.737010667672732,16.977400282160243,24.009683726302356,-1.6479749555763215,23.92245525534894,-1.5067144870680613,-0.11464885333333333,0.23057898666666665,-1.0361622,1.3813900399999999,1.0676811946324214,0.879928527843325,0.8547518399307851,0.8292374692248893
LBP09_S04,LBP09,-1542,109,4,108,-1542,1716541010.32,2024-05-24 08:56:50.320000+00:00,2024-05-24 17:56:50.320000+09:00,2024,5,24,8,56,50,320,,,,,,,,,0.222168,-0.203125,0.37793,-28.564453,-124.023438,-33.02002,,,,,,,,,,,0.0,1.0,1.0,4.0,0.0,0.0,0.0,11.0,0.0,0.004508479999999997,-0.08222661333333334,1.01104492,7.676595026666666,-1.8196613999999984,4.09423828,23.749599657115898,-23.050227830562875,13.51354727953507,16.061948061966255,6.815001554450217,17.517942173341645,24.724658131529385,-1.5158412944309296,24.51383829058424,-1.5176512414845873,0.21765952,-0.12089838666666666,-0.63311492,0.9716728266666667,0.6803135956835198,0.8837649181785112,0.8430905522617682,0.8271690820923703
LBP09_S04,LBP09,-1541,110,4,109,-1541,1716541010.36,2024-05-24 08:56:50.360000+00:00,2024-05-24 17:56:50.360000+09:00,2024,5,24,8,56,50,360,,,,,,,,,0.708008,-0.019043,0.708252,35.339355,-71.655273,-41.564941,,,,,,,,,,,0.0,1.0,1.0,4.0,0.0,0.0,0.0,11.0,0.0,0.008121759999999997,-0.08521814666666666,1.0111751199999999,6.656087213333333,-2.046712186666665,4.596354173333332,24.415025959036683,-18.067917825710506,10.581410054165055,17.03854910032772,6.0922848414217965,17.941198575508245,25.481654113481635,-1.4754460534758056,25.109724179984333,-1.5440969627387884,0.69988624,0.06617514666666666,-0.3029231199999999,1.0689845066666666,0.7654948174927292,0.8750833046704065,0.8389753293583264,0.8263242291526492
LBP09_S04,LBP09,-1540,111,4,110,-1540,1716541010.4,2024-05-24 08:56:50.400000+00:00,2024-05-24 17:56:50.400000+09:00,2024,5,24,8,56,50,400,,,,,,,,,0.250244,-0.253906,1.275635,-6.652832,60.241699,45.410156,,,,,,,,,,,0.0,1.0,1.0,4.0,0.0,0.0,0.0,11.0,0.0,0.008476573333333329,-0.08527022666666667,1.0349218666666666,5.656738253333334,-2.4218749466666654,4.584960933333334,22.600505525005506,-11.2457475231083,8.501213075364797,17.94256932132794,5.642454940497465,18.281247098522837,26.229317320194447,-1.4713832605527184,25.684780529639898,-1.5711482340986538,0.2417674266666667,-0.16863577333333335,0.24071313333333344,0.6511163333333335,0.38056842381351685,0.850829526896649,0.8358936571971053,0.8203005020534717
LBP09_S04,LBP09,-1539,112,4,111,-1539,1716541010.44,2024-05-24 08:56:50.440000+00:00,2024-05-24 17:56:50.440000+09:00,2024,5,24,8,56,50,440,,,,,,,,,-0.41626,-0.355713,1.864258,36.560059,34.973145,44.372559,,,,,,,,,,,0.0,1.0,1.0,4.0,0.0,0.0,0.0,11.0,0.0,0.00758465333333333,-0.09000005333333334,1.0617643066666667,5.1196288800000005,-2.2233072399999982,4.780273439999999,18.674959167005905,-4.055716464381762,7.014871000497843,18.68956768800818,5.480226281922194,18.56184193854275,26.90492142001449,-1.4864231792638332,26.218929447404655,-1.5728043178654239,-0.4238446533333333,-0.26571294666666667,0.8024936933333333,1.4920512933333332,0.945644641514618,0.8638884498884543,0.8434980805933463,0.821971757246287
LBP09_S04,LBP09,-1538,113,4,112,-1538,1716541010.48,2024-05-24 08:56:50.480000+00:00,2024-05-24 17:56:50.480000+09:00,2024,5,24,8,56,50,480,,,,,,,,,0.050537,0.080322,1.678711,119.934082,-34.973145,11.84082,,,,,,,,,,,0.0,1.0,1.0,4.0,0.0,0.0,0.0,11.0,0.0,0.0015267066666666633,-0.09720382666666667,1.0759570133333334,4.808756493333334,1.7317708800000013,5.457356773333333,13.277001468911894,2.152903990888555,5.7661788727422865,19.220647746764655,5.566342441557737,18.79248909345244,27.451322633152397,-1.5550274454353026,26.699009900643212,-1.5631116719849532,0.04901029333333334,0.17752582666666666,0.6027539866666667,0.8292901066666667,0.6302616888474684,0.8586508999826235,0.8353780175132565,0.8164221077257363
LBP09_S04,LBP09,-1537,114,4,113,-1537,1716541010.52,2024-05-24 08:56:50.520000+00:00,2024-05-24 17:56:50.520000+09:00,2024,5,24,8,56,50,520,,,,,,,,,-0.201416,0.354492,0.528076,-0.488281,126.77002,17.944336,,,,,,,,,,,0.0,1.0,1.0,4.0,0.0,0.0,0.0,11.0,0.0,-0.012018213333333338,-0.0949024,1.0619270666666667,5.83658852,2.079264360000001,5.18961588,7.300740570732413,6.514290700892454,4.534077664937894,19.512677369593952,5.8269140695934345,18.973852200049954,27.833515283083276,-1.6972521035717971,27.11994713947352,-1.5568363560233107,-0.18939778666666668,0.44939439999999997,-0.5338510666666667,1.1726432533333333,0.7230655639198494,0.8685206682908531,0.8275680714065444,0.8179379477192859
LBP09_S04,LBP09,-1536,115,4,114,-1536,1716541010.56,2024-05-24 08:56:50.560000+00:00,2024-05-24 17:56:50.560000+09:00,2024,5,24,8,56,50,560,,,,,,,,,-0.171387,-0.257324,0.031738,-128.845215,10.986328,34.423828,,,,,,,,,,,0.0,1.0,1.0,4.0,0.0,0.0,0.0,11.0,0.0,-0.010878880000000002,-0.08617193333333334,1.04515624,5.76009112,0.002441440000001194,4.292805986666666,1.7788750172424173,8.794001413595394,3.3586518276393043,19.58383237028365,6.17867412613725,19.108198273155526,28.050414355417132,-1.696793046390996,27.485900537775073,-1.5667726235495465,-0.16050812,-0.17115206666666666,-1.01341824,1.3450784266666667,1.0402270981256463,0.8844951163882293,0.8382488938056497,0.8212890206554787
LBP09_S04,LBP09,-1535,116,4,115,-1535,1716541010.6,2024-05-24 08:56:50.600000+00:00,2024-05-24 17:56:50.600000+09:00,2024,5,24,8,56,50,600,,,,,,,,,0.002441,-0.068848,0.378662,35.522461,-102.966309,-53.588867,,,,,,,,,,,0.0,1.0,1.0,4.0,0.0,0.0,0.0,11.0,0.0,0.001806666666666663,-0.08780604,1.0302278533333333,4.070638000000001,-0.5908202799999989,4.4539387999999995,-2.3224014909521795,9.281547386305377,2.515728351708899,19.490936310645562,6.549936021589465,19.208827407223882,28.138537817610075,-1.5501490428108382,27.811059971296594,-1.586011953111218,0.000634333333333337,0.018958039999999995,-0.6515658533333333,0.6711582266666666,0.6518419063618219,0.8629137140522757,0.8248627306062349,0.8210994864889363
LBP09_S04,LBP09,-1534,117,4,116,-1534,1716541010.64,2024-05-24 08:56:50.640000+00:00,2024-05-24 17:56:50.640000+09:00,2024,5,24,8,56,50,640,,,,,,,,,0.801514,0.160156,0.764404,46.630859,-71.289062,-32.226562,,,,,,,,,,,0.0,1.0,1.0,4.0,0.0,0.0,0.0,11.0,0.0,0.0032389599999999965,-0.09035486666666666,1.026552733333333,2.25667316,0.41259768000000124,5.50374348,-4.307692945530704,8.514915283682251,2.375733608533926,19.318628592824336,6.890532632936755,19.303856751565238,28.16607420564689,-1.534826338340989,28.1192946086369,-1.6172423927682886,0.7982750399999999,0.25051086666666667,-0.2621487333333331,1.3109346399999997,0.8767671824340582,0.8186678048464955,0.824345546839276,0.8191092908926888
LBP09_S04,LBP09,-1533,118,4,117,-1533,1716541010.68,2024-05-24 08:56:50.680000+00:00,2024-05-24 17:56:50.680000+09:00,2024,5,24,8,56,50,680,,,,,,,,,0.116455,-0.316406,1.546143,-70.983887,97.229004,53.527832,,,,,,,,,,,0.0,1.0,1.0,4.0,0.0,0.0,0.0,11.0,0.0,-0.0012695066666666695,-0.0883106,1.0473893333333335,1.2915038933333336,-1.0514322666666656,4.911295559999999,-3.8708567393814084,7.007103921666172,3.229875851332969,19.16379432324908,7.170816789803402,19.433051785618556,28.219056114605475,-1.5852217959598986,28.441930274919493,-1.6487781505023444,0.11772450666666667,-0.2280954,0.49875366666666654,0.8445735733333333,0.5609293992870354,0.8310198456660433,0.8225553552626462,0.8186436733508384
LBP09_S04,LBP09,-1532,119,4,118,-1532,1716541010.72,2024-05-24 08:56:50.720000+00:00,2024-05-24 17:56:50.720000+09:00,2024,5,24,8,56,50,720,,,,,,,,,-0.512695,-0.071289,1.919678,36.621094,29.907227,-6.713867,,,,,,,,,,,0.0,1.0,1.0,4.0,0.0,0.0,0.0,11.0,0.0,-0.0041959466666666705,-0.09479172,1.0733300933333332,2.343749986666667,-1.5926106533333324,5.044759106666667,-1.1074319095575105,5.115620019353109,5.161266310821247,19.119497046866776,7.375441590577526,19.639502438051405,28.38419211454494,-1.6152039696932858,28.81339720987675,-1.6614851961731962,-0.5084990533333333,0.02350271999999999,0.8463479066666668,1.3783496800000001,0.9876378102357886,0.8101729213192813,0.8303386974258479,0.8256970792273228
LBP09_S04,LBP09,-1531,120,4,119,-1531,1716541010.76,2024-05-24 08:56:50.760000+00:00,2024-05-24 17:56:50.760000+09:00,2024,5,24,8,56,50,760,,,,,,,,,-0.18042,-0.248047,2.265625,8.911133,-83.92334,-4.333496,,,,,,,,,,,0.0,1.0,1.0,4.0,0.0,0.0,0.0,11.0,0.0,-0.009095026666666672,-0.09377609333333334,1.07894208,4.007975253333334,1.7805989733333343,6.161295559999999,3.5475470516088796,3.0739242831418587,7.993962204856349,19.261398928931133,7.4983985619032,19.95926092624566,28.73324844869682,-1.6678393490925203,29.26511489674839,-1.6642807452536796,-0.17132497333333332,-0.15427090666666665,1.18668292,1.5122787999999998,1.2088705934677828,0.827567260233524,0.8411550706691964,0.8277459092952678
LBP09_S04,LBP09,-1530,121,4,120,-1530,1716541010.8,2024-05-24 08:56:50.800000+00:00,2024-05-24 17:56:50.800000+09:00,2024,5,24,8,56,50,800,,,,,,,,,-0.062256,-0.218994,1.279297,18.737793,126.708984,28.686523,,,,,,,,,,,0.0,1.0,1.0,4.0,0.0,0.0,0.0,11.0,0.0,-0.02130206666666667,-0.09894537333333334,1.0699284,4.344889306666667,2.4845377733333343,7.038574199999999,9.414024381341656,1.0959797544768444,11.311780358646523,19.6379599041848,7.542237752082274,20.411732140591518,29.3116636935975,-1.783687657123425,29.818692363979853,-1.671704328504021,-0.04095393333333333,-0.12004862666666666,0.2093685999999999,0.3703711599999999,0.24479401154028213,0.8089043071050982,0.8280011058376929,0.8219856385934429
LBP09_S04,LBP09,-1529,122,4,121,-1529,1716541010.84,2024-05-24 08:56:50.840000+00:00,2024-05-24 17:56:50.840000+09:00,2024,5,24,8,56,50,840,,,,,,,,,-0.361084,0.179932,-0.12793,16.235352,27.709961,5.67627,,,,,,,,,,,0.0,1.0,1.0,4.0,0.0,0.0,0.0,11.0,0.0,-0.02285805333333334,-0.09758469333333333,1.0554557466666667,5.0439452933333335,0.5501302266666676,6.9287109199999986,15.66079608648043,-0.5571015298259184,14.527286359956067,20.264391747644016,7.5199536908892375,20.992823594989762,30.131278082840435,-1.801780756604394,30.48014699257569,-1.6918065931773296,-0.33822594666666667,0.27751669333333334,-1.1833857466666666,1.7991283866666667,1.2616711661487134,0.8404214483319086,0.8476149870016623,0.8286920109310643
LBP09_S04,LBP09,-1528,123,4,122,-1528,1716541010.88,2024-05-24 08:56:50.880000+00:00,2024-05-24 17:56:50.880000+09:00,2024,5,24,8,56,50,880,,,,,,,,,-0.019043,0.028564,0.282471,7.202148,-75.744629,6.835938,,,,,,,,,,,0.0,1.0,1.0,4.0,0.0,0.0,0.0,11.0,0.0,-0.010914693333333336,-0.09808273333333334,1.0450032799999998,6.671549466666667,0.0626627866666676,6.469726546666666,21.385401776518645,-1.612951875084784,16.987294518813858,21.11980781870476,7.455435615885846,21.672315375742315,31.165991982724993,-1.6820979021438185,31.23695675222258,-1.7264052945955861,-0.008128306666666665,0.12664673333333334,-0.7625322799999997,0.8973073199999997,0.7730206610921017,0.8272812777868769,0.8427144323813852,0.8330028724928453
LBP09_S04,LBP09,-1527,124,4,123,-1527,1716541010.92,2024-05-24 08:56:50.920000+00:00,2024-05-24 17:56:50.920000+09:00,2024,5,24,8,56,50,920,,,,,,,,,0.511963,-0.122559,0.610107,-3.967285,-85.754395,1.708984,,,,,,,,,,,0.0,1.0,1.0,4.0,0.0,0.0,0.0,11.0,0.0,-0.014541000000000004,-0.09378910666666666,1.04255536,7.244466133333334,0.47281902666666764,7.20703124,25.694032888413513,-1.9112592133408834,18.10451995190722,22.1475691342413,7.378985247352211,22.396496173818605,32.35069215179964,-1.7252075943766323,32.0590628012774,-1.7631800432482225,0.526504,-0.028769893333333338,-0.43244836,0.9877222533333333,0.6819426316378093,0.8085016873992699,0.8359574819349654,0.8282416567219721
LBP09_S04,LBP09,-1526,125,4,124,-1526,1716541010.96,2024-05-24 08:56:50.960000+00:00,2024-05-24 17:56:50.960000+09:00,2024,5,24,8,56,50,960,,,,,,,,,0.277588,-0.382568,1.080811,3.112793,34.790039,53.161621,,,,,,,,,,,0.0,1.0,1.0,4.0,0.0,0.0,0.0,11.0,0.0,-0.019609360000000003,-0.09700524,1.06347008,7.825520826666666,-3.126627586666666,7.259928373333333,27.812387576850583,-1.5213691167513865,17.499089258143286,23.260064637315324,7.318130482682156,23.096459744144337,33.58618902773175,-1.7710288788944093,32.90363126003192,-1.787032602992064,0.29719736,-0.28556276,0.01734091999999987,0.60010104,0.41252038518870027,0.819955026419414,0.8272256236925349,0.8222138824619922
LBP09_S04,LBP09,-1525,126,4,125,-1525,1716541011.0,2024-05-24 08:56:51+00:00,2024-05-24 17:56:51+09:00,2024,5,24,8,56,51,0,8.0,56.0,50.0,40.564232,141.546097,4.268,3.0,15.0,-0.449951,-0.296387,1.86792,44.189453,34.667969,35.766602,-295.0,165.0,253.0,916.0,0.0,1006.099976,22.33,-0.068377,59.664581,3.888281,0.0,1.0,1.0,4.0,0.0,0.0,0.0,6.0,0.0,-0.017708320000000003,-0.09748701333333334,1.0835449466666667,8.832194013333332,-3.026529933333332,7.151692693333333,27.24219378974431,-0.7479693714068913,15.119298534353419,24.349752388905095,7.28821170782588,23.701231685518472,34.75308410356848,-1.7511716895439229,33.72210076725251,-1.78998033663088,-0.43224268,-0.19889998666666667,0.7843750533333333,1.41551772,0.9174089401140868,0.8174657728280934,0.8326918105517795,0.8277906653672955
LBP09_S04,LBP09,-1524,127,4,126,-1524,1716541011.04,2024-05-24 08:56:51.040000+00:00,2024-05-24 17:56:51.040000+09:00,2024,5,24,8,56,51,40,,,,,,,,,-0.186523,0.143066,1.880859,122.497559,-52.612305,-21.850586,,,,,,,,,,,0.0,1.0,1.0,4.0,0.0,0.0,0.0,6.0,0.0,-0.030397120000000003,-0.09522464,1.0704524933333333,10.100911466666666,-0.5786132666666661,7.6749674400000005,23.926419539706856,0.0018720657095375587,11.299338448637052,25.30680917049337,7.288286590454262,24.153205223463953,35.73417180211581,-1.8808133525235537,34.46747264102237,-1.7809600095247373,-0.15612588,0.23829064,0.8104065066666668,1.2048230266666669,0.8590206199882832,0.8278677357268268,0.8357599917496443,0.8229126901141595
LBP09_S04,LBP09,-1523,128,4,127,-1523,1716541011.08,2024-05-24 08:56:51.080000+00:00,2024-05-24 17:56:51.080000+09:00,2024,5,24,8,56,51,80,,,,,,,,,0.006348,0.296875,1.108643,51.513672,121.398926,23.681641,,,,,,,,,,,0.0,1.0,1.0,4.0,0.0,0.0,0.0,6.0,0.0,-0.03777017333333334,-0.09428714666666667,1.0515657733333332,11.271972666666668,-2.035318999999999,8.403320306666666,18.332144973214355,0.41154332960923706,6.720954555432192,26.040094969421943,7.3047483236386315,24.42204340568124,36.44011660515364,-1.9529692824862643,35.10021970092167,-1.7725940035917134,0.04411817333333334,0.39116214666666665,0.057077226666666814,0.4923575466666668,0.397758781181639,0.813448919355387,0.823784481294926,0.8189269791702369
LBP09_S04,LBP09,-1522,129,4,128,-1522,1716541011.12,2024-05-24 08:56:51.120000+00:00,2024-05-24 17:56:51.120000+09:00,2024,5,24,8,56,51,120,,,,,,,,,-0.299805,-0.046875,-0.08374,-76.965332,33.447266,27.893066,,,,,,,,,,,0.0,1.0,1.0,4.0,0.0,0.0,0.0,6.0,0.0,-0.02629557333333334,-0.090765,1.03284832,10.188802093333333,-4.058430986666665,9.262695306666668,11.362204098138474,0.3841337970584574,2.2767955975120464,26.494583133347483,7.32011367552097,24.51311522958172,36.82987670209013,-1.8537295671316987,35.59223539128908,-1.7751199007435225,-0.27350942666666667,0.04389,-1.11658832,1.4339877466666666,1.1504360977194479,0.8258713492164778,0.8324494315218466,0.8230757100133328
LBP09_S04,LBP09,-1521,130,4,129,-1521,1716541011.16,2024-05-24 08:56:51.160000+00:00,2024-05-24 17:56:51.160000+09:00,2024,5,24,8,56,51,160,,,,,,,,,0.008057,-0.230469,0.435303,-28.015137,-95.88623,-12.878418,,,,,,,,,,,0.0,1.0,1.0,4.0,0.0,0.0,0.0,6.0,0.0,-0.009778653333333338,-0.07709312,1.0174837333333335,9.742838546666666,-2.554524746666666,8.803710933333333,4.093020097482613,0.026363811382636868,-1.1345952710373561,26.65830393724679,7.321168227976275,24.46773141874023,36.91794352090274,-1.69731668548068,35.92915320689413,-1.7909647171372989,0.01783565333333334,-0.15337588000000002,-0.5821807333333335,0.7533922666666669,0.6023094531552193,0.7860797916477089,0.8306756560621308,0.8260347022421288
LBP09_S04,LBP09,-1520,131,4,130,-1520,1716541011.2,2024-05-24 08:56:51.200000+00:00,2024-05-24 17:56:51.200000+09:00,2024,5,24,8,56,51,200,,,,,,,,,0.463867,-0.126221,0.613281,0.0,-94.055176,-62.62207,,,,,,,,,,,0.0,1.0,1.0,4.0,0.0,0.0,0.0,6.0,0.0,-0.009736333333333338,-0.07919272,1.02254884,6.834309906666667,-2.1655273466666656,8.48470052,-2.549926005979313,-0.4923008794592931,-2.829407661341287,26.556306897007616,7.301476192797904,24.354555112286576,36.76538243129606,-1.6934843860619986,36.11155348516421,-1.808571640055339,0.4736033333333333,-0.047028280000000006,-0.40926784000000005,0.9298994533333333,0.6277037050412149,0.7849119152487813,0.8217456175923425,0.8243459087892437
LBP09_S04,LBP09,-1519,132,4,131,-1519,1716541011.24,2024-05-24 08:56:51.240000+00:00,2024-05-24 17:56:51.240000+09:00,2024,5,24,8,56,51,240,,,,,,,,,0.320801,0.106201,1.012451,-6.530762,44.006348,-7.263184,,,,,,,,,,,0.0,1.0,1.0,4.0,0.0,0.0,0.0,6.0,0.0,-0.012242853333333338,-0.08274741333333334,1.0542252666666665,4.372558613333333,-2.437337239999999,7.760416666666667,-8.024745922338255,-1.0869458508166472,-2.5069521723226007,26.235317060114085,7.257998358765238,24.254277025393673,36.458748681833434,-1.7181206972741556,36.155069249221974,-1.8172552160043565,0.33304385333333336,0.18894841333333334,-0.041774266666666504,0.5637665333333333,0.3851815163008693,0.7533228753969848,0.8138651142106363,0.809548233023896
LBP09_S04,LBP09,-1518,133,4,132,-1518,1716541011.28,2024-05-24 08:56:51.280000+00:00,2024-05-24 17:56:51.280000+09:00,2024,5,24,8,56,51,280,,,,,,,,,-0.219238,-0.220947,1.776123,-38.452148,52.185059,33.630371,,,,,,,,,,,0.0,1.0,1.0,4.0,0.0,0.0,0.0,6.0,0.0,-0.011084000000000005,-0.08088544,1.0715332,2.9711914266666666,-0.18717447999999923,8.211263026666668,-12.220008193020638,-1.7857122361652067,-0.3040034854237806,25.74651673239326,7.186569869318629,24.24211688597672,36.08614888639909,-1.7073568736619114,36.088775765524176,-1.8018874699027418,-0.20815399999999998,-0.14006156,0.7045897999999999,1.0528053599999998,0.7479252065344993,0.7405326358730681,0.8102305818581965,0.816678771911546
LBP09_S04,LBP09,-1517,134,4,133,-1517,1716541011.32,2024-05-24 08:56:51.320000+00:00,2024-05-24 17:56:51.320000+09:00,2024,5,24,8,56,51,320,,,,,,,,,-0.390381,-0.157959,2.049072,2.258301,-45.471191,11.169434,,,,,,,,,,,0.0,1.0,1.0,4.0,0.0,0.0,0.0,6.0,0.0,-0.02548829333333334,-0.07898765333333334,1.0633072933333334,0.9659830933333334,3.1339518266666677,9.9202474,-15.325166173956086,-2.617206429501346,3.2821449660726256,25.133510085435017,7.0818816121385755,24.373402684619627,35.71987030785013,-1.8836557583143934,35.95118057861022,-1.7760049717866835,-0.3648927066666666,-0.07897134666666665,0.9857647066666664,1.4296287599999997,1.0540945014003686,0.7554838721017422,0.8196243951401265,0.8138883255417594
LBP09_S04,LBP09,-1516,135,4,134,-1516,1716541011.36,2024-05-24 08:56:51.360000+00:00,2024-05-24 17:56:51.360000+09:00,2024,5,24,8,56,51,360,,,,,,,,,0.020264,-0.032471,0.968994,52.91748,63.964844,12.695312,,,,,,,,,,,0.0,1.0,1.0,4.0,0.0,0.0,0.0,6.0,0.0,-0.031158866666666677,-0.07904623999999999,1.0477539200000001,1.7903646133333333,1.3842773466666674,9.30908204,-17.612629077909943,-3.453851832591929,7.557372062213257,24.42900492231862,6.9437275388348985,24.67569756710816,35.410191810432615,-1.9470981080748109,35.78391828440291,-1.763710286590425,0.05142286666666668,0.04657523999999999,-0.0787599200000001,0.17675802666666676,0.10496041728042907,0.72906249609325,0.8020729003818282,0.8023377182699676
LBP09_S04,LBP09,-1515,136,4,135,-1515,1716541011.4,2024-05-24 08:56:51.400000+00:00,2024-05-24 17:56:51.400000+09:00,2024,5,24,8,56,51,400,,,,,,,,,-0.352295,0.276367,-0.065918,8.728027,60.241699,12.634277,,,,,,,,,,,0.0,1.0,1.0,4.0,0.0,0.0,0.0,6.0,0.0,-0.022363293333333336,-0.08193036,1.0265234533333334,0.6168620133333336,-0.3808593599999991,9.6028646,-19.251843725853448,-3.9451828355393204,11.805928223439997,23.65893117328448,6.785920225413325,25.14793469604576,35.188241744146126,-1.8380074490340992,35.62448799164515,-1.769546340174553,-0.3299317066666667,0.35829735999999995,-1.0924414533333333,1.78067052,1.1961021102765408,0.761683843551771,0.8062566852242099,0.8111570526486606
LBP09_S04,LBP09,-1514,137,4,136,-1514,1716541011.44,2024-05-24 08:56:51.440000+00:00,2024-05-24 17:56:51.440000+09:00,2024,5,24,8,56,51,440,,,,,,,,,-0.020752,-0.058594,0.244141,-49.072266,-44.250488,19.042969,,,,,,,,,,,0.0,1.0,1.0,4.0,0.0,0.0,0.0,6.0,0.0,-0.01277018666666667,-0.08127279999999999,1.00677736,-0.07975257333333313,-0.4980468666666658,9.331054706666666,-20.254446830558305,-3.6201202325977158,15.420081007054703,22.848753300062146,6.641115416109416,25.764737936327947,35.071236965137736,-1.727135891507404,35.50015885400178,-1.7870587129985562,-0.007981813333333329,0.022678799999999992,-0.7626363600000001,0.7932969733333335,0.7630152389746734,0.7543786674501731,0.8091335586693137,0.8137916095456219
LBP09_S04,LBP09,-1513,138,4,137,-1513,1716541011.48,2024-05-24 08:56:51.480000+00:00,2024-05-24 17:56:51.480000+09:00,2024,5,24,8,56,51,480,,,,,,,,,0.159912,-0.137695,0.324219,-79.89502,-112.548828,3.967285,,,,,,,,,,,0.0,1.0,1.0,4.0,0.0,0.0,0.0,6.0,0.0,-0.010201826666666669,-0.0825586,1.0089713733333334,-1.4941406,-1.4705403466666656,9.093424506666667,-20.56955579763808,-2.1319139492038865,17.967848839539077,22.025971068156622,6.555838858141261,26.48345188990951,35.06416473601416,-1.6941443013256843,35.42488998635244,-1.8037931090668569,0.17011382666666666,-0.055136400000000016,-0.6847523733333334,0.9100026000000001,0.7077178459059581,0.7574769137325128,0.8080639068575681,0.8094109829196752
LBP09_S04,LBP09,-1512,139,4,138,-1512,1716541011.52,2024-05-24 08:56:51.520000+00:00,2024-05-24 17:56:51.520000+09:00,2024,5,24,8,56,51,520,,,,,,,,,0.598877,0.008789,0.855469,-49.133301,-36.071777,-2.807617,,,,,,,,,,,0.0,1.0,1.0,4.0,0.0,0.0,0.0,6.0,0.0,-0.013193360000000001,-0.08201172,1.0321419466666666,-2.2753905999999997,-1.2019856666666655,8.565266946666666,-20.245174173917402,0.486986619233419,19.21395857269481,21.216164101199926,6.575318322910597,27.2520102328173,35.15725376001697,-1.7307827151691115,35.39992079028414,-1.808820241505509,0.61207036,0.09080072,-0.17667294666666655,0.8795440266666665,0.6434968736730047,0.7542941661226391,0.811407417206746,0.8031434363119093
LBP09_S04,LBP09,-1511,140,4,139,-1511,1716541011.56,2024-05-24 08:56:51.560000+00:00,2024-05-24 17:56:51.560000+09:00,2024,5,24,8,56,51,560,,,,,,,,,0.15625,-0.338379,1.465088,-43.701172,61.279297,58.898926,,,,,,,,,,,0.0,1.0,1.0,4.0,0.0,0.0,0.0,6.0,0.0,-0.016627600000000003,-0.08921874666666668,1.0503776266666667,-2.8222655999999997,-0.6266275999999991,8.776041693333333,-19.521408857173085,3.729583356403906,19.118752487328564,20.435307746913,6.724501657166753,28.016760332310444,35.3236405933251,-1.7556772213219625,35.41726960087401,-1.791322760604028,0.1728776,-0.2491602533333333,0.41471037333333327,0.8367482266666666,0.513762776165385,0.7332355932442286,0.8088653548162289,0.803244460285176
LBP09_S04,LBP09,-1510,141,4,140,-1510,1716541011.6,2024-05-24 08:56:51.600000+00:00,2024-05-24 17:56:51.600000+09:00,2024,5,24,8,56,51,600,,,,,,,,,-0.43335,-0.040771,1.755859,41.259766,14.587402,1.831055,,,,,,,,,,,0.0,1.0,1.0,4.0,0.0,0.0,0.0,6.0,0.0,-0.027008453333333335,-0.08827798666666667,1.0422168133333334,-1.042480453333333,0.8780924533333344,8.86637372,-18.770786598052286,6.765042863835191,17.829240555947354,19.68447628299091,6.995103371720161,28.72992995454834,35.522091054862415,-1.8686081143020303,35.464431762821285,-1.7570898061406033,-0.40634154666666666,0.04750698666666667,0.7136421866666667,1.16749072,0.8225907469209626,0.7400655468665943,0.8014896304594349,0.7965970026930212
LBP09_S04,LBP09,-1509,142,4,141,-1509,1716541011.64,2024-05-24 08:56:51.640000+00:00,2024-05-24 17:56:51.640000+09:00,2024,5,24,8,56,51,640,,,,,,,,,-0.029297,-0.287842,1.75708,41.564941,11.413574,14.526367,,,,,,,,,,,0.0,1.0,1.0,4.0,0.0,0.0,0.0,6.0,0.0,-0.02656574666666667,-0.08185546666666667,1.01725588,-1.105143213333333,-0.20670573333333228,8.264160173333334,-18.317226765595848,8.769377827884242,15.658485609469517,18.951787212367076,7.345878484835531,29.35626937892712,35.70606000534004,-1.8854646579571626,35.52852119922482,-1.7366120233915971,-0.002731253333333329,-0.20598653333333333,0.73982412,0.9485419066666666,0.7679698172410356,0.7357136522588733,0.7771907285526843,0.7948015819791417
LBP09_S04,LBP09,-1508,143,4,142,-1508,1716541011.68,2024-05-24 08:56:51.680000+00:00,2024-05-24 17:56:51.680000+09:00,2024,5,24,8,56,51,680,,,,,,,,,-0.234131,0.072754,0.605957,4.943848,126.586914,33.447266,,,,,,,,,,,0.0,1.0,1.0,4.0,0.0,0.0,0.0,6.0,0.0,-0.014410800000000001,-0.07645181333333334,0.9898828266666665,-1.2198893066666665,0.0626627466666677,7.97851564,-18.260190281946603,9.261986857733024,13.041552838291732,18.22137960108921,7.716357959144852,29.87793149245879,35.83645692571615,-1.7576281980484334,35.59892146549519,-1.7360278799641549,-0.2197202,0.14920581333333333,-0.3839258266666665,0.7528518399999998,0.4668387102653172,0.7319500246980045,0.7814849351820239,0.7923535784077657
LBP09_S04,LBP09,-1507,144,4,143,-1507,1716541011.72,2024-05-24 08:56:51.720000+00:00,2024-05-24 17:56:51.720000+09:00,2024,5,24,8,56,51,720,,,,,,,,,-0.102539,-0.045898,0.086182,-73.303223,-6.408691,-3.662109,,,,,,,,,,,0.0,1.0,1.0,4.0,0.0,0.0,0.0,6.0,0.0,-0.010081373333333336,-0.07284829333333333,0.9772981866666667,-2.447102853333333,-0.8406575599999989,7.175292973333334,-18.43061572259795,8.275164678273255,10.464012473866898,17.484154972185294,8.047364546275782,30.296491991413465,35.89335841374875,-1.7086809492995836,35.668611916180545,-1.7505001156641053,-0.09245762666666667,0.026950293333333326,-0.8911161866666667,1.0105241066666668,0.8963050759528962,0.7282967153266888,0.7692348183229849,0.7963247033927948
LBP09_S04,LBP09,-1506,145,4,144,-1506,1716541011.76,2024-05-24 08:56:51.760000+00:00,2024-05-24 17:56:51.760000+09:00,2024,5,24,8,56,51,760,,,,,,,,,0.047852,-0.040283,0.445068,-37.597656,-80.383301,0.12207,,,,,,,,,,,0.0,1.0,1.0,4.0,0.0,0.0,0.0,6.0,0.0,-0.002652986666666669,-0.07830401333333334,0.9946093866666667,-4.011230466666666,-0.9179687599999988,7.198893226666668,-18.509290496432538,6.279108961009705,8.373518870257458,16.74378335232799,8.29852890471617,30.631432746223762,35.881813429905336,-1.604768563440564,35.73492014012282,-1.7715364722213436,0.05050498666666667,0.03802101333333334,-0.5495413866666666,0.6380673866666666,0.5531655148259123,0.7020685121810141,0.7648178862072689,0.7947928845064689
LBP09_S04,LBP09,-1505,146,4,145,-1505,1716541011.8,2024-05-24 08:56:51.800000+00:00,2024-05-24 17:56:51.800000+09:00,2024,5,24,8,56,51,800,,,,,,,,,0.668701,-0.24292,0.855713,-45.837402,-53.833008,-1.403809,,,,,,,,,,,0.0,1.0,1.0,4.0,0.0,0.0,0.0,6.0,0.0,-0.0052148266666666694,-0.08369789333333333,1.0185384266666666,-4.62565104,0.09765624000000107,7.628580733333333,-18.22179556093807,3.921687358481416,7.096722017314986,16.01491152989047,8.455396399055426,30.91530162691636,35.8291361081815,-1.6332296215440343,35.8002170416809,-1.7853980741832998,0.6739158266666666,-0.15922210666666667,-0.16282542666666666,0.99596336,0.7113552841248668,0.7207309630843974,0.7648176350947479,0.7922443915865944
LBP09_S04,LBP09,-1504,147,4,146,-1504,1716541011.84,2024-05-24 08:56:51.840000+00:00,2024-05-24 17:56:51.840000+09:00,2024,5,24,8,56,51,840,,,,,,,,,0.258789,-0.087646,1.238281,-46.813965,47.851562,16.235352,,,,,,,,,,,0.0,1.0,1.0,4.0,0.0,0.0,0.0,6.0,0.0,-0.012054013333333335,-0.07971677333333334,1.038929053333333,-3.7915039066666667,0.9594726533333346,7.609049493333332,-17.47545917429137,1.743065903588418,6.786272224281487,15.315893162918814,8.525119035198962,31.18675251588762,35.77523962784146,-1.721294457232983,35.87241312804086,-1.782352629237542,0.2708430133333333,-0.007929226666666664,0.1993519466666669,0.4781241866666669,0.3363926413386612,0.6837198220919953,0.7620706352119521,0.7929832653651067
LBP09_S04,LBP09,-1503,148,4,147,-1503,1716541011.88,2024-05-24 08:56:51.880000+00:00,2024-05-24 17:56:51.880000+09:00,2024,5,24,8,56,51,880,,,,,,,,,-0.402832,-0.28833,1.928711,15.319824,11.901855,7.202148,,,,,,,,,,,0.0,1.0,1.0,4.0,0.0,0.0,0.0,6.0,0.0,-0.02205076,-0.08049802666666665,1.0434765733333333,-3.827311186666666,3.0354817600000015,8.405761733333334,-16.3501067636541,0.018633039801223376,7.411521499535687,14.66188889237265,8.525864356791011,31.483213375869045,35.76106924286772,-1.8388666583251898,35.9646568809711,-1.7654425781727514,-0.38078124,-0.2078319733333333,0.8852344266666667,1.47384764,0.9858136091733707,0.6922315400152462,0.7597564089010614,0.7925534682593388
LBP09_S04,LBP09,-1502,149,4,148,-1502,1716541011.92,2024-05-24 08:56:51.920000+00:00,2024-05-24 17:56:51.920000+09:00,2024,5,24,8,56,51,920,,,,,,,,,-0.132568,-0.138428,2.075195,33.508301,-74.890137,11.657715,,,,,,,,,,,0.0,1.0,1.0,4.0,0.0,0.0,0.0,6.0,0.0,-0.030358053333333336,-0.07838214666666667,1.0265950533333335,-4.180501293333332,2.849121080000001,8.285319026666667,-14.954239404131469,-1.2201589387864629,8.787021772480042,14.063719316207392,8.477057999239554,31.834694246768247,35.8203359994397,-1.9411462807414912,36.093732948665625,-1.7602900676312587,-0.10220994666666666,-0.06004585333333333,1.0485999466666664,1.2108557466666665,1.0552792170082128,0.7071650034300623,0.7578333454146662,0.7930266557666644
LBP09_S04,LBP09,-1501,150,4,149,-1501,1716541011.96,2024-05-24 08:56:51.960000+00:00,2024-05-24 17:56:51.960000+09:00,2024,5,24,8,56,51,960,,,,,,,,,-0.124756,-0.321533,1.382568,-13.061523,143.859863,31.37207,,,,,,,,,,,0.0,1.0,1.0,4.0,0.0,0.0,0.0,6.0,0.0,-0.024433573333333333,-0.07304685333333334,1.005153,-4.474283853333333,1.4428710800000013,7.289225266666666,-13.246312217796497,-2.0487438928921566,10.619254548369383,13.533866827495531,8.395108243523868,32.259464428703026,35.976609608905925,-1.8942932409415287,36.27726135281567,-1.765144390135531,-0.10032242666666667,-0.24848614666666669,0.37741500000000006,0.7262235733333334,0.46287367240159266,0.7091791349185779,0.7645670806689959,0.787876794101216
LBP09_S04,LBP09,-1500,151,4,150,-1500,1716541012.0,2024-05-24 08:56:52+00:00,2024-05-24 17:56:52+09:00,2024,5,24,8,56,52,0,8.0,56.0,51.0,40.564262,141.546066,3.777,3.0,15.0,-0.355957,0.071289,-0.086914,24.230957,-0.244141,-1.831055,-301.0,171.0,250.0,962.0,0.0,1006.099976,22.4,-0.068377,59.664581,3.888281,0.0,1.0,1.0,4.0,0.0,0.0,0.0,4.0,0.0,-0.02053709333333334,-0.07517576000000001,0.9900878933333334,-7.048339839999999,0.5021158800000012,6.49495444,-10.946910735774624,-2.508153639187552,12.553576372395447,13.095990398064547,8.294782097956366,32.761607483598844,36.2440519184621,-1.838153664844448,36.53048775091967,-1.7913911604598423,-0.33541990666666666,0.14646476000000003,-1.0770018933333334,1.5588865600000001,1.137493524356828,0.7179825182882875,0.7677241455581904,0.7944553797972822
LBP09_S04,LBP09,-1499,152,4,151,-1499,1716541012.04,2024-05-24 08:56:52.040000+00:00,2024-05-24 17:56:52.040000+09:00,2024,5,24,8,56,52,40,,,,,,,,,0.174561,0.238037,0.433838,-17.150879,-77.270508,-25.146484,,,,,,,,,,,0.0,1.0,1.0,4.0,0.0,0.0,0.0,4.0,0.0,-0.011819640000000005,-0.08088213333333333,0.9960579466666667,-6.691080733333332,-1.1246744933333321,5.735677093333334,-7.618816813358353,-2.5527237539373755,14.218167123927575,12.791237725530213,8.192673147798871,33.33033416855595,36.62849753464234,-1.7163641473092603,36.86368581607558,-1.8232614408870051,0.18638064,0.3189191333333333,-0.5622199466666666,1.06751972,0.6727097628270037,0.7105300840018365,0.7691989098643316,0.7940166891670417
LBP09_S04,LBP09,-1498,153,4,152,-1498,1716541012.08,2024-05-24 08:56:52.080000+00:00,2024-05-24 17:56:52.080000+09:00,2024,5,24,8,56,52,80,,,,,,,,,0.716797,-0.145996,0.909424,-24.963379,-61.035156,17.700195,,,,,,,,,,,0.0,1.0,1.0,4.0,0.0,0.0,0.0,4.0,0.0,-0.011246720000000002,-0.08288084,1.0174934933333333,-5.209960933333334,-0.2612304799999987,5.671386733333333,-2.897492623859356,-2.1077155047838207,15.277339520811491,12.675338020575838,8.108364527607518,33.94142774938841,37.12721760266143,-1.7061030926335035,37.28080152270241,-1.839525667827583,0.7280437200000001,-0.06311515999999999,-0.10806949333333327,0.8992283733333333,0.7387220025439797,0.7241686128563299,0.7688087661058586,0.790579191815394
LBP09_S04,LBP09,-1497,154,4,153,-1497,1716541012.12,2024-05-24 08:56:52.120000+00:00,2024-05-24 17:56:52.120000+09:00,2024,5,24,8,56,52,120,,,,,,,,,0.200684,-0.284668,1.483887,-82.15332,92.285156,75.927734,,,,,,,,,,,0.0,1.0,1.0,4.0,0.0,0.0,0.0,4.0,0.0,-0.015618453333333336,-0.08305986666666666,1.03810548,-5.14078776,0.5769856666666678,6.036783866666666,3.236004546100357,-1.1748862395836623,15.50367360147254,12.804778202419852,8.061369078024171,34.56157469344731,37.72864245524915,-1.7572241743423096,37.779339517117535,-1.839419446914271,0.21630245333333334,-0.20160813333333333,0.44578151999999993,0.8636921066666666,0.5349334111061678,0.6995485053917989,0.7627099273041383,0.7881491228118307
LBP09_S04,LBP09,-1496,155,4,154,-1496,1716541012.16,2024-05-24 08:56:52.160000+00:00,2024-05-24 17:56:52.160000+09:00,2024,5,24,8,56,52,160,,,,,,,,,-0.624268,-0.197998,2.039307,-11.413574,-12.268066,4.02832,,,,,,,,,,,0.0,1.0,1.0,4.0,0.0,0.0,0.0,4.0,0.0,-0.027027960000000004,-0.08877601333333333,1.0480924666666667,-5.045572906666666,2.0751952933333344,6.719563813333333,10.289165275613476,0.10068148878799324,14.851608206313562,13.21634481344439,8.065396337575692,35.155639021699855,38.41407741094537,-1.8672362666836713,38.35110555909829,-1.8213013982458421,-0.5972400400000001,-0.10922198666666667,0.9912145333333333,1.6976765600000001,1.162381761230721,0.7219513977148188,0.7540155946812639,0.7944342366130268
LBP09_S04,LBP09,-1495,156,4,155,-1495,1716541012.2,2024-05-24 08:56:52.200000+00:00,2024-05-24 17:56:52.200000+09:00,2024,5,24,8,56,52,200,,,,,,,,,-0.050049,-0.124512,2.006836,78.857422,-100.708008,-18.920898,,,,,,,,,,,0.0,1.0,1.0,4.0,0.0,0.0,0.0,4.0,0.0,-0.03210282666666667,-0.08031573333333333,1.0279297066666666,-3.392740866666667,1.844889306666668,6.2516276133333335,17.310727339134875,1.4423478794872018,13.491537389639928,13.908773907009785,8.12309025275518,35.69530051728545,39.16111675974067,-1.9519324258156656,38.98340243626896,-1.7953391806681158,-0.017946173333333336,-0.044196266666666664,0.9789062933333332,1.0410487333333331,0.9800678069665318,0.7360459617918315,0.7604789385203063,0.7931790656588388
LBP09_S04,LBP09,-1494,157,4,156,-1494,1716541012.24,2024-05-24 08:56:52.240000+00:00,2024-05-24 17:56:52.240000+09:00,2024,5,24,8,56,52,240,,,,,,,,,-0.279785,-0.170898,0.709961,58.898926,138.061523,44.677734,,,,,,,,,,,0.0,1.0,1.0,4.0,0.0,0.0,0.0,4.0,0.0,-0.02628252,-0.08140947999999999,1.0032031466666667,-3.8387044133333332,0.6941731600000012,6.414388026666666,23.16190325087044,2.516488246225607,11.774520129136965,14.835250037044602,8.223749782604203,36.166281322450935,39.946396694109694,-1.8839367266387619,39.660440596160285,-1.7751345487009083,-0.25350248000000003,-0.08948852,-0.2932421466666667,0.6362331466666667,0.39782239650328344,0.7365515969999282,0.7449372361984565,0.7880939418070669
LBP09_S04,LBP09,-1493,158,4,157,-1493,1716541012.28,2024-05-24 08:56:52.280000+00:00,2024-05-24 17:56:52.280000+09:00,2024,5,24,8,56,52,280,,,,,,,,,-0.131592,-0.016602,0.139648,38.818359,-16.235352,3.112793,,,,,,,,,,,0.0,1.0,1.0,4.0,0.0,0.0,0.0,4.0,0.0,-0.02110348,-0.07737301333333334,0.9771842666666667,-3.9192708266666667,0.20996092000000088,5.848795573333334,26.8853718368356,3.0319114032842265,10.133812529704171,15.910664910518026,8.345026238735572,36.571633823639104,40.74644918701897,-1.8378044491920709,40.36482493435676,-1.778072306204217,-0.11048851999999998,0.06077101333333334,-0.8375362666666667,1.0087958000000001,0.8469756945127105,0.7405136165190566,0.7405231261960623,0.7869915934118165
LBP09_S04,LBP09,-1492,159,4,158,-1492,1716541012.32,2024-05-24 08:56:52.320000+00:00,2024-05-24 17:56:52.320000+09:00,2024,5,24,8,56,52,320,,,,,,,,,0.032227,-0.125,0.55249,10.681152,-67.321777,3.845215,,,,,,,,,,,0.0,1.0,1.0,4.0,0.0,0.0,0.0,4.0,0.0,-0.014746053333333335,-0.07725582666666667,0.9671842666666667,-4.020996093333333,-2.9093424666666654,5.022786466666666,28.005288043608726,2.8256568495400933,8.956054676811519,17.030876432262374,8.458052512717176,36.92987601071157,41.53799641924729,-1.7599657940572024,41.07888508283314,-1.7863353433457,0.046973053333333334,-0.047744173333333334,-0.41469426666666664,0.5094114933333334,0.42006821902274866,0.7151525652239517,0.7353182186628469,0.784800451834735
LBP09_S04,LBP09,-1491,160,4,159,-1491,1716541012.36,2024-05-24 08:56:52.360000+00:00,2024-05-24 17:56:52.360000+09:00,2024,5,24,8,56,52,360,,,,,,,,,0.73291,0.166504,1.219727,59.204102,9.277344,-30.334473,,,,,,,,,,,0.0,1.0,1.0,4.0,0.0,0.0,0.0,4.0,0.0,-0.005071573333333334,-0.07955076,0.9794368800000001,-4.007975266666667,-3.479817733333332,4.571126306666667,26.643416842755585,1.9103929424838757,8.461804644300138,18.096613105972597,8.53446823041653,37.26834819648357,42.299578380612594,-1.6346710651642622,41.78542499315287,-1.7887979893793227,0.7379815733333333,0.24605476,0.24029011999999994,1.2243264533333331,0.8141861514836849,0.743521594592082,0.7362920453426659,0.7825557984519128
LBP09_S04,LBP09,-1490,161,4,160,-1490,1716541012.4,2024-05-24 08:56:52.400000+00:00,2024-05-24 17:56:52.400000+09:00,2024,5,24,8,56,52,400,,,,,,,,,-0.181885,-0.246826,1.729736,-18.920898,103.69873,44.921875,,,,,,,,,,,0.0,1.0,1.0,4.0,0.0,0.0,0.0,4.0,0.0,-0.005631466666666668,-0.08642576,0.9946745066666667,-3.96809896,-1.9677734666666655,5.068359373333333,23.4316258378986,0.481854854107715,8.632477959095455,19.033878139488543,8.55374242458084,37.61364731484739,43.01443351737531,-1.6361073451723722,42.46748925444175,-1.7791994702452107,-0.17625353333333332,-0.16040023999999997,0.7350614933333333,1.0717152666666665,0.7727282471774743,0.7265866400681193,0.7441352418099452,0.779700003505513
LBP09_S04,LBP09,-1489,162,4,161,-1489,1716541012.44,2024-05-24 08:56:52.440000+00:00,2024-05-24 17:56:52.440000+09:00,2024,5,24,8,56,52,440,,,,,,,,,-0.755127,-0.07373,2.190918,32.348633,-96.923828,1.098633,,,,,,,,,,,0.0,1.0,1.0,4.0,0.0,0.0,0.0,4.0,0.0,-0.015104119999999999,-0.08575192,1.0092025066666668,-3.0639648533333337,-0.7991536666666654,5.326334639999999,19.274946652124406,-1.1079852143694804,9.20804158839979,19.80487600557352,8.50942301600606,37.981968978383385,43.672340916607084,-1.7457417223423508,43.10718930596012,-1.7580704129257243,-0.7400228799999999,0.012021919999999992,1.1817154933333331,1.933760293333333,1.3943564453424466,0.7518402883228302,0.7531094778865017,0.7900358018871525
LBP09_S04,LBP09,-1488,163,4,162,-1488,1716541012.48,2024-05-24 08:56:52.480000+00:00,2024-05-24 17:56:52.480000+09:00,2024,5,24,8,56,52,480,,,,,,,,,0.082275,-0.169678,1.781982,2.197266,-13.183594,10.925293,,,,,,,,,,,0.0,1.0,1.0,4.0,0.0,0.0,0.0,4.0,0.0,-0.017737586666666666,-0.08033525333333333,1.0125618799999998,-1.8383789199999998,-0.4207356933333321,4.6077474,15.050694964362552,-2.415734063730972,9.754881008808477,20.40690380414802,8.412793653456822,38.372164218735726,44.26781908742531,-1.7887334640483334,43.6842805207316,-1.7301137490262584,0.10001258666666667,-0.08934274666666667,0.7694201200000002,0.9587754533333335,0.7810198236501532,0.7547723674325981,0.7561246405825554,0.7903000603825782
LBP09_S04,LBP09,-1487,164,4,163,-1487,1716541012.52,2024-05-24 08:56:52.520000+00:00,2024-05-24 17:56:52.520000+09:00,2024,5,24,8,56,52,520,,,,,,,,,-0.578613,0.266846,-0.181885,61.218262,107.971191,-4.333496,,,,,,,,,,,0.0,1.0,1.0,4.0,0.0,0.0,0.0,4.0,0.0,-0.015810506666666668,-0.07399085333333333,0.9949642266666666,-1.625976573333333,0.7324218533333348,4.1422526,11.327855628787878,-3.0102218052515073,9.78121120813359,20.860018029299535,8.292384781246762,38.76341266706107,44.79404155844642,-1.7818506346785328,44.17553635197989,-1.7040215472947906,-0.5628024933333333,0.34083685333333336,-1.1768492266666666,2.080488573333333,1.3482917004114192,0.7829641605021347,0.7686291633123868,0.8019263316385422
LBP09_S04,LBP09,-1486,165,4,164,-1486,1716541012.56,2024-05-24 08:56:52.560000+00:00,2024-05-24 17:56:52.560000+09:00,2024,5,24,8,56,52,560,,,,,,,,,-0.081055,0.134521,0.076172,-35.522461,-42.602539,9.643555,,,,,,,,,,,0.0,1.0,1.0,4.0,0.0,0.0,0.0,4.0,0.0,-0.015100879999999999,-0.07453121333333333,0.9704785599999999,-2.746582053333333,1.3826497200000014,4.239908853333333,8.176443344859567,-2.6000329192499545,8.871128059851298,21.18707576309392,8.188383464476763,39.11825778945512,45.23472002383418,-1.7712510753425568,44.55576320173861,-1.6942999126387506,-0.06595412,0.20905221333333335,-0.8943065599999999,1.1693128933333332,0.9207806454870634,0.7992448752750018,0.7662402342596151,0.8056585283024864
LBP09_S04,LBP09,-1485,166,4,165,-1485,1716541012.6,2024-05-24 08:56:52.600000+00:00,2024-05-24 17:56:52.600000+09:00,2024,5,24,8,56,52,600,,,,,,,,,0.275146,-0.250732,0.616699,-111.816406,-98.327637,39.367676,,,,,,,,,,,0.0,1.0,1.0,4.0,0.0,0.0,0.0,4.0,0.0,-0.013124973333333335,-0.07676754666666667,0.9620768666666665,-3.6604817999999995,-1.0489909066666656,3.5953775999999995,5.1278434310791825,-1.1551342778569758,6.8091409213805845,21.392189500337086,8.142178093362483,39.39062342631034,45.55811727492427,-1.7406418526207972,44.80067635822,-1.7026373762563132,0.28827097333333335,-0.17396445333333332,-0.3453778666666665,0.8076132933333331,0.4823376989965957,0.785634753358027,0.7628501501123105,0.7962046714256323
LBP09_S04,LBP09,-1484,167,4,166,-1484,1716541012.64,2024-05-24 08:56:52.640000+00:00,2024-05-24 17:56:52.640000+09:00,2024,5,24,8,56,52,640,,,,,,,,,0.446777,-0.305908,1.244873,7.202148,11.474609,-4.272461,,,,,,,,,,,0.0,1.0,1.0,4.0,0.0,0.0,0.0,4.0,0.0,-0.0026724933333333346,-0.07983721333333334,0.97416996,-2.9842122666666664,-2.419433626666666,3.2047525999999995,1.3382655246326416,1.0277272999021636,3.663479531867801,21.445720121322392,8.18328718535857,39.53716260758505,45.71730884182453,-1.6043700876441054,44.891104606842795,-1.7074662237810103,0.44944949333333334,-0.2260707866666667,0.2707030399999999,0.9462233199999999,0.5713081335907245,0.7777682860120145,0.7567409691354439,0.7773832477057945
LBP09_S04,LBP09,-1483,168,4,167,-1483,1716541012.68,2024-05-24 08:56:52.680000+00:00,2024-05-24 17:56:52.680000+09:00,2024,5,24,8,56,52,680,,,,,,,,,-0.09082,-0.221191,1.682373,103.45459,64.27002,15.197754,,,,,,,,,,,0.0,1.0,1.0,4.0,0.0,0.0,0.0,4.0,0.0,-0.0004752266666666686,-0.07833005333333333,0.9837077199999998,-3.1876627866666665,-0.8374023866666654,3.7076822933333333,-4.044210457923342,3.375618766232376,-0.2033659314257897,21.283951703005457,8.318311936007865,39.52902797032802,45.659007499501946,-1.5768824318773922,44.81737289960121,-1.7056444518561673,-0.09034477333333332,-0.14286094666666665,0.69866528,0.931871,0.7188216758199673,0.7878476046342006,0.7598988146661025,0.7836058249994161
LBP09_S04,LBP09,-1482,169,4,168,-1482,1716541012.72,2024-05-24 08:56:52.720000+00:00,2024-05-24 17:56:52.720000+09:00,2024,5,24,8,56,52,720,,,,,,,,,-0.280762,0.245117,2.040283,65.063477,-57.495117,-18.066406,,,,,,,,,,,0.0,1.0,1.0,4.0,0.0,0.0,0.0,4.0,0.0,-0.007304653333333335,-0.07946286666666667,0.9991471733333332,-3.0167643466666663,0.6298827733333344,4.865722653333334,-11.422047006804902,5.222803031125463,-4.209936171447619,20.82706982273326,8.527224057252884,39.36063052347012,45.34026491683443,-1.662749447496804,44.58247801618692,-1.6988582635974876,-0.27345734666666666,0.32457986666666666,1.0411358266666668,1.6391730400000002,1.1243197142540053,0.796968190166245,0.762632452746467,0.7784792756040717
LBP09_S04,LBP09,-1481,170,4,169,-1481,1716541012.76,2024-05-24 08:56:52.760000+00:00,2024-05-24 17:56:52.760000+09:00,2024,5,24,8,56,52,760,,,,,,,,,0.057861,0.215576,1.571533,-17.456055,50.78125,-31.738281,,,,,,,,,,,0.0,1.0,1.0,4.0,0.0,0.0,0.0,4.0,0.0,-0.012652960000000001,-0.08560544,1.01093428,-2.3071289199999994,-0.23844405333333218,5.175781253333333,-20.41465025736568,6.062800247008906,-7.696364565937432,20.010483812438633,8.76973606713324,39.052775940832625,44.748709945426604,-1.7180457013398867,44.2030223598558,-1.6788503057664084,0.07051396,0.30118144,0.56059872,0.93229412,0.6402760367380569,0.8004526110427308,0.7512605616118725,0.7766961278190896
LBP09_S04,LBP09,-1480,171,4,170,-1480,1716541012.8,2024-05-24 08:56:52.800000+00:00,2024-05-24 17:56:52.800000+09:00,2024,5,24,8,56,52,800,,,,,,,,,-0.456787,0.192139,0.086426,-73.852539,118.652344,2.380371,,,,,,,,,,,0.0,1.0,1.0,4.0,0.0,0.0,0.0,4.0,0.0,-0.009322880000000002,-0.0819824,1.0052734666666667,-0.9155273599999995,0.25634761333333433,4.9186198,-29.84127693859109,5.751591733000156,-10.081841700589669,18.816832734894987,8.999799736453246,38.64950227280904,43.91871600360318,-1.6843958204193437,43.70776726150124,-1.6543016944107953,-0.44746412,0.2741214,-0.9188474666666667,1.6404329866666667,1.0581338987222202,0.8143237556266248,0.7675273593555112,0.7813196752720402
LBP09_S04,LBP09,-1479,172,4,171,-1479,1716541012.84,2024-05-24 08:56:52.840000+00:00,2024-05-24 17:56:52.840000+09:00,2024,5,24,8,56,52,840,,,,,,,,,-0.08374,-0.09082,0.23877,-40.405273,-29.846191,-18.066406,,,,,,,,,,,0.0,1.0,1.0,4.0,0.0,0.0,0.0,4.0,0.0,-0.011748013333333336,-0.07455401333333334,0.9772591466666667,-2.376302106666666,2.169596306666668,5.033365893333333,-38.056374477563615,4.5543739234117,-10.98719909978039,17.294577755792442,9.181974693389714,38.21001430881782,42.93502384419114,-1.727524003093922,43.13462540332421,-1.6422598008684397,-0.07199198666666666,-0.016265986666666662,-0.7384891466666667,0.82674712,0.7421682074913444,0.8305547782727324,0.7571373001823638,0.7848986828988788
LBP09_S04,LBP09,-1478,173,4,172,-1478,1716541012.88,2024-05-24 08:56:52.880000+00:00,2024-05-24 17:56:52.880000+09:00,2024,5,24,8,56,52,880,,,,,,,,,0.165283,-0.09668,0.447754,-85.327148,-94.726562,-7.202148,,,,,,,,,,,0.0,1.0,1.0,4.0,0.0,0.0,0.0,4.0,0.0,-0.012083306666666668,-0.08017576000000001,0.9702344133333333,-3.496093773333333,0.6298827600000012,5.13346356,-43.49514436156716,2.999805070005604,-10.291971142446656,15.554771981329756,9.301966896189938,37.798335463119955,41.91887025328243,-1.7208715814615363,42.52721036232483,-1.6564412257874779,0.1773663066666667,-0.01650423999999999,-0.5224804133333333,0.71635096,0.552011756211335,0.8132027041542507,0.7527171220847485,0.7775718406521246
LBP09_S04,LBP09,-1477,174,4,173,-1477,1716541012.92,2024-05-24 08:56:52.920000+00:00,2024-05-24 17:56:52.920000+09:00,2024,5,24,8,56,52,920,,,,,,,,,0.654053,-0.12207,0.731201,-76.843262,-41.625977,-21.42334,,,,,,,,,,,0.0,1.0,1.0,4.0,0.0,0.0,0.0,4.0,0.0,-0.0009016666666666695,-0.08244464,0.9811458666666668,-2.38199872,-1.2711589066666655,4.77213544,-45.20149282046232,1.6160592273267826,-8.124522389488117,13.746712268511263,9.36660926528301,37.47335456754043,40.999484995135326,-1.5817710563677385,41.93146976242123,-1.6794157780905554,0.6549546666666667,-0.03962536,-0.24994486666666682,0.9445248933333334,0.7021454414269112,0.7990773531309989,0.7531211782805305,0.771581347986777
LBP09_S04,LBP09,-1476,175,4,174,-1476,1716541012.96,2024-05-24 08:56:52.960000+00:00,2024-05-24 17:56:52.960000+09:00,2024,5,24,8,56,52,960,,,,,,,,,0.062012,-0.196289,1.227539,-55.358887,59.265137,29.602051,,,,,,,,,,,0.0,1.0,1.0,4.0,0.0,0.0,0.0,4.0,0.0,0.0036979466666666625,-0.08234372,0.9951627866666668,-3.1453450666666662,0.12207025333333443,5.3686523600000005,-43.13840764659897,0.7023030415426249,-4.805143830473035,12.021175962647305,9.394701386944716,37.28114881432151,40.28216904028849,-1.5257649617864257,41.39208154794669,-1.6921014151371412,0.05831405333333334,-0.11394528,0.23237621333333314,0.40463554666666646,0.26529749371899464,0.7911743059836948,0.7501767204511364,0.7734361557738956
LBP09_S04,LBP09,-1475,176,4,175,-1475,1716541013.0,2024-05-24 08:56:53+00:00,2024-05-24 17:56:53+09:00,2024,5,24,8,56,53,0,8.0,56.0,52.0,40.56427,141.546005,3.834,3.0,15.0,-0.398926,-0.094482,1.804688,-44.006348,-0.305176,-9.338379,-303.0,179.0,247.0,975.0,0.0,1005.799988,22.469999,-0.07135,62.175373,3.888281,0.0,1.0,1.0,4.0,0.0,0.0,0.0,4.0,0.0,-0.0038476266666666705,-0.07801104,1.0142741066666667,-2.313639333333333,1.7936197333333344,5.20996096,-38.17823919720167,0.2610716897773737,-0.7714450135415948,10.494046394759238,9.405144254535811,37.25029101377985,39.82669869315401,-1.6202229171972413,40.948049819057424,-1.7007846398390978,-0.39507837333333334,-0.016470959999999993,0.7904138933333333,1.2019632266666667,0.8838055987452175,0.7810267889592304,0.7495046536237591,0.7721583600252038
LBP09_S04,LBP09,-1474,177,4,176,-1474,1716541013.04,2024-05-24 08:56:53.040000+00:00,2024-05-24 17:56:53.040000+09:00,2024,5,24,8,56,53,40,,,,,,,,,-0.120117,-0.276367,1.895508,-17.944336,-41.320801,-5.493164,,,,,,,,,,,0.0,1.0,1.0,4.0,0.0,0.0,0.0,4.0,0.0,-0.01277666666666667,-0.07227210666666667,1.0273502800000003,-1.713053386666666,1.3248697333333348,4.223632826666667,-31.790086978323867,0.10107551870876959,3.486590621562692,9.222442915626283,9.409187275284161,37.38975463864236,39.643158431830734,-1.7461843368344876,40.62754739328422,-1.7016328907528337,-0.10734033333333333,-0.2040948933333333,0.8681577199999997,1.1795929466666664,0.8982619325344103,0.7900488757475266,0.7502894798746815,0.7761488984920633
LBP09_S04,LBP09,-1473,178,4,177,-1473,1716541013.08,2024-05-24 08:56:53.080000+00:00,2024-05-24 17:56:53.080000+09:00,2024,5,24,8,56,53,80,,,,,,,,,-0.210449,-0.319824,0.799316,29.418945,125.366211,23.925781,,,,,,,,,,,0.0,1.0,1.0,4.0,0.0,0.0,0.0,4.0,0.0,-0.016513640000000003,-0.06886716,1.0210091333333333,-2.001139319999999,1.9840494133333346,3.1119791733333333,-25.548286061598805,0.016895836430097785,7.468706106680915,8.200511473162331,9.409863108741366,37.688502882909596,39.701601500466,-1.8066279549081687,40.44306635845998,-1.6882492200476733,-0.19393536,-0.25095684,-0.2216931333333333,0.6665853333333334,0.38696008162117485,0.7759783989106146,0.7500735058834723,0.771198643707444
LBP09_S04,LBP09,-1472,179,4,178,-1472,1716541013.12,2024-05-24 08:56:53.120000+00:00,2024-05-24 17:56:53.120000+09:00,2024,5,24,8,56,53,120,,,,,,,,,-0.107178,0.189697,-0.040283,30.883789,-6.835938,-15.441895,,,,,,,,,,,0.0,1.0,1.0,4.0,0.0,0.0,0.0,4.0,0.0,-0.014947880000000004,-0.06736652,0.9971061466666666,-3.7923177066666662,2.3689778000000015,2.9484049466666664,-20.648483633310494,-0.07472151032808123,10.690852789212014,7.374572127829912,9.406874248328242,38.116136994478076,39.94638277208898,-1.7896058179626626,40.38862669256701,-1.6773322721731287,-0.09223012,0.25706352,-1.0373891466666667,1.3866827866666667,1.0727368223249352,0.7974905353593651,0.7485195203755821,0.7743034633225473
LBP09_S04,LBP09,-1471,180,4,179,-1471,1716541013.16,2024-05-24 08:56:53.160000+00:00,2024-05-24 17:56:53.160000+09:00,2024,5,24,8,56,53,160,,,,,,,,,0.032959,0.105225,0.309082,-14.526367,-58.898926,2.01416,,,,,,,,,,,0.0,1.0,1.0,4.0,0.0,0.0,0.0,4.0,0.0,-0.015589160000000006,-0.06551430666666667,0.9785612266666666,-4.819335933333333,1.4843749333333345,2.978515626666667,-17.60996724239268,-0.11901086401315071,12.716699944992024,6.670173438134205,9.402113813767716,38.62480499227776,40.30839265653392,-1.80487794835945,40.44056494050999,-1.6997332668801888,0.04854816000000001,0.17073930666666667,-0.6694792266666665,0.8887666933333331,0.6926119184785932,0.7786997416492801,0.7503255696820494,0.7622436436706027
LBP09_S04,LBP09,-1470,181,4,180,-1470,1716541013.2,2024-05-24 08:56:53.200000+00:00,2024-05-24 17:56:53.200000+09:00,2024,5,24,8,56,53,200,,,,,,,,,0.489014,-0.127441,0.661377,-52.978516,-77.819824,18.920898,,,,,,,,,,,0.0,1.0,1.0,4.0,0.0,0.0,0.0,4.0,0.0,-0.007825480000000003,-0.063916,0.9759765866666666,-5.668945306666666,-1.5836589199999986,2.2607421866666666,-16.25763575664372,-0.018924177733705527,13.212207039095151,6.019868007868456,9.401356846658368,39.15329327384156,40.71369174587113,-1.692878329556705,40.56219007331242,-1.7293363228930576,0.49683948,-0.063525,-0.31459958666666665,0.8749640666666667,0.5914877804676171,0.7631565405893235,0.7496012511905775,0.7613714725433121
LBP09_S04,LBP09,-1469,182,4,181,-1469,1716541013.24,2024-05-24 08:56:53.240000+00:00,2024-05-24 17:56:53.240000+09:00,2024,5,24,8,56,53,240,,,,,,,,,0.23877,-0.240234,1.237305,-74.829102,50.78125,40.771484,,,,,,,,,,,0.0,1.0,1.0,4.0,0.0,0.0,0.0,4.0,0.0,-0.0015364133333333368,-0.06726236000000001,0.98775392,-5.445963533333333,-1.5820313199999985,2.44140624,-15.945737864960954,0.2469934393120351,12.02207621401019,5.382038493270017,9.41123658423085,39.63417632240197,41.09021349594882,-1.59368729604232,40.710989376014254,-1.7514054602913074,0.24030641333333336,-0.17297163999999998,0.24955108000000015,0.6628291333333335,0.38722358149083186,0.7627325879888254,0.7496420924943769,0.7508690201285795
LBP09_S04,LBP09,-1468,183,4,182,-1468,1716541013.28,2024-05-24 08:56:53.280000+00:00,2024-05-24 17:56:53.280000+09:00,2024,5,24,8,56,53,280,,,,,,,,,-0.312988,-0.254395,1.784424,-49.560547,40.466309,20.263672,,,,,,,,,,,0.0,1.0,1.0,4.0,0.0,0.0,0.0,4.0,0.0,-0.0029491733333333364,-0.07224282666666668,1.0031543200000002,-5.7014973866666665,0.37353509333333496,3.2080078133333334,-15.878714066933632,0.5818744405162646,9.240616420724804,4.746889930592672,9.4345115618515,40.00380097923096,41.374473594352736,-1.6117021027160872,40.846116869229164,-1.7577042051599225,-0.31003882666666666,-0.1821521733333333,0.7812696799999999,1.27346068,0.8600498829592399,0.7632555555266868,0.7518845860228716,0.7481006026396038
LBP09_S04,LBP09,-1467,184,4,183,-1467,1716541013.32,2024-05-24 08:56:53.320000+00:00,2024-05-24 17:56:53.320000+09:00,2024,5,24,8,56,53,320,,,,,,,,,-0.290771,0.095459,1.907227,33.996582,-59.387207,-34.484863,,,,,,,,,,,0.0,1.0,1.0,4.0,0.0,0.0,0.0,4.0,0.0,-0.01649734666666667,-0.06905922666666667,1.0151009333333334,-4.686686186666666,0.7885741600000015,2.79541016,-15.368981312689892,0.8247110719784615,5.237102259611543,4.132130678085076,9.467500004730638,40.213285069615424,41.51886747456512,-1.805781003438341,40.934146726295225,-1.754959400488427,-0.2742736533333333,0.16451822666666666,0.8921260666666666,1.3309179466666665,0.9477242228858013,0.7843617956812088,0.7497571804525802,0.7516660776689674
