file_name,test_id,_program_index,program_index,session_id,index,_index,unixtime,datetime_utc,datetime_jst,rtc_year,rtc_month,rtc_day,rtc_hour,rtc_min,rtc_sec,rtc_msec,gps_hour,gps_min,gps_sec,latitude,longitude,altitude,fix_type,SIV,acc_x,acc_y,acc_z,gyro_x,gyro_y,gyro_z,mag_x,mag_y,mag_z,illuminance,atmopress,water_pressure,water_temp,depth,alt_wps,battery_level,behavior_class,camera_command,camera_recording,camera_count,play_audio,speaker_on,audio_file,prev_sd_write_time_ms,delay_occurred_counter,acc_x_ma,acc_y_ma,acc_z_ma,gyro_x_ma,gyro_y_ma,gyro_z_ma,gyro_x_lowpass,gyro_y_lowpass,gyro_z_lowpass,angle_x,angle_y,angle_z,combined_angle_change,gravity_adjusted_angle,smoothed_angle_change,smoothed_gravity_angle,acc_x_dy,acc_y_dy,acc_z_dy,ODBA,VeDBA,smoothed_VeDBA_1s,smoothed_VeDBA_2s,smoothed_VeDBA_3s
LBP06_S01,LBP06,-1650,1,1,0,-1650,1716262211.0,2024-05-21 03:30:11+00:00,2024-05-21 12:30:11+09:00,2024,5,21,3,30,11,0,3.0,30.0,11.0,40.542587,141.579987,5.341,3.0,12.0,-0.174072,-0.146729,0.476562,11.352539,216.918945,59.631348,-587.0,56.0,538.0,315.0,0.0,1027.300049,32.099998,0.141711,-116.256706,3.916406,0.0,1.0,1.0,1.0,0.0,0.0,0.0,6.0,0.0,,,,,,,11.633097479477883,215.24829589423726,59.30508747496293,0.4653238991791153,8.60993183576949,2.3722034989985175,8.942863187391668,,16.441155330069428,,,,,,,,,
LBP06_S01,LBP06,-1649,2,1,1,-1649,1716262211.04,2024-05-21 03:30:11.040000+00:00,2024-05-21 12:30:11.040000+09:00,2024,5,21,3,30,11,40,,,,,,,,,0.085449,0.075439,0.278809,59.326172,-7.568359,4.699707,,,,,,,,,,,0.0,1.0,1.0,1.0,0.0,0.0,0.0,6.0,0.0,,,,,,,-0.13585149331978946,145.9221280818351,40.11147227410764,0.4598898394463237,14.446816959042895,3.976662389962823,14.991192837004673,,16.900676044016098,,,,,,,,,
LBP06_S01,LBP06,-1648,3,1,2,-1648,1716262211.08,2024-05-21 03:30:11.080000+00:00,2024-05-21 12:30:11.080000+09:00,2024,5,21,3,30,11,80,,,,,,,,,0.151367,-0.022217,0.834961,32.531738,-74.645996,-20.874023,,,,,,,,,,,0.0,1.0,1.0,1.0,0.0,0.0,0.0,6.0,0.0,,,,,,,-9.941768920780351,83.81807080668543,22.766744662273155,0.06221908261510967,17.799539791310313,4.887332176453749,18.45842636303758,,17.08653554659077,,,,,,,,,
LBP06_S01,LBP06,-1647,4,1,3,-1647,1716262211.12,2024-05-21 03:30:11.120000+00:00,2024-05-21 12:30:11.120000+09:00,2024,5,21,3,30,11,120,,,,,,,,,0.676025,-0.019043,1.641846,-59.326172,21.30127,9.94873,,,,,,,,,,,0.0,1.0,1.0,1.0,0.0,0.0,0.0,6.0,0.0,,,,,,,-16.09285507435699,34.433580950627395,8.697044195344626,-0.58149512035917,19.176883029335407,5.235213944267534,19.887142689136294,,17.10959743683289,,,,,,,,,
LBP06_S01,LBP06,-1646,5,1,4,-1646,1716262211.16,2024-05-21 03:30:11.160000+00:00,2024-05-21 12:30:11.160000+09:00,2024,5,21,3,30,11,160,,,,,,,,,-0.118408,-0.61792,1.780273,-140.319824,-0.610352,3.417969,,,,,,,,,,,0.0,1.0,1.0,1.0,0.0,0.0,0.0,6.0,0.0,,,,,,,-17.69138945405255,0.5235287746137524,-1.3785297025767485,-1.289150698521272,19.19782418031996,5.180072756164464,19.92615157377693,,17.052141583690982,,,,,,,,,
LBP06_S01,LBP06,-1645,6,1,5,-1645,1716262211.2,2024-05-21 03:30:11.200000+00:00,2024-05-21 12:30:11.200000+09:00,2024,5,21,3,30,11,200,,,,,,,,,0.390869,-0.799072,2.320801,13.427734,-85.205078,-37.475586,,,,,,,,,,,0.0,1.0,1.0,1.0,0.0,0.0,0.0,6.0,0.0,,,,,,,-14.855440720011291,-18.143614260030503,-7.515296195213448,-1.8833683273217237,18.47207960991874,4.879460908355926,19.198279613749456,,16.9709252457635,,,,,,,,,
LBP06_S01,LBP06,-1644,7,1,6,-1644,1716262211.24,2024-05-21 03:30:11.240000+00:00,2024-05-21 12:30:11.240000+09:00,2024,5,21,3,30,11,240,,,,,,,,,0.543945,-0.709717,1.9021,17.883301,52.185059,-2.13623,,,,,,,,,,,0.0,1.0,1.0,1.0,0.0,0.0,0.0,6.0,0.0,,,,,,,-8.667527427019223,-24.192634989831117,-10.392151238451227,-2.2300694244024926,17.504374210325494,4.463774858817877,18.201692562038776,,17.6969966140167,,,,,,,,,
LBP06_S01,LBP06,-1643,8,1,7,-1643,1716262211.28,2024-05-21 03:30:11.280000+00:00,2024-05-21 12:30:11.280000+09:00,2024,5,21,3,30,11,280,,,,,,,,,-0.221436,-0.141113,0.298828,9.765625,184.448242,56.45752,,,,,,,,,,,0.0,1.0,1.0,1.0,0.0,0.0,0.0,6.0,0.0,,,,,,,-0.8332371946526538,-21.540657196540618,-11.019563159500567,-2.263398912188599,16.64274792246387,4.0229923324378545,17.27103066852774,,17.838806689271756,,,,,,,,,
LBP06_S01,LBP06,-1642,9,1,8,-1642,1716262211.32,2024-05-21 03:30:11.320000+00:00,2024-05-21 12:30:11.320000+09:00,2024,5,21,3,30,11,320,,,,,,,,,-0.068115,0.045654,0.113037,5.065918,-20.263672,-6.652832,,,,,,,,,,,0.0,1.0,1.0,1.0,0.0,0.0,0.0,6.0,0.0,,,,,,,6.836297596302955,-14.23949107181612,-10.421277207561564,-1.9899470083364807,16.073168279591226,3.606141244135392,16.592494758555727,,17.667199390888417,,,,,,,,,
LBP06_S01,LBP06,-1641,10,1,9,-1641,1716262211.36,2024-05-21 03:30:11.360000+00:00,2024-05-21 12:30:11.360000+09:00,2024,5,21,3,30,11,360,,,,,,,,,0.145264,-0.174805,0.517334,58.898926,-85.144043,-23.864746,,,,,,,,,,,0.0,1.0,1.0,1.0,0.0,0.0,0.0,6.0,0.0,,,,,,,12.930825730719556,-5.64864661459266,-9.40102593738467,-1.4727139791076986,15.847222415007518,3.2301002066400053,16.239978204416154,,17.386146095137953,,,,,,,,,
LBP06_S01,LBP06,-1640,11,1,10,-1640,1716262211.4,2024-05-21 03:30:11.400000+00:00,2024-05-21 12:30:11.400000+09:00,2024,5,21,3,30,11,400,,,,,,,,,0.536133,-0.056152,0.782959,105.773926,-39.794922,-31.494141,,,,,,,,,,,0.0,1.0,1.0,1.0,0.0,0.0,0.0,6.0,0.0,,,,,,,16.762400092629516,1.8999557436778796,-8.453672196829032,-0.8022179754025179,15.923220644754634,2.891953318766844,16.20357686992368,,17.12381183466229,,,,,,,,,
LBP06_S01,LBP06,-1639,12,1,11,-1639,1716262211.44,2024-05-21 03:30:11.440000+00:00,2024-05-21 12:30:11.440000+09:00,2024,5,21,3,30,11,440,,,,,,,,,0.287842,0.125977,0.953613,-46.75293,1.220703,9.521484,,,,,,,,,,,0.0,1.0,1.0,1.0,0.0,0.0,0.0,6.0,0.0,,,,,,,18.400256613557737,7.046960978851757,-7.804180439180154,-0.06620771086020849,16.205099083908706,2.579786101199638,16.409293589555247,,16.938938088242278,,,,,,,,,
LBP06_S01,LBP06,-1638,13,1,12,-1638,1716262211.48,2024-05-21 03:30:11.480000+00:00,2024-05-21 12:30:11.480000+09:00,2024,5,21,3,30,11,480,,,,,,,,,0.13916,-0.705811,1.661865,-27.954102,-12.145996,-32.226562,,,,,,,,,,,0.0,1.0,1.0,1.0,0.0,0.0,0.0,6.0,0.0,,,,,,,18.427449161300615,9.194355655814224,-7.506862252664924,0.6708902555918161,16.572873310141276,2.279511611093041,16.74235337920416,,16.838116800647164,,,,,,,,,
LBP06_S01,LBP06,-1637,14,1,13,-1637,1716262211.52,2024-05-21 03:30:11.520000+00:00,2024-05-21 12:30:11.520000+09:00,2024,5,21,3,30,11,520,,,,,,,,,0.26416,-0.381836,1.73291,-7.93457,-52.612305,-34.057617,,,,,,,,,,,0.0,1.0,1.0,1.0,0.0,0.0,0.0,6.0,0.0,,,,,,,17.548794896765138,8.328338028522177,-7.535555438833966,1.3728420514624218,16.906006831282163,1.9780893935396824,17.076609731631653,,16.79665289654618,,,,,,,,,
LBP06_S01,LBP06,-1636,15,1,14,-1636,1716262211.56,2024-05-21 03:30:11.560000+00:00,2024-05-21 12:30:11.560000+09:00,2024,5,21,3,30,11,560,,,,,,,,,0.104492,-0.682617,1.250488,-30.761719,135.864258,30.639648,,,,,,,,,,,0.0,1.0,1.0,1.0,0.0,0.0,0.0,6.0,0.0,,,,,,,16.248975527222335,4.932567173661317,-7.826840223508148,2.022801072551315,17.103309518228617,1.6650157845993565,17.3028089690203,,16.776375418431815,,,,,,,,,
LBP06_S01,LBP06,-1635,16,1,15,-1635,1716262211.6,2024-05-21 03:30:11.600000+00:00,2024-05-21 12:30:11.600000+09:00,2024,5,21,3,30,11,600,,,,,,,,,-0.392334,0.070557,-0.319336,47.241211,86.181641,12.817383,,,,,,,,,,,0.0,1.0,1.0,1.0,0.0,0.0,0.0,6.0,0.0,,,,,,,14.662867398941106,-0.07617402432861656,-8.279625654305939,2.609315768508959,17.100262557255473,1.333830758427119,17.349542149549343,,16.73769916980451,,,,,,,,,
LBP06_S01,LBP06,-1634,17,1,16,-1634,1716262211.64,2024-05-21 03:30:11.640000+00:00,2024-05-21 12:30:11.640000+09:00,2024,5,21,3,30,11,640,,,,,,,,,-0.036865,-0.062744,0.148682,18.737793,-43.395996,-7.141113,,,,,,,,,,,0.0,1.0,1.0,1.0,0.0,0.0,0.0,6.0,0.0,,,,,,,12.697147402603083,-5.5093152914706485,-8.74758657627441,3.1172016646130825,16.87988994559665,0.9839272953761425,17.19347968608762,,16.647102840792442,,,,,,,,,
LBP06_S01,LBP06,-1633,18,1,17,-1633,1716262211.68,2024-05-21 03:30:11.680000+00:00,2024-05-21 12:30:11.680000+09:00,2024,5,21,3,30,11,680,,,,,,,,,0.311768,0.047363,0.44043,65.551758,-122.802734,-24.841309,,,,,,,,,,,0.0,1.0,1.0,1.0,0.0,0.0,0.0,6.0,0.0,,,,,,,10.308796766162526,-10.222021497112147,-9.06494704087823,3.5295535352595837,16.47100908571216,0.6213294137410132,16.856391627517905,,16.482226048594843,,,,,,,,,
LBP06_S01,LBP06,-1632,19,1,18,-1632,1716262211.72,2024-05-21 03:30:11.720000+00:00,2024-05-21 12:30:11.720000+09:00,2024,5,21,3,30,11,720,,,,,,,,,0.477295,-0.196777,0.435791,51.879883,-64.27002,-22.460938,,,,,,,,,,,0.0,1.0,1.0,1.0,0.0,0.0,0.0,6.0,0.0,,,,,,,7.771158567131564,-13.491163728267255,-9.113663537801337,3.8403998779448463,15.93136253658147,0.2567828722289598,16.389719977412078,,16.236106453534752,,,,,,,,,
LBP06_S01,LBP06,-1631,20,1,19,-1631,1716262211.76,2024-05-21 03:30:11.760000+00:00,2024-05-21 12:30:11.760000+09:00,2024,5,21,3,30,11,760,,,,,,,,,0.476318,-0.011719,1.135498,-7.751465,6.164551,-11.352539,,,,,,,,,,,0.0,1.0,1.0,1.0,0.0,0.0,0.0,6.0,0.0,,,,,,,5.771852203422726,-15.253914709300403,-8.897624422739968,4.071273966081756,15.321205948209455,-0.09912210468063892,15.853215718143122,,15.92153662670042,,,,,,,,,
LBP06_S01,LBP06,-1630,21,1,20,-1630,1716262211.8,2024-05-21 03:30:11.800000+00:00,2024-05-21 12:30:11.800000+09:00,2024,5,21,3,30,11,800,,,,,,,,,-0.115234,-0.78833,1.44751,-71.044922,-9.765625,-14.221191,,,,,,,,,,,0.0,1.0,1.0,1.0,0.0,0.0,0.0,6.0,0.0,,,,,,,5.2779759423505626,-16.04694396796408,-8.57339817583833,4.282393003775778,14.679328189490892,-0.44205803171417213,15.297613579802984,,15.575125629307825,,,,,,,,,
LBP06_S01,LBP06,-1629,22,1,21,-1629,1716262211.84,2024-05-21 03:30:11.840000+00:00,2024-05-21 12:30:11.840000+09:00,2024,5,21,3,30,11,840,,,,,,,,,0.380127,-0.277832,1.548828,82.885742,-25.57373,-38.879395,,,,,,,,,,,0.0,1.0,1.0,1.0,0.0,0.0,0.0,6.0,0.0,,,,,,,7.222497766526909,-16.652455657532393,-8.406598191606726,4.571292914436854,14.013229963189596,-0.7783219593784412,14.760525667579254,,15.257206167851303,,,,,,,,,
LBP06_S01,LBP06,-1628,23,1,22,-1628,1716262211.88,2024-05-21 03:30:11.880000+00:00,2024-05-21 12:30:11.880000+09:00,2024,5,21,3,30,11,880,,,,,,,,,0.237061,-0.520508,1.201172,-103.881836,69.091797,43.945312,,,,,,,,,,,0.0,1.0,1.0,1.0,0.0,0.0,0.0,6.0,0.0,,,,,,,12.144285160459342,-17.62178660310042,-8.66169514257093,5.057064320855227,13.30835849906558,-1.1247897650812784,14.281157428603244,,15.041830156865108,,,,,,,,,
LBP06_S01,LBP06,-1627,24,1,23,-1627,1716262211.92,2024-05-21 03:30:11.920000+00:00,2024-05-21 12:30:11.920000+09:00,2024,5,21,3,30,11,920,,,,,,,,,-0.312744,0.278076,-0.432861,107.055664,115.966797,13.427734,,,,,,,,,,,0.0,1.0,1.0,1.0,0.0,0.0,0.0,6.0,0.0,,,,,,,19.917144096035983,-18.918730243926117,-9.47188054219823,5.853750084696666,12.551609289308535,-1.5036649867692076,13.930911463288329,,14.997185392745754,,,,,,,,,
LBP06_S01,LBP06,-1626,25,1,24,-1626,1716262211.96,2024-05-21 03:30:11.960000+00:00,2024-05-21 12:30:11.960000+09:00,2024,5,21,3,30,11,960,,,,,,,,,-0.077148,-0.131104,0.009277,1.89209,-65.856934,-17.456055,,,,,,,,,,,0.0,1.0,1.0,1.0,0.0,0.0,0.0,6.0,0.0,,,,,,,29.651125159852306,-19.882439232261238,-10.756137003662356,7.039795091090759,11.756311720018086,-1.933910466915702,13.838698995094381,,15.166425293872887,,,,,,,,,
LBP06_S01,LBP06,-1625,26,1,25,-1625,1716262212.0,2024-05-21 03:30:12+00:00,2024-05-21 12:30:12+09:00,2024,5,21,3,30,12,0,3.0,30.0,12.0,40.542458,141.580139,6.413,3.0,13.0,0.323486,0.02124,0.216797,11.657715,-146.179199,-17.150879,-594.0,58.0,536.0,357.0,0.0,1027.5,32.07,0.143692,-117.901878,3.916406,0.0,1.0,1.0,1.0,0.0,0.0,0.0,5.0,0.0,,,,,,,39.78785808443444,-19.55967139558188,-12.23389875824891,8.631309414468136,10.97392486419481,-2.4232664172456584,14.1703475349841,,15.55851168186221,,,,,,,,,
LBP06_S01,LBP06,-1624,27,1,26,-1624,1716262212.04,2024-05-21 03:30:12.040000+00:00,2024-05-21 12:30:12.040000+09:00,2024,5,21,3,30,12,40,,,,,,,,,0.460693,-0.358887,0.54541,47.607422,-74.401855,-35.583496,,,,,,,,,,,0.0,1.0,1.0,1.0,0.0,0.0,0.0,5.0,0.0,,,,,,,48.36995192930724,-17.247193698175174,-13.534456228092903,10.566107491640427,10.284037116267804,-2.9646446663693746,15.039719576225687,,16.150258118199304,,,,,,,,,
LBP06_S01,LBP06,-1623,28,1,27,-1623,1716262212.08,2024-05-21 03:30:12.080000+00:00,2024-05-21 12:30:12.080000+09:00,2024,5,21,3,30,12,80,,,,,,,,,0.440674,-0.051025,0.860352,71.105957,-26.184082,-19.40918,,,,,,,,,,,0.0,1.0,1.0,1.0,0.0,0.0,0.0,5.0,0.0,,,,,,,53.441193364717705,-12.942948410804524,-14.342469922052866,12.703755226229134,9.766319179835623,-3.5383434632514894,16.409943986324382,,16.895500197557705,,,,,,,,,
LBP06_S01,LBP06,-1622,29,1,28,-1622,1716262212.12,2024-05-21 03:30:12.120000+00:00,2024-05-21 12:30:12.120000+09:00,2024,5,21,3,30,12,120,,,,,,,,,0.181152,-0.918457,1.273438,-3.723145,-11.291504,-36.621094,,,,,,,,,,,0.0,1.0,1.0,1.0,0.0,0.0,0.0,5.0,0.0,,,,,,,53.50980367442226,-7.444296869624382,-14.500530958949907,14.844147373206024,9.468547305050647,-4.118364701609486,18.082118988683384,,17.736356797333286,,,,,,,,,
LBP06_S01,LBP06,-1621,30,1,29,-1621,1716262212.16,2024-05-21 03:30:12.160000+00:00,2024-05-21 12:30:12.160000+09:00,2024,5,21,3,30,12,160,,,,,,,,,0.491455,-0.626953,1.394287,198.730469,12.573242,-33.02002,,,,,,,,,,,0.0,1.0,1.0,1.0,0.0,0.0,0.0,5.0,0.0,,,,,,,47.97317893131812,-2.0311804680124386,-14.013511002054823,16.76307453045875,9.38730008633015,-4.678905141691679,19.774079598036355,,18.612056133291357,,,,,,,,,
LBP06_S01,LBP06,-1620,31,1,30,-1620,1716262212.2,2024-05-21 03:30:12.200000+00:00,2024-05-21 12:30:12.200000+09:00,2024,5,21,3,30,12,200,,,,,,,,,0.411621,0.079102,1.5271,-6.530762,90.515137,29.846191,,,,,,,,,,,0.0,1.0,1.0,1.0,0.0,0.0,0.0,5.0,0.0,,,,,,,37.37843794171682,2.104015110045201,-12.952006642108364,18.258212048127422,9.471460690731957,-5.1969854073760136,21.215077943173938,,19.462989671300416,,,,,,,,,
LBP06_S01,LBP06,-1619,32,1,31,-1619,1716262212.24,2024-05-21 03:30:12.240000+00:00,2024-05-21 12:30:12.240000+09:00,2024,5,21,3,30,12,240,,,,,,,,,-0.269287,-0.122314,-0.02417,15.197754,162.475586,55.908203,,,,,,,,,,,0.0,1.0,1.0,1.0,0.0,0.0,0.0,5.0,0.0,,,,,,,23.410628573086733,4.388786223971221,-11.311094995433331,19.19463719105089,9.647012139690807,-5.6494292071933465,22.212946461163252,,20.23233408784108,,,,,,,,,
LBP06_S01,LBP06,-1618,33,1,32,-1618,1716262212.28,2024-05-21 03:30:12.280000+00:00,2024-05-21 12:30:12.280000+09:00,2024,5,21,3,30,12,280,,,,,,,,,0.123047,-0.049316,0.210449,15.808105,-64.819336,-40.283203,,,,,,,,,,,0.0,1.0,1.0,1.0,0.0,0.0,0.0,5.0,0.0,,,,,,,8.573409441240715,5.089373218415676,-8.91565721721088,19.53757356870052,9.850587068427433,-6.006055495881782,22.689723426359052,,20.871297215145812,,,,,,,,,
LBP06_S01,LBP06,-1617,34,1,33,-1617,1716262212.32,2024-05-21 03:30:12.320000+00:00,2024-05-21 12:30:12.320000+09:00,2024,5,21,3,30,12,320,,,,,,,,,0.335449,-0.204346,0.674072,12.939453,-118.408203,-43.701172,,,,,,,,,,,0.0,1.0,1.0,1.0,0.0,0.0,0.0,5.0,0.0,,,,,,,-4.374862926140968,5.101931388274604,-5.442802429604445,19.36257905165488,10.054664323958418,-6.2237675930659595,22.687904822869047,,21.349865884185128,-0.950592444223625,,,,,,,,
LBP06_S01,LBP06,-1616,35,1,34,-1616,1716262212.36,2024-05-21 03:30:12.360000+00:00,2024-05-21 12:30:12.360000+09:00,2024,5,21,3,30,12,360,,,,,,,,,0.575439,0.12207,0.993652,26.123047,-5.79834,-6.469727,,,,,,,,,,,0.0,1.0,1.0,1.0,0.0,0.0,0.0,5.0,0.0,,,,,,,-13.094426272457719,5.440367097704853,-0.5597078097894862,18.83880200075657,10.272279007866612,-6.246155905457539,22.348034375184966,,21.665922518327584,-0.9497092570796606,,,,,,,,
LBP06_S01,LBP06,-1615,36,1,35,-1615,1716262212.4,2024-05-21 03:30:12.400000+00:00,2024-05-21 12:30:12.400000+09:00,2024,5,21,3,30,12,400,,,,,,,,,0.224609,-0.568848,1.402344,-221.740723,-14.770508,48.583984,,,,,,,,,,,0.0,1.0,1.0,1.0,0.0,0.0,0.0,5.0,0.0,,,,,,,-16.27860289026835,6.713243708286615,5.891961887091628,18.187657885145835,10.540808756198077,-6.010477429973874,21.86379170039074,,21.845029116927577,-0.9489838396424011,,,,,,,,
LBP06_S01,LBP06,-1614,37,1,36,-1614,1716262212.44,2024-05-21 03:30:12.440000+00:00,2024-05-21 12:30:12.440000+09:00,2024,5,21,3,30,12,440,,,,,,,,,0.113281,-0.625977,1.653076,41.870117,-29.11377,-18.371582,,,,,,,,,,,0.0,1.0,1.0,1.0,0.0,0.0,0.0,5.0,0.0,,,,,,,-14.032887308462545,8.865289015756709,13.74511491669836,17.626342392807334,10.895420316828345,-5.4606728333059396,21.429350849273025,,21.930502893948738,-0.9538621207861135,,,,,,,,
LBP06_S01,LBP06,-1613,38,1,37,-1613,1716262212.48,2024-05-21 03:30:12.480000+00:00,2024-05-21 12:30:12.480000+09:00,2024,5,21,3,30,12,480,,,,,,,,,0.60376,-0.598145,2.271484,1.281738,-13.427734,-1.525879,,,,,,,,,,,0.0,1.0,1.0,1.0,0.0,0.0,0.0,5.0,0.0,0.18998370666666667,-0.2716634,0.9168163733333333,2.5048827866666667,-0.3450520666666678,2.4780273200000003,-7.87817547570995,11.289584104927632,22.438751267210687,17.311215373778936,11.34700368102545,-4.563122782617512,21.19563067671751,-0.950592444223625,21.968467181634153,-0.9613870097013477,0.4137762933333333,-0.32648160000000004,1.3546676266666666,2.09492552,1.453590532028168,1.453590532028168,1.453590532028168,1.453590532028168
LBP06_S01,LBP06,-1612,39,1,38,-1612,1716262212.52,2024-05-21 03:30:12.520000+00:00,2024-05-21 12:30:12.520000+09:00,2024,5,21,3,30,12,520,,,,,,,,,0.248291,-0.586426,1.324463,10.314941,191.711426,46.99707,,,,,,,,,,,0.0,1.0,1.0,1.0,0.0,0.0,0.0,5.0,0.0,0.19677081333333335,-0.2803548,0.93964516,2.707519506666667,-4.460449200000001,1.6219075200000002,-0.35192619197030045,13.216433602557705,31.051865200476477,17.297138326100125,11.875661025127759,-3.321048174598453,21.24268533010796,-0.9488260699356961,21.993374188442804,-0.9595736780088094,0.05152018666666666,-0.3060712,0.38481783999999997,0.7424092266666666,0.4943871752845878,0.9739888536563779,0.9739888536563779,0.9739888536563779
LBP06_S01,LBP06,-1611,40,1,39,-1611,1716262212.56,2024-05-21 03:30:12.560000+00:00,2024-05-21 12:30:12.560000+09:00,2024,5,21,3,30,12,560,,,,,,,,,-0.404541,0.525879,-0.259766,89.416504,108.764648,30.212402,,,,,,,,,,,0.0,1.0,1.0,1.0,0.0,0.0,0.0,5.0,0.0,0.20184894666666667,-0.2868131333333333,0.9579394266666666,2.33642576,-3.0672200400000014,1.4111327866666665,5.666051009033392,14.147247240083344,38.44175805199414,17.523780366461462,12.441550914731092,-1.783377852518687,21.565145584036305,-0.9475330047678822,22.01848436237716,-0.9555825987474453,-0.6063899466666667,0.8126921333333332,-1.2177054266666667,2.636787506666667,1.5846083986694428,1.1775287019940661,1.1775287019940661,1.1775287019940661
LBP06_S01,LBP06,-1610,41,1,40,-1610,1716262212.6,2024-05-21 03:30:12.600000+00:00,2024-05-21 12:30:12.600000+09:00,2024,5,21,3,30,12,600,,,,,,,,,0.247803,-0.457031,0.531982,-80.200195,-110.900879,58.227539,,,,,,,,,,,0.0,1.0,1.0,1.0,0.0,0.0,0.0,5.0,0.0,0.19374998666666665,-0.28865232,0.9455468533333332,2.2322590933333335,-0.48828124000000117,2.9069010133333335,7.6828992450238225,14.083089668170228,43.46410287836732,17.831096336262416,13.004874501457902,-0.04481373738399408,22.069815713385537,-0.968496964217251,22.03419100382834,-0.9545572404202384,0.054053013333333344,-0.16837868,-0.41356485333333326,0.6359965466666666,0.44978772331131645,0.9955934573233788,0.9955934573233788,0.9955934573233788
LBP06_S01,LBP06,-1609,42,1,41,-1609,1716262212.64,2024-05-21 03:30:12.640000+00:00,2024-05-21 12:30:12.640000+09:00,2024,5,21,3,30,12,640,,,,,,,,,0.877197,0.263672,1.264404,195.678711,-4.638672,44.006348,,,,,,,,,,,0.0,1.0,1.0,1.0,0.0,0.0,0.0,5.0,0.0,0.1855078,-0.2914810933333334,0.9269824,3.9436848799999997,-1.2182617200000014,2.47884112,4.171571522475058,13.428917769031248,45.22213181169347,17.997959197161418,13.542031212219152,1.7640715350837448,22.592589338017405,-0.9914865653622845,22.01486421698585,-0.9527301352433933,0.6916892,0.5551530933333334,0.3374216000000001,1.5842638933333335,0.9489374281694072,0.9862622514925844,0.9862622514925844,0.9862622514925844
LBP06_S01,LBP06,-1608,43,1,42,-1608,1716262212.68,2024-05-21 03:30:12.680000+00:00,2024-05-21 12:30:12.680000+09:00,2024,5,21,3,30,12,680,,,,,,,,,0.165283,-0.264648,1.562988,-236.450195,-45.898438,82.763672,,,,,,,,,,,0.0,1.0,1.0,1.0,0.0,0.0,0.0,5.0,0.0,0.1948828,-0.2789810933333333,0.9129426933333333,7.405598933333333,-2.4381510400000015,2.3787434666666667,-5.11657221496998,12.670970628060104,43.277071088439726,17.793296308562617,14.048870037341556,3.4951543786213337,22.938793494445548,-0.9505070195461177,21.931699643225937,-0.9505887916474516,-0.02959979999999998,0.014333093333333324,0.6500453066666667,0.6939782,0.6508767060234241,0.9303646605810577,0.9303646605810577,0.9303646605810577
LBP06_S01,LBP06,-1607,44,1,43,-1607,1716262212.72,2024-05-21 03:30:12.720000+00:00,2024-05-21 12:30:12.720000+09:00,2024,5,21,3,30,12,720,,,,,,,,,0.253906,-1.170166,2.233154,13.183594,-63.842773,11.962891,,,,,,,,,,,0.0,1.0,1.0,1.0,0.0,0.0,0.0,5.0,0.0,0.19805012,-0.27184568000000003,0.9008040133333333,5.500488266666666,-1.6121419333333347,3.46028644,-19.11584187219061,12.067415593391342,37.76166490702955,17.028662633674994,14.53156666107721,5.005620974902516,22.939006562212622,-0.9316361231792615,21.765537958227068,-0.9491185107599913,0.055855880000000024,-0.8983203200000001,1.3323499866666666,2.2865261866666664,1.607873055818196,1.027151574186363,1.027151574186363,1.027151574186363
LBP06_S01,LBP06,-1606,45,1,44,-1606,1716262212.76,2024-05-21 03:30:12.760000+00:00,2024-05-21 12:30:12.760000+09:00,2024,5,21,3,30,12,760,,,,,,,,,0.561279,-0.665527,2.306152,62.194824,39.0625,12.084961,,,,,,,,,,,0.0,1.0,1.0,1.0,0.0,0.0,0.0,5.0,0.0,0.19322915999999998,-0.2747297866666667,0.8975064799999999,4.27408852,-2.255859386666668,3.584798146666667,-35.629966264090804,11.556096583952836,29.369020719902494,15.60346398311136,14.993810524435323,6.180381803698616,22.505100789696762,-0.9473797321297891,21.512410244312324,-0.9496308074593749,0.36804983999999996,-0.3907972133333333,1.40864552,2.1674925733333334,1.507469849678326,1.0871913586228585,1.0871913586228585,1.0871913586228585
LBP06_S01,LBP06,-1605,46,1,45,-1605,1716262212.8,2024-05-21 03:30:12.800000+00:00,2024-05-21 12:30:12.800000+09:00,2024,5,21,3,30,12,800,,,,,,,,,-0.124268,0.204346,0.890869,4.943848,206.298828,36.743164,,,,,,,,,,,0.0,1.0,1.0,1.0,0.0,0.0,0.0,5.0,0.0,0.20080729333333333,-0.27969073333333333,0.9172525733333333,4.040527320000001,-5.333658866666668,2.85807288,-51.683943341082745,10.909444393311428,19.226461135869908,13.536106249468052,15.430188300167782,6.949440249133412,21.67052383196581,-0.9381132938286333,21.179279677223956,-0.951469205283699,-0.32507529333333335,0.4840367333333333,-0.0263835733333333,0.8354956,0.5836622297987017,1.0312436776423966,1.0312436776423966,1.0312436776423966
LBP06_S01,LBP06,-1604,47,1,46,-1604,1716262212.84,2024-05-21 03:30:12.840000+00:00,2024-05-21 12:30:12.840000+09:00,2024,5,21,3,30,12,840,,,,,,,,,-0.429443,-0.415283,-0.124268,-127.258301,5.004883,34.118652,,,,,,,,,,,0.0,1.0,1.0,1.0,0.0,0.0,0.0,5.0,0.0,0.20879882666666666,-0.28653317333333334,0.9383040133333332,4.657389293333333,-3.942871106666668,3.10872392,-64.0360755570379,9.985320632032487,8.68855202537467,10.974663227186536,15.82960112544908,7.296982330148398,20.5977051116739,-0.9313166992839751,20.776778129101036,-0.9485835929220598,-0.6382418266666667,-0.12874982666666668,-1.0625720133333332,1.8295636666666666,1.246189564509651,1.052738266329122,1.052738266329122,1.052738266329122
LBP06_S01,LBP06,-1603,48,1,47,-1603,1716262212.88,2024-05-21 03:30:12.880000+00:00,2024-05-21 12:30:12.880000+09:00,2024,5,21,3,30,12,880,,,,,,,,,-0.046875,-0.000244,0.460938,-51.452637,-54.6875,-5.615234,,,,,,,,,,,0.0,1.0,1.0,1.0,0.0,0.0,0.0,5.0,0.0,0.20448892000000002,-0.28335282666666667,0.9355989333333332,3.6303710666666666,-0.5175781333333347,4.143066373333333,-69.83045979687519,8.864075262544107,-0.9126994637987976,8.181444835311527,16.184164135950844,7.2604743515964465,19.534013826728827,-0.9358896353490234,20.318994036437765,-0.9443493506823837,-0.25136392,0.28310882666666665,-0.4746609333333332,1.00913368,0.6071551940379116,1.0122307143026483,1.0122307143026483,1.0122307143026483
LBP06_S01,LBP06,-1602,49,1,48,-1602,1716262212.92,2024-05-21 03:30:12.920000+00:00,2024-05-21 12:30:12.920000+09:00,2024,5,21,3,30,12,920,,,,,,,,,0.867676,-0.615967,1.225098,-160.827637,-83.251953,-44.555664,,,,,,,,,,,0.0,1.0,1.0,1.0,0.0,0.0,0.0,5.0,0.0,0.19711586666666667,-0.28436520000000004,0.9283333066666667,1.2150064799999993,-0.45003256000000136,5.050455706666667,-67.27429653318481,7.774815590270062,-8.521059742349681,5.490472973984135,16.495156759561645,6.919631961902459,18.711408190960523,-0.9539490369295301,19.83180804608886,-0.94296669417585,0.6705601333333333,-0.3316018,0.29676469333333333,1.2989266266666668,0.8047856418876302,0.9949436249347302,0.9949436249347302,0.9949436249347302
LBP06_S01,LBP06,-1601,50,1,49,-1601,1716262212.96,2024-05-21 03:30:12.960000+00:00,2024-05-21 12:30:12.960000+09:00,2024,5,21,3,30,12,960,,,,,,,,,0.324951,-0.313477,1.32373,-120.300293,32.531738,-30.212402,,,,,,,,,,,0.0,1.0,1.0,1.0,0.0,0.0,0.0,5.0,0.0,0.19549477333333334,-0.2899446266666667,0.9250357866666667,2.033691386666666,-1.7643229200000012,4.947102853333333,-56.13280036456692,6.8998219612429095,-13.557450619672966,3.245160959401458,16.771149638011362,6.37733393711554,18.23383991315262,-0.9659169830111252,19.361592847076686,-0.9434041743014132,0.12945622666666665,-0.0235323733333333,0.3986942133333333,0.5516828133333332,0.41984492728024747,0.9507052635766932,0.9507052635766932,0.9507052635766932
LBP06_S01,LBP06,-1600,51,1,50,-1600,1716262213.0,2024-05-21 03:30:13+00:00,2024-05-21 12:30:13+09:00,2024,5,21,3,30,13,0,3.0,30.0,13.0,40.542332,141.580307,7.018,3.0,12.0,-0.004883,-0.546143,1.61084,-8.178711,-11.779785,-37.231445,-589.0,57.0,537.0,284.0,0.0,1027.800049,32.07,0.146665,-120.370155,3.916406,0.0,1.0,1.0,1.0,0.0,0.0,0.0,5.0,0.0,0.20054685333333333,-0.28026037333333337,0.9196874799999999,2.137044253333333,-1.3256836000000014,5.746256493333334,-37.845113514718186,6.236268209777279,-16.00134464062832,1.7313564188127306,17.020600366402455,5.737280151490407,18.04480023215633,-0.9396408406008598,18.97460086172497,-0.9416881120039611,-0.20542985333333333,-0.2658826266666667,0.6911525200000002,1.162465,0.7684964552332506,0.9376903486950187,0.9376903486950187,0.9376903486950187
LBP06_S01,LBP06,-1599,52,1,51,-1599,1716262213.04,2024-05-21 03:30:13.040000+00:00,2024-05-21 12:30:13.040000+09:00,2024,5,21,3,30,13,40,,,,,,,,,0.468262,-0.970947,1.950439,4.638672,-11.901855,-23.31543,,,,,,,,,,,0.0,1.0,1.0,1.0,0.0,0.0,0.0,5.0,0.0,0.20031248000000001,-0.28610672,0.9204557066666669,0.6933593466666663,-0.3507487066666679,6.284993466666666,-15.189885110766289,5.625392019381814,-16.30743726545973,1.123761014382079,17.245616047177727,5.084982660872018,18.014748411384712,-0.949144142965521,18.74276650085681,-0.9427068995765688,0.26794952,-0.68484028,1.0299832933333333,1.9827730933333332,1.2655705191432391,0.9595490267249001,0.9595490267249001,0.9595490267249001
LBP06_S01,LBP06,-1598,53,1,52,-1598,1716262213.08,2024-05-21 03:30:13.080000+00:00,2024-05-21 12:30:13.080000+09:00,2024,5,21,3,30,13,80,,,,,,,,,0.165039,-0.360107,0.954834,72.143555,118.286133,55.908203,,,,,,,,,,,0.0,1.0,1.0,1.0,0.0,0.0,0.0,5.0,0.0,0.20059568,-0.27830724,0.9300520666666667,0.7006835733333329,-3.477376306666668,5.76985676,8.395560193459636,4.916179625510677,-15.178265352974819,1.4595834221204647,17.442263232198155,4.477852046753025,18.066933590956456,-0.9366804544807821,18.720584385696288,-0.9458432296121868,-0.03555668000000001,-0.08179976,0.024781933333333228,0.14213837333333323,0.09257225528427927,0.9053629785098612,0.9053629785098612,0.9053629785098612
LBP06_S01,LBP06,-1597,54,1,53,-1597,1716262213.12,2024-05-21 03:30:13.120000+00:00,2024-05-21 12:30:13.120000+09:00,2024,5,21,3,30,13,120,,,,,,,,,-0.352783,-0.466064,0.022217,55.053711,45.10498,11.413574,,,,,,,,,,,0.0,1.0,1.0,1.0,0.0,0.0,0.0,5.0,0.0,0.21552081333333334,-0.29896154666666663,0.9677994666666666,-0.6835937733333338,-4.8876953200000015,5.373535146666668,29.607966515314544,4.12714794125507,-13.286841486012193,2.6439020827330464,17.607349149848357,3.9463783873125373,18.236854572090916,-0.9360109244348942,18.92528868582174,-0.9475498579400812,-0.5683038133333334,-0.16710245333333335,-0.9455824666666666,1.6809887333333333,1.1158040398863256,0.9177418644731827,0.9177418644731827,0.9177418644731827
LBP06_S01,LBP06,-1596,55,1,54,-1596,1716262213.16,2024-05-21 03:30:13.160000+00:00,2024-05-21 12:30:13.160000+09:00,2024,5,21,3,30,13,160,,,,,,,,,-0.192383,0.490234,0.058838,88.684082,-2.990723,-18.432617,,,,,,,,,,,0.0,1.0,1.0,1.0,0.0,0.0,0.0,5.0,0.0,0.2148534933333333,-0.29401037333333335,0.9730956799999999,-0.44514976000000045,-1.3549804800000016,5.886230453333334,45.931104389618696,3.462749441711247,-11.074570282427503,4.481146258317795,17.745859127516805,3.5033955760154374,18.635180936179598,-0.9302191091552654,19.33234993623402,-0.9454274127200787,-0.40723649333333334,0.7842443733333333,-0.91425768,2.1057385466666667,1.2715140203892386,0.9373958731351857,0.9373958731351857,0.9373958731351857
LBP06_S01,LBP06,-1595,56,1,55,-1595,1716262213.2,2024-05-21 03:30:13.200000+00:00,2024-05-21 12:30:13.200000+09:00,2024,5,21,3,30,13,200,,,,,,,,,0.258301,-0.202637,0.351074,-67.871094,-109.069824,-19.958496,,,,,,,,,,,0.0,1.0,1.0,1.0,0.0,0.0,0.0,5.0,0.0,0.20718096,-0.29516597333333333,0.9642805733333332,-2.9305013200000007,-0.06266277333333506,6.8782552,55.99211509642003,3.1357843920060273,-8.708848730339719,6.720830862174596,17.871290503197045,3.1550416268018484,19.352180223284194,-0.9483011695547129,19.889022026321403,-0.943844874839661,0.051120040000000005,0.09252897333333332,-0.6132065733333332,0.7568555866666665,0.6222516942322703,0.9208093374034534,0.9208093374034534,0.9208093374034534
LBP06_S01,LBP06,-1594,57,1,56,-1594,1716262213.24,2024-05-21 03:30:13.240000+00:00,2024-05-21 12:30:13.240000+09:00,2024,5,21,3,30,13,240,,,,,,,,,0.450195,-0.431152,0.684814,126.037598,-6.774902,-44.98291,,,,,,,,,,,0.0,1.0,1.0,1.0,0.0,0.0,0.0,5.0,0.0,0.20262366666666667,-0.2981119466666667,0.96758136,-3.4025065333333337,-0.22867838666666843,7.356770826666666,59.60595817718401,3.0939686582278574,-6.192803606465086,9.105069189261956,17.995049249526158,2.907329482543245,20.37588396006869,-0.9626799996401545,20.536137937880305,-0.9441025303967493,0.24757133333333334,-0.1330400533333333,-0.2827673599999999,0.6633787466666665,0.39868358476459775,0.8947030497715106,0.8947030497715106,0.8947030497715106
LBP06_S01,LBP06,-1593,58,1,57,-1593,1716262213.28,2024-05-21 03:30:13.280000+00:00,2024-05-21 12:30:13.280000+09:00,2024,5,21,3,30,13,280,,,,,,,,,0.247314,-0.145996,0.816162,39.855957,-5.065918,3.845215,,,,,,,,,,,0.0,1.0,1.0,1.0,0.0,0.0,0.0,5.0,0.0,0.20625648,-0.2969368133333333,0.9665396933333333,-2.995605493333334,-0.5411783866666684,7.880859373333334,57.596920672269256,2.8435797725853873,-3.538457060854814,11.408946016152726,18.108792440429575,2.7657912001090526,21.58105682798336,-0.9529559186279656,21.223839396001125,-0.9438092177592743,0.041057520000000014,0.15094081333333334,-0.15037769333333328,0.34237602666666667,0.21698456104186908,0.8624307407843849,0.8624307407843849,0.8624307407843849
LBP06_S01,LBP06,-1592,59,1,58,-1592,1716262213.32,2024-05-21 03:30:13.320000+00:00,2024-05-21 12:30:13.320000+09:00,2024,5,21,3,30,13,320,,,,,,,,,0.205811,-0.92749,1.227539,5.493164,-51.025391,-30.517578,,,,,,,,,,,0.0,1.0,1.0,1.0,0.0,0.0,0.0,5.0,0.0,0.21150712000000002,-0.29098629333333337,0.9662141733333334,-4.189453146666668,-0.17008464000000173,8.610026040000001,51.50742717089358,1.5287945464312858,-0.8939368632962067,13.469243102988468,18.169944222286826,2.7300337255772043,22.782020695083343,-0.9327245847295061,21.9151594073546,-0.9442704802382659,-0.005696120000000027,-0.6365037066666667,0.26132482666666657,0.9035246533333332,0.688084354869244,0.8545059050609694,0.8545059050609694,0.8545059050609694
LBP06_S01,LBP06,-1591,60,1,59,-1591,1716262213.36,2024-05-21 03:30:13.360000+00:00,2024-05-21 12:30:13.360000+09:00,2024,5,21,3,30,13,360,,,,,,,,,0.346924,-0.275635,1.005371,96.740723,10.742188,6.225586,,,,,,,,,,,0.0,1.0,1.0,1.0,0.0,0.0,0.0,5.0,0.0,0.20763993333333333,-0.2969823866666667,0.9709635200000001,-5.190429706666667,-0.2913411600000017,8.790690106666666,43.26425092108719,-1.7136992578259276,1.44415894730125,15.199813139831956,18.10139625197379,2.7878000834692545,23.800560814026422,-0.9500916042069478,22.58140334579723,-0.9459067813587752,0.13928406666666668,0.02134738666666669,0.034407479999999935,0.1950389333333333,0.14505046302804767,0.8236600162769293,0.8236600162769293,0.8236600162769293
LBP06_S01,LBP06,-1590,61,1,60,-1590,1716262213.4,2024-05-21 03:30:13.400000+00:00,2024-05-21 12:30:13.400000+09:00,2024,5,21,3,30,13,400,,,,,,,,,0.037354,0.215088,0.476807,110.717773,151.794434,42.785645,,,,,,,,,,,0.0,1.0,1.0,1.0,0.0,0.0,0.0,5.0,0.0,0.21136387999999998,-0.29701168,0.9781542800000002,-3.641764346666667,-1.048177093333335,8.176269546666667,34.82312090370295,-7.263313456018944,3.1337481239482377,16.592737975980075,17.81086371373303,2.913150008427184,24.51595934774535,-0.9422173961717433,23.196073343654046,-0.9474253364113909,-0.17400987999999998,0.51209968,-0.5013472800000002,1.18745684,0.7374785527438172,0.8200691219630496,0.8200691219630496,0.8200691219630496
LBP06_S01,LBP06,-1589,62,1,61,-1589,1716262213.44,2024-05-21 03:30:13.440000+00:00,2024-05-21 12:30:13.440000+09:00,2024,5,21,3,30,13,440,,,,,,,,,-0.250977,0.098145,-0.300781,-5.79834,49.194336,19.165039,,,,,,,,,,,0.0,1.0,1.0,1.0,0.0,0.0,0.0,5.0,0.0,0.21299148,-0.30200190666666665,0.9900715999999999,-4.993489599999999,-0.6429036533333351,8.735351586666667,27.791409508433862,-14.63008417608722,3.9457205458054085,17.70439435631743,17.225660346689544,3.0709788302594005,24.89176299259292,-0.9462110165907731,23.731802190341938,-0.9456645505069851,-0.46396848,0.40014690666666664,-1.2908526,2.1549679866666667,1.428875338255641,0.8444213706147532,0.8444213706147532,0.8444213706147532
LBP06_S01,LBP06,-1588,63,1,62,-1588,1716262213.48,2024-05-21 03:30:13.480000+00:00,2024-05-21 12:30:13.480000+09:00,2024,5,21,3,30,13,480,,,,,,,,,-0.166504,0.078369,-0.067139,-19.104004,-55.908203,-6.164551,,,,,,,,,,,0.0,1.0,1.0,1.0,0.0,0.0,0.0,5.0,0.0,0.21435866666666664,-0.3005924,0.9911881466666667,-4.311523453333334,-0.07975260000000185,8.562825546666666,23.05703527312952,-22.411643770496212,3.8924121884965306,18.62667576724261,16.329194595869694,3.2266753177992618,24.980133704491216,-0.9412930792706956,24.1610520875951,-0.9415866463387284,-0.3808626666666667,0.3789614,-1.0583271466666666,1.8181512133333333,1.1868969891789314,0.8337536289007837,0.8575935097902986,0.8575935097902986
LBP06_S01,LBP06,-1587,64,1,63,-1587,1716262213.52,2024-05-21 03:30:13.520000+00:00,2024-05-21 12:30:13.520000+09:00,2024,5,21,3,30,13,520,,,,,,,,,0.265869,-0.427002,0.303711,-133.728027,-123.22998,5.187988,,,,,,,,,,,0.0,1.0,1.0,1.0,0.0,0.0,0.0,5.0,0.0,0.20889968,-0.30016596,0.9911458266666667,-4.441731786666668,0.7804361999999982,8.540039093333334,20.525289518196136,-28.680944447256454,3.2619690877565444,19.447687347970454,15.181956817979437,3.3571540813095235,24.89929395651723,-0.952373935639987,24.458663602867638,-0.93932085981232,0.05696932000000002,-0.12683603999999998,-0.6874348266666668,0.8712401866666668,0.7013554914437999,0.8420323615471523,0.8518069165182061,0.8518069165182061
LBP06_S01,LBP06,-1586,65,1,64,-1586,1716262213.56,2024-05-21 03:30:13.560000+00:00,2024-05-21 12:30:13.560000+09:00,2024,5,21,3,30,13,560,,,,,,,,,0.621826,-0.488281,0.688721,67.626953,-79.89502,-23.681641,,,,,,,,,,,0.0,1.0,1.0,1.0,0.0,0.0,0.0,5.0,0.0,0.21001622666666667,-0.29703118666666667,0.9913736933333333,-5.070800800000001,0.10091145333333146,8.387044306666667,19.116222678952482,-31.66415155886982,2.547246184592355,20.212336255128555,13.915390755624644,3.4590439286932178,24.781880914747724,-0.9454046596814236,24.60459581902405,-0.9404568089036861,0.41180977333333335,-0.19124981333333335,-0.3026526933333332,0.9057122799999999,0.5456761249081793,0.8004750705967019,0.8408736739607051,0.8408736739607051
LBP06_S01,LBP06,-1585,66,1,65,-1585,1716262213.6,2024-05-21 03:30:13.600000+00:00,2024-05-21 12:30:13.600000+09:00,2024,5,21,3,30,13,600,,,,,,,,,0.268555,-0.01123,0.602051,100.341797,-18.920898,27.954102,,,,,,,,,,,0.0,1.0,1.0,1.0,0.0,0.0,0.0,5.0,0.0,0.21459305333333334,-0.2937043733333333,0.9943619733333334,-5.348307306666667,0.3238932266666648,7.8540039466666665,17.114815249192095,-30.409512290701326,2.3050416441568937,20.89692886509624,12.699010263996591,3.5512455944594934,24.70946869016311,-0.9306933105106531,24.586644200175215,-0.9388518073610224,0.05396194666666665,0.2824743733333333,-0.3923109733333334,0.7287472933333334,0.486427346143145,0.801940655509975,0.8286513867945824,0.8286513867945824
LBP06_S01,LBP06,-1584,67,1,66,-1584,1716262213.64,2024-05-21 03:30:13.640000+00:00,2024-05-21 12:30:13.640000+09:00,2024,5,21,3,30,13,640,,,,,,,,,0.169678,-0.384521,1.259766,23.193359,-24.047852,6.591797,,,,,,,,,,,0.0,1.0,1.0,1.0,0.0,0.0,0.0,5.0,0.0,0.21292313333333335,-0.2855891333333333,0.9960253733333334,-7.58951824,0.687662759999998,8.595377653333333,12.797511270383762,-25.163532118650505,2.99751030030717,21.40882931591159,11.69246897925057,3.6711460064717802,24.668382932600306,-0.9219009579575889,24.40295997498844,-0.9388690551859649,-0.04324513333333335,-0.0989318666666667,0.26374062666666653,0.4059176266666666,0.28498556797440616,0.7753825811021748,0.8105291928339098,0.8105291928339098
LBP06_S01,LBP06,-1583,68,1,67,-1583,1716262213.68,2024-05-21 03:30:13.680000+00:00,2024-05-21 12:30:13.680000+09:00,2024,5,21,3,30,13,680,,,,,,,,,0.058838,-0.508301,1.604736,54.321289,-84.655762,-27.46582,,,,,,,,,,,0.0,1.0,1.0,1.0,0.0,0.0,0.0,5.0,0.0,0.21233394666666666,-0.2901464266666666,1.00240884,-11.04166668,-0.42073568000000194,8.745117239999999,5.102696721930707,-17.31924356678934,4.859394369349352,21.612937184788816,10.999699236578996,3.8655217812457545,24.55717198070879,-0.9302980533638818,24.06335203205405,-0.9385593589850536,-0.15349594666666666,-0.21815457333333338,0.60232716,0.97397768,0.6587491413148183,0.7756974785138305,0.8056330621397455,0.8056330621397455
LBP06_S01,LBP06,-1582,69,1,68,-1582,1716262213.72,2024-05-21 03:30:13.720000+00:00,2024-05-21 12:30:13.720000+09:00,2024,5,21,3,30,13,720,,,,,,,,,0.809082,-0.449951,2.108887,-44.433594,-43.09082,-7.93457,,,,,,,,,,,0.0,1.0,1.0,1.0,0.0,0.0,0.0,5.0,0.0,0.21439774666666664,-0.3024315866666667,1.0026562266666665,-10.913085946666667,-1.2898763066666685,8.552246146666668,-5.91201348385244,-8.968265791137794,7.823646796947276,21.37645664543472,10.640968604933484,4.178467653123645,24.241342856647417,-0.9440840756431678,23.588224196236123,-0.940304681400568,0.5946842533333333,-0.1475194133333333,1.1062307733333336,1.8484344400000001,1.264578136115954,0.7619656817257409,0.8199750957015021,0.8199750957015021
LBP06_S01,LBP06,-1581,70,1,69,-1581,1716262213.76,2024-05-21 03:30:13.760000+00:00,2024-05-21 12:30:13.760000+09:00,2024,5,21,3,30,13,760,,,,,,,,,0.053955,-0.304688,0.998779,24.414062,177.67334,40.344238,,,,,,,,,,,0.0,1.0,1.0,1.0,0.0,0.0,0.0,5.0,0.0,0.21810868,-0.3008170133333334,1.00897784,-9.321289066666669,-1.153157560000002,8.691406306666666,-18.978029009654563,-2.214223790753275,11.52884776773068,20.617335485048535,10.552399653303352,4.639621563832873,23.621044625538076,-0.934041588780309,23.005076709956175,-0.9387161407292286,-0.16415368,-0.0038709866666666315,-0.010198840000000042,0.17822350666666667,0.16451574858554274,0.7082475176820294,0.8001126912434426,0.8001126912434426
LBP06_S01,LBP06,-1580,71,1,70,-1580,1716262213.8,2024-05-21 03:30:13.800000+00:00,2024-05-21 12:30:13.800000+09:00,2024,5,21,3,30,13,800,,,,,,,,,-0.465332,0.033203,-0.275391,-39.306641,79.772949,12.451172,,,,,,,,,,,0.0,1.0,1.0,1.0,0.0,0.0,0.0,5.0,0.0,0.2132584133333333,-0.29955400000000004,1.0054947733333333,-8.68896484,-0.0716145866666685,8.968912813333334,-31.90050104745836,1.5074972738880201,15.411700136375192,19.3413154431502,10.612699544258874,5.25608956928788,22.679117095877647,-0.9423898744211701,22.344315440177354,-0.9380665311235917,-0.6785904133333334,0.332757,-1.2808857733333332,2.2922331866666665,1.487239232418455,0.7443905977868197,0.8203222953956489,0.8203222953956489
LBP06_S01,LBP06,-1579,72,1,71,-1579,1716262213.84,2024-05-21 03:30:13.840000+00:00,2024-05-21 12:30:13.840000+09:00,2024,5,21,3,30,13,840,,,,,,,,,0.063477,-0.029541,0.462158,-70.495605,-51.940918,23.071289,,,,,,,,,,,0.0,1.0,1.0,1.0,0.0,0.0,0.0,5.0,0.0,0.20886714666666667,-0.2936816,1.0003613066666666,-8.620605466666667,0.8878580666666648,9.248046933333333,-42.12537817983554,1.8376947205397585,18.85679510204262,17.65630031595678,10.686207333080464,6.0103613733695855,21.495683563248956,-0.9431140545816581,21.637321517717275,-0.9402306944568644,-0.14539014666666666,0.2641406,-0.5382033066666665,0.9477340533333332,0.6169046527811641,0.7192192013176801,0.8145103627495207,0.8145103627495207
LBP06_S01,LBP06,-1578,73,1,72,-1578,1716262213.88,2024-05-21 03:30:13.880000+00:00,2024-05-21 12:30:13.880000+09:00,2024,5,21,3,30,13,880,,,,,,,,,0.846436,-0.530273,1.219971,-7.568359,-68.725586,4.394531,,,,,,,,,,,0.0,1.0,1.0,1.0,0.0,0.0,0.0,5.0,0.0,0.20652014666666668,-0.30092117333333335,0.9968619599999999,-9.807128906666668,-0.6974283866666686,8.484700586666666,-47.43611406863243,-0.5296585354576404,21.355324802192918,15.758855753211483,10.665020991662159,6.864574365457302,20.228855346311978,-0.9587463034258404,20.91834374473156,-0.9427276218346972,0.6399158533333333,-0.22935182666666665,0.22310903999999998,1.0923767199999999,0.715452446688378,0.723551091423699,0.8117587539700446,0.8117587539700446
LBP06_S01,LBP06,-1577,74,1,73,-1577,1716262213.92,2024-05-21 03:30:13.920000+00:00,2024-05-21 12:30:13.920000+09:00,2024,5,21,3,30,13,920,,,,,,,,,0.275146,0.133057,1.320068,-99.304199,26.306152,63.964844,,,,,,,,,,,0.0,1.0,1.0,1.0,0.0,0.0,0.0,5.0,0.0,0.20901689333333331,-0.28960606666666666,0.99083656,-5.9627278666666665,-0.24983724000000185,7.271321680000001,-46.599351206574156,-4.248888864702887,22.62709638312102,13.894881704948517,10.495065437074043,7.7696582207821425,19.067819093717738,-0.9364885289265934,20.227859635902156,-0.9446501806475253,0.06612910666666669,0.42266306666666664,0.32923144000000004,0.8180236133333334,0.539824478656791,0.7129526448944654,0.8044091789615783,0.8044091789615783
LBP06_S01,LBP06,-1576,75,1,74,-1576,1716262213.96,2024-05-21 03:30:13.960000+00:00,2024-05-21 12:30:13.960000+09:00,2024,5,21,3,30,13,960,,,,,,,,,-0.177979,-0.763184,1.777344,-188.720703,-96.740723,23.925781,,,,,,,,,,,0.0,1.0,1.0,1.0,0.0,0.0,0.0,5.0,0.0,0.20676754666666666,-0.2879849733333333,0.9876659866666667,-9.15771484,-0.08544921333333524,7.112630266666667,-39.77523992943859,-7.8745492791707425,22.67537330655911,12.303872107770973,10.180083465907213,8.676673153044508,18.17426821695953,-0.938908563625055,19.61273249576845,-0.945081558981378,-0.38474654666666663,-0.4751990266666667,0.7896780133333333,1.6496235866666666,0.9987168692171736,0.7361075225719423,0.8095225392314623,0.8095225392314623
LBP06_S01,LBP06,-1575,76,1,75,-1575,1716262214.0,2024-05-21 03:30:14+00:00,2024-05-21 12:30:14+09:00,2024,5,21,3,30,14,0,3.0,30.0,14.0,40.542221,141.58049,7.616,3.0,12.0,0.334961,-0.798584,2.188721,26.550293,-91.73584,-4.577637,-587.0,44.0,536.0,357.0,0.0,1027.400024,32.09,0.142701,-117.079323,3.916406,0.0,1.0,1.0,1.0,0.0,0.0,0.0,6.0,0.0,0.19869462666666665,-0.28499342666666666,0.98019204,-10.042317706666667,-1.1637369733333354,6.973470106666667,-28.542506982435537,-10.306336409561135,21.762371072908998,11.162171828473552,9.767830009524767,9.547167995960868,17.6395294655623,-0.9523349438433786,19.12085483962833,-0.9494993731112984,0.13626637333333336,-0.5135905733333332,1.2085289600000002,1.8583859066666668,1.3201840965096359,0.7581750282229978,0.8226164253155182,0.8226164253155182
LBP06_S01,LBP06,-1574,77,1,76,-1574,1716262214.04,2024-05-21 03:30:14.040000+00:00,2024-05-21 12:30:14.040000+09:00,2024,5,21,3,30,14,40,,,,,,,,,0.466309,-0.408936,1.650879,31.494141,96.923828,-11.108398,,,,,,,,,,,0.0,1.0,1.0,1.0,0.0,0.0,0.0,6.0,0.0,0.20636714666666664,-0.2926529333333333,0.9899609199999999,-10.619303373333334,-4.1520182266666685,6.193033906666666,-15.489075433406944,-10.973595975113522,20.317569031316,10.542608811137274,9.328886170520226,10.359870757213507,17.478605202743164,-0.9468702317359178,18.792178977855095,-0.951387291948374,0.2599418533333333,-0.11628306666666671,0.6609180800000001,1.0371430000000001,0.719655630964324,0.7363384326958412,0.8200424054567381,0.8200424054567381
LBP06_S01,LBP06,-1573,78,1,77,-1573,1716262214.08,2024-05-21 03:30:14.080000+00:00,2024-05-21 12:30:14.080000+09:00,2024,5,21,3,30,14,80,,,,,,,,,-0.456055,-0.160156,-0.094482,24.719238,118.774414,91.308594,,,,,,,,,,,0.0,1.0,1.0,1.0,0.0,0.0,0.0,6.0,0.0,0.21049149333333333,-0.3004752,0.9983398266666665,-11.061197906666667,-2.8629557200000018,6.311849013333333,-3.4826252494173797,-9.76929092230483,18.814053100371716,10.403303801160579,8.938114533628033,11.112432881228376,17.65233089241476,-0.9495236414921625,18.649874432016453,-0.9501482540995119,-0.6665464933333334,0.1403192,-1.0928218266666665,1.8996875199999999,1.287724058369134,0.7841445048192354,0.8314492750399674,0.8314492750399674
LBP06_S01,LBP06,-1572,79,1,78,-1572,1716262214.12,2024-05-21 03:30:14.120000+00:00,2024-05-21 12:30:14.120000+09:00,2024,5,21,3,30,14,120,,,,,,,,,0.057861,-0.231201,0.249512,69.030762,-33.447266,-22.155762,,,,,,,,,,,0.0,1.0,1.0,1.0,0.0,0.0,0.0,6.0,0.0,0.20627273333333332,-0.29355462666666665,0.98886392,-8.664550773333334,-1.1059570266666685,5.451660213333333,5.117091972361691,-6.8813373785530185,17.65081413073242,10.607987480055046,8.662861038485913,11.818465446457672,18.09007145531039,-0.9483978589816939,18.694646574917677,-0.9492851955219587,-0.14841173333333332,0.06235362666666666,-0.73935192,0.9501172800000001,0.756673826002444,0.7697792962638801,0.8296689072057407,0.8296689072057407
LBP06_S01,LBP06,-1571,80,1,79,-1571,1716262214.16,2024-05-21 03:30:14.160000+00:00,2024-05-21 12:30:14.160000+09:00,2024,5,21,3,30,14,160,,,,,,,,,0.584717,0.31958,0.727295,119.32373,-92.102051,-4.089355,,,,,,,,,,,0.0,1.0,1.0,1.0,0.0,0.0,0.0,6.0,0.0,0.19450190666666667,-0.2960774133333333,0.9747070266666666,-10.575358066666668,-2.0019531200000023,4.801432346666666,9.011635714544344,-2.689627636306667,17.063488072098068,10.96845290863682,8.555275933033647,12.501004969341595,18.702268064136806,-0.9782197300795151,18.904091911601572,-0.9500522487418598,0.3902150933333334,0.6156574133333332,-0.24741202666666662,1.2532845333333331,0.7697496869741098,0.749708722927275,0.8282754369677958,0.8282754369677958
LBP06_S01,LBP06,-1570,81,1,80,-1570,1716262214.2,2024-05-21 03:30:14.200000+00:00,2024-05-21 12:30:14.200000+09:00,2024,5,21,3,30,14,200,,,,,,,,,0.628418,-0.263916,1.4104,-129.455566,-23.254395,43.640137,,,,,,,,,,,0.0,1.0,1.0,1.0,0.0,0.0,0.0,6.0,0.0,0.20178706666666665,-0.29595372000000003,0.9603450533333334,-7.639160159999999,-2.9077148266666684,3.549804746666667,8.102515763902838,2.2237169707978794,17.07613369884205,11.292553539192934,8.644224611865562,13.184050317295277,19.392358478145326,-0.9612690627919245,19.237835828601494,-0.9485580179020398,0.42663093333333335,0.03203772000000005,0.4500549466666667,0.9087236000000001,0.6209587939620517,0.7496570069164662,0.8235636950813017,0.8235636950813017
LBP06_S01,LBP06,-1569,82,1,81,-1569,1716262214.24,2024-05-21 03:30:14.240000+00:00,2024-05-21 12:30:14.240000+09:00,2024,5,21,3,30,14,240,,,,,,,,,0.182373,-0.926025,1.654785,-74.09668,3.90625,7.202148,,,,,,,,,,,0.0,1.0,1.0,1.0,0.0,0.0,0.0,6.0,0.0,0.20544917333333332,-0.2812922666666667,0.9448177200000002,-5.693359386666668,-1.314290360000002,3.1803386000000002,3.23095458758706,7.052184479029898,17.50682013100567,11.421791722696415,8.926311991026758,13.884323122535504,20.072638104862513,-0.9307236760930382,19.647200926428837,-0.9469286516822899,-0.02307617333333331,-0.6447327333333333,0.7099672799999998,1.3777761866666665,0.9593051370016629,0.7720818690059488,0.8265801715684207,0.8265801715684207
LBP06_S01,LBP06,-1568,83,1,82,-1568,1716262214.28,2024-05-21 03:30:14.280000+00:00,2024-05-21 12:30:14.280000+09:00,2024,5,21,3,30,14,280,,,,,,,,,0.346924,-0.513184,1.779785,-7.751465,-46.386719,1.953125,,,,,,,,,,,0.0,1.0,1.0,1.0,0.0,0.0,0.0,6.0,0.0,0.19829748,-0.28353510666666665,0.9345703333333332,-6.990559906666667,-2.105305986666669,2.2713216666666667,-4.288493194241216,10.866436747408251,18.033082951935608,11.250251994926767,9.360969460923087,14.605646440612928,20.676576775324232,-0.9501157176503077,20.086048682503105,-0.946186027401356,0.14862652,-0.22964889333333333,0.8452146666666668,1.2234900800000001,0.8883784606827091,0.7989376249915824,0.8279236126361226,0.8279236126361226
LBP06_S01,LBP06,-1567,84,1,83,-1567,1716262214.32,2024-05-21 03:30:14.320000+00:00,2024-05-21 12:30:14.320000+09:00,2024,5,21,3,30,14,320,,,,,,,,,0.53125,-0.467529,1.691895,51.330566,84.04541,12.145996,,,,,,,,,,,0.0,1.0,1.0,1.0,0.0,0.0,0.0,6.0,0.0,0.20263342666666667,-0.28590815999999997,0.9459440266666667,-5.775553400000001,-5.092773426666668,1.2174479733333332,-13.096924987658142,12.87574959944651,18.306431652804402,10.726374995420441,9.875999444900948,15.337903706725104,21.162272460556697,-0.9441590611256051,20.519518378972776,-0.9447315351670961,0.32861657333333333,-0.18162084,0.7459509733333333,1.2561883866666665,0.8351154629203048,0.8048188693136248,0.8280766307272754,0.8280766307272754
LBP06_S01,LBP06,-1566,85,1,84,-1566,1716262214.36,2024-05-21 03:30:14.360000+00:00,2024-05-21 12:30:14.360000+09:00,2024,5,21,3,30,14,360,,,,,,,,,-0.177979,0.063721,0.314453,-18.127441,171.75293,53.710938,,,,,,,,,,,0.0,1.0,1.0,1.0,0.0,0.0,0.0,6.0,0.0,0.21318681333333334,-0.28759110666666665,0.9678385599999999,-6.396484386666668,-4.015299466666668,1.2068685466666667,-22.03919209050797,12.744785774933414,18.087486417257686,9.844807311800123,10.385790875898286,16.061403163415413,21.511707386958754,-0.9239662552268536,20.929297216092316,-0.9403336372629862,-0.39116581333333333,0.3513121066666667,-0.6533855599999999,1.39586348,0.8386558172622504,0.8325630834829929,0.8282970304467541,0.8282970304467541
LBP06_S01,LBP06,-1565,86,1,85,-1565,1716262214.4,2024-05-21 03:30:14.400000+00:00,2024-05-21 12:30:14.400000+09:00,2024,5,21,3,30,14,400,,,,,,,,,-0.016846,-0.13208,0.238037,-75.378418,-34.729004,36.560059,,,,,,,,,,,0.0,1.0,1.0,1.0,0.0,0.0,0.0,6.0,0.0,0.21144853333333335,-0.29316728,0.9620540533333334,-5.195312506666667,-0.9838867066666682,2.10449224,-30.23668690234384,10.781427136578511,17.357442577237556,8.63533983570637,10.817047961361427,16.755700866504917,21.73318044383574,-0.9360412816458815,21.31505099132685,-0.932261194868674,-0.22829453333333335,0.16108727999999997,-0.7240170533333334,1.1133988666666668,0.7760594044563637,0.8341063175514948,0.8272309564469501,0.8272309564469501
LBP06_S01,LBP06,-1564,87,1,86,-1564,1716262214.44,2024-05-21 03:30:14.440000+00:00,2024-05-21 12:30:14.440000+09:00,2024,5,21,3,30,14,440,,,,,,,,,0.16626,-0.29248,0.706299,14.648438,-97.351074,1.77002,,,,,,,,,,,0.0,1.0,1.0,1.0,0.0,0.0,0.0,6.0,0.0,0.20109045333333334,-0.28057613333333337,0.9473209733333332,-1.0668945333333337,0.3230794399999986,2.051595106666667,-37.067252922859915,7.8553866205872085,16.354452136651826,7.152649718791974,11.131263426184915,17.40987895197099,21.867082763485836,-0.9394439889265778,21.691621616592542,-0.9271708742360152,-0.034830453333333344,-0.011903866666666651,-0.2410219733333332,0.2877562933333332,0.2438164353576626,0.7867039614355756,0.8155626660251645,0.8155626660251645
LBP06_S01,LBP06,-1563,88,1,87,-1563,1716262214.48,2024-05-21 03:30:14.480000+00:00,2024-05-21 12:30:14.480000+09:00,2024,5,21,3,30,14,480,,,,,,,,,0.518066,0.020508,1.260742,-20.202637,20.751953,27.709961,,,,,,,,,,,0.0,1.0,1.0,1.0,0.0,0.0,0.0,6.0,0.0,0.1991536133333333,-0.27510411999999995,0.9345215066666667,0.597330733333333,-1.767578106666668,2.2005208800000005,-42.12424037275909,5.0621693561725305,15.502384675882293,5.4676801038816105,11.333750200431817,18.02997433900628,21.987027857111475,-0.9349787191495632,22.082532267214777,-0.9225962198134032,0.3189123866666667,0.2956121199999999,0.32622049333333336,0.940745,0.5436096449944273,0.7609724676681954,0.7973630482844897,0.8102302538480911
LBP06_S01,LBP06,-1562,89,1,88,-1562,1716262214.52,2024-05-21 03:30:14.520000+00:00,2024-05-21 12:30:14.520000+09:00,2024,5,21,3,30,14,520,,,,,,,,,0.246582,-0.820312,1.790527,-116.210938,20.507812,6.347656,,,,,,,,,,,0.0,1.0,1.0,1.0,0.0,0.0,0.0,6.0,0.0,0.2093521866666667,-0.27050776,0.9278385600000001,0.6713867199999997,-2.3665364400000013,2.556152386666666,-45.18795330237154,3.300141497933647,15.244727171206623,3.660161971786749,11.465755860349162,18.639763425854547,22.187859826505797,-0.9044188799405958,22.51197384532231,-0.9172814093548036,0.037229813333333306,-0.54980424,0.8626884399999999,1.4497224933333333,1.0236708972284236,0.7738650838995804,0.8079487227233665,0.8143348816054053
LBP06_S01,LBP06,-1561,90,1,89,-1561,1716262214.56,2024-05-21 03:30:14.560000+00:00,2024-05-21 12:30:14.560000+09:00,2024,5,21,3,30,14,560,,,,,,,,,0.125732,-0.097656,1.970215,-30.212402,-98.632812,-7.995605,,,,,,,,,,,0.0,1.0,1.0,1.0,0.0,0.0,0.0,6.0,0.0,0.20615557333333331,-0.2622558133333333,0.9191243733333334,-1.2011718800000004,-1.8749999866666682,3.2763672400000003,-46.210327751027606,2.9631069272304025,15.842802105014888,1.8117488617456445,11.584280137438379,19.273475510055142,22.559805816482136,-0.897495306136393,22.99781964169789,-0.9135271577888606,-0.0804235733333333,0.1645998133333333,1.0510906266666666,1.2961140133333333,1.0669360595478983,0.7947154812851691,0.7975952759409356,0.8191009415665844
LBP06_S01,LBP06,-1560,91,1,90,-1560,1716262214.6,2024-05-21 03:30:14.600000+00:00,2024-05-21 12:30:14.600000+09:00,2024,5,21,3,30,14,600,,,,,,,,,0.727051,-1.478516,2.511719,-56.57959,-19.592285,-16.906738,,,,,,,,,,,0.0,1.0,1.0,1.0,0.0,0.0,0.0,6.0,0.0,0.2037662533333333,-0.26657548000000003,0.9278743733333332,-1.8644205866666672,-3.946940093333335,1.9295248,-45.293484132869864,3.867225375517127,17.220076252700558,9.496430849909032e-06,11.738969152459063,19.962278560163163,23.158064730802217,-0.9103658564653356,23.546954007386265,-0.9123351400026172,0.5232847466666667,-1.21194052,1.5838446266666666,3.3190698933333334,2.061841543749844,0.8577320491894372,0.8298363523497061,0.8421146564218299
LBP06_S01,LBP06,-1559,92,1,91,-1559,1716262214.64,2024-05-21 03:30:14.640000+00:00,2024-05-21 12:30:14.640000+09:00,2024,5,21,3,30,14,640,,,,,,,,,-0.086914,0.308594,0.545898,36.621094,221.557617,31.311035,,,,,,,,,,,0.0,1.0,1.0,1.0,0.0,0.0,0.0,6.0,0.0,0.21461260000000001,-0.26560544,0.9521647333333334,-2.5724284,-4.942220040000002,1.7138672533333337,-42.64804808792982,5.406885397215862,18.923528324905813,-1.705912427086343,11.955244568347698,20.719219693159395,23.981744611084885,-0.8849771318669183,24.15277609214906,-0.9077613551606873,-0.30152660000000003,0.57419944,-0.4062667333333334,1.2819927733333334,0.7652946792035153,0.8769444136386015,0.8261634973703882,0.8407179295633151
LBP06_S01,LBP06,-1558,93,1,92,-1558,1716262214.68,2024-05-21 03:30:14.680000+00:00,2024-05-21 12:30:14.680000+09:00,2024,5,21,3,30,14,680,,,,,,,,,-0.263672,-0.039307,-0.220703,-120.849609,-25.878906,49.560547,,,,,,,,,,,0.0,1.0,1.0,1.0,0.0,0.0,0.0,6.0,0.0,0.21934242666666667,-0.27881506666666667,0.9650358266666668,-3.1396484533333333,-2.870279933333335,2.6228841733333335,-38.54587028875514,6.826158883212974,20.229218315730943,-3.2477472386365487,12.228290923676218,21.528388425788634,24.970992556399587,-0.8969676130643115,24.794402916150183,-0.900788451386115,-0.4830144266666667,0.23950806666666666,-1.1857388266666669,1.9082613200000003,1.3025527303842164,0.9026965572013775,0.8391970178576039,0.848964979577974
LBP06_S01,LBP06,-1557,94,1,93,-1557,1716262214.72,2024-05-21 03:30:14.720000+00:00,2024-05-21 12:30:14.720000+09:00,2024,5,21,3,30,14,720,,,,,,,,,0.135498,-0.417725,0.68335,16.479492,-76.721191,13.427734,,,,,,,,,,,0.0,1.0,1.0,1.0,0.0,0.0,0.0,6.0,0.0,0.21208656,-0.27522457333333333,0.9574642133333333,-1.158854173333334,-0.5110676933333349,2.9744466666666667,-33.29870213072526,7.450850237113068,20.357645535461707,-4.579695323865559,12.52632493316074,22.342694247207103,26.020730424312497,-0.9066165454661739,25.43772073547866,-0.8966714069522916,-0.07658856,-0.14250042666666668,-0.2741142133333333,0.49320319999999995,0.3182935454488636,0.8648451735746938,0.8134054276502174,0.8396549544178142
LBP06_S01,LBP06,-1556,95,1,94,-1556,1716262214.76,2024-05-21 03:30:14.760000+00:00,2024-05-21 12:30:14.760000+09:00,2024,5,21,3,30,14,760,,,,,,,,,0.748779,0.076416,1.057373,22.766113,-17.272949,27.954102,,,,,,,,,,,0.0,1.0,1.0,1.0,0.0,0.0,0.0,6.0,0.0,0.20596677333333333,-0.27033199999999996,0.9524479466666668,-2.260742200000001,-1.076660146666668,3.351237026666667,-27.276873123712672,6.795315651037472,18.718754360592524,-5.670770248814066,12.798137559202239,23.091444421630804,27.003051043842472,-0.912046077364422,26.038998973682975,-0.896841065766066,0.5428122266666666,0.34674799999999995,0.10492505333333313,0.9944852799999997,0.6526013758335385,0.8843685986646137,0.7963080581733216,0.8364298927180853
LBP06_S01,LBP06,-1555,96,1,95,-1555,1716262214.8,2024-05-21 03:30:14.800000+00:00,2024-05-21 12:30:14.800000+09:00,2024,5,21,3,30,14,800,,,,,,,,,0.278564,-0.342041,1.423096,-160.583496,18.066406,40.466309,,,,,,,,,,,0.0,1.0,1.0,1.0,0.0,0.0,0.0,6.0,0.0,0.21303384,-0.26670896000000005,0.95234052,-3.4741211066666673,-2.149251293333335,3.23160812,-20.946810175691056,4.5858704571825495,15.102241350183773,-6.508642655841708,12.98157237748954,23.695534075638154,27.791401291463707,-0.8903034332265819,26.551397648530447,-0.8975077974800083,0.06553015999999998,-0.07533203999999993,0.4707554799999999,0.6116176799999998,0.48122743071256596,0.844128126596378,0.794259362191599,0.8304095120061274
LBP06_S01,LBP06,-1554,97,1,96,-1554,1716262214.84,2024-05-21 03:30:14.840000+00:00,2024-05-21 12:30:14.840000+09:00,2024,5,21,3,30,14,840,,,,,,,,,0.090088,-0.727539,1.905029,7.8125,-34.667969,-25.32959,,,,,,,,,,,0.0,1.0,1.0,1.0,0.0,0.0,0.0,6.0,0.0,0.21739581333333333,-0.2602831866666666,0.9527767200000001,-4.646809906666667,-0.9643554533333349,3.7727865066666673,-14.877659863972491,0.8001613805290935,9.759605103822782,-7.103749050400608,13.013578832710703,24.085918279791066,28.28335100349704,-0.8697149511808531,26.933297370420558,-0.8979340392161814,-0.12730781333333333,-0.46725581333333344,0.95225228,1.5468159066666667,1.0683256428611587,0.8621849661995779,0.790702083758629,0.8343747808537112
LBP06_S01,LBP06,-1553,98,1,97,-1553,1716262214.88,2024-05-21 03:30:14.880000+00:00,2024-05-21 12:30:14.880000+09:00,2024,5,21,3,30,14,880,,,,,,,,,0.516357,-0.522705,1.740479,12.268066,12.329102,-2.13623,,,,,,,,,,,0.0,1.0,1.0,1.0,0.0,0.0,0.0,6.0,0.0,0.21198890666666667,-0.26735349333333336,0.9617025066666666,-5.865071626666667,-1.2752278533333348,3.51236984,-9.665069817199937,-4.238523368942559,3.364961782388455,-7.490351843088606,12.844037897953001,24.220516751086606,28.420206050396267,-0.8938082748113314,27.15592673053904,-0.9001825453528355,0.30436809333333326,-0.2553515066666666,0.7787764933333335,1.3384960933333334,0.8742637787103325,0.8685374194804559,0.7960442554520775,0.8350286988513608
LBP06_S01,LBP06,-1552,99,1,98,-1552,1716262214.92,2024-05-21 03:30:14.920000+00:00,2024-05-21 12:30:14.920000+09:00,2024,5,21,3,30,14,920,,,,,,,,,-0.190674,-0.096191,0.460938,5.67627,146.362305,55.358887,,,,,,,,,,,0.0,1.0,1.0,1.0,0.0,0.0,0.0,6.0,0.0,0.21496741333333333,-0.27856442666666664,0.9801497733333334,-8.129882813333333,-4.423014320000002,2.832031293333334,-5.765297117861497,-9.77800736993737,-3.128187450103402,-7.720963727803065,12.452917603155505,24.09538925308247,28.200642208548956,-0.9061154680783402,27.20767623057329,-0.9006999299662226,-0.40564141333333337,0.18237342666666664,-0.5192117733333335,1.1072266133333335,0.6836562648971712,0.8742906909300713,0.7936216679122683,0.8325872079811318
LBP06_S01,LBP06,-1551,100,1,99,-1551,1716262214.96,2024-05-21 03:30:14.960000+00:00,2024-05-21 12:30:14.960000+09:00,2024,5,21,3,30,14,960,,,,,,,,,0.025391,-0.025391,0.093018,53.039551,-23.620605,-30.395508,,,,,,,,,,,0.0,1.0,1.0,1.0,0.0,0.0,0.0,6.0,0.0,0.22191729333333338,-0.28640622666666665,1.0024446933333333,-7.289225253333334,-3.5742187466666686,3.23160812,-3.31071930593211,-14.689379554222668,-8.70434264315278,-7.85339250004035,11.865342420986599,23.747215547356358,27.683792564956807,-0.9041626232758141,27.094145946226035,-0.8998003554557515,-0.19652629333333338,0.26101522666666666,-0.9094266933333333,1.3669682133333332,0.9663376444444205,0.8729955219391612,0.8045515222555518,0.8347102307821365
LBP06_S01,LBP06,-1550,101,1,100,-1550,1716262215.0,2024-05-21 03:30:15+00:00,2024-05-21 12:30:15+09:00,2024,5,21,3,30,15,0,3.0,30.0,15.0,40.542126,141.580673,8.253,3.0,12.0,-0.085938,0.053223,0.213623,1.89209,-81.665039,-18.859863,-587.0,54.0,536.0,326.0,0.0,1027.300049,32.119999,0.141711,-116.256706,3.916406,0.0,1.0,1.0,1.0,0.0,0.0,0.0,5.0,0.0,0.21965817333333335,-0.29012366666666667,0.9999805066666666,-6.1645507733333345,-0.8186848933333352,4.004720106666667,-2.0252472644704396,-17.740043478523162,-12.54110891674137,-7.934402390619168,11.155740681845671,23.245571190686704,26.97706194970337,-0.9146282738270693,26.83496615228495,-0.8993063264821499,-0.30559617333333333,0.3433466666666667,-0.7863575066666666,1.4353003466666667,0.9108425127090327,0.8566218585871371,0.8073984434050674,0.8358997976872442
LBP06_S01,LBP06,-1549,102,1,101,-1549,1716262215.04,2024-05-21 03:30:15.040000+00:00,2024-05-21 12:30:15.040000+09:00,2024,5,21,3,30,15,40,,,,,,,,,0.544434,-0.123779,0.5625,0.427246,-125.366211,-47.058105,,,,,,,,,,,0.0,1.0,1.0,1.0,0.0,0.0,0.0,5.0,0.0,0.21588538666666665,-0.280485,0.9967025066666666,-2.8377278666666665,1.011555986666665,3.6433919866666664,-1.3279594050409989,-18.038126609520177,-14.246474984130128,-7.987520766820808,10.434215617464865,22.675712191321498,26.20803821226968,-0.9074621932334588,26.459146622567964,-0.9009752904847632,0.3285486133333333,0.15670599999999998,-0.4342025066666666,0.9194571199999999,0.5665975454896295,0.8504995351681492,0.7934189839319952,0.8317566861149732
LBP06_S01,LBP06,-1548,103,1,102,-1548,1716262215.08,2024-05-21 03:30:15.080000+00:00,2024-05-21 12:30:15.080000+09:00,2024,5,21,3,30,15,80,,,,,,,,,0.783936,0.198486,1.084473,50.292969,-9.460449,-59.387207,,,,,,,,,,,0.0,1.0,1.0,1.0,0.0,0.0,0.0,5.0,0.0,0.21249021333333334,-0.27270505333333334,0.9972298400000001,-3.9249674533333336,0.603027346666665,4.00634772,-0.6202057644136427,-15.451287380009527,-13.997864552282477,-8.012328997397354,9.816164122264484,22.1157976092302,25.488487556742147,-0.9021414591981805,26.00026857985312,-0.906179183149327,0.5714457866666667,0.47119105333333333,0.08724315999999988,1.12988,0.7457765515268279,0.828821634894457,0.8064830698568461,0.8304539568030317
LBP06_S01,LBP06,-1547,104,1,103,-1547,1716262215.12,2024-05-21 03:30:15.120000+00:00,2024-05-21 12:30:15.120000+09:00,2024,5,21,3,30,15,120,,,,,,,,,0.055908,-0.309814,1.398193,-171.813965,15.991211,18.981934,,,,,,,,,,,0.0,1.0,1.0,1.0,0.0,0.0,0.0,5.0,0.0,0.2185514133333333,-0.27785154666666667,1.0054785333333334,-4.990234386666667,0.9374999999999987,3.6596680266666675,0.3570751678870091,-10.768922847511629,-12.507406981840942,-7.998045990681874,9.385407208364018,21.61550132995656,24.885427580839906,-0.8976208003614651,25.492371112266135,-0.9088079367273598,-0.16264341333333332,-0.03196245333333331,0.39271446666666665,0.5873203333333332,0.4262618099866412,0.815605154253825,0.7926922252588525,0.8244212381938318
LBP06_S01,LBP06,-1546,105,1,104,-1546,1716262215.16,2024-05-21 03:30:15.160000+00:00,2024-05-21 12:30:15.160000+09:00,2024,5,21,3,30,15,160,,,,,,,,,0.447266,-0.96875,1.873047,-60.180664,-70.556641,-21.789551,,,,,,,,,,,0.0,1.0,1.0,1.0,0.0,0.0,0.0,5.0,0.0,0.2164029733333333,-0.28086913333333335,1.0067741066666667,-5.803222666666667,1.5494791733333317,3.548990946666667,1.285263582921971,-5.493871695386614,-10.79389164274029,-7.9466354473649945,9.165652340548554,21.18374566424695,24.41125310443162,-0.9071057876284043,24.967044614203,-0.9088011057092957,0.2308630266666667,-0.6878808666666667,0.8662728933333332,1.7850167866666666,1.130002898019241,0.8300152826956303,0.7898620028114526,0.8289150861324408
LBP06_S01,LBP06,-1545,106,1,105,-1545,1716262215.2,2024-05-21 03:30:15.200000+00:00,2024-05-21 12:30:15.200000+09:00,2024,5,21,3,30,15,200,,,,,,,,,0.566406,-0.842285,1.545654,3.112793,25.32959,15.380859,,,,,,,,,,,0.0,1.0,1.0,1.0,0.0,0.0,0.0,5.0,0.0,0.21656573333333337,-0.2810091066666666,1.00764,-5.74788412,1.4941406399999984,3.690592506666667,1.3305784892854415,-1.3288763736069922,-9.82721225834272,-7.893412307793577,9.112497285604274,20.79065717391324,24.033205994293862,-0.9069930732527166,24.451381158941274,-0.9091395464782593,0.34984026666666657,-0.5612758933333333,0.538014,1.4491301599999997,0.8525713488116615,0.8392797848896145,0.7944683959030404,0.8292579305190961
LBP06_S01,LBP06,-1544,107,1,106,-1544,1716262215.24,2024-05-21 03:30:15.240000+00:00,2024-05-21 12:30:15.240000+09:00,2024,5,21,3,30,15,240,,,,,,,,,0.009033,-0.001221,0.449951,134.58252,172.729492,66.345215,,,,,,,,,,,0.0,1.0,1.0,1.0,0.0,0.0,0.0,5.0,0.0,0.21119464000000002,-0.28304361333333333,1.0015853066666667,-4.85677084,2.2078450666666654,3.785807346666666,-0.44321824886638117,0.4403038657991793,-10.178591061013758,-7.911141037748232,9.130109440236241,20.383513531472687,23.69457057634861,-0.9217538778264891,23.965452710350924,-0.9084940896893677,-0.20216164000000003,0.2818226133333333,-0.5516343066666667,1.03561856,0.651608565294482,0.8269719220213273,0.7995268955136381,0.8267200824444587
LBP06_S01,LBP06,-1543,108,1,107,-1543,1716262215.28,2024-05-21 03:30:15.280000+00:00,2024-05-21 12:30:15.280000+09:00,2024,5,21,3,30,15,280,,,,,,,,,-0.240723,0.04541,-0.050781,63.232422,16.296387,-19.470215,,,,,,,,,,,0.0,1.0,1.0,1.0,0.0,0.0,0.0,5.0,0.0,0.2097883866666667,-0.28013345333333334,0.9930827066666668,-4.2211914,2.1988932399999985,3.91357428,-4.47594578122563,-0.5900003132667359,-11.821845330592733,-8.090178868997256,9.106509427705571,19.910639718248976,23.341231374526366,-0.9200958105916616,23.518436828447996,-0.9080426645784968,-0.4505113866666667,0.32554345333333334,-1.0438637066666667,1.8199185466666667,1.1826201789333666,0.8387415907513536,0.818839607871468,0.8317327598597954
LBP06_S01,LBP06,-1542,109,1,108,-1542,1716262215.32,2024-05-21 03:30:15.320000+00:00,2024-05-21 12:30:15.320000+09:00,2024,5,21,3,30,15,320,,,,,,,,,0.006104,0.236084,0.289062,18.066406,-46.447754,-22.766113,,,,,,,,,,,0.0,1.0,1.0,1.0,0.0,0.0,0.0,5.0,0.0,0.21542314666666665,-0.27897785333333336,0.9978190400000002,-3.0045572799999998,0.9318033999999985,3.955078186666667,-10.242013675597102,-3.8340866108107425,-14.17545792907187,-8.49985941602114,8.953145963273142,19.3436214010861,22.94737722791765,-0.9060471578976994,23.104852744901876,-0.9082324155835423,-0.20931914666666665,0.5150618533333333,-0.7087570400000003,1.4331380400000002,0.9007995113619853,0.8413689526890208,0.8230939110013229,0.8326920202973259
LBP06_S01,LBP06,-1541,110,1,109,-1541,1716262215.36,2024-05-21 03:30:15.360000+00:00,2024-05-21 12:30:15.360000+09:00,2024,5,21,3,30,15,360,,,,,,,,,0.399414,-0.420898,0.731201,-62.866211,-124.694824,-63.720703,,,,,,,,,,,0.0,1.0,1.0,1.0,0.0,0.0,0.0,5.0,0.0,0.21402990666666669,-0.27806965333333333,0.9947819333333334,-2.1891276,0.7446289199999986,3.89485684,-16.191337481517202,-8.011493960957782,-16.36963942040047,-9.147512915281828,8.632686204834831,18.688835824270082,22.527158012339555,-0.9075470309654503,22.70435820028213,-0.9086285375559682,0.1853840933333333,-0.14282834666666666,-0.26358093333333343,0.5917933733333334,0.3524799385630716,0.8219219175410537,0.8272425005120233,0.8261137726023362
LBP06_S01,LBP06,-1540,111,1,110,-1540,1716262215.4,2024-05-21 03:30:15.400000+00:00,2024-05-21 12:30:15.400000+09:00,2024,5,21,3,30,15,400,,,,,,,,,0.411865,0.279785,0.950439,66.589355,18.798828,-42.419434,,,,,,,,,,,0.0,1.0,1.0,1.0,0.0,0.0,0.0,5.0,0.0,0.21143549333333334,-0.27504231999999995,0.9873698133333333,-2.6188151066666667,0.2848307466666652,3.92578132,-20.176164794768102,-11.6835797911968,-17.616904274293645,-9.954559507072553,8.165343013186959,17.984159653298338,22.117777463799868,-0.908173705938151,22.28742591131197,-0.9073474253589128,0.20042950666666665,0.55482732,-0.03693081333333326,0.7921876399999999,0.5910746375327631,0.8145225268641095,0.8243144222078023,0.822937568074369
LBP06_S01,LBP06,-1539,112,1,111,-1539,1716262215.44,2024-05-21 03:30:15.440000+00:00,2024-05-21 12:30:15.440000+09:00,2024,5,21,3,30,15,440,,,,,,,,,-0.05542,-0.504395,1.415283,-197.753906,-16.784668,-30.273438,,,,,,,,,,,0.0,1.0,1.0,1.0,0.0,0.0,0.0,5.0,0.0,0.21547196,-0.27724610666666666,0.9839551066666666,-0.31250000000000017,0.4353841333333319,3.154296946666667,-20.204065368164514,-13.76503528081383,-17.519708915052572,-10.762722121799133,7.614741601954406,17.283371296696235,21.737879393240338,-0.90294794212475,21.825636226487266,-0.9058100275532673,-0.27089196,-0.22714889333333338,0.43132789333333343,0.9293687466666668,0.5576942041142001,0.8270776376143713,0.8068907995249733,0.8194009898882334
LBP06_S01,LBP06,-1538,113,1,112,-1538,1716262215.48,2024-05-21 03:30:15.480000+00:00,2024-05-21 12:30:15.480000+09:00,2024,5,21,3,30,15,480,,,,,,,,,-0.001709,-0.373779,1.710938,-65.063477,-94.299316,-11.962891,,,,,,,,,,,0.0,1.0,1.0,1.0,0.0,0.0,0.0,5.0,0.0,0.21570308000000002,-0.27826172,0.97981448,1.1279296799999994,1.2711588799999989,2.6009115333333335,-15.209032798966746,-13.797149227480366,-16.18912296027456,-11.371083433757802,7.062855632855191,16.635806378285253,21.352646721280987,-0.9040389692486367,21.302412198367485,-0.9020709876177184,-0.21741208,-0.09551727999999998,0.73112352,1.04405288,0.768721773339168,0.8360821227481608,0.7985272952081782,0.8102694064390467
LBP06_S01,LBP06,-1537,114,1,113,-1537,1716262215.52,2024-05-21 03:30:15.520000+00:00,2024-05-21 12:30:15.520000+09:00,2024,5,21,3,30,15,520,,,,,,,,,0.82373,-1.160889,2.057129,-32.958984,-32.409668,-11.535645,,,,,,,,,,,0.0,1.0,1.0,1.0,0.0,0.0,0.0,5.0,0.0,0.21299149333333334,-0.27322590666666663,0.9725488533333333,2.62695312,1.3655599199999988,2.1468099733333337,-5.518346696245329,-11.91541182500604,-14.144490859006076,-11.591817301607614,6.58623915985495,16.07002674392501,20.880482134642424,-0.9015820200857219,20.719403156203523,-0.9006642761719832,0.6107385066666666,-0.8876630933333334,1.084580146666667,2.582981746666667,1.5288104478106568,0.8562877047714501,0.8150763943355153,0.8240617167393943
LBP06_S01,LBP06,-1536,115,1,114,-1536,1716262215.56,2024-05-21 03:30:15.560000+00:00,2024-05-21 12:30:15.560000+09:00,2024,5,21,3,30,15,560,,,,,,,,,-0.095215,-0.060791,0.368652,56.274414,205.444336,39.123535,,,,,,,,,,,0.0,1.0,1.0,1.0,0.0,0.0,0.0,5.0,0.0,0.21135086666666666,-0.2667708266666667,0.9673079600000002,2.316894519999999,1.3037109599999985,2.3046875733333336,7.182876876348974,-8.588714626131205,-12.061062457042473,-11.304502226553655,6.242690574809702,15.58758424564331,20.241930214730065,-0.8942946656578512,20.095346477449233,-0.9002157184440727,-0.30656586666666663,0.2059798266666667,-0.5986559600000002,1.1112016533333335,0.703419702625848,0.841747050494568,0.8182312658898687,0.8123125341254798
LBP06_S01,LBP06,-1535,116,1,115,-1535,1716262215.6,2024-05-21 03:30:15.600000+00:00,2024-05-21 12:30:15.600000+09:00,2024,5,21,3,30,15,600,,,,,,,,,-0.068604,0.062012,-0.178711,99.54834,20.874023,-6.286621,,,,,,,,,,,0.0,1.0,1.0,1.0,0.0,0.0,0.0,5.0,0.0,0.21253902666666666,-0.2667350266666667,0.9671712400000001,1.8400065066666662,1.278483093333332,1.3647461600000002,20.367092603633786,-4.310150351589723,-10.488487047373042,-10.489818522408303,6.070284560746113,15.168044763748387,19.41530914604678,-0.8916190951962624,19.457869528351555,-0.8972848857234867,-0.2811430266666667,0.3287470266666667,-1.1458822400000002,1.7557722933333335,1.224811053564135,0.8082658308871398,0.8329989400382884,0.8226461785288506
LBP06_S01,LBP06,-1534,117,1,116,-1534,1716262215.64,2024-05-21 03:30:15.640000+00:00,2024-05-21 12:30:15.640000+09:00,2024,5,21,3,30,15,640,,,,,,,,,-0.005615,0.074463,0.202637,52.368164,-71.838379,-4.760742,,,,,,,,,,,0.0,1.0,1.0,1.0,0.0,0.0,0.0,5.0,0.0,0.21100257333333333,-0.26059570666666665,0.9641048266666666,0.2075195199999994,1.339518253333332,1.7716472000000003,31.43229653468938,0.5625935628768088,-9.660845516839332,-9.232526661020728,6.092788303261185,14.781610943074813,18.462330295150824,-0.8843634784709997,18.833045640588573,-0.8959354068997474,-0.21661757333333334,0.33505870666666665,-0.7614678266666666,1.3131441066666665,0.8596631671988848,0.8120405704069544,0.8444924920227781,0.8214558550492437
LBP06_S01,LBP06,-1533,118,1,117,-1533,1716262215.68,2024-05-21 03:30:15.680000+00:00,2024-05-21 12:30:15.680000+09:00,2024,5,21,3,30,15,680,,,,,,,,,0.71167,-0.255371,0.48584,-16.235352,-113.830566,-11.108398,,,,,,,,,,,0.0,1.0,1.0,1.0,0.0,0.0,0.0,5.0,0.0,0.20673498666666668,-0.26771484,0.9576562533333334,-2.255859386666667,0.656738306666665,1.677246146666667,38.42041739015341,5.734317851853188,-9.465293823545272,-7.695709965414592,6.322161017335312,14.402999190133002,17.511140952886755,-0.906028696134308,18.239232505864184,-0.8967542994811064,0.5049350133333333,0.012343839999999995,-0.4718162533333334,0.9890951066666667,0.6911745908129027,0.7875854448241019,0.8451410010127397,0.82199316017977
LBP06_S01,LBP06,-1532,119,1,118,-1532,1716262215.72,2024-05-21 03:30:15.720000+00:00,2024-05-21 12:30:15.720000+09:00,2024,5,21,3,30,15,720,,,,,,,,,0.528564,-0.070557,1.068604,159.118652,55.664062,-15.74707,,,,,,,,,,,0.0,1.0,1.0,1.0,0.0,0.0,0.0,5.0,0.0,0.20543616,-0.26343098666666664,0.9492155066666667,0.4036458133333328,0.18229169333333176,1.0489909333333334,40.457116371289864,10.773916038177347,-9.559449987967165,-6.077425310562997,6.753117658862406,14.020621190614316,16.706810440374735,-0.901561580618594,17.688162036357205,-0.8975996383178281,0.32312784000000006,0.19287398666666666,0.11938849333333346,0.6353903200000002,0.3947981611610704,0.7906456294525901,0.8277454015136421,0.8058188282510083
LBP06_S01,LBP06,-1531,120,1,119,-1531,1716262215.76,2024-05-21 03:30:15.760000+00:00,2024-05-21 12:30:15.760000+09:00,2024,5,21,3,30,15,760,,,,,,,,,0.024902,-0.83374,1.537598,-35.095215,-20.263672,-56.091309,,,,,,,,,,,0.0,1.0,1.0,1.0,0.0,0.0,0.0,5.0,0.0,0.20718746666666668,-0.25251628,0.9411751466666666,-1.9213867333333337,-0.13671872000000163,1.7569987466666668,37.824986531926776,15.000471484952769,-9.56368661587622,-4.564425849285927,7.353136518260516,13.638073725979266,16.152388521362774,-0.878238703759591,17.190173985526524,-0.899335162125085,-0.18228546666666667,-0.5812237200000001,0.5964228533333334,1.3599320400000003,0.8525076093659212,0.7986418787938855,0.8415052387292496,0.7970859983801762
LBP06_S01,LBP06,-1530,121,1,120,-1530,1716262215.8,2024-05-21 03:30:15.800000+00:00,2024-05-21 12:30:15.800000+09:00,2024,5,21,3,30,15,800,,,,,,,,,0.200928,0.026367,1.743896,96.069336,-17.76123,-42.297363,,,,,,,,,,,0.0,1.0,1.0,1.0,0.0,0.0,0.0,5.0,0.0,0.2025813466666667,-0.2558268266666667,0.9396549599999999,-3.391927093333334,0.05940758666666506,1.6357422400000001,31.709587458876594,17.594586904252207,-9.228690541246426,-3.296042350930863,8.056919994430604,13.26892610432941,15.869538586170046,-0.8946789177007585,16.75789776991578,-0.9011165635990303,-0.001653346666666694,0.2821938266666667,0.80424104,1.0880882133333334,0.8523143432937512,0.8134853552971331,0.8288067409467554,0.8006680265601102
LBP06_S01,LBP06,-1529,122,1,121,-1529,1716262215.84,2024-05-21 03:30:15.840000+00:00,2024-05-21 12:30:15.840000+09:00,2024,5,21,3,30,15,840,,,,,,,,,0.362061,-0.541504,1.517822,-173.828125,85.81543,33.325195,,,,,,,,,,,0.0,1.0,1.0,1.0,0.0,0.0,0.0,5.0,0.0,0.19736325333333332,-0.2582714933333333,0.94082032,-3.378906253333333,-2.033691373333335,1.2312826000000001,23.74934402397267,17.911073033970602,-8.500992519421027,-2.346068589971956,8.773362915789429,12.928886403552568,15.79974804599645,-0.9111368679383417,16.40519715927398,-0.9042923416524218,0.1646977466666667,-0.28323250666666666,0.57700168,1.0249319333333333,0.6635336760953308,0.7972936766264997,0.8297393214130389,0.7928992813812527
LBP06_S01,LBP06,-1528,123,1,122,-1528,1716262215.88,2024-05-21 03:30:15.880000+00:00,2024-05-21 12:30:15.880000+09:00,2024,5,21,3,30,15,880,,,,,,,,,-0.177246,-0.418457,0.0271,38.635254,172.668457,61.706543,,,,,,,,,,,0.0,1.0,1.0,1.0,0.0,0.0,0.0,5.0,0.0,0.20403969333333333,-0.2679817866666666,0.9532259200000001,-2.614746106666667,-2.8898111733333347,0.5786133200000001,15.57086745417519,15.828795821649633,-7.473968883285973,-1.7232338918049483,9.406514748655415,12.629927648221129,15.841942026211228,-0.912492357615852,16.142278170147584,-0.9054548330985781,-0.3812856933333333,-0.1504752133333334,-0.92612592,1.4578868266666667,1.0127836834508341,0.80283447281612,0.835685946148288,0.7983076612400916
LBP06_S01,LBP06,-1527,124,1,123,-1527,1716262215.92,2024-05-21 03:30:15.920000+00:00,2024-05-21 12:30:15.920000+09:00,2024,5,21,3,30,15,920,,,,,,,,,0.09082,0.328369,0.120117,148.803711,14.770508,-48.522949,,,,,,,,,,,0.0,1.0,1.0,1.0,0.0,0.0,0.0,5.0,0.0,0.19984373333333336,-0.2661491066666667,0.9475000133333333,-0.09847006666666668,-0.08138018666666805,0.2986654,8.46583029531732,11.922910332450577,-6.283127039030888,-1.3846006799922557,9.883431161953437,12.378602566659893,15.900601626335595,-0.9189372581582924,15.970365639870518,-0.9053270025032797,-0.10902373333333336,0.5945181066666667,-0.8273830133333333,1.5309248533333335,1.0246465753307346,0.8164740852334624,0.8453823880817669,0.8012391403526664
LBP06_S01,LBP06,-1526,125,1,124,-1526,1716262215.96,2024-05-21 03:30:15.960000+00:00,2024-05-21 12:30:15.960000+09:00,2024,5,21,3,30,15,960,,,,,,,,,0.179688,0.096924,0.36377,4.516602,-124.267578,-19.042969,,,,,,,,,,,0.0,1.0,1.0,1.0,0.0,0.0,0.0,5.0,0.0,0.19833331999999998,-0.2601432533333333,0.9405240933333332,-0.3792317866666667,0.6380208533333319,0.3279622666666667,3.252831951394425,7.31768357429625,-5.026669161008691,-1.2544874019364787,10.176138504925287,12.177535800219545,15.919168058622569,-0.9121086803973019,15.87957778232259,-0.9065511815550675,-0.018645319999999993,0.35706725333333333,-0.5767540933333333,0.9524666666666666,0.6785941021978223,0.8049643435435985,0.8389799327413797,0.8046891293515673
LBP06_S01,LBP06,-1525,126,1,125,-1525,1716262216.0,2024-05-21 03:30:16+00:00,2024-05-21 12:30:16+09:00,2024,5,21,3,30,16,0,3.0,30.0,16.0,40.542034,141.580872,9.228,3.0,12.0,0.76001,-0.201416,1.109619,-2.624512,-56.70166,-10.559082,-586.0,53.0,538.0,345.0,0.0,1027.699951,32.150002,0.145673,-119.546791,3.916406,0.0,1.0,1.0,1.0,0.0,0.0,0.0,5.0,0.0,0.19649738666666666,-0.2643196933333333,0.93061524,-0.6176758000000001,-1.2394205466666681,0.26692710666666675,0.2516270776427904,3.2627439245781833,-3.7489911175503106,-1.244422318830767,10.306648261908414,12.027576155517533,15.8883030396288,-0.9233768757301781,15.851905354298475,-0.9091246461973608,0.5635126133333332,0.06290369333333332,0.17900375999999996,0.8054200666666665,0.5945970787977977,0.7923145261871489,0.824468192387143,0.8023704709990946
LBP06_S01,LBP06,-1524,127,1,126,-1524,1716262216.04,2024-05-21 03:30:16.040000+00:00,2024-05-21 12:30:16.040000+09:00,2024,5,21,3,30,16,40,,,,,,,,,0.228516,-0.352051,1.296875,-135.803223,24.963379,30.700684,,,,,,,,,,,0.0,1.0,1.0,1.0,0.0,0.0,0.0,5.0,0.0,0.20101561333333334,-0.25467452,0.9200813866666666,1.791178373333333,-1.4428710666666682,0.6339518533333334,-0.7100173088745824,0.6564199647491465,-2.4661971679995025,-1.2728230111857504,10.33290506049838,11.928928268797552,15.833140403886853,-0.8959883929325633,15.868263832716133,-0.9094721565352462,0.027500386666666654,-0.09737647999999999,0.3767936133333334,0.50167048,0.390143405907105,0.7852563606038481,0.8178779478859987,0.7906981094892794
LBP06_S01,LBP06,-1523,128,1,127,-1523,1716262216.08,2024-05-21 03:30:16.080000+00:00,2024-05-21 12:30:16.080000+09:00,2024,5,21,3,30,16,80,,,,,,,,,-0.01416,-0.684082,1.611084,22.399902,-37.109375,-45.10498,,,,,,,,,,,0.0,1.0,1.0,1.0,0.0,0.0,0.0,5.0,0.0,0.20108724,-0.25983402666666666,0.91158204,1.0009765466666667,0.17333986666666534,0.9700521066666667,-0.24294238826655418,-0.2285254382723434,-1.193385390644613,-1.2825407067164125,10.323764042967486,11.881192853171768,15.792015650116136,-0.9047503901813241,15.916066947309966,-0.9076019410854931,-0.21524724,-0.4242479733333333,0.69950196,1.3389971733333335,0.8459436797144949,0.7892630457313549,0.8090423403129059,0.8007430618150156
LBP06_S01,LBP06,-1522,129,1,128,-1522,1716262216.12,2024-05-21 03:30:16.120000+00:00,2024-05-21 12:30:16.120000+09:00,2024,5,21,3,30,16,120,,,,,,,,,0.460693,-0.393311,1.843994,1.953125,-29.541016,-4.760742,,,,,,,,,,,0.0,1.0,1.0,1.0,0.0,0.0,0.0,5.0,0.0,0.1932552,-0.2545833733333333,0.9004004,3.7776692533333334,-0.24332680000000123,0.2954101733333334,0.7798199944790685,0.3034124883536209,0.04922587755523074,-1.2513479069372497,10.335900542501632,11.883161888273978,15.798931864895454,-0.9138033711364725,15.993543696109603,-0.9083635260347835,0.26743780000000006,-0.13872762666666671,0.9435935999999999,1.3497590266666668,0.9905237065463733,0.8118335215937441,0.8137193379237844,0.799072657370483
LBP06_S01,LBP06,-1521,130,1,129,-1521,1716262216.16,2024-05-21 03:30:16.160000+00:00,2024-05-21 12:30:16.160000+09:00,2024,5,21,3,30,16,160,,,,,,,,,0.162354,-0.500488,1.02417,46.142578,152.404785,49.743652,,,,,,,,,,,0.0,1.0,1.0,1.0,0.0,0.0,0.0,5.0,0.0,0.20096678666666667,-0.25918624,0.9160514533333335,4.274902320000001,-3.3333333066666677,-0.4142252399999999,1.5406306951658881,1.674113208314448,1.2513834417935314,-1.1897226791306141,10.40286507083421,11.93321722594572,15.875664241121624,-0.9039733501825238,16.10910551895942,-0.9064450795368322,-0.038612786666666676,-0.24130176000000003,0.10811854666666654,0.38803309333333325,0.26722108226443375,0.7773222489635517,0.8036687658295909,0.7856820848621523
LBP06_S01,LBP06,-1520,131,1,130,-1520,1716262216.2,2024-05-21 03:30:16.200000+00:00,2024-05-21 12:30:16.200000+09:00,2024,5,21,3,30,16,200,,,,,,,,,-0.285889,0.06665,-0.216797,80.688477,67.871094,6.408691,,,,,,,,,,,0.0,1.0,1.0,1.0,0.0,0.0,0.0,5.0,0.0,0.20499673333333332,-0.26102868,0.93014976,6.1027018,-0.7080077866666677,-0.30843097333333325,1.6275808936505942,3.395259161202799,2.431722206335846,-1.1246194433845904,10.538675437282322,12.030486114199153,16.033123370346622,-0.8981540210796127,16.276705386068507,-0.9020587660132767,-0.4908857333333333,0.32767868,-1.14694676,1.9655111733333333,1.289894953393975,0.7948151931468443,0.8170474890182295,0.7945839949843084
LBP06_S01,LBP06,-1519,132,1,131,-1519,1716262216.24,2024-05-21 03:30:16.240000+00:00,2024-05-21 12:30:16.240000+09:00,2024,5,21,3,30,16,240,,,,,,,,,-0.008789,-0.064209,0.308594,43.395996,-49.194336,-16.723633,,,,,,,,,,,0.0,1.0,1.0,1.0,0.0,0.0,0.0,5.0,0.0,0.20086913333333334,-0.2525130533333333,0.9180924666666668,5.385742173333333,0.06673178666666563,-0.5175781066666666,1.2351135037846424,5.278298442824359,3.6344323485866648,-1.0752149032332048,10.749807374995296,12.17586340814262,16.277779191934766,-0.8924347134408092,16.509806937430305,-0.8989585231532692,-0.20965813333333333,0.18830405333333328,-0.6094984666666667,1.0074606533333332,0.6714933583019258,0.795610584867142,0.8112912534442347,0.7982214586314728
LBP06_S01,LBP06,-1518,133,1,132,-1518,1716262216.28,2024-05-21 03:30:16.280000+00:00,2024-05-21 12:30:16.280000+09:00,2024,5,21,3,30,16,280,,,,,,,,,0.777344,0.125732,0.808105,-51.147461,-85.510254,-5.126953,,,,,,,,,,,0.0,1.0,1.0,1.0,0.0,0.0,0.0,5.0,0.0,0.1930664,-0.2578516,0.9097070533333335,4.858398426666667,-0.5786132666666677,-1.4754231599999998,1.0804740935720958,7.384061980186321,4.891147288611884,-1.0319959394903209,11.045169854202749,12.371509299687094,16.616709514207617,-0.9201082071087558,16.816659699116087,-0.8982261554063384,0.5842776000000001,0.3835836,-0.1016020533333335,1.0694632533333337,0.7062858269088158,0.7765572107861601,0.8076494007687569,0.8047454755096988
LBP06_S01,LBP06,-1517,134,1,133,-1517,1716262216.32,2024-05-21 03:30:16.320000+00:00,2024-05-21 12:30:16.320000+09:00,2024,5,21,3,30,16,320,,,,,,,,,0.532959,-0.445557,1.260254,-82.458496,37.841797,10.070801,,,,,,,,,,,0.0,1.0,1.0,1.0,0.0,0.0,0.0,5.0,0.0,0.19849934666666666,-0.25365563999999996,0.9002278800000001,8.059082013333333,-1.8074544133333343,-2.3543294133333332,2.049685223949079,9.78178934585958,6.168214304892944,-0.9500085305323577,11.436441428037131,12.618237871882812,17.056219854833774,-0.89975279317878,17.198322862564474,-0.896812549585381,0.3344596533333333,-0.19190136000000002,0.3600261199999999,0.8863871333333332,0.5275492382327525,0.7616271998609908,0.8014980762750058,0.8026050072878788
LBP06_S01,LBP06,-1516,135,1,134,-1516,1716262216.36,2024-05-21 03:30:16.360000+00:00,2024-05-21 12:30:16.360000+09:00,2024,5,21,3,30,16,360,,,,,,,,,-0.058594,-0.805908,1.674805,5.371094,-12.573242,-13.305664,,,,,,,,,,,0.0,1.0,1.0,1.0,0.0,0.0,0.0,5.0,0.0,0.20080729333333333,-0.23961918666666668,0.8861393466666667,6.4542643066666665,-1.110026026666668,-1.4005533733333333,4.744145985349022,12.308119199637462,7.340874301011393,-0.7602426911183968,11.92876619602263,12.911872843923268,17.595166729713426,-0.8682455451617479,17.649367627325,-0.8960347959200817,-0.25940129333333334,-0.5662888133333333,0.7886656533333334,1.61435576,1.0049704293347015,0.787726819491856,0.8048243685164549,0.8140706068386342
LBP06_S01,LBP06,-1515,136,1,135,-1515,1716262216.4,2024-05-21 03:30:16.400000+00:00,2024-05-21 12:30:16.400000+09:00,2024,5,21,3,30,16,400,,,,,,,,,0.260742,-0.625732,1.860352,-59.143066,-84.289551,-8.239746,,,,,,,,,,,0.0,1.0,1.0,1.0,0.0,0.0,0.0,5.0,0.0,0.19528321333333334,-0.24552088000000002,0.8841113466666665,3.430989573333333,-2.046712226666668,-1.1230468666666664,9.161386174914698,14.498244631077107,8.225293910226142,-0.3937872441218089,12.508695981265715,13.240884600332313,18.21931855324681,-0.8923744471301015,18.160242201931034,-0.8977149649027828,0.06545878666666663,-0.3802111199999999,0.9762406533333335,1.4219105600000002,1.0497100369836523,0.8060722354698916,0.8102973811670006,0.8182336932951653
LBP06_S01,LBP06,-1514,137,1,136,-1514,1716262216.44,2024-05-21 03:30:16.440000+00:00,2024-05-21 12:30:16.440000+09:00,2024,5,21,3,30,16,440,,,,,,,,,0.270264,-0.48999,1.371338,57.250977,112.854004,49.133301,,,,,,,,,,,0.0,1.0,1.0,1.0,0.0,0.0,0.0,5.0,0.0,0.20081381333333334,-0.2504818266666667,0.9006836,3.129069,-5.463867173333335,-1.9889322933333335,14.669050676901332,15.740739121340512,8.665440459740262,0.19297478295424442,13.138325546119336,13.587502218721923,18.90166802074466,-0.888664715463257,18.71992752847132,-0.901786986037265,0.06945018666666666,-0.2395081733333333,0.4706543999999999,0.7796127599999999,0.5326378298251682,0.8050699804983301,0.8160738090563506,0.8062838598494256
LBP06_S01,LBP06,-1513,138,1,137,-1513,1716262216.48,2024-05-21 03:30:16.480000+00:00,2024-05-21 12:30:16.480000+09:00,2024,5,21,3,30,16,480,,,,,,,,,-0.335938,-0.200439,-0.251953,65.246582,150.756836,51.818848,,,,,,,,,,,0.0,1.0,1.0,1.0,0.0,0.0,0.0,5.0,0.0,0.20679037333333333,-0.2590885866666666,0.9219954399999999,2.8238932133333328,-4.2854817600000015,-1.36149088,20.271128728375256,15.568852500042539,8.633489733882195,1.0038199320892547,13.761079646121038,13.93284180807721,19.60864728459999,-0.8906143319717499,19.31765919474372,-0.9044080567073595,-0.5427283733333333,0.058649586666666614,-1.1739484399999998,1.7753263999999997,1.2946616550341057,0.8261075757661277,0.8310948492571443,0.807720722060828
LBP06_S01,LBP06,-1512,139,1,138,-1512,1716262216.52,2024-05-21 03:30:16.520000+00:00,2024-05-21 12:30:16.520000+09:00,2024,5,21,3,30,16,520,,,,,,,,,-0.01709,0.295898,0.057861,115.783691,14.038086,-21.911621,,,,,,,,,,,0.0,1.0,1.0,1.0,0.0,0.0,0.0,5.0,0.0,0.20274090666666666,-0.2627344266666667,0.9170279866666665,3.561197893333333,-0.7234700400000016,-0.4516601599999999,25.015916030908304,13.909019742858773,8.280929514578034,2.004456573325587,14.317440435835389,14.264078988660332,20.30937951250071,-0.9060258344834801,19.943238105204706,-0.9025767639123543,-0.21983090666666666,0.5586324266666667,-0.8591669866666665,1.6376303199999998,1.0481239080505975,0.8068801141757254,0.8315839094735877,0.8123443009489186
LBP06_S01,LBP06,-1511,140,1,139,-1511,1716262216.56,2024-05-21 03:30:16.560000+00:00,2024-05-21 12:30:16.560000+09:00,2024,5,21,3,30,16,560,,,,,,,,,0.367188,0.095215,0.728271,-13.916016,-110.534668,3.540039,,,,,,,,,,,0.0,1.0,1.0,1.0,0.0,0.0,0.0,5.0,0.0,0.19510418666666665,-0.26102870666666667,0.91258788,4.235839826666666,0.6844075599999985,0.09033202666666669,28.335508104692018,11.122105389505082,7.895077717048527,3.1378768975132676,14.762324651415591,14.579882097342272,20.98440998718195,-0.9207750400095341,20.586450004500104,-0.9043202109159594,0.17208381333333336,0.35624370666666666,-0.18431688000000002,0.7126444000000001,0.43645747742922447,0.7962016251678605,0.8189743378312141,0.8108880523158658
LBP06_S01,LBP06,-1510,141,1,140,-1510,1716262216.6,2024-05-21 03:30:16.600000+00:00,2024-05-21 12:30:16.600000+09:00,2024,5,21,3,30,16,600,,,,,,,,,0.723145,-0.397217,1.220703,20.446777,6.164551,1.953125,,,,,,,,,,,0.0,1.0,1.0,1.0,0.0,0.0,0.0,5.0,0.0,0.18784831999999999,-0.2615169866666667,0.9058463333333333,4.313964826666666,-0.28320312000000153,0.84635416,30.16625684675414,7.810782837513863,7.770245282752291,4.344527171383433,15.074755964916147,14.890691908652364,21.629976635749493,-0.938874232424435,21.236557653290667,-0.9092435431564635,0.5352966800000001,-0.1357000133333333,0.3148566666666668,0.9858533600000001,0.6356821137818287,0.7726364675765681,0.790451149231854,0.8128781158843817
LBP06_S01,LBP06,-1509,142,1,141,-1509,1716262216.64,2024-05-21 03:30:16.640000+00:00,2024-05-21 12:30:16.640000+09:00,2024,5,21,3,30,16,640,,,,,,,,,0.008545,-0.61084,1.356934,-37.780762,21.850586,-1.708984,,,,,,,,,,,0.0,1.0,1.0,1.0,0.0,0.0,0.0,5.0,0.0,0.19664063999999998,-0.2620248,0.9002311066666667,6.5079752399999995,-0.6868489600000014,0.43375649333333344,30.837394301866834,4.528301336296448,8.055617969591559,5.578022943458106,15.255888018368005,15.212916627436027,22.255095854658748,-0.9186454201417535,21.8823868374232,-0.9106213208421579,-0.18809563999999998,-0.34881520000000005,0.45670289333333336,0.9936137333333334,0.6046730904522606,0.7624368645067032,0.7872387174568288,0.8171406161840864
LBP06_S01,LBP06,-1508,143,1,142,-1508,1716262216.68,2024-05-21 03:30:16.680000+00:00,2024-05-21 12:30:16.680000+09:00,2024,5,21,3,30,16,680,,,,,,,,,0.071045,-0.518799,1.669678,58.47168,-88.806152,-16.845703,,,,,,,,,,,0.0,1.0,1.0,1.0,0.0,0.0,0.0,5.0,0.0,0.19468750666666668,-0.2498438133333333,0.89136392,6.620279933333333,0.3629557333333319,0.5468749866666667,30.835137899309675,1.5743768444433777,8.656573630344782,6.811428459430493,15.31886309214574,15.559179572649818,22.872498618817488,-0.9017952791587043,22.512698019421954,-0.913648056853807,-0.12364250666666668,-0.26895518666666673,0.77831408,1.1709117733333334,0.8327047309917032,0.7680980701138553,0.7778417574689785,0.8194600240464448
LBP06_S01,LBP06,-1507,144,1,143,-1507,1716262216.72,2024-05-21 03:30:16.720000+00:00,2024-05-21 12:30:16.720000+09:00,2024,5,21,3,30,16,720,,,,,,,,,0.40625,-0.602539,1.654785,22.399902,10.437012,-0.793457,,,,,,,,,,,0.0,1.0,1.0,1.0,0.0,0.0,0.0,5.0,0.0,0.18705404,-0.24808599999999997,0.89326496,6.53645832,-0.7714843733333349,-0.3450520933333333,30.57611613995266,-1.0184834620423189,9.241741848664972,8.0344731050286,15.278123753664048,15.928849246596416,23.48833884778778,-0.9171872632148304,23.116000067195124,-0.9168776973138419,0.21919596,-0.3544530000000001,0.76152004,1.335169,0.8680994006511715,0.7870301196934594,0.7888378745730248,0.8141736409069145
LBP06_S01,LBP06,-1506,145,1,144,-1506,1716262216.76,2024-05-21 03:30:16.760000+00:00,2024-05-21 12:30:16.760000+09:00,2024,5,21,3,30,16,760,,,,,,,,,-0.051514,-0.086426,0.361084,72.08252,177.001953,49.926758,,,,,,,,,,,0.0,1.0,1.0,1.0,0.0,0.0,0.0,5.0,0.0,0.19528972,-0.25935226666666666,0.9135416533333334,5.3361002399999995,-4.042968746666668,-1.5372721466666668,30.263609764535524,-3.3377741529997675,9.36257327280383,9.245017495610021,15.144612787544057,16.303352177508568,24.096243217619044,-0.91747886756679,23.67907816971212,-0.9188775937768137,-0.24680372,0.17292626666666666,-0.5524576533333334,0.97218764,0.6293051951443617,0.778102023124597,0.7883719509592413,0.8203708335276988
LBP06_S01,LBP06,-1505,146,1,145,-1505,1716262216.8,2024-05-21 03:30:16.800000+00:00,2024-05-21 12:30:16.800000+09:00,2024,5,21,3,30,16,800,,,,,,,,,-0.042725,0.119873,0.079834,51.940918,-15.258789,15.563965,,,,,,,,,,,0.0,1.0,1.0,1.0,0.0,0.0,0.0,5.0,0.0,0.2016113333333333,-0.26121098666666664,0.92695636,5.296223933333333,-2.0621744800000013,-0.35156250666666666,29.822965747359298,-5.4155301058847565,8.641053297598917,10.437936125504393,14.927991583308668,16.648994309412526,24.677610394572135,-0.9061522239870462,24.184351222967212,-0.9179073562320175,-0.24433633333333332,0.38108398666666665,-0.8471223600000001,1.47254268,0.9604902610086724,0.7824290598331938,0.7979572075651633,0.8133475139089016
LBP06_S01,LBP06,-1504,147,1,146,-1504,1716262216.84,2024-05-21 03:30:16.840000+00:00,2024-05-21 12:30:16.840000+09:00,2024,5,21,3,30,16,840,,,,,,,,,-0.041016,0.038574,0.234375,-9.338379,-65.979004,18.554688,,,,,,,,,,,0.0,1.0,1.0,1.0,0.0,0.0,0.0,5.0,0.0,0.19681966666666664,-0.26225265333333336,0.9190234266666668,4.7867838266666665,-0.7242838533333349,0.34342446666666676,28.88278142078305,-7.172770585273744,6.944948706128362,11.593247382335715,14.641080759897719,16.92679225765766,25.2047798407322,-0.918932075579748,24.607454672590652,-0.9158353391031712,-0.23783566666666664,0.30082665333333336,-0.6846484266666668,1.2233107466666668,0.7847330423982755,0.7872770344853115,0.7922853555559057,0.8155852257704631
LBP06_S01,LBP06,-1503,148,1,147,-1503,1716262216.88,2024-05-21 03:30:16.880000+00:00,2024-05-21 12:30:16.880000+09:00,2024,5,21,3,30,16,880,,,,,,,,,0.651855,-0.303223,0.664062,-39.794922,-103.210449,6.713867,,,,,,,,,,,0.0,1.0,1.0,1.0,0.0,0.0,0.0,5.0,0.0,0.19349284,-0.2600260933333333,0.9143098933333335,5.723470026666666,0.34179686666666514,1.0750325333333335,26.797217525066937,-8.530979568446119,4.471971578176867,12.665136083338393,14.299841577159874,17.105671120784734,25.64166776233167,-0.9229107365720978,24.91735796514981,-0.9157916837085889,0.45836215999999996,-0.0431969066666667,-0.2502478933333334,0.7518069600000001,0.524009399327155,0.7677260631203643,0.785280267968242,0.8130326518056468
LBP06_S01,LBP06,-1502,149,1,148,-1502,1716262216.92,2024-05-21 03:30:16.920000+00:00,2024-05-21 12:30:16.920000+09:00,2024,5,21,3,30,16,920,,,,,,,,,0.577881,-0.032227,1.063965,73.669434,37.597656,6.103516,,,,,,,,,,,0.0,1.0,1.0,1.0,0.0,0.0,0.0,5.0,0.0,0.19593750666666668,-0.26532232,0.9105794266666667,5.041503893333333,-0.8374023466666685,1.1840820133333334,22.7495847079738,-9.587343756787204,1.7060728043195788,13.575119471657345,13.916347826888385,17.173914032957516,25.940160537670668,-0.9260247991131988,25.08095526663849,-0.9171476626004879,0.38194349333333333,0.23309532,0.15338557333333336,0.7684243866666667,0.4730131017343683,0.7456607241765097,0.781067404704986,0.8121418334466811
LBP06_S01,LBP06,-1501,150,1,149,-1501,1716262216.96,2024-05-21 03:30:16.960000+00:00,2024-05-21 12:30:16.960000+09:00,2024,5,21,3,30,16,960,,,,,,,,,-0.160645,-0.839355,1.466797,-80.688477,-34.057617,-17.578125,,,,,,,,,,,0.0,1.0,1.0,1.0,0.0,0.0,0.0,5.0,0.0,0.20127930666666666,-0.2638412,0.9059016933333334,6.565755186666667,-0.021972653333335094,1.566569,15.979602794385615,-10.685592578398538,-0.7343987587526957,14.21430358343277,13.488924123752444,17.144538082607408,26.037140519732883,-0.9110726645615708,25.072120087976973,-0.9188330031883606,-0.36192430666666664,-0.5755138,0.5608953066666665,1.498333413333333,0.8813676206823582,0.7537716649158912,0.7793680042297448,0.8105771767995502
LBP06_S01,LBP06,-1500,151,1,150,-1500,1716262217.0,2024-05-21 03:30:17+00:00,2024-05-21 12:30:17+09:00,2024,5,21,3,30,17,0,3.0,30.0,17.0,40.541943,141.581039,9.981,3.0,12.0,0.131592,-0.420898,1.643799,138.977051,-84.655762,-38.635254,-587.0,44.0,534.0,319.0,0.0,1027.599976,32.169998,0.144683,-118.724365,3.916406,0.0,1.0,1.0,1.0,0.0,0.0,0.0,6.0,0.0,0.20022788,-0.2666472,0.90354492,7.5764973866666665,1.465657546666665,1.3525390533333332,6.115393653222773,-12.287134625062691,-2.2933443246330825,14.458919329561681,12.997438738749937,17.052804309622086,25.861011131983904,-0.9181540611359724,24.88235333889647,-0.9204631425157533,-0.06863588000000001,-0.15425080000000002,0.74025408,0.96314076,0.759262995463799,0.7603583015825311,0.7763364138848402,0.8030982287856058
LBP06_S01,LBP06,-1499,152,1,151,-1499,1716262217.04,2024-05-21 03:30:17.040000+00:00,2024-05-21 12:30:17.040000+09:00,2024,5,21,3,30,17,40,,,,,,,,,0.343262,0.075195,1.257812,8.239746,92.285156,0.732422,,,,,,,,,,,0.0,1.0,1.0,1.0,0.0,0.0,0.0,6.0,0.0,0.19488934666666669,-0.2593490133333333,0.9008919200000001,7.192382799999999,0.5330403599999982,1.4143880133333335,-6.496249978044484,-14.683668063371266,-2.639883025058444,14.199069330439901,12.410092016215087,16.94720898861975,25.35412878025034,-0.918208866195931,24.527818285587877,-0.92316174194344,0.14837265333333333,0.33454401333333333,0.35692007999999986,0.8398367466666665,0.5112006304980006,0.7652005905661671,0.7752284755850076,0.8003188287793881
LBP06_S01,LBP06,-1498,153,1,152,-1498,1716262217.08,2024-05-21 03:30:17.080000+00:00,2024-05-21 12:30:17.080000+09:00,2024,5,21,3,30,17,80,,,,,,,,,-0.366943,-0.157471,-0.104736,-11.047363,116.882324,20.812988,,,,,,,,,,,0.0,1.0,1.0,1.0,0.0,0.0,0.0,6.0,0.0,0.19847008,-0.2624902933333333,0.91119792,7.329101546666666,-0.3979492266666686,1.5795898400000004,-20.616544890229743,-17.703667922671187,-1.7391142477913983,13.374407534830711,11.701945299308239,16.877644418708094,24.508471633704275,-0.9153550680776943,24.047805273586043,-0.9250879713581309,-0.56541308,0.10501929333333329,-1.01593392,1.6863662933333332,1.1674085543689858,0.7780591855523467,0.7836611156418507,0.7987146220593861
LBP06_S01,LBP06,-1497,154,1,153,-1497,1716262217.12,2024-05-21 03:30:17.120000+00:00,2024-05-21 12:30:17.120000+09:00,2024,5,21,3,30,17,120,,,,,,,,,-0.057373,0.229248,0.019531,-53.405762,-28.869629,8.361816,,,,,,,,,,,0.0,1.0,1.0,1.0,0.0,0.0,0.0,6.0,0.0,0.19349938666666666,-0.2667025333333333,0.9098795599999999,6.228027320000001,0.8935546799999986,2.2241210933333337,-34.218692248218865,-20.605082647140488,0.1802104194951055,12.005659844901956,10.87774199342262,16.884852835487898,23.399987061172595,-0.9340406690935557,23.494427413845237,-0.9267370775550392,-0.25087238666666667,0.49595053333333333,-0.89034856,1.6371714800000001,1.0495829858565358,0.7804215567247532,0.7961275391592486,0.8026200775241072
LBP06_S01,LBP06,-1496,155,1,154,-1496,1716262217.16,2024-05-21 03:30:17.160000+00:00,2024-05-21 12:30:17.160000+09:00,2024,5,21,3,30,17,160,,,,,,,,,0.264648,-0.214355,0.243652,-65.429688,-143.310547,-11.169434,,,,,,,,,,,0.0,1.0,1.0,1.0,0.0,0.0,0.0,6.0,0.0,0.19354821333333333,-0.26661464,0.9098860666666667,6.463216119999999,1.8684895733333318,2.15738932,-44.88257473938831,-22.27665508936648,2.7254778638708217,10.210356855326424,9.98667578984796,16.99387195004273,22.198575726814003,-0.9337802608407176,22.92044272274247,-0.9289151453949117,0.07109978666666666,0.052259640000000024,-0.6662340666666667,0.7895934933333334,0.6720521417451027,0.7966147991039798,0.7869685240337658,0.8013174435877206
LBP06_S01,LBP06,-1495,156,1,155,-1495,1716262217.2,2024-05-21 03:30:17.200000+00:00,2024-05-21 12:30:17.200000+09:00,2024,5,21,3,30,17,200,,,,,,,,,0.531006,0.057373,0.777344,70.007324,-58.837891,-3.479004,,,,,,,,,,,0.0,1.0,1.0,1.0,0.0,0.0,0.0,6.0,0.0,0.19178389333333332,-0.26367844,0.9125065066666668,6.717122373333333,2.0857747199999985,2.31689452,-50.37913784900944,-21.69343100347622,5.45556983584507,8.195191341366046,9.118938549708911,17.212094743476534,21.1322598614862,-0.9331382182639137,22.373466927960234,-0.9319546581512004,0.33922210666666663,0.32105144,-0.13516250666666674,0.7954360533333334,0.4862248121865663,0.7644679934556835,0.7796415933012639,0.7995209904973808
LBP06_S01,LBP06,-1494,157,1,156,-1494,1716262217.24,2024-05-21 03:30:17.240000+00:00,2024-05-21 12:30:17.240000+09:00,2024,5,21,3,30,17,240,,,,,,,,,0.313721,-0.107422,1.051758,-248.474121,-20.019531,60.302734,,,,,,,,,,,0.0,1.0,1.0,1.0,0.0,0.0,0.0,6.0,0.0,0.19029301333333334,-0.2645801333333333,0.9115038933333334,4.737955706666667,1.5681965999999987,3.0013020666666668,-49.27529330974091,-18.4002453125691,7.972533876680066,6.22417960897641,8.382928737206147,17.53099609854374,20.40464972071391,-0.9381943697266577,21.897632740276155,-0.9343415481751496,0.12342798666666668,0.15715813333333328,0.1402541066666666,0.42084022666666654,0.2441400442415568,0.7473738608932688,0.7714922228802056,0.7899854559272461
LBP06_S01,LBP06,-1493,158,1,157,-1493,1716262217.28,2024-05-21 03:30:17.280000+00:00,2024-05-21 12:30:17.280000+09:00,2024,5,21,3,30,17,280,,,,,,,,,0.001465,-0.761475,1.665771,-118.041992,-31.677246,-7.141113,,,,,,,,,,,0.0,1.0,1.0,1.0,0.0,0.0,0.0,6.0,0.0,0.18963872,-0.26434576000000004,0.9127604,4.5808919066666665,1.8847656133333321,3.5359700399999996,-41.36900008272763,-12.768620979694555,9.969124136297442,4.569419605667305,7.872183898018364,17.929761063995635,20.10788916492356,-0.9394017985411794,21.53663625237737,-0.9375654687300077,-0.18817372000000002,-0.49712924,0.7530105999999999,1.4383135599999999,0.9217221890971139,0.7559913153808008,0.7662742630834803,0.7904300389727714
LBP06_S01,LBP06,-1492,159,1,158,-1492,1716262217.32,2024-05-21 03:30:17.320000+00:00,2024-05-21 12:30:17.320000+09:00,2024,5,21,3,30,17,320,,,,,,,,,0.139893,-0.650879,1.779297,52.307129,-72.937012,-18.188477,,,,,,,,,,,0.0,1.0,1.0,1.0,0.0,0.0,0.0,6.0,0.0,0.19026697333333334,-0.27040044,0.9127408800000001,3.7589517999999997,0.8553059733333321,3.4643554533333334,-27.789927259407516,-5.899572643613745,11.228883695892986,3.457822515291004,7.636200992273815,18.378916411831355,20.20031362664305,-0.947805477511924,21.331786333362217,-0.9416281543493111,-0.05037397333333335,-0.38047855999999997,0.8665561199999998,1.297408653333333,0.9477452088607544,0.7727991542059207,0.7672131770334558,0.7919317689186441
LBP06_S01,LBP06,-1491,160,1,159,-1491,1716262217.36,2024-05-21 03:30:17.360000+00:00,2024-05-21 12:30:17.360000+09:00,2024,5,21,3,30,17,360,,,,,,,,,0.322754,-0.664551,1.244873,39.18457,107.543945,4.760742,,,,,,,,,,,0.0,1.0,1.0,1.0,0.0,0.0,0.0,6.0,0.0,0.18989588,-0.26599289333333337,0.9105273466666667,6.613769506666666,0.717773413333332,3.329264306666667,-10.710287709185108,0.7762279122885054,11.598455436161554,3.0294110069235995,7.667250108765355,18.842854629277817,20.56738257191052,-0.9414677921244577,21.313104247254252,-0.9447918664049177,0.13285812,-0.39855810666666663,0.3343456533333332,0.8657618799999999,0.536923514425049,0.7540772776095348,0.7709020485506953,0.7879086715474815
LBP06_S01,LBP06,-1490,161,1,160,-1490,1716262217.4,2024-05-21 03:30:17.400000+00:00,2024-05-21 12:30:17.400000+09:00,2024,5,21,3,30,17,400,,,,,,,,,-0.331543,0.005371,-0.191406,113.342285,175.90332,15.563965,,,,,,,,,,,0.0,1.0,1.0,1.0,0.0,0.0,0.0,6.0,0.0,0.18663090666666668,-0.26160161333333337,0.9078190133333334,6.067708306666667,0.3108723733333322,2.9874674266666665,7.210758892940347,6.009213864241732,10.971257811077297,3.3178413626412135,7.9076186633350245,19.281704941720907,21.1026692551431,-0.9420229613754636,21.486719539099468,-0.9465051436398948,-0.5181739066666666,0.2669726133333334,-1.0992250133333334,1.8843715333333335,1.2442163010336635,0.7618575281715353,0.7839648818207132,0.7941507635018454
LBP06_S01,LBP06,-1489,162,1,161,-1489,1716262217.44,2024-05-21 03:30:17.440000+00:00,2024-05-21 12:30:17.440000+09:00,2024,5,21,3,30,17,440,,,,,,,,,0.052979,0.157959,0.183105,-6.408691,-43.395996,3.967285,,,,,,,,,,,0.0,1.0,1.0,1.0,0.0,0.0,0.0,6.0,0.0,0.18478846666666665,-0.26395186666666665,0.9074934933333335,3.2535807066666664,-0.23356122666666781,3.847656226666667,23.40045084852331,9.106340553187787,9.313581828951234,4.253859396582146,8.271872285462536,19.654248214878955,21.74416390126247,-0.9504480717445133,21.825522714393244,-0.9480657246309987,-0.13180946666666665,0.42191086666666666,-0.7243884933333335,1.278108826666667,0.8485995546711688,0.7744959971653752,0.7897829888318526,0.8022145384260255
LBP06_S01,LBP06,-1488,163,1,162,-1488,1716262217.48,2024-05-21 03:30:17.480000+00:00,2024-05-21 12:30:17.480000+09:00,2024,5,21,3,30,17,480,,,,,,,,,0.380371,-0.292725,0.517578,-38.085938,-120.056152,23.132324,,,,,,,,,,,0.0,1.0,1.0,1.0,0.0,0.0,0.0,6.0,0.0,0.18454757333333333,-0.26697596,0.9069335866666667,1.6984049199999995,-0.18147789333333453,4.638671853333332,35.75509369563613,9.999885224970113,6.727936004570754,5.684063144407591,8.67186769446134,19.923365655061783,22.459972443552783,-0.9559819242707283,22.270401807443296,-0.9491087014260842,0.1958234266666667,-0.02574904,-0.3893555866666667,0.6109280533333334,0.43658630345092275,0.7401729831020479,0.7831402794340877,0.8007875605387788
LBP06_S01,LBP06,-1487,164,1,163,-1487,1716262217.52,2024-05-21 03:30:17.520000+00:00,2024-05-21 12:30:17.520000+09:00,2024,5,21,3,30,17,520,,,,,,,,,0.585449,-0.096924,1.000488,64.453125,5.249023,33.874512,,,,,,,,,,,0.0,1.0,1.0,1.0,0.0,0.0,0.0,6.0,0.0,0.18224613333333334,-0.26951827999999994,0.9043489466666665,3.428548146666666,0.13427730666666537,4.562988253333334,42.7916835015157,9.029871586249708,3.5120834766134155,7.395730484468219,9.033062557911329,20.06384899412632,23.21316620009291,-0.965677789649624,22.744375244730936,-0.9493575524261164,0.40320286666666666,0.17259427999999993,0.0961390533333335,0.6719362000000001,0.4490034017162517,0.7162081628486741,0.7615441385121997,0.7931253272652832
LBP06_S01,LBP06,-1486,165,1,164,-1486,1716262217.56,2024-05-21 03:30:17.560000+00:00,2024-05-21 12:30:17.560000+09:00,2024,5,21,3,30,17,560,,,,,,,,,0.131104,-0.484619,1.332764,-89.477539,22.583008,17.211914,,,,,,,,,,,0.0,1.0,1.0,1.0,0.0,0.0,0.0,6.0,0.0,0.18470055999999999,-0.2641699733333333,0.90197264,4.798990853333333,-0.2083333733333346,4.431966106666667,43.67839479314538,6.634986637712985,0.16183162001551374,9.142866276194034,9.298462023419848,20.070322258926943,23.934728645266183,-0.9509130331904854,23.173376782726212,-0.9500883390908934,-0.05359655999999999,-0.22044902666666671,0.43079136000000007,0.7048369466666667,0.48687941058619844,0.7182250401749529,0.7572133326714067,0.7853912386124604
LBP06_S01,LBP06,-1485,166,1,165,-1485,1716262217.6,2024-05-21 03:30:17.600000+00:00,2024-05-21 12:30:17.600000+09:00,2024,5,21,3,30,17,600,,,,,,,,,0.139648,-1.084717,1.673096,151.672363,-50.842285,-67.504883,,,,,,,,,,,0.0,1.0,1.0,1.0,0.0,0.0,0.0,6.0,0.0,0.18538741333333333,-0.26387049333333334,0.9025162533333334,3.8834635199999994,-0.1936849333333346,4.855143186666667,38.27910460307656,3.164946916431468,-2.710200258103434,10.674030460317097,9.425059900077107,19.961914248602806,24.520291614423968,-0.9487440281749525,23.503499253363763,-0.9512318180651012,-0.04573941333333334,-0.8208465066666666,0.7705797466666665,1.6371656666666663,1.1267982194749029,0.737869684402676,0.7552530759896221,0.7729239942887947
LBP06_S01,LBP06,-1484,167,1,166,-1484,1716262217.64,2024-05-21 03:30:17.640000+00:00,2024-05-21 12:30:17.640000+09:00,2024,5,21,3,30,17,640,,,,,,,,,0.491455,-0.036621,1.719727,73.913574,-10.192871,-21.911621,,,,,,,,,,,0.0,1.0,1.0,1.0,0.0,0.0,0.0,6.0,0.0,0.18416997333333332,-0.2619987466666666,0.9021581866666666,3.652343733333333,-0.655924506666668,4.808756466666667,27.253655341014902,-1.09939159076862,-4.519723840350681,11.764176673957692,9.381084236446362,19.78112529498878,24.853440651214424,-0.9486241376775121,23.708877744244514,-0.9535348317283787,0.3072850266666667,0.2253777466666666,0.8175688133333334,1.3502315866666668,0.9020188361898842,0.7497635142321809,0.756100189369442,0.7747469830486129
LBP06_S01,LBP06,-1483,168,1,167,-1483,1716262217.68,2024-05-21 03:30:17.680000+00:00,2024-05-21 12:30:17.680000+09:00,2024,5,21,3,30,17,680,,,,,,,,,0.038574,-0.17749,0.83667,16.235352,171.020508,57.495117,,,,,,,,,,,0.0,1.0,1.0,1.0,0.0,0.0,0.0,6.0,0.0,0.18524743999999999,-0.25954432,0.9046354000000001,2.5504557199999995,-1.0424804933333347,4.526367146666667,12.133569099404692,-5.784249358382849,-4.862176123910023,12.24951943793388,9.149714262111049,19.58663825003238,24.847623537799944,-0.941890308541502,23.790089848146714,-0.9537295896853883,-0.14667344,0.08205431999999999,-0.06796540000000006,0.29669316,0.1812879064616722,0.7237068412509796,0.7459024556824174,0.7597967853963122
LBP06_S01,LBP06,-1482,169,1,168,-1482,1716262217.72,2024-05-21 03:30:17.720000+00:00,2024-05-21 12:30:17.720000+09:00,2024,5,21,3,30,17,720,,,,,,,,,-0.174072,0.220947,-0.220947,-37.29248,-18.615723,-2.258301,,,,,,,,,,,0.0,1.0,1.0,1.0,0.0,0.0,0.0,6.0,0.0,0.18091476,-0.2610059066666667,0.9045833200000001,1.0465494666666662,0.01708981333333213,4.679361946666666,-4.757143944764461,-10.277326458126193,-3.6183779754496808,12.059233680143302,8.738621203786002,19.441903131014392,24.490329006595807,-0.9551133441596941,23.765518033182957,-0.9539700505439284,-0.35498676,0.4819529066666667,-1.1255303200000002,1.9624699866666668,1.2747990842713408,0.7399748285957863,0.7635024741446229,0.772550192580612
LBP06_S01,LBP06,-1481,170,1,169,-1481,1716262217.76,2024-05-21 03:30:17.760000+00:00,2024-05-21 12:30:17.760000+09:00,2024,5,21,3,30,17,760,,,,,,,,,0.163574,-0.323975,0.428467,-16.784668,-65.673828,-43.884277,,,,,,,,,,,0.0,1.0,1.0,1.0,0.0,0.0,0.0,6.0,0.0,0.18260421333333332,-0.26222009333333335,0.9037825333333332,-0.30598960000000036,0.03824866666666528,5.350748666666667,-20.610947094655895,-13.751788651956629,-0.9976895252035247,11.234795796357066,8.188549657707737,19.40199555000625,23.86860727828606,-0.9529025818665351,23.66030393169263,-0.9534535449593537,-0.019030213333333323,-0.061754906666666665,-0.47531553333333326,0.5561006533333333,0.4796881004828783,0.7339901448093271,0.7560460839669619,0.7702446822426032
LBP06_S01,LBP06,-1480,171,1,170,-1480,1716262217.8,2024-05-21 03:30:17.800000+00:00,2024-05-21 12:30:17.800000+09:00,2024,5,21,3,30,17,800,,,,,,,,,0.686035,-0.027344,0.712158,79.467773,-74.09668,-25.45166,,,,,,,,,,,0.0,1.0,1.0,1.0,0.0,0.0,0.0,6.0,0.0,0.1829036933333333,-0.27012048,0.90597004,0.231933573333333,-0.21158857333333478,4.851074186666667,-32.647460842254866,-15.403330521162438,2.480158987624714,9.928897362666872,7.572416436861239,19.50120190951124,23.156454163950585,-0.9650530980082412,23.499050193625237,-0.9539881139955121,0.5031313066666666,0.24277648,-0.19381204000000007,0.9397198266666666,0.5913075661939895,0.7192228370167397,0.7508259484249667,0.7717124173823554
LBP06_S01,LBP06,-1479,172,1,171,-1479,1716262217.84,2024-05-21 03:30:17.840000+00:00,2024-05-21 12:30:17.840000+09:00,2024,5,21,3,30,17,840,,,,,,,,,0.263184,0.325195,0.848389,-112.548828,17.63916,46.203613,,,,,,,,,,,0.0,1.0,1.0,1.0,0.0,0.0,0.0,6.0,0.0,0.18335617333333332,-0.26299157333333334,0.9076822800000001,1.3533528399999997,-0.31575524000000144,4.4156900666666665,-38.71963213618692,-14.79042951910497,6.071609488609122,8.380112077219396,6.980799256097041,19.744066289055606,22.556284940284502,-0.9523956513146085,23.30530368253745,-0.9545422058836757,0.07982782666666666,0.5881865733333334,-0.059293280000000115,0.7273076800000001,0.5965329999363744,0.7116948353182637,0.7494859349017876,0.7654218488100251
LBP06_S01,LBP06,-1478,173,1,172,-1478,1716262217.88,2024-05-21 03:30:17.880000+00:00,2024-05-21 12:30:17.880000+09:00,2024,5,21,3,30,17,880,,,,,,,,,0.102051,-0.965332,1.588379,-214.477539,-57.922363,18.676758,,,,,,,,,,,0.0,1.0,1.0,1.0,0.0,0.0,0.0,6.0,0.0,0.18178716,-0.26425134666666666,0.9086588400000001,-0.11881513333333374,-0.5216471733333348,4.52799476,-37.85968792271367,-12.086515637373084,8.96644190045846,6.8657245603108485,6.497338630602117,20.102723965073945,22.214254293915168,-0.9583865328561284,23.10486325848013,-0.9553510614549324,-0.07973616,-0.7010806533333334,0.6797201599999999,1.4605369733333333,0.9797404929879466,0.7299240790646954,0.7488250710925298,0.7668282050003932
LBP06_S01,LBP06,-1477,174,1,173,-1477,1716262217.92,2024-05-21 03:30:17.920000+00:00,2024-05-21 12:30:17.920000+09:00,2024,5,21,3,30,17,920,,,,,,,,,0.224121,-0.468262,1.703857,-16.967773,-109.924316,-9.58252,,,,,,,,,,,0.0,1.0,1.0,1.0,0.0,0.0,0.0,6.0,0.0,0.18382166666666666,-0.26860356,0.9126171733333333,0.815429653333333,-0.5802409200000015,4.328613253333333,-30.574054866345538,-8.092917475398522,10.484445933824194,5.642762365657027,6.173621931586176,20.522101802426914,22.161025185189676,-0.9605127338038774,22.92725698449898,-0.9565351199168035,0.040299333333333326,-0.19965844,0.7912398266666667,1.0311976,0.8170361021606337,0.743684999081746,0.7446728616291278,0.7686066028305728
LBP06_S01,LBP06,-1476,175,1,174,-1476,1716262217.96,2024-05-21 03:30:17.960000+00:00,2024-05-21 12:30:17.960000+09:00,2024,5,21,3,30,17,960,,,,,,,,,0.473633,-0.670898,1.691406,30.151367,64.758301,16.662598,,,,,,,,,,,0.0,1.0,1.0,1.0,0.0,0.0,0.0,6.0,0.0,0.18615564,-0.2694727066666667,0.9149576666666667,0.6062825066666662,-0.46061201333333485,4.073079400000001,-18.72836900483194,-3.97585646125099,10.252675887293792,4.893627605463749,6.014587673136137,20.932208837918665,22.322191264592245,-0.956258723552071,22.801920845288574,-0.9565441911118748,0.28747736,-0.4014252933333333,0.7764483333333333,1.4653509866666665,0.9201399420612244,0.7452358919369005,0.7495037784263959,0.7679906334654635
LBP06_S01,LBP06,-1475,176,1,175,-1475,1716262218.0,2024-05-21 03:30:18+00:00,2024-05-21 12:30:18+09:00,2024,5,21,3,30,18,0,3.0,30.0,18.0,40.541855,141.581238,10.252,3.0,12.0,-0.389648,-0.220215,-0.158936,57.189941,185.48584,49.377441,-577.0,54.0,541.0,294.0,0.0,1027.300049,32.189999,0.141711,-116.256706,3.916406,0.0,1.0,1.0,1.0,0.0,0.0,0.0,5.0,0.0,0.1856576,-0.26751958666666664,0.9135123466666668,1.0262043866666664,0.08951819999999884,4.115397106666666,-5.016592003292492,-0.8237724478027031,8.30798664172562,4.692963925332049,5.981636775224029,21.26452830358769,22.58282650354606,-0.9542849470565867,22.749815847890996,-0.956304800467662,-0.5753056,0.04730458666666665,-1.0724483466666668,1.6950585333333335,1.21793255707331,0.7635826744012811,0.7619704879919061,0.7720851673903204
LBP06_S01,LBP06,-1474,177,1,176,-1474,1716262218.04,2024-05-21 03:30:18.040000+00:00,2024-05-21 12:30:18.040000+09:00,2024,5,21,3,30,18,40,,,,,,,,,-0.02832,0.00415,0.229492,51.025391,-19.775391,-6.408691,,,,,,,,,,,0.0,1.0,1.0,1.0,0.0,0.0,0.0,5.0,0.0,0.18630864,-0.2699935333333333,0.9144172933333334,0.2132161066666662,-0.4418945600000016,4.134928360000001,7.789864750133348,0.7698007851363954,5.091761880607856,5.004558515337383,6.012428806629485,21.468198778812003,22.84903641064124,-0.9567126933900797,22.77477097199571,-0.954331349230455,-0.21462864,0.2741435333333333,-0.6849252933333334,1.1736974666666669,0.7683376779935284,0.7738681563011022,0.7695343734336346,0.7747750358237058
LBP06_S01,LBP06,-1473,178,1,177,-1473,1716262218.08,2024-05-21 03:30:18.080000+00:00,2024-05-21 12:30:18.080000+09:00,2024,5,21,3,30,18,80,,,,,,,,,0.239746,0.161865,0.578857,56.152344,-82.03125,-2.685547,,,,,,,,,,,0.0,1.0,1.0,1.0,0.0,0.0,0.0,5.0,0.0,0.18855473333333334,-0.27151372,0.9147232933333334,0.4565429333333329,-0.43701174666666837,3.9103189866666663,17.518117485353585,0.8833379555976626,1.3303639168513466,5.705283214751526,6.047762324853391,21.521413335486056,23.071560797988475,-0.9537308931602128,22.86027301227616,-0.9537841756177914,0.05119126666666665,0.43337872,-0.3358662933333334,0.82043628,0.550675791849659,0.7491988458003291,0.763629015676338,0.7721736923613436
LBP06_S01,LBP06,-1472,179,1,178,-1472,1716262218.12,2024-05-21 03:30:18.120000+00:00,2024-05-21 12:30:18.120000+09:00,2024,5,21,3,30,18,120,,,,,,,,,0.715332,-0.3479,0.977051,-7.263184,-14.282227,-11.962891,,,,,,,,,,,0.0,1.0,1.0,1.0,0.0,0.0,0.0,5.0,0.0,0.18537113333333333,-0.26764001333333337,0.9147037599999999,0.2750650799999995,-0.2799479466666684,3.951009093333333,22.970498999222368,0.1260421145209715,-2.170678908655062,6.624103174720421,6.0528040094342295,21.434586179139853,23.23696761449173,-0.9552040561104085,22.975376218092514,-0.9534836421047779,0.5299608666666666,-0.08025998666666662,0.06234724000000014,0.6725680933333334,0.5396177943632285,0.7288002381405968,0.754610897432675,0.7736851054863646
LBP06_S01,LBP06,-1471,180,1,179,-1471,1716262218.16,2024-05-21 03:30:18.160000+00:00,2024-05-21 12:30:18.160000+09:00,2024,5,21,3,30,18,160,,,,,,,,,0.300781,-0.055176,1.208008,-51.757812,8.178711,-13.305664,,,,,,,,,,,0.0,1.0,1.0,1.0,0.0,0.0,0.0,5.0,0.0,0.18748376,-0.26787764000000003,0.9175455466666667,-0.7055664266666671,-0.7055664400000018,3.7915038799999996,23.950790328526317,-0.7089120924369091,-4.753969129859591,7.582134787861474,6.024447525736753,21.24442741394547,23.34755730431029,-0.9505086754244074,23.087665930623782,-0.9526998532819324,0.11329724000000002,0.21270164000000003,0.2904624533333333,0.6164613333333333,0.3774211030754985,0.7170149965938127,0.7568148978488963,0.7636506815537814
LBP06_S01,LBP06,-1470,181,1,180,-1470,1716262218.2,2024-05-21 03:30:18.200000+00:00,2024-05-21 12:30:18.200000+09:00,2024,5,21,3,30,18,200,,,,,,,,,-0.006104,-0.710449,1.688232,-3.173828,-59.753418,-51.513672,,,,,,,,,,,0.0,1.0,1.0,1.0,0.0,0.0,0.0,5.0,0.0,0.18928389333333334,-0.26734053333333335,0.9191471066666665,-1.3175456000000005,-0.6201172266666686,3.5310872133333335,21.049330453955392,-0.9887983609995317,-6.077044710383262,8.42410800601969,5.984895591296772,21.00134562553014,23.406005404997718,-0.945318585636171,23.175952161136525,-0.9518944318406868,-0.19538789333333334,-0.44310846666666664,0.7690848933333334,1.4075812533333334,0.9088526367054602,0.7339201095745684,0.749194051515126,0.7644010987256987
LBP06_S01,LBP06,-1469,182,1,181,-1469,1716262218.24,2024-05-21 03:30:18.240000+00:00,2024-05-21 12:30:18.240000+09:00,2024,5,21,3,30,18,240,,,,,,,,,0.626709,-0.846191,1.970703,44.555664,-72.631836,-23.071289,,,,,,,,,,,0.0,1.0,1.0,1.0,0.0,0.0,0.0,5.0,0.0,0.19047529333333332,-0.27006514666666664,0.9205924266666666,-1.5584310133333337,0.0691731333333315,3.4928385199999994,15.358563470185093,-0.4207524862556607,-6.153943658132276,9.038450544827093,5.968065491846546,20.755187879204847,23.411305343088976,-0.9469239151879701,23.23623149720179,-0.9513768197785119,0.4362337066666666,-0.5761258533333333,1.0501105733333334,2.062470133333333,1.274736467642494,0.7751439665106059,0.7612589137019374,0.7727094707570057
LBP06_S01,LBP06,-1468,183,1,182,-1468,1716262218.28,2024-05-21 03:30:18.280000+00:00,2024-05-21 12:30:18.280000+09:00,2024,5,21,3,30,18,280,,,,,,,,,0.233398,-0.093994,0.955322,60.241699,164.855957,69.458008,,,,,,,,,,,0.0,1.0,1.0,1.0,0.0,0.0,0.0,5.0,0.0,0.18836592,-0.27223310666666667,0.91712888,-1.8815104533333336,-0.04231774666666827,3.2926432,8.23716820239121,0.9788336175204685,-5.25794935410081,9.367937272922742,6.007218836547365,20.544869905040816,23.36528635207873,-0.9553811977259945,23.280054410244137,-0.951898918873713,0.04503208,0.17823910666666667,0.03819311999999997,0.26146430666666665,0.18776523051351168,0.7457856881672618,0.7508885017740313,0.7594447381114076
