file_name,test_id,_program_index,program_index,session_id,index,_index,unixtime,datetime_utc,datetime_jst,rtc_year,rtc_month,rtc_day,rtc_hour,rtc_min,rtc_sec,rtc_msec,gps_hour,gps_min,gps_sec,latitude,longitude,altitude,fix_type,SIV,acc_x,acc_y,acc_z,gyro_x,gyro_y,gyro_z,mag_x,mag_y,mag_z,illuminance,atmopress,water_pressure,water_temp,depth,alt_wps,battery_level,behavior_class,camera_command,camera_recording,camera_count,play_audio,speaker_on,audio_file,prev_sd_write_time_ms,delay_occurred_counter,acc_x_ma,acc_y_ma,acc_z_ma,gyro_x_ma,gyro_y_ma,gyro_z_ma,gyro_x_lowpass,gyro_y_lowpass,gyro_z_lowpass,angle_x,angle_y,angle_z,combined_angle_change,gravity_adjusted_angle,smoothed_angle_change,smoothed_gravity_angle,acc_x_dy,acc_y_dy,acc_z_dy,ODBA,VeDBA,smoothed_VeDBA_1s,smoothed_VeDBA_2s,smoothed_VeDBA_3s
LBP06_S03,LBP06,-1650,1,3,0,-1650,1716264467.0,2024-05-21 04:07:47+00:00,2024-05-21 13:07:47+09:00,2024,5,21,4,7,47,0,4.0,7.0,47.0,40.522686,141.58992,1.63,3.0,14.0,0.034424,0.113525,0.145264,-7.385254,-75.500488,13.916016,-557.0,72.0,532.0,316.0,0.0,1025.900024,22.58,0.127836,-104.730202,3.817969,0.0,1.0,1.0,3.0,0.0,0.0,0.0,4.0,0.0,,,,,,,-10.34187589331426,-74.34898958587284,14.45779747164381,-0.4136750357325704,-2.973959583434914,0.5783118988657524,3.057778162565496,,4.999396630683101,,,,,,,,,
LBP06_S03,LBP06,-1649,2,3,1,-1649,1716264467.04,2024-05-21 04:07:47.040000+00:00,2024-05-21 13:07:47.040000+09:00,2024,5,21,4,7,47,40,,,,,,,,,0.489746,-0.327393,0.697021,-49.682617,-167.053223,5.493164,,,,,,,,,,,0.0,1.0,1.0,3.0,0.0,0.0,0.0,4.0,0.0,,,,,,,-3.2152702869692544,-46.062554238266074,8.609033706744539,-0.5422858472113405,-4.816461752965557,0.9226732471355339,4.933933894859698,,4.976685174549588,,,,,,,,,
LBP06_S03,LBP06,-1648,3,3,2,-1648,1716264467.08,2024-05-21 04:07:47.080000+00:00,2024-05-21 13:07:47.080000+09:00,2024,5,21,4,7,47,80,,,,,,,,,0.430664,0.045654,1.044434,137.939453,13.305664,-16.113281,,,,,,,,,,,0.0,1.0,1.0,3.0,0.0,0.0,0.0,4.0,0.0,,,,,,,1.8371791137920443,-20.933130388017197,3.4702350873110017,-0.46879868265965874,-5.653786968486245,1.061482650627974,5.7716396896785325,,4.918555562838129,,,,,,,,,
LBP06_S03,LBP06,-1647,4,3,3,-1647,1716264467.12,2024-05-21 04:07:47.120000+00:00,2024-05-21 13:07:47.120000+09:00,2024,5,21,4,7,47,120,,,,,,,,,0.089111,-0.734619,1.414551,-227.233887,0.183105,7.93457,,,,,,,,,,,0.0,1.0,1.0,3.0,0.0,0.0,0.0,4.0,0.0,,,,,,,3.1521189010728667,-1.6619074630900625,-0.43576066498481025,-0.34271392661674405,-5.720263267009848,1.0440522240285817,5.824852764310724,,4.919815986636134,,,,,,,,,
LBP06_S03,LBP06,-1646,5,3,4,-1646,1716264467.16,2024-05-21 04:07:47.160000+00:00,2024-05-21 13:07:47.160000+09:00,2024,5,21,4,7,47,160,,,,,,,,,0.04248,-0.270508,1.484131,17.76123,14.221191,12.084961,,,,,,,,,,,0.0,1.0,1.0,3.0,0.0,0.0,0.0,4.0,0.0,,,,,,,-0.1958960945884773,10.095580938342158,-2.81683290936663,-0.3505497704002831,-5.316440029476162,0.9313789076539165,5.408778642001056,,5.048255801600233,,,,,,,,,
LBP06_S03,LBP06,-1645,6,3,5,-1645,1716264467.2,2024-05-21 04:07:47.200000+00:00,2024-05-21 13:07:47.200000+09:00,2024,5,21,4,7,47,200,,,,,,,,,0.407715,-0.915039,1.884033,33.508301,135.620117,8.117676,,,,,,,,,,,0.0,1.0,1.0,3.0,0.0,0.0,0.0,4.0,0.0,,,,,,,-8.136342266987851,14.126031231992503,-3.643287257273524,-0.6760034610797971,-4.751398780196462,0.7856474173629755,4.863127893882024,,5.31835218031307,,,,,,,,,
LBP06_S03,LBP06,-1644,7,3,6,-1644,1716264467.24,2024-05-21 04:07:47.240000+00:00,2024-05-21 13:07:47.240000+09:00,2024,5,21,4,7,47,240,,,,,,,,,-0.29541,0.021729,-0.161621,244.445801,108.215332,-43.579102,,,,,,,,,,,0.0,1.0,1.0,3.0,0.0,0.0,0.0,4.0,0.0,,,,,,,-19.422176982188642,11.732272475210104,-3.142489292523659,-1.4528905403673429,-4.2821078811880575,0.6599478456620291,4.569777892569369,,5.967278254847599,,,,,,,,,
LBP06_S03,LBP06,-1643,8,3,7,-1643,1716264467.28,2024-05-21 04:07:47.280000+00:00,2024-05-21 13:07:47.280000+09:00,2024,5,21,4,7,47,280,,,,,,,,,-0.275635,0.415527,0.03418,-93.322754,-70.43457,-0.305176,,,,,,,,,,,0.0,1.0,1.0,3.0,0.0,0.0,0.0,4.0,0.0,,,,,,,-31.697645821487505,5.376002656229579,-1.7569878639213394,-2.720796373226843,-4.067067774938875,0.5896683311051756,4.928638953222173,,6.585093118162327,,,,,,,,,
LBP06_S03,LBP06,-1642,9,3,8,-1642,1716264467.32,2024-05-21 04:07:47.320000+00:00,2024-05-21 13:07:47.320000+09:00,2024,5,21,4,7,47,320,,,,,,,,,0.60498,-0.656982,0.549316,-195.068359,-206.970215,-3.112793,,,,,,,,,,,0.0,1.0,1.0,3.0,0.0,0.0,0.0,4.0,0.0,,,,,,,-41.968829211263646,-2.047724329565624,-0.05775918771768718,-4.3995495416773895,-4.148976748121499,0.5873579635964681,6.075774321313027,,7.227706387664119,,,,,,,,,
LBP06_S03,LBP06,-1641,10,3,9,-1641,1716264467.36,2024-05-21 04:07:47.360000+00:00,2024-05-21 13:07:47.360000+09:00,2024,5,21,4,7,47,360,,,,,,,,,0.558105,0.657715,0.69458,87.158203,24.597168,25.756836,,,,,,,,,,,0.0,1.0,1.0,3.0,0.0,0.0,0.0,4.0,0.0,,,,,,,-47.433500591625254,-8.040877797740777,1.386513589451167,-6.2968895653424,-4.470611860031131,0.6428185071745147,7.749219588728601,,7.915155020194858,,,,,,,,,
LBP06_S03,LBP06,-1640,11,3,10,-1640,1716264467.4,2024-05-21 04:07:47.400000+00:00,2024-05-21 13:07:47.400000+09:00,2024,5,21,4,7,47,400,,,,,,,,,0.626221,-1.025391,1.732666,-318.725586,-13.122559,13.793945,,,,,,,,,,,0.0,1.0,1.0,3.0,0.0,0.0,0.0,4.0,0.0,,,,,,,-46.38765553250161,-11.09880356347062,2.1547861485025237,-8.152395786642465,-4.914564002569955,0.7290099531146157,9.547038907910789,,8.639591710387014,,,,,,,,,
LBP06_S03,LBP06,-1639,12,3,11,-1639,1716264467.44,2024-05-21 04:07:47.440000+00:00,2024-05-21 13:07:47.440000+09:00,2024,5,21,4,7,47,440,,,,,,,,,0.218262,-0.322021,1.933594,94.543457,10.498047,-22.460938,,,,,,,,,,,0.0,1.0,1.0,3.0,0.0,0.0,0.0,4.0,0.0,,,,,,,-38.837455023212854,-10.866316717994941,2.0830163440314826,-9.70589398757098,-5.349216671289753,0.812330606875875,11.112082528006981,,9.37333002432462,,,,,,,,,
LBP06_S03,LBP06,-1638,13,3,12,-1638,1716264467.48,2024-05-21 04:07:47.480000+00:00,2024-05-21 13:07:47.480000+09:00,2024,5,21,4,7,47,480,,,,,,,,,0.231934,-0.607422,1.721436,-164.367676,43.518066,18.798828,,,,,,,,,,,0.0,1.0,1.0,3.0,0.0,0.0,0.0,4.0,0.0,,,,,,,-26.550861767892016,-7.891303616107144,1.2936613096344662,-10.76792845828666,-5.664868815934039,0.8640770592612537,12.197772384696446,,10.069286631995322,,,,,,,,,
LBP06_S03,LBP06,-1637,14,3,13,-1637,1716264467.52,2024-05-21 04:07:47.520000+00:00,2024-05-21 13:07:47.520000+09:00,2024,5,21,4,7,47,520,,,,,,,,,-0.26416,-0.50415,0.166016,-31.066895,99.365234,52.91748,,,,,,,,,,,0.0,1.0,1.0,3.0,0.0,0.0,0.0,4.0,0.0,,,,,,,-12.497853868925748,-3.191551873585899,0.12826620930597044,-11.26784261304369,-5.792530890877475,0.8692077076334925,12.69933908961811,,10.657957486841308,,,,,,,,,
LBP06_S03,LBP06,-1636,15,3,14,-1636,1716264467.56,2024-05-21 04:07:47.560000+00:00,2024-05-21 13:07:47.560000+09:00,2024,5,21,4,7,47,560,,,,,,,,,0.112549,-0.148926,0.089111,182.250977,-41.503906,-43.945312,,,,,,,,,,,0.0,1.0,1.0,3.0,0.0,0.0,0.0,4.0,0.0,,,,,,,0.13772717812501392,2.127769926104117,-1.0044300516021556,-11.26233352591869,-5.70742009383331,0.8290305055694063,12.653145543922626,,11.068405776393359,,,,,,,,,
LBP06_S03,LBP06,-1635,16,3,15,-1635,1716264467.6,2024-05-21 04:07:47.600000+00:00,2024-05-21 13:07:47.600000+09:00,2024,5,21,4,7,47,600,,,,,,,,,0.421387,0.507324,0.882324,230.712891,-95.76416,-51.879883,,,,,,,,,,,0.0,1.0,1.0,3.0,0.0,0.0,0.0,4.0,0.0,,,,,,,9.002931062210278,7.079608333160473,-1.8211336360323045,-10.90221628343028,-5.424235760506891,0.7561851601281141,12.200511033258078,,11.261145784714813,,,,,,,,,
LBP06_S03,LBP06,-1634,17,3,16,-1634,1716264467.64,2024-05-21 04:07:47.640000+00:00,2024-05-21 13:07:47.640000+09:00,2024,5,21,4,7,47,640,,,,,,,,,0.72168,-0.300537,1.689941,-72.143555,-19.836426,-2.441406,,,,,,,,,,,0.0,1.0,1.0,3.0,0.0,0.0,0.0,4.0,0.0,,,,,,,13.246136197985463,10.85695855307404,-2.321117326523535,-10.37237083551086,-4.989957418383929,0.6633404670671728,11.529343969276393,,11.2367500856671,,,,,,,,,
LBP06_S03,LBP06,-1633,18,3,17,-1633,1716264467.68,2024-05-21 04:07:47.680000+00:00,2024-05-21 13:07:47.680000+09:00,2024,5,21,4,7,47,680,,,,,,,,,-0.052734,-1.141602,1.806641,-164.123535,42.480469,3.540039,,,,,,,,,,,0.0,1.0,1.0,3.0,0.0,0.0,0.0,4.0,0.0,,,,,,,13.537474347797152,12.881656843862748,-2.8258051287017825,-9.830871861598975,-4.474691144629419,0.5503082619191014,10.815347501682036,,11.029902012446234,,,,,,,,,
LBP06_S03,LBP06,-1632,19,3,18,-1632,1716264467.72,2024-05-21 04:07:47.720000+00:00,2024-05-21 13:07:47.720000+09:00,2024,5,21,4,7,47,720,,,,,,,,,0.203613,0.007568,2.328369,120.97168,16.052246,-1.525879,,,,,,,,,,,0.0,1.0,1.0,3.0,0.0,0.0,0.0,4.0,0.0,,,,,,,11.49137199875183,12.931140517844483,-3.865973604933874,-9.371216981648903,-3.957445523915639,0.39566931772174646,10.180257216833526,,10.701140491121132,,,,,,,,,
LBP06_S03,LBP06,-1631,20,3,19,-1631,1716264467.76,2024-05-21 04:07:47.760000+00:00,2024-05-21 13:07:47.760000+09:00,2024,5,21,4,7,47,760,,,,,,,,,0.526367,-0.234375,1.820557,-119.934082,100.769043,14.770508,,,,,,,,,,,0.0,1.0,1.0,3.0,0.0,0.0,0.0,4.0,0.0,,,,,,,8.83079706349919,11.299923235792859,-5.959241754486915,-9.017985099108936,-3.5054485944839247,0.15729964754226985,9.676619671943145,,10.327955731964853,,,,,,,,,
LBP06_S03,LBP06,-1630,21,3,20,-1630,1716264467.8,2024-05-21 04:07:47.800000+00:00,2024-05-21 13:07:47.800000+09:00,2024,5,21,4,7,47,800,,,,,,,,,-0.469971,-0.494629,-0.265869,-139.221191,122.314453,43.579102,,,,,,,,,,,0.0,1.0,1.0,3.0,0.0,0.0,0.0,4.0,0.0,,,,,,,6.693081664662546,8.845188028795341,-9.375925861874821,-8.750261832522433,-3.1516410733321107,-0.21773738693272301,9.303081917433659,,9.995375311490331,,,,,,,,,
LBP06_S03,LBP06,-1629,22,3,21,-1629,1716264467.84,2024-05-21 04:07:47.840000+00:00,2024-05-21 13:07:47.840000+09:00,2024,5,21,4,7,47,840,,,,,,,,,0.536377,-0.522217,0.241211,134.887695,-89.477539,-27.954102,,,,,,,,,,,0.0,1.0,1.0,3.0,0.0,0.0,0.0,4.0,0.0,,,,,,,5.324504104280356,6.779468727256913,-13.993835499346362,-8.53728166835122,-2.8804623242418343,-0.7774908069065776,9.043601795798326,,9.786279969773323,,,,,,,,,
LBP06_S03,LBP06,-1628,23,3,22,-1628,1716264467.88,2024-05-21 04:07:47.880000+00:00,2024-05-21 13:07:47.880000+09:00,2024,5,21,4,7,47,880,,,,,,,,,0.141602,0.583008,0.372803,315.246582,-66.711426,-81.420898,,,,,,,,,,,0.0,1.0,1.0,3.0,0.0,0.0,0.0,4.0,0.0,,,,,,,4.171523115653235,6.214943964963984,-19.294550570979407,-8.37042074372509,-2.631864565643275,-1.5492728297457539,8.910157171445427,,9.772736261282931,,,,,,,,,
LBP06_S03,LBP06,-1627,24,3,23,-1627,1716264467.92,2024-05-21 04:07:47.920000+00:00,2024-05-21 13:07:47.920000+09:00,2024,5,21,4,7,47,920,,,,,,,,,0.631104,0.283203,1.12793,-110.046387,-99.79248,-29.11377,,,,,,,,,,,0.0,1.0,1.0,3.0,0.0,0.0,0.0,4.0,0.0,,,,,,,2.178512636640465,7.650591936527587,-24.482281841411123,-8.28328023825947,-2.3258408881821717,-2.528564103402199,8.967491498055299,,10.01184830089727,,,,,,,,,
LBP06_S03,LBP06,-1626,25,3,24,-1626,1716264467.96,2024-05-21 04:07:47.960000+00:00,2024-05-21 13:07:47.960000+09:00,2024,5,21,4,7,47,960,,,,,,,,,0.253906,-0.163818,1.4646,-317.565918,15.014648,43.334961,,,,,,,,,,,0.0,1.0,1.0,3.0,0.0,0.0,0.0,4.0,0.0,,,,,,,-1.9191925881563956,10.687117289183647,-28.659243044085034,-8.360047941785727,-1.898356196614826,-3.6749338251656005,9.327341339177416,,10.54771788704271,,,,,,,,,
LBP06_S03,LBP06,-1625,26,3,25,-1625,1716264468.0,2024-05-21 04:07:48+00:00,2024-05-21 13:07:48+09:00,2024,5,21,4,7,48,0,4.0,7.0,48.0,40.522751,141.58989,1.43,3.0,15.0,0.260742,-0.648193,1.962158,-22.460938,33.508301,-58.532715,-550.0,78.0,526.0,302.0,0.0,1025.699951,22.59,0.125853,-103.081947,3.817969,0.0,1.0,1.0,3.0,0.0,0.0,0.0,6.0,0.0,,,,,,,-9.334345690132036,14.162725368278224,-31.00027459464657,-8.733421769391008,-1.3318471818836968,-4.914944808951463,10.109557616088017,,11.414862755134028,,,,,,,,,
LBP06_S03,LBP06,-1624,27,3,26,-1624,1716264468.04,2024-05-21 04:07:48.040000+00:00,2024-05-21 13:07:48.040000+09:00,2024,5,21,4,7,48,40,,,,,,,,,0.347168,-0.45874,1.684814,107.788086,116.699219,-58.898926,,,,,,,,,,,0.0,1.0,1.0,3.0,0.0,0.0,0.0,6.0,0.0,,,,,,,-20.857757522590862,16.67163719186668,-30.90669481029947,-9.567732070294642,-0.6649816942090295,-6.151212601363442,11.393906884372457,,12.636185834442555,,,,,,,,,
LBP06_S03,LBP06,-1623,28,3,27,-1623,1716264468.08,2024-05-21 04:07:48.080000+00:00,2024-05-21 13:07:48.080000+09:00,2024,5,21,4,7,48,80,,,,,,,,,0.314453,-0.459229,1.15625,115.966797,123.657227,-17.822266,,,,,,,,,,,0.0,1.0,1.0,3.0,0.0,0.0,0.0,6.0,0.0,,,,,,,-36.331811581541174,17.20791595784918,-28.13262583325791,-11.02100453355629,0.02333494410493775,-7.276517634693758,13.20646789782544,,14.213792722241795,,,,,,,,,
LBP06_S03,LBP06,-1622,29,3,28,-1622,1716264468.12,2024-05-21 04:07:48.120000+00:00,2024-05-21 13:07:48.120000+09:00,2024,5,21,4,7,48,120,,,,,,,,,-0.460205,0.436035,-0.333252,-20.019531,15.075684,-3.540039,,,,,,,,,,,0.0,1.0,1.0,3.0,0.0,0.0,0.0,6.0,0.0,,,,,,,-54.19702826942379,15.607723102780657,-22.862721630578278,-13.188885664333242,0.647643868216164,-8.19102649991689,15.538953078287921,,16.11793943511588,,,,,,,,,
LBP06_S03,LBP06,-1621,30,3,29,-1621,1716264468.16,2024-05-21 04:07:48.160000+00:00,2024-05-21 13:07:48.160000+09:00,2024,5,21,4,7,48,160,,,,,,,,,0.505615,-0.739258,0.871338,-65.246582,-113.830566,-40.344238,,,,,,,,,,,0.0,1.0,1.0,3.0,0.0,0.0,0.0,6.0,0.0,,,,,,,-71.48040155426284,12.58324346680853,-15.714279184686841,-16.048101726503756,1.1509736068885053,-8.819597667304363,18.34806835285631,,18.281382007133672,,,,,,,,,
LBP06_S03,LBP06,-1620,31,3,30,-1620,1716264468.2,2024-05-21 04:07:48.200000+00:00,2024-05-21 13:07:48.200000+09:00,2024,5,21,4,7,48,200,,,,,,,,,0.588867,0.780518,1.085205,76.660156,16.784668,-52.978516,,,,,,,,,,,0.0,1.0,1.0,3.0,0.0,0.0,0.0,6.0,0.0,,,,,,,-84.43289690748495,9.37225286795368,-7.650096885576556,-19.425417602803154,1.5258637216066524,-9.125601542727425,21.516312710518946,,20.603074396915094,,,,,,,,,
LBP06_S03,LBP06,-1619,32,3,31,-1619,1716264468.24,2024-05-21 04:07:48.240000+00:00,2024-05-21 13:07:48.240000+09:00,2024,5,21,4,7,48,240,,,,,,,,,0.054932,-0.178223,1.713867,-355.46875,7.93457,51.330566,,,,,,,,,,,0.0,1.0,1.0,3.0,0.0,0.0,0.0,6.0,0.0,,,,,,,-89.68406506190398,7.216410137036198,0.19333936072443136,-23.012780205279313,1.8145201270881004,-9.117867968298448,24.8196706737907,,22.960413566330473,,,,,,,,,
LBP06_S03,LBP06,-1618,33,3,32,-1618,1716264468.28,2024-05-21 04:07:48.280000+00:00,2024-05-21 13:07:48.280000+09:00,2024,5,21,4,7,48,280,,,,,,,,,-0.219971,-0.456543,1.758301,-307.800293,-30.517578,10.986328,,,,,,,,,,,0.0,1.0,1.0,3.0,0.0,0.0,0.0,6.0,0.0,,,,,,,-85.46793907893216,6.9187613098739105,6.734394368756166,-26.4314977684366,2.091270579483057,-8.848492193548202,27.951624300186275,,25.22460801120282,,,,,,,,,
LBP06_S03,LBP06,-1617,34,3,33,-1617,1716264468.32,2024-05-21 04:07:48.320000+00:00,2024-05-21 13:07:48.320000+09:00,2024,5,21,4,7,48,320,,,,,,,,,0.837646,-1.94165,2.949951,-187.683105,-60.36377,1.098633,,,,,,,,,,,0.0,1.0,1.0,3.0,0.0,0.0,0.0,6.0,0.0,,,,,,,-72.33620387526155,8.636282438430268,11.171727639088134,-29.32494592344706,2.4367218770202674,-8.401623087984676,30.601917218233254,,27.270844459400433,-0.9130761924118506,,,,,,,,
LBP06_S03,LBP06,-1616,35,3,34,-1616,1716264468.36,2024-05-21 04:07:48.360000+00:00,2024-05-21 13:07:48.360000+09:00,2024,5,21,4,7,48,360,,,,,,,,,0.048584,-0.811523,1.07666,22.216797,148.986816,85.510254,,,,,,,,,,,0.0,1.0,1.0,3.0,0.0,0.0,0.0,6.0,0.0,,,,,,,-52.926240714752424,11.930197735572186,13.128273240124908,-31.441995552037156,2.913929786443155,-7.87649215837968,32.54426523699162,,28.979218237985396,-0.9226890325260506,,,,,,,,
LBP06_S03,LBP06,-1615,36,3,35,-1615,1716264468.4,2024-05-21 04:07:48.400000+00:00,2024-05-21 13:07:48.400000+09:00,2024,5,21,4,7,48,400,,,,,,,,,-0.172852,-0.23584,-0.0625,226.135254,75.378418,0.0,,,,,,,,,,,0.0,1.0,1.0,3.0,0.0,0.0,0.0,6.0,0.0,,,,,,,-30.80127428766728,15.986420749241375,12.655008364598386,-32.67404652354385,3.5533866164128103,-7.370291823795744,33.68294931024182,,30.232169407663555,-0.9267510729259909,,,,,,,,
LBP06_S03,LBP06,-1614,37,3,36,-1614,1716264468.44,2024-05-21 04:07:48.440000+00:00,2024-05-21 13:07:48.440000+09:00,2024,5,21,4,7,48,440,,,,,,,,,-0.125977,0.308838,0.470459,246.765137,-8.361816,-48.950195,,,,,,,,,,,0.0,1.0,1.0,3.0,0.0,0.0,0.0,6.0,0.0,,,,,,,-8.906745202103577,19.86248191878189,10.092741111889007,-33.03031633162799,4.347885893164086,-6.966582179320184,34.03585133309593,,30.918826381431376,-0.9340867783922593,,,,,,,,
LBP06_S03,LBP06,-1613,38,3,37,-1613,1716264468.48,2024-05-21 04:07:48.480000+00:00,2024-05-21 13:07:48.480000+09:00,2024,5,21,4,7,48,480,,,,,,,,,0.524658,0.101807,0.93457,-37.17041,-110.229492,-27.099609,,,,,,,,,,,0.0,1.0,1.0,3.0,0.0,0.0,0.0,6.0,0.0,0.20864912,-0.27415036,1.0029166666666667,4.881184906666668,2.9736327866666663,-6.528320346666666,11.562278028582632,22.655194203641262,5.861378122831735,-32.567825210484685,5.254093661309736,-6.732127054406915,33.66883237980157,-0.9130761924118506,30.95263026283903,-0.9350309988341232,0.31600887999999994,0.37595735999999996,-0.06834666666666667,0.7603129066666666,0.4958596733164216,0.4958596733164216,0.4958596733164216,0.4958596733164216
LBP06_S03,LBP06,-1612,39,3,38,-1612,1716264468.52,2024-05-21 04:07:48.520000+00:00,2024-05-21 13:07:48.520000+09:00,2024,5,21,4,7,48,520,,,,,,,,,0.47168,-0.015381,1.397949,-33.203125,23.376465,9.338379,,,,,,,,,,,0.0,1.0,1.0,3.0,0.0,0.0,0.0,6.0,0.0,0.21001956,-0.28787105333333335,1.0317285066666666,5.270182306666668,3.1534830400000002,-6.98323572,31.308871026515682,23.59979152477885,0.2908756641263429,-31.31547036942406,6.19808532230089,-6.720492027841861,32.62269086413755,-0.9323018726402507,30.303309770632882,-0.930321491400298,0.26166044,0.27249005333333337,0.3662204933333335,0.9003709866666669,0.5261506103426153,0.5110051418295185,0.5110051418295185,0.5110051418295185
LBP06_S03,LBP06,-1611,40,3,39,-1611,1716264468.56,2024-05-21 04:07:48.560000+00:00,2024-05-21 13:07:48.560000+09:00,2024,5,21,4,7,48,560,,,,,,,,,0.095215,-0.898193,1.921143,-92.773438,41.809082,-8.239746,,,,,,,,,,,0.0,1.0,1.0,3.0,0.0,0.0,0.0,6.0,0.0,0.20453453333333332,-0.28170567999999996,1.0337304666666667,7.466634133333334,6.944986946666666,-5.6665039466666665,52.07516069544853,22.192836395413206,-6.414362440141314,-29.232463941606117,7.085798778117418,-6.977066525447514,30.87758004963783,-0.9348751537258713,29.044640803433374,-0.9286591979888621,-0.10931953333333333,-0.6164873200000001,0.8874125333333334,1.6132193866666666,1.0860517392859719,0.7026873409816696,0.7026873409816696,0.7026873409816696
LBP06_S03,LBP06,-1610,41,3,40,-1610,1716264468.6,2024-05-21 04:07:48.600000+00:00,2024-05-21 13:07:48.600000+09:00,2024,5,21,4,7,48,600,,,,,,,,,0.117676,-0.119629,1.267578,-12.390137,78.369141,17.76123,,,,,,,,,,,0.0,1.0,1.0,3.0,0.0,0.0,0.0,6.0,0.0,0.19809248,-0.2860578933333333,1.02299804,7.399088560000002,6.063639293333334,-5.70312504,75.2730118624167,18.381472730646394,-14.070238234100993,-26.22154346710945,7.821057687343274,-7.539876054811553,28.382882448197226,-0.9560938947910648,27.40824226665036,-0.9277007463298269,-0.08041647999999998,0.16642889333333333,0.24457996000000004,0.4914253333333334,0.306569312921809,0.6036578339667045,0.6036578339667045,0.6036578339667045
LBP06_S03,LBP06,-1609,42,3,41,-1609,1716264468.64,2024-05-21 04:07:48.640000+00:00,2024-05-21 13:07:48.640000+09:00,2024,5,21,4,7,48,640,,,,,,,,,-0.000244,-1.042969,0.789551,-17.211914,103.881836,22.766113,,,,,,,,,,,0.0,1.0,1.0,3.0,0.0,0.0,0.0,6.0,0.0,0.19702802666666666,-0.27365554666666664,1.0091178266666667,9.994303413333336,4.739583306666667,-5.533040399999999,100.79187330876596,12.727797417920668,-22.347169845331628,-22.18986853475881,8.3301695840601,-8.433762848624818,25.157709487867198,-0.9388078806015785,25.751087425419353,-0.9264328507192681,-0.19727202666666666,-0.7693134533333335,-0.21956682666666671,1.1861523066666668,0.8239957726574227,0.647725421704848,0.647725421704848,0.647725421704848
LBP06_S03,LBP06,-1608,43,3,42,-1608,1716264468.68,2024-05-21 04:07:48.680000+00:00,2024-05-21 13:07:48.680000+09:00,2024,5,21,4,7,48,680,,,,,,,,,-0.184814,0.176514,-0.383301,294.98291,46.936035,-53.405762,,,,,,,,,,,0.0,1.0,1.0,3.0,0.0,0.0,0.0,6.0,0.0,0.21222009333333333,-0.27506830666666665,1.0080924400000002,10.310058626666669,4.060872373333333,-5.813802119999999,126.49556689660605,6.379926011571091,-30.657444051594144,-17.130045858894565,8.585366624522944,-9.660060610688584,21.458419378124763,-0.9067739542311721,24.369902081380346,-0.9268265768939677,-0.39703409333333334,0.45158230666666666,-1.3913934400000003,2.2400098400000004,1.5157632914932475,0.7923984000029147,0.7923984000029147,0.7923984000029147
LBP06_S03,LBP06,-1607,44,3,43,-1607,1716264468.72,2024-05-21 04:07:48.720000+00:00,2024-05-21 13:07:48.720000+09:00,2024,5,21,4,7,48,720,,,,,,,,,-0.039795,0.237305,0.020752,158.691406,-78.125,-35.949707,,,,,,,,,,,0.0,1.0,1.0,3.0,0.0,0.0,0.0,6.0,0.0,0.20881189333333333,-0.2778319733333333,1.00151692,8.463541693333335,2.7652994533333333,-5.520019573333333,148.54830033165695,0.7499011314872992,-38.17470175449616,-11.188113845628287,8.615362669782437,-11.18704868086843,18.015227546238215,-0.9186854375202466,23.394529100690853,-0.9311152611191952,-0.24860689333333333,0.5151369733333333,-0.98076492,1.7445087866666666,1.1353727656635442,0.8413947379544331,0.8413947379544331,0.8413947379544331
LBP06_S03,LBP06,-1606,45,3,44,-1606,1716264468.76,2024-05-21 04:07:48.760000+00:00,2024-05-21 13:07:48.760000+09:00,2024,5,21,4,7,48,760,,,,,,,,,0.536865,-0.222412,0.555908,105.285645,-138.000488,-48.156738,,,,,,,,,,,0.0,1.0,1.0,3.0,0.0,0.0,0.0,6.0,0.0,0.21206709333333335,-0.28348302666666664,1.0325716,8.635253933333335,2.1476236666666666,-5.358072946666667,162.3691745702456,-3.0186863813559053,-43.98976071109238,-4.693346862818463,8.494615214528201,-12.946639109312127,16.180279869161478,-0.920991584716581,22.828953180874684,-0.9333482638119376,0.3247979066666667,0.06107102666666664,-0.4766636000000001,0.8625325333333334,0.5800271873267059,0.8087237941259673,0.8087237941259673,0.8087237941259673
LBP06_S03,LBP06,-1605,46,3,45,-1605,1716264468.8,2024-05-21 04:07:48.800000+00:00,2024-05-21 13:07:48.800000+09:00,2024,5,21,4,7,48,800,,,,,,,,,0.412842,-0.229492,0.735352,219.848633,-38.818359,-72.08252,,,,,,,,,,,0.0,1.0,1.0,3.0,0.0,0.0,0.0,6.0,0.0,0.21673506666666667,-0.2867805466666667,1.0461393066666667,5.635579453333335,3.629557253333333,-4.353027373333333,163.85445570387563,-4.5385589642395905,-47.33786912313213,1.860831365336562,8.313072855958618,-14.840153874237412,17.111400897931766,-0.9162896858347959,22.61805081650859,-0.9327538362141968,0.19610693333333332,0.05728854666666669,-0.31078730666666665,0.5641827866666667,0.371925606628132,0.7601906621817633,0.7601906621817633,0.7601906621817633
LBP06_S03,LBP06,-1604,47,3,46,-1604,1716264468.84,2024-05-21 04:07:48.840000+00:00,2024-05-21 13:07:48.840000+09:00,2024,5,21,4,7,48,840,,,,,,,,,0.29834,-0.151123,0.901611,174.804688,22.033691,-60.48584,,,,,,,,,,,0.0,1.0,1.0,3.0,0.0,0.0,0.0,6.0,0.0,0.20819666666666667,-0.2839680533333333,1.0407259066666668,12.448730493333336,9.366861946666667,-3.3951823199999995,150.52482297403873,-4.342066644131083,-47.80194349279833,7.881824284298111,8.139390190193375,-16.752231613949345,20.223997892705867,-0.9303701124662671,22.699941091823796,-0.9287010136592994,0.09014333333333333,0.1328450533333333,-0.1391149066666667,0.36210329333333335,0.21243019087798232,0.7054146150513853,0.7054146150513853,0.7054146150513853
LBP06_S03,LBP06,-1603,48,3,47,-1603,1716264468.88,2024-05-21 04:07:48.880000+00:00,2024-05-21 13:07:48.880000+09:00,2024,5,21,4,7,48,880,,,,,,,,,0.207764,-0.732422,1.590576,171.99707,18.676758,-85.327148,,,,,,,,,,,0.0,1.0,1.0,3.0,0.0,0.0,0.0,6.0,0.0,0.19803390666666665,-0.28580073333333333,1.0307324133333333,11.356608093333335,8.221028613333333,-3.859863306666667,122.34187691456242,-3.6001603725004787,-45.408993882767874,12.775499360880609,7.995383775293355,-18.56859136926006,23.91510257290661,-0.955963034664124,23.037817241526856,-0.9239917069288272,0.009730093333333356,-0.4466212666666667,0.5598435866666667,1.0161949466666667,0.7162332525700065,0.7063981275530781,0.7063981275530781,0.7063981275530781
LBP06_S03,LBP06,-1602,49,3,48,-1602,1716264468.92,2024-05-21 04:07:48.920000+00:00,2024-05-21 13:07:48.920000+09:00,2024,5,21,4,7,48,920,,,,,,,,,0.276367,-0.360352,1.302246,80.322266,40.283203,-10.803223,,,,,,,,,,,0.0,1.0,1.0,3.0,0.0,0.0,0.0,6.0,0.0,0.19394210666666667,-0.2789875733333333,1.0150162666666664,15.72265626666667,6.615397106666667,-4.361165386666666,82.02260214278328,-3.5208777467108625,-40.583057173944354,16.05640344659194,7.854548665424921,-20.19191365621783,26.966931665975906,-0.9546318995676736,23.621238464173402,-0.9222186292248278,0.0824248933333333,-0.08136442666666671,0.28722973333333357,0.4510190533333336,0.30970139276171277,0.6733400663204643,0.6733400663204643,0.6733400663204643
LBP06_S03,LBP06,-1601,50,3,49,-1601,1716264468.96,2024-05-21 04:07:48.960000+00:00,2024-05-21 13:07:48.960000+09:00,2024,5,21,4,7,48,960,,,,,,,,,0.106445,-0.129395,0.878906,-15.014648,131.591797,49.804688,,,,,,,,,,,0.0,1.0,1.0,3.0,0.0,0.0,0.0,6.0,0.0,0.19785812000000003,-0.26894852,0.9946516799999998,16.366373720000002,5.751953093333334,-3.9534505333333336,34.7734698380122,-4.724276041734675,-33.984933777674215,17.447342240112427,7.665577623755534,-21.5513110073248,28.768556405976856,-0.9289308777484648,24.42219609689674,-0.9234279547727938,-0.09141312000000003,0.13955352000000001,-0.11574567999999985,0.3467123199999999,0.20304828463000413,0.6371637754211981,0.6371637754211981,0.6371637754211981
LBP06_S03,LBP06,-1600,51,3,50,-1600,1716264469.0,2024-05-21 04:07:49+00:00,2024-05-21 13:07:49+09:00,2024,5,21,4,7,49,0,4.0,7.0,49.0,40.522823,141.58992,2.509,3.0,15.0,-0.337402,0.088135,-0.319336,69.946289,15.258789,-36.010742,-551.0,54.0,535.0,451.0,0.0,1025.599976,22.629999,0.124863,-102.258217,3.817969,1.0,1.0,1.0,3.0,0.0,0.0,0.0,4.0,0.0,0.19749028,-0.26067052,0.9812662533333332,17.090657573333335,4.65006508,-3.561197933333333,-12.522628201214506,-6.906926014973069,-26.328256520147388,16.946437112063848,7.389300583156611,-22.604441268130692,29.20178520134931,-0.9155656692420902,25.312167395870993,-0.9262752723742272,-0.53489228,0.34880552000000004,-1.3006022533333332,2.184300053333333,1.4489103710588218,0.6951456751095998,0.6951456751095998,0.6951456751095998
LBP06_S03,LBP06,-1599,52,3,51,-1599,1716264469.04,2024-05-21 04:07:49.040000+00:00,2024-05-21 13:07:49.040000+09:00,2024,5,21,4,7,49,40,,,,,,,,,0.058105,0.125732,0.216064,-15.869141,-63.720703,-45.532227,,,,,,,,,,,1.0,1.0,1.0,3.0,0.0,0.0,0.0,4.0,0.0,0.20455408,-0.2563410933333333,0.9955175466666666,14.257812533333336,2.967936173333334,-3.3178711066666664,-52.535888438083404,-8.971007846756551,-18.26745442612145,14.845001574540511,7.030460269286349,-23.33513944517555,28.536470984897765,-0.8917148132968553,26.05074231877373,-0.9264348565210584,-0.14644908,0.38207309333333334,-0.7794535466666666,1.30797572,0.8803266513592518,0.7074910735262433,0.7074910735262433,0.7074910735262433
LBP06_S03,LBP06,-1598,53,3,52,-1598,1716264469.08,2024-05-21 04:07:49.080000+00:00,2024-05-21 13:07:49.080000+09:00,2024,5,21,4,7,49,80,,,,,,,,,0.606689,-0.040527,0.631348,-96.862793,-154.11377,-65.429688,,,,,,,,,,,1.0,1.0,1.0,3.0,0.0,0.0,0.0,4.0,0.0,0.20634769333333336,-0.25703119999999996,1.0141926799999998,10.937500026666669,4.145507786666667,-2.8361002799999997,-78.9381728776069,-9.560455786374678,-10.388204716088122,11.687474659436235,6.648042037831362,-23.750667633819074,27.29263160459024,-0.8890431771911804,26.4433995624368,-0.9238202413392014,0.4003413066666667,0.21650419999999995,-0.3828446799999998,0.9996901866666664,0.5947413550826244,0.7004442161235171,0.7004442161235171,0.7004442161235171
LBP06_S03,LBP06,-1597,54,3,53,-1597,1716264469.12,2024-05-21 04:07:49.120000+00:00,2024-05-21 13:07:49.120000+09:00,2024,5,21,4,7,49,120,,,,,,,,,0.320557,0.232422,0.844727,-134.460449,0.366211,6.347656,,,,,,,,,,,1.0,1.0,1.0,3.0,0.0,0.0,0.0,4.0,0.0,0.20030277333333332,-0.2733528133333334,1.01235024,6.511230493333335,7.049153613333335,-1.983235693333333,-87.80689006972561,-7.732121657942585,-3.24497913962554,8.17519905664721,6.338757171513659,-23.880466799404097,26.024803873471605,-0.9307786929999057,26.449886290294263,-0.9180417524265104,0.12025422666666666,0.5057748133333334,-0.16762323999999995,0.79365228,0.5462296141932108,0.6913727689511462,0.6913727689511462,0.6913727689511462
LBP06_S03,LBP06,-1596,55,3,54,-1596,1716264469.16,2024-05-21 04:07:49.160000+00:00,2024-05-21 13:07:49.160000+09:00,2024,5,21,4,7,49,160,,,,,,,,,0.094971,-0.557129,1.495605,-338.439941,-24.658203,27.832031,,,,,,,,,,,1.0,1.0,1.0,3.0,0.0,0.0,0.0,4.0,0.0,0.1888542,-0.26852534666666666,0.9852376133333333,9.635416693333337,7.85725908,-1.6739909066666667,-78.63963381035661,-3.4229439560812334,2.6389882436332393,5.029613704232946,6.2018394132704096,-23.77490726965877,25.079992858903996,-0.9494647607309161,26.160290434223594,-0.9115375351373836,-0.0938832,-0.2886036533333333,0.5103673866666668,0.8928542400000001,0.5937853091248972,0.6859512434052434,0.6859512434052434,0.6859512434052434
LBP06_S03,LBP06,-1595,56,3,55,-1595,1716264469.2,2024-05-21 04:07:49.200000+00:00,2024-05-21 13:07:49.200000+09:00,2024,5,21,4,7,49,200,,,,,,,,,0.325439,-1.228271,1.954102,-136.230469,-55.419922,-16.601562,,,,,,,,,,,1.0,1.0,1.0,3.0,0.0,0.0,0.0,4.0,0.0,0.18890302666666667,-0.25043940000000003,0.9626627333333333,11.817220080000002,5.667317666666667,-1.4884440266666668,-54.60940695490289,2.5031672285624755,6.8459740632710036,2.8452374260368307,6.3019661024129086,-23.50106830712793,24.497150126959156,-0.9178855273031074,25.73735076355124,-0.9093497667156436,0.1365359733333333,-0.9778315999999998,0.9914392666666667,2.1058068399999996,1.3991956723279193,0.723490423874858,0.723490423874858,0.723490423874858
LBP06_S03,LBP06,-1594,57,3,56,-1594,1716264469.24,2024-05-21 04:07:49.240000+00:00,2024-05-21 13:07:49.240000+09:00,2024,5,21,4,7,49,240,,,,,,,,,0.402344,-1.055908,1.422607,79.89502,119.934082,59.265137,,,,,,,,,,,1.0,1.0,1.0,3.0,0.0,0.0,0.0,4.0,0.0,0.19365237333333332,-0.24944655999999998,0.9393912533333334,10.590006533333336,3.1974283466666678,-1.2874349066666666,-21.836266084882677,8.619828050760859,9.17630787268958,1.9717867826415236,6.646759224443343,-23.13401599222035,24.150570329336514,-0.9042239606476958,25.353719175150765,-0.9114846697246151,0.20869162666666666,-0.8064614400000001,0.48321574666666656,1.4983688133333333,0.963031519252759,0.7354674786437531,0.7354674786437531,0.7354674786437531
LBP06_S03,LBP06,-1593,58,3,57,-1593,1716264469.28,2024-05-21 04:07:49.280000+00:00,2024-05-21 13:07:49.280000+09:00,2024,5,21,4,7,49,280,,,,,,,,,-0.532471,0.054932,-0.542236,228.393555,186.462402,27.282715,,,,,,,,,,,1.0,1.0,1.0,3.0,0.0,0.0,0.0,4.0,0.0,0.19582360000000001,-0.24903314666666665,0.9322851333333333,11.21093752,1.3468424133333345,-0.9659830800000001,12.200551115023876,13.506937924416402,9.72552483912968,2.4598088272424787,7.187036741419999,-22.744994998655162,23.979969851481243,-0.8981781455372145,25.1356614494675,-0.9203165153935116,-0.7282946,0.30396514666666663,-1.4745211333333335,2.50678088,1.672429492511976,0.7800847173993827,0.7800847173993827,0.7800847173993827
LBP06_S03,LBP06,-1592,59,3,58,-1592,1716264469.32,2024-05-21 04:07:49.320000+00:00,2024-05-21 13:07:49.320000+09:00,2024,5,21,4,7,49,320,,,,,,,,,0.138184,0.225098,0.304443,140.380859,-52.307129,0.549316,,,,,,,,,,,1.0,1.0,1.0,3.0,0.0,0.0,0.0,4.0,0.0,0.20499026666666664,-0.25592442666666665,0.96098956,12.080078133333336,0.14567053333333452,-1.4982096533333333,40.59276434542001,16.235204175942968,8.866697975817901,4.083519401059279,7.836444908457718,-22.390327079622445,24.07097310526923,-0.8895897266764049,25.130794522644305,-0.9292177820995311,-0.06680626666666664,0.4810224266666666,-0.65654656,1.2043752533333332,0.8166388661275313,0.7817462696142985,0.7817462696142985,0.7817462696142985
LBP06_S03,LBP06,-1591,60,3,59,-1591,1716264469.36,2024-05-21 04:07:49.360000+00:00,2024-05-21 13:07:49.360000+09:00,2024,5,21,4,7,49,360,,,,,,,,,0.451416,0.134766,0.954834,131.103516,-113.830566,-43.09082,,,,,,,,,,,1.0,1.0,1.0,3.0,0.0,0.0,0.0,4.0,0.0,0.19964195999999998,-0.25864252000000004,0.9863443733333332,9.72249350666667,1.934407506666668,-0.7967122533333332,58.58719536009929,16.556691698362446,7.130464634790826,6.4270072154632505,8.498712576392215,-22.105108494230812,24.539159699253336,-0.9070531935310646,25.310445804013,-0.9306328082571967,0.25177404000000003,0.39340852000000004,-0.031510373333333286,0.6766929333333334,0.4681381574429904,0.7681111343025026,0.7681111343025026,0.7681111343025026
LBP06_S03,LBP06,-1590,61,3,60,-1590,1716264469.4,2024-05-21 04:07:49.400000+00:00,2024-05-21 13:07:49.400000+09:00,2024,5,21,4,7,49,400,,,,,,,,,0.718018,-0.005127,1.290283,-81.848145,32.714844,5.92041,,,,,,,,,,,1.0,1.0,1.0,3.0,0.0,0.0,0.0,4.0,0.0,0.20017906666666666,-0.27703120000000003,1.00583656,6.510416680000003,5.2148437066666675,1.3582356533333333,64.32868115596624,14.792145384127606,5.037017565291177,9.0001544617019,9.090398391757319,-21.903627791619165,25.36546931734456,-0.936914699331805,25.603292493359493,-0.9318184622439107,0.5178389333333334,0.27190420000000004,0.28444643999999997,1.0741895733333333,0.6503836037924988,0.7632058205312524,0.7632058205312524,0.7632058205312524
LBP06_S03,LBP06,-1589,62,3,61,-1589,1716264469.44,2024-05-21 04:07:49.440000+00:00,2024-05-21 13:07:49.440000+09:00,2024,5,21,4,7,49,440,,,,,,,,,-0.109619,-1.158691,1.951416,-52.734375,17.63916,-12.512207,,,,,,,,,,,1.0,1.0,1.0,3.0,0.0,0.0,0.0,4.0,0.0,0.18324221333333335,-0.2791926533333333,0.9855924133333334,9.19270834666667,8.220214800000003,2.2534179466666666,58.696350505336085,11.579918743922574,2.9665941649449845,11.348008481915343,9.553595141514222,-21.784964025021367,26.355893728065112,-0.9800332699858216,25.939062742634256,-0.9374189862583375,-0.29286121333333337,-0.8794983466666666,0.9658235866666667,2.1381831466666665,1.3386934797130134,0.7862253268985228,0.7862253268985228,0.7862253268985228
LBP06_S03,LBP06,-1588,63,3,62,-1588,1716264469.48,2024-05-21 04:07:49.480000+00:00,2024-05-21 13:07:49.480000+09:00,2024,5,21,4,7,49,480,,,,,,,,,0.31958,-0.697021,2.134766,20.080566,-32.653809,-7.385254,,,,,,,,,,,1.0,1.0,1.0,3.0,0.0,0.0,0.0,4.0,0.0,0.18287112,-0.2775064666666666,0.9706900666666667,13.916015640000001,6.618652306666667,1.4721679466666668,44.54711041489538,7.665092557350469,1.1308422617005351,13.129892898511159,9.860198843808242,-21.739730334553347,27.243962336358308,-0.9780558442513754,26.27310981371638,-0.9428643889293292,0.13670887999999998,-0.4195145333333334,1.1640759333333333,1.7202993466666667,1.2448913768335814,0.8161865950392092,0.803866328819102,0.803866328819102
LBP06_S03,LBP06,-1587,64,3,63,-1587,1716264469.52,2024-05-21 04:07:49.520000+00:00,2024-05-21 13:07:49.520000+09:00,2024,5,21,4,7,49,520,,,,,,,,,0.282471,-0.310303,1.215576,68.664551,132.8125,80.26123,,,,,,,,,,,1.0,1.0,1.0,3.0,0.0,0.0,0.0,4.0,0.0,0.1925456,-0.27141597333333334,0.9607421466666667,13.116048200000002,4.605305946666667,1.8139648266666666,25.793344471809455,3.7881823249002236,-0.3583596231044098,14.161626677383538,10.011726136804251,-21.754064719477523,27.821316687158557,-0.9449289545765633,26.581345368584703,-0.950124633976672,0.08992540000000002,-0.03888702666666666,0.2548338533333333,0.38364628,0.27301844482168025,0.8060613084183719,0.7842052960784568,0.7842052960784568
LBP06_S03,LBP06,-1586,65,3,64,-1586,1716264469.56,2024-05-21 04:07:49.560000+00:00,2024-05-21 13:07:49.560000+09:00,2024,5,21,4,7,49,560,,,,,,,,,-0.428955,0.136963,-0.386719,131.347656,29.846191,-12.084961,,,,,,,,,,,1.0,1.0,1.0,3.0,0.0,0.0,0.0,4.0,0.0,0.19153974666666665,-0.28031572,0.9578580400000001,9.645996120000003,4.211425733333335,2.9882812400000005,6.590659104398993,0.6157413064604094,-1.3876957909640375,14.425253041559497,10.036355789062668,-21.809572551116084,28.008459752368914,-0.9613213005980539,26.841881067433775,-0.9604693386676135,-0.6204947466666666,0.41727872,-1.3445770400000001,2.3823505066666666,1.5385131384882391,0.8241597643864624,0.8111448618788061,0.8111448618788061
LBP06_S03,LBP06,-1585,66,3,65,-1585,1716264469.6,2024-05-21 04:07:49.600000+00:00,2024-05-21 13:07:49.600000+09:00,2024,5,21,4,7,49,600,,,,,,,,,0.152832,0.108154,0.301514,-36.071777,-109.619141,-14.099121,,,,,,,,,,,1.0,1.0,1.0,3.0,0.0,0.0,0.0,4.0,0.0,0.1884049866666667,-0.28354813333333334,0.9686002266666666,10.200195333333335,2.867024680000001,2.5,-9.317769040493799,-1.365949977136321,-1.789124638092733,14.052542279939745,9.981717789977216,-21.881137536639795,27.854852619706836,-0.9738907674473753,27.026742592666018,-0.9683813083929721,-0.035572986666666695,0.39170213333333337,-0.6670862266666666,1.0943613466666666,0.7744030168114291,0.8428731125420472,0.8098779017040689,0.8098779017040689
LBP06_S03,LBP06,-1584,67,3,66,-1584,1716264469.64,2024-05-21 04:07:49.640000+00:00,2024-05-21 13:07:49.640000+09:00,2024,5,21,4,7,49,640,,,,,,,,,0.884766,-0.367188,1.370605,-2.441406,-65.063477,-41.748047,,,,,,,,,,,1.0,1.0,1.0,3.0,0.0,0.0,0.0,4.0,0.0,0.20215824,-0.29418941333333337,1.0003645466666669,10.200195333333335,3.2055663466666675,3.1152343733333336,-19.160766109973608,-1.9969538801599735,-1.3727302819673393,13.2861116355408,9.901839634770816,-21.93604674791849,27.49104104015772,-0.9586779873576136,27.11190737103941,-0.9697379183579757,0.68260776,-0.07299858666666664,0.3702404533333332,1.1258468,0.7799744489097195,0.8411122595921391,0.8088811199442573,0.8088811199442573
LBP06_S03,LBP06,-1583,68,3,67,-1583,1716264469.68,2024-05-21 04:07:49.680000+00:00,2024-05-21 13:07:49.680000+09:00,2024,5,21,4,7,49,680,,,,,,,,,0.129395,-0.237793,1.231445,-209.04541,35.217285,44.98291,,,,,,,,,,,1.0,1.0,1.0,3.0,0.0,0.0,0.0,4.0,0.0,0.19264326666666667,-0.28791012,0.9844791333333333,12.255859400000002,6.272786400000001,4.576822906666667,-21.59522923072782,-1.536129558785613,-0.01843258868354128,12.422302466311688,9.840394452419392,-21.936784051465832,27.062325400164443,-0.9707805960106421,27.09401398363019,-0.9660698314845965,-0.06324826666666666,0.05011711999999999,0.24696586666666664,0.36033125333333327,0.2598157197935682,0.790874356724152,0.7911693328426221,0.7911693328426221
LBP06_S03,LBP06,-1582,69,3,68,-1582,1716264469.72,2024-05-21 04:07:49.720000+00:00,2024-05-21 13:07:49.720000+09:00,2024,5,21,4,7,49,720,,,,,,,,,0.105225,-0.956055,2.001221,-60.180664,-4.150391,-42.114258,,,,,,,,,,,1.0,1.0,1.0,3.0,0.0,0.0,0.0,4.0,0.0,0.18480473333333333,-0.2907096,0.9681477599999999,12.426757840000002,5.6249999466666685,5.355631506666666,-16.922110534718808,-0.5939141002912416,2.2366175319342023,11.745418044922936,9.816637888407742,-21.847319350188464,26.676330093759955,-0.9930367735858224,26.997994093769098,-0.9612369108124774,-0.07957973333333333,-0.6653454,1.0330732400000002,1.7779983733333335,1.231364184334863,0.7947140134710048,0.8049254219517548,0.8049254219517548
LBP06_S03,LBP06,-1581,70,3,69,-1581,1716264469.76,2024-05-21 04:07:49.760000+00:00,2024-05-21 13:07:49.760000+09:00,2024,5,21,4,7,49,760,,,,,,,,,0.296875,-0.953857,2.02124,34.851074,32.104492,6.347656,,,,,,,,,,,1.0,1.0,1.0,3.0,0.0,0.0,0.0,4.0,0.0,0.19035485333333332,-0.2952799066666667,0.9537174266666667,15.714518253333335,2.7596028133333346,4.878743493333333,-6.899480518523415,0.10347498763060528,5.166012399381183,11.469438824182,9.820776887912967,-21.640678854213217,26.387774951575775,-0.9861728907846493,26.871185111171684,-0.9593496672580558,0.10652014666666668,-0.6585770933333333,1.0675225733333336,1.8326198133333333,1.2588386608638507,0.8218664724124904,0.8186803685854546,0.8186803685854546
LBP06_S03,LBP06,-1580,71,3,70,-1580,1716264469.8,2024-05-21 04:07:49.800000+00:00,2024-05-21 13:07:49.800000+09:00,2024,5,21,4,7,49,800,,,,,,,,,-0.342285,-0.379883,0.017334,114.746094,114.257812,36.682129,,,,,,,,,,,1.0,1.0,1.0,3.0,0.0,0.0,0.0,4.0,0.0,0.20279301333333333,-0.29038733333333333,0.9429166399999999,22.4112956,3.4488931733333343,4.5589192800000005,5.863189919085837,0.007620935715243141,8.393304463542563,11.703966420945433,9.821081725341577,-21.304946675671513,26.217117101078507,-0.9504807989818407,26.76947623955067,-0.9560483569263732,-0.5450780133333333,-0.0894956666666667,-0.9255826399999999,1.56015632,1.0778788143575762,0.8501046007216684,0.8263038522846347,0.8263038522846347
LBP06_S03,LBP06,-1579,72,3,71,-1579,1716264469.84,2024-05-21 04:07:49.840000+00:00,2024-05-21 13:07:49.840000+09:00,2024,5,21,4,7,49,840,,,,,,,,,0.115723,0.863525,0.056885,196.166992,-50.109863,-8.544922,,,,,,,,,,,1.0,1.0,1.0,3.0,0.0,0.0,0.0,4.0,0.0,0.1924609866666667,-0.27080074666666665,0.9184830533333334,23.04687502666667,5.109049426666667,4.5296224,18.716884094193826,-1.0505322788413773,11.486138976517468,12.452641784713185,9.77906043418792,-20.845501116610812,26.176959853972864,-0.9433524012520275,26.74313972682495,-0.9530687688115755,-0.07673798666666669,1.1343257466666667,-0.8615980533333334,2.072661786666667,1.4265114172891622,0.8986678497781155,0.8434526398561926,0.8434526398561926
LBP06_S03,LBP06,-1578,73,3,72,-1578,1716264469.88,2024-05-21 04:07:49.880000+00:00,2024-05-21 13:07:49.880000+09:00,2024,5,21,4,7,49,880,,,,,,,,,0.562256,-0.268066,0.806885,-154.174805,-174.01123,37.780762,,,,,,,,,,,1.0,1.0,1.0,3.0,0.0,0.0,0.0,4.0,0.0,0.19494470666666666,-0.265957,0.92823892,25.362955760000002,3.652343706666668,2.51546224,29.6551669893569,-2.8323096670931394,14.068153302980189,13.638848464287461,9.665768047504194,-20.282774984491606,26.283763437747417,-0.9297266375301867,26.827881979747826,-0.9523562799723937,0.36731129333333334,-0.0021090000000000275,-0.12135392,0.4907742133333334,0.3868446819985671,0.8854923069552579,0.8307690854712585,0.8307690854712585
LBP06_S03,LBP06,-1577,74,3,73,-1577,1716264469.92,2024-05-21 04:07:49.920000+00:00,2024-05-21 13:07:49.920000+09:00,2024,5,21,4,7,49,920,,,,,,,,,0.744629,-0.040771,1.311035,86.914062,105.163574,33.447266,,,,,,,,,,,1.0,1.0,1.0,3.0,0.0,0.0,0.0,4.0,0.0,0.19801437333333333,-0.2679133733333333,0.9434765466666666,21.210123733333333,3.9746093333333343,2.711588546666667,37.625217679435345,-4.7997746778495864,15.90685382498704,15.143857171464875,9.47377706039021,-19.646500831492126,26.5532268611844,-0.9260565190323454,27.043258822625194,-0.9462285965710672,0.5466146266666667,0.22714237333333331,0.36755845333333337,1.1413154533333334,0.6967642531489622,0.9009748213707479,0.8271473332463316,0.8271473332463316
LBP06_S03,LBP06,-1576,75,3,74,-1576,1716264469.96,2024-05-21 04:07:49.960000+00:00,2024-05-21 13:07:49.960000+09:00,2024,5,21,4,7,49,960,,,,,,,,,-0.036377,-0.750488,1.789795,-42.602539,34.179688,-17.333984,,,,,,,,,,,1.0,1.0,1.0,3.0,0.0,0.0,0.0,4.0,0.0,0.19739589333333335,-0.26853512,0.9308300666666668,19.529622426666666,5.3190103733333345,3.8647460933333333,42.459938869678915,-6.262345798325259,16.950270948627022,16.84225472625203,9.2232832284572,-18.968489993547045,26.991371036158817,-0.9283081972812292,27.396766470401182,-0.9377045925272164,-0.23377289333333334,-0.48195288000000003,0.8589649333333332,1.5746907066666664,1.0122989187458762,0.9333448467353829,0.8320197433910564,0.8320197433910564
LBP06_S03,LBP06,-1575,76,3,75,-1575,1716264470.0,2024-05-21 04:07:50+00:00,2024-05-21 13:07:50+09:00,2024,5,21,4,7,50,0,4.0,7.0,50.0,40.522907,141.589981,2.419,3.0,15.0,0.137207,-0.915527,2.306152,21.789551,-62.011719,-20.202637,-550.0,54.0,534.0,397.0,0.0,1026.5,22.700001,0.133782,-109.671402,3.817969,0.0,1.0,1.0,3.0,0.0,0.0,0.0,4.0,0.0,0.19070318666666666,-0.26867836,0.9188150933333332,19.025878933333335,5.284830680000002,4.62809244,44.6034389226948,-6.507646223446748,17.31187157357211,18.62639228315982,8.96297737951933,-18.27601513060416,27.591487492449605,-0.9440948862993985,27.889037143381785,-0.9291633668641662,-0.05349618666666667,-0.64684864,1.3873369066666668,2.0876817333333335,1.5316588058889486,0.9366547841285879,0.849959206532028,0.849959206532028
LBP06_S03,LBP06,-1574,77,3,76,-1574,1716264470.04,2024-05-21 04:07:50.040000+00:00,2024-05-21 13:07:50.040000+09:00,2024,5,21,4,7,50,40,,,,,,,,,0.078369,0.13501,0.847168,115.05127,117.30957,104.248047,,,,,,,,,,,0.0,1.0,1.0,3.0,0.0,0.0,0.0,4.0,0.0,0.18917974666666668,-0.27119789333333333,0.9063802,19.333496120000003,3.0761718266666676,4.303385413333333,44.81492550413594,-4.944073799379298,17.224070238886124,20.418989303325258,8.765214427544159,-17.587052321048716,28.33846356938648,-0.9515530989657945,28.51564338991863,-0.9236480966355172,-0.11081074666666668,0.4062078933333333,-0.05921219999999994,0.5762308399999999,0.42519402490153696,0.9184494790702793,0.8393400769912658,0.8393400769912658
LBP06_S03,LBP06,-1573,78,3,77,-1573,1716264470.08,2024-05-21 04:07:50.080000+00:00,2024-05-21 13:07:50.080000+09:00,2024,5,21,4,7,50,80,,,,,,,,,-0.05249,-0.280762,0.239502,132.873535,-52.79541,-18.859863,,,,,,,,,,,0.0,1.0,1.0,3.0,0.0,0.0,0.0,4.0,0.0,0.19622076,-0.25624672,0.8896256400000001,20.952148466666667,2.357584586666668,4.521484373333333,43.92812244023238,-1.2954043314882946,16.97902536502353,22.176114200934553,8.713398254284627,-16.907891306447777,29.21609382893808,-0.9095037619973787,29.264104755698515,-0.9199783336034433,-0.24871076,-0.024515280000000028,-0.6501236400000001,0.9233496800000002,0.6965046937243896,0.9225200126159498,0.8358562871554884,0.8358562871554884
LBP06_S03,LBP06,-1572,79,3,78,-1572,1716264470.12,2024-05-21 04:07:50.120000+00:00,2024-05-21 13:07:50.120000+09:00,2024,5,21,4,7,50,120,,,,,,,,,0.009277,0.195557,0.373535,-32.592773,-99.121094,20.690918,,,,,,,,,,,0.0,1.0,1.0,3.0,0.0,0.0,0.0,4.0,0.0,0.20000005333333334,-0.26038084,0.8866145733333334,18.554687533333336,1.2215168666666674,5.1057942800000005,42.63967580281922,4.182466984773617,16.85968027467241,23.881701233047323,8.880696933675571,-16.23350409546088,30.21140657151987,-0.907796733147314,30.108289921044296,-0.9190669254150841,-0.19072305333333334,0.45593784000000004,-0.5130795733333333,1.1597404666666666,0.7123940241106536,0.9291665890126477,0.8329167094639447,0.8329167094639447
LBP06_S03,LBP06,-1571,80,3,79,-1571,1716264470.16,2024-05-21 04:07:50.160000+00:00,2024-05-21 13:07:50.160000+09:00,2024,5,21,4,7,50,160,,,,,,,,,1.181885,-0.376465,1.407227,41.442871,-36.682129,-8.972168,,,,,,,,,,,0.0,1.0,1.0,3.0,0.0,0.0,0.0,4.0,0.0,0.20122401333333334,-0.25783201333333333,0.8986848799999999,18.18359378666667,-0.08138026666666591,4.749348973333333,41.291486221935905,10.578864981049058,17.06380724634611,25.53336068192476,9.303851532917534,-15.550951805607035,31.31048168138181,-0.9007606341541469,31.004077663088406,-0.9193668568698469,0.9806609866666667,-0.11863298666666666,0.5085421200000001,1.6078360933333333,1.1110287323510533,0.9498563259416938,0.8393844309264356,0.8393844309264356
LBP06_S03,LBP06,-1570,81,3,80,-1570,1716264470.2,2024-05-21 04:07:50.200000+00:00,2024-05-21 13:07:50.200000+09:00,2024,5,21,4,7,50,200,,,,,,,,,0.1521,-1.122314,1.390869,-104.980469,38.452148,30.151367,,,,,,,,,,,0.0,1.0,1.0,3.0,0.0,0.0,0.0,4.0,0.0,0.21065109333333332,-0.26679359999999996,0.9268522,14.815266960000002,-0.0333659466666658,5.6958008,39.69120596352922,16.437842556567762,17.644578648982638,27.121008920465925,9.961365235180244,-14.84516865964773,32.48317956644696,-0.8953280966953505,31.88940309647298,-0.9164323069277392,-0.058551093333333304,-0.8555204000000001,0.4640167999999999,1.3780882933333332,0.9750153722013457,0.932889113936631,0.8424669523190471,0.8424669523190471
LBP06_S03,LBP06,-1569,82,3,81,-1569,1716264470.24,2024-05-21 04:07:50.240000+00:00,2024-05-21 13:07:50.240000+09:00,2024,5,21,4,7,50,240,,,,,,,,,-0.05127,-0.4021,2.16748,257.324219,61.889648,-31.433105,,,,,,,,,,,0.0,1.0,1.0,3.0,0.0,0.0,0.0,4.0,0.0,0.20787765333333333,-0.26984048,0.9325650933333333,13.724772173333337,3.7288410800000005,6.658528666666667,37.08584390386407,20.147855346876803,18.50239204156011,28.604442676620486,10.767279449055316,-14.105072977985325,33.66157351177167,-0.9066547709312883,32.6896774084769,-0.9109878598178094,-0.25914765333333334,-0.13225952000000002,1.2349149066666665,1.6263220799999998,1.2687257046211153,0.9451168813513653,0.8519393690368708,0.8519393690368708
LBP06_S03,LBP06,-1568,83,3,82,-1568,1716264470.28,2024-05-21 04:07:50.280000+00:00,2024-05-21 13:07:50.280000+09:00,2024,5,21,4,7,50,280,,,,,,,,,0.074463,0.168213,1.051758,-318.29834,40.710449,75.073242,,,,,,,,,,,0.0,1.0,1.0,3.0,0.0,0.0,0.0,4.0,0.0,0.19886073333333334,-0.26602862666666666,0.9230305866666667,11.076660186666668,4.773762946666667,7.498372413333334,32.38042841979647,20.493925436616042,19.44212301860319,29.899659813412345,11.587036466519958,-13.327388057241198,34.72561509120528,-0.9206125556465945,33.327326991495354,-0.9063193775527806,-0.12439773333333334,0.43424162666666666,0.12872741333333326,0.6873667733333333,0.46969280740934777,0.8970074139472599,0.8436296611754031,0.8436296611754031
LBP06_S03,LBP06,-1567,84,3,83,-1567,1716264470.32,2024-05-21 04:07:50.320000+00:00,2024-05-21 13:07:50.320000+09:00,2024,5,21,4,7,50,320,,,,,,,,,-0.0354,-0.446045,0.143311,315.917969,223.327637,68.725586,,,,,,,,,,,0.0,1.0,1.0,3.0,0.0,0.0,0.0,4.0,0.0,0.19609379999999998,-0.26729816,0.91695636,8.617350293333335,3.850911373333334,8.024902373333335,24.587495546288363,17.125366294414263,20.269238013587856,30.88315963526388,12.27205111829653,-12.516618536697683,35.51110428162548,-0.9290558335799735,33.732733147004154,-0.907375372354136,-0.23149379999999997,-0.17874684000000002,-0.7736453600000001,1.183886,0.8270834028669389,0.8974251954168363,0.8432776131262868,0.8432776131262868
LBP06_S03,LBP06,-1566,85,3,84,-1566,1716264470.36,2024-05-21 04:07:50.360000+00:00,2024-05-21 13:07:50.360000+09:00,2024,5,21,4,7,50,360,,,,,,,,,-0.204102,0.520264,-0.054932,5.249023,-61.340332,-9.094238,,,,,,,,,,,0.0,1.0,1.0,3.0,0.0,0.0,0.0,4.0,0.0,0.20292973333333333,-0.25890949333333335,0.9147493333333333,7.004394560000002,2.5935871600000002,8.387858106666666,13.368393113420806,10.695792487939757,20.86881101155801,31.417895359800713,12.69988281781412,-11.681866096235362,35.84462537000451,-0.898962697860153,33.85360283570101,-0.9082692867860482,-0.4070317333333333,0.7791734933333333,-0.9696813333333333,2.15588656,1.308842256679054,0.9310533593862788,0.852976876533636,0.852976876533636
LBP06_S03,LBP06,-1565,86,3,85,-1565,1716264470.4,2024-05-21 04:07:50.400000+00:00,2024-05-21 13:07:50.400000+09:00,2024,5,21,4,7,50,400,,,,,,,,,0.319336,-0.514404,0.553955,8.728027,-133.544922,-23.803711,,,,,,,,,,,0.0,1.0,1.0,3.0,0.0,0.0,0.0,4.0,0.0,0.20562504,-0.25712564,0.9109993333333334,-0.015462213333331268,2.159830653333334,10.16357424,-0.561945799772845,2.586009843361843,21.223917611795475,31.395417527809798,12.803323211548593,-10.832909391763543,35.594230612488936,-0.8896504152001001,33.66087863664561,-0.9096248520352814,0.11371096,-0.25727836,-0.3570443333333334,0.7280336533333334,0.45453601938004395,0.9232194560097807,0.844845430469277,0.844845430469277
LBP06_S03,LBP06,-1564,87,3,86,-1564,1716264470.44,2024-05-21 04:07:50.440000+00:00,2024-05-21 13:07:50.440000+09:00,2024,5,21,4,7,50,440,,,,,,,,,0.511963,0.430908,0.40625,142.822266,-54.260254,8.117676,,,,,,,,,,,0.0,1.0,1.0,3.0,0.0,0.0,0.0,4.0,0.0,0.20062829333333332,-0.2592350133333333,0.9179654800000001,-3.6604817466666644,1.6544595600000007,10.642089866666666,-15.395471119324464,-5.647675513511821,21.38171849060175,30.77959868303682,12.577416191008119,-9.977640652139474,34.71495939957098,-0.9048682763155058,33.15118420920625,-0.9126966507619378,0.3113347066666666,0.6901430133333333,-0.5117154800000001,1.5131932000000001,0.9138267948028572,0.9062247886133744,0.8462250577559486,0.8462250577559486
LBP06_S03,LBP06,-1563,88,3,87,-1563,1716264470.48,2024-05-21 04:07:50.480000+00:00,2024-05-21 13:07:50.480000+09:00,2024,5,21,4,7,50,480,,,,,,,,,0.204346,0.013428,0.717529,-110.046387,-39.123535,48.217773,,,,,,,,,,,0.0,1.0,1.0,3.0,0.0,0.0,0.0,4.0,0.0,0.20928064000000002,-0.27995766666666666,0.9396874933333333,-4.340820293333332,-0.21484382666666618,10.313313813333334,-28.657865148884987,-12.794703627707364,21.41643711542923,29.63328407708142,12.065628045899825,-9.120983167522304,33.27015538402604,-0.9200637100109333,32.347158477433595,-0.9142858684486453,-0.004934640000000018,0.29338566666666666,-0.22215849333333337,0.5204788,0.3680406176463554,0.8711507582458854,0.8436686766425473,0.8368488922636037
LBP06_S03,LBP06,-1562,89,3,88,-1562,1716264470.52,2024-05-21 04:07:50.520000+00:00,2024-05-21 13:07:50.520000+09:00,2024,5,21,4,7,50,520,,,,,,,,,0.265625,-0.179443,1.234863,-243.530273,-26.794434,71.166992,,,,,,,,,,,0.0,1.0,1.0,3.0,0.0,0.0,0.0,4.0,0.0,0.21343753333333335,-0.28344400000000003,0.9527115866666666,-2.119954413333332,2.3592121600000002,11.586914066666669,-37.983101034862024,-18.209597732260033,21.42253442440926,28.11396003568694,11.337244136609423,-8.264081790545934,31.420103458488487,-0.916735877466436,31.29670551402076,-0.915031166638672,0.052187466666666654,0.10400100000000004,0.2821514133333335,0.4383398800000002,0.3052034726605876,0.8724381593594417,0.8392497338889068,0.8266249418866226
LBP06_S03,LBP06,-1561,90,3,89,-1561,1716264470.56,2024-05-21 04:07:50.560000+00:00,2024-05-21 13:07:50.560000+09:00,2024,5,21,4,7,50,560,,,,,,,,,0.24707,-0.200684,1.489746,-66.772461,46.813965,-7.8125,,,,,,,,,,,0.0,1.0,1.0,3.0,0.0,0.0,0.0,4.0,0.0,0.21080733333333335,-0.27834633333333336,0.9490136799999999,-1.5437825333333315,2.488606693333334,12.394205733333333,-41.91532665083613,-21.66655134670091,21.520355394862477,26.437346969653497,10.470582082741386,-7.4032675747514345,29.383239690827793,-0.9143162866464782,30.07072210667267,-0.9134350443782745,0.036262666666666665,0.07766233333333336,0.5407323200000002,0.6546573200000002,0.5474832060484944,0.8327969620618519,0.8284783632241574,0.8213581166821297
LBP06_S03,LBP06,-1560,91,3,90,-1560,1716264470.6,2024-05-21 04:07:50.600000+00:00,2024-05-21 13:07:50.600000+09:00,2024,5,21,4,7,50,600,,,,,,,,,-0.031982,-0.716797,0.744141,-101.257324,122.009277,12.084961,,,,,,,,,,,0.0,1.0,1.0,3.0,0.0,0.0,0.0,4.0,0.0,0.20891281333333334,-0.28309569333333334,0.9537207066666668,-0.3963215999999982,2.4682616533333337,13.064778653333335,-40.365272788992115,-23.020538741190222,21.833925558526097,24.822736058093813,9.549760533093776,-6.52991055241039,27.386235292053325,-0.926046083961916,28.758055459301477,-0.9134042269810425,-0.24089481333333335,-0.4337013066666667,-0.2095797066666667,0.8841758266666667,0.5385636340691429,0.8233633867521604,0.833118249647104,0.8161211818189261
LBP06_S03,LBP06,-1559,92,3,91,-1559,1716264470.64,2024-05-21 04:07:50.640000+00:00,2024-05-21 13:07:50.640000+09:00,2024,5,21,4,7,50,640,,,,,,,,,-0.136963,0.061523,-0.343506,162.17041,40.771484,20.751953,,,,,,,,,,,0.0,1.0,1.0,3.0,0.0,0.0,0.0,4.0,0.0,0.21261724,-0.2859472533333333,0.9613378933333333,1.212565120000002,2.421874933333334,13.090820319999999,-34.51549175521528,-21.96119656051697,22.43015274121704,23.442116387885203,8.671312670673098,-5.632704442761709,25.621316194045132,-0.9225469477983623,27.45702721269884,-0.9136540187989806,-0.34958024,0.3474702533333333,-1.3048438933333333,2.0018943866666667,1.3948331466950732,0.8479577346635746,0.8445349971278568,0.826643217543947
LBP06_S03,LBP06,-1558,93,3,92,-1558,1716264470.68,2024-05-21 04:07:50.680000+00:00,2024-05-21 13:07:50.680000+09:00,2024,5,21,4,7,50,680,,,,,,,,,-0.049072,0.214844,0.113525,-0.488281,-121.765137,17.456055,,,,,,,,,,,0.0,1.0,1.0,3.0,0.0,0.0,0.0,4.0,0.0,0.21510421333333332,-0.29301756,0.9657422000000001,4.801432306666669,3.3959960266666673,12.689615893333333,-26.269936986652088,-18.075910794274993,23.25187655585593,22.39131890841912,7.948276238902098,-4.702629380527472,24.221085457076928,-0.928065537546861,26.26405952969435,-0.9137936916969132,-0.2641762133333333,0.50786156,-0.8522172000000001,1.6242549733333336,1.0266384912872752,0.8786306455233229,0.8347525011237374,0.830214561717935
LBP06_S03,LBP06,-1557,94,3,93,-1557,1716264470.72,2024-05-21 04:07:50.720000+00:00,2024-05-21 13:07:50.720000+09:00,2024,5,21,4,7,50,720,,,,,,,,,0.559814,0.082031,0.583008,28.930664,-169.189453,13.549805,,,,,,,,,,,0.0,1.0,1.0,3.0,0.0,0.0,0.0,4.0,0.0,0.2144889866666667,-0.2824479066666667,0.9639973999999999,8.309733093333334,4.597167906666667,12.588704426666666,-17.56823779498978,-11.213003690569378,24.09008645341125,21.688589396619527,7.499756091279323,-3.7390259223910216,23.25127020814455,-0.9130946109759993,25.261287147405206,-0.9114491032786537,0.3453250133333333,0.3644789066666667,-0.3809893999999999,1.09079332,0.63027546450021,0.8545870967299366,0.8246505551004708,0.826706858257975
LBP06_S03,LBP06,-1556,95,3,94,-1556,1716264470.76,2024-05-21 04:07:50.760000+00:00,2024-05-21 13:07:50.760000+09:00,2024,5,21,4,7,50,760,,,,,,,,,0.689209,-0.203369,1.287598,-73.364258,-38.024902,38.879395,,,,,,,,,,,0.0,1.0,1.0,3.0,0.0,0.0,0.0,4.0,0.0,0.21118494666666668,-0.26918943999999995,0.9603287866666667,6.853027360000002,4.142252546666667,12.255045573333334,-9.882338476213288,-1.8942113880814753,24.620657682658898,21.293295857570996,7.423987635756064,-2.7541996150846657,22.717958896292632,-0.8986545238878342,24.506382981725192,-0.9110262629444096,0.4780240533333333,0.06582043999999995,0.32726921333333336,0.8711137066666667,0.5830475657121312,0.827555452923868,0.8247109626681792,0.8225058359727018
LBP06_S03,LBP06,-1555,96,3,95,-1555,1716264470.8,2024-05-21 04:07:50.800000+00:00,2024-05-21 13:07:50.800000+09:00,2024,5,21,4,7,50,800,,,,,,,,,0.217529,-1.011475,1.886963,-74.035645,32.226562,3.662109,,,,,,,,,,,0.0,1.0,1.0,3.0,0.0,0.0,0.0,4.0,0.0,0.2158692,-0.27133788,0.9680338666666667,4.283854173333336,1.4746093200000008,12.04589844,-4.022330699434546,8.546886069146145,24.50099092029958,21.132402629593614,7.76586307852191,-1.7741599782726825,22.583948146462554,-0.8921483333794792,24.02794393372194,-0.9100113557395216,0.001659799999999989,-0.74013712,0.9189291333333333,1.6607260533333332,1.1799307028070272,0.8316375284618459,0.8408710645917572,0.828563884563114
LBP06_S03,LBP06,-1554,97,3,96,-1554,1716264470.84,2024-05-21 04:07:50.840000+00:00,2024-05-21 13:07:50.840000+09:00,2024,5,21,4,7,50,840,,,,,,,,,0.135254,-0.726074,2.142822,-41.931152,44.677734,24.658203,,,,,,,,,,,0.0,1.0,1.0,3.0,0.0,0.0,0.0,4.0,0.0,0.21426762666666666,-0.27781249333333335,0.9700032666666668,3.0460612133333353,1.1157226000000007,11.658528653333335,-0.1717883286199205,18.257846615480528,23.49712084087523,21.125531096448817,8.496176943141132,-0.8342751446376733,22.785282569526085,-0.906265005294833,23.82767470434494,-0.9078732132770607,-0.07901362666666664,-0.44826150666666664,1.172818733333333,1.7000938666666663,1.2580482156164339,0.8248990003949369,0.8617834250865262,0.8357219567473361
LBP06_S03,LBP06,-1553,98,3,97,-1553,1716264470.88,2024-05-21 04:07:50.880000+00:00,2024-05-21 13:07:50.880000+09:00,2024,5,21,4,7,50,880,,,,,,,,,0.181885,-0.796143,1.834717,74.34082,179.321289,80.200195,,,,,,,,,,,0.0,1.0,1.0,3.0,0.0,0.0,0.0,4.0,0.0,0.21798181333333336,-0.27680664000000005,0.9664550933333333,1.994628920000002,1.7936197333333341,11.646321613333335,2.001064141678041,25.468179739029353,21.594221855237617,21.20557366211594,9.514904132702306,0.029493729571831384,23.242431561134577,-0.8966178258283369,23.887602756462226,-0.9069511395613509,-0.036096813333333366,-0.51933636,0.8682619066666666,1.42369508,1.0123694845852014,0.8499199924984023,0.86770614972683,0.8386178178594321
LBP06_S03,LBP06,-1552,99,3,98,-1552,1716264470.92,2024-05-21 04:07:50.920000+00:00,2024-05-21 13:07:50.920000+09:00,2024,5,21,4,7,50,920,,,,,,,,,-0.63916,0.121094,-0.390381,91.125488,125.610352,38.024902,,,,,,,,,,,0.0,1.0,1.0,3.0,0.0,0.0,0.0,4.0,0.0,0.21323245333333335,-0.28034830666666666,0.9659147333333334,0.4003906400000021,1.8391926400000007,11.949055986666666,3.2339268874112426,29.081023359939675,19.035426661476404,21.33493073761239,10.678145067099893,0.7909107960308875,23.871061801688377,-0.9125074741239956,24.179012682022456,-0.9046097718177805,-0.8523924533333334,0.40144230666666664,-1.3562957333333334,2.610130493333333,1.6514438943965604,0.8881071781483061,0.8945409997595271,0.8517279158680956
LBP06_S03,LBP06,-1551,100,3,99,-1551,1716264470.96,2024-05-21 04:07:50.960000+00:00,2024-05-21 13:07:50.960000+09:00,2024,5,21,4,7,50,960,,,,,,,,,0.226074,-0.037354,0.346924,36.682129,-105.102539,-15.258789,,,,,,,,,,,0.0,1.0,1.0,3.0,0.0,0.0,0.0,4.0,0.0,0.2128841466666667,-0.2747298266666667,0.9640169466666667,0.5021159066666686,1.3028970666666673,11.711425773333334,4.520788603621599,28.955142176953935,16.24941731091623,21.515762281757254,11.83635075417805,1.4408874884675367,24.598849210795244,-0.9041672145975983,24.670215625641198,-0.9038977446871982,0.013189853333333307,0.23737582666666668,-0.6170929466666667,0.8676586266666667,0.6613054968336403,0.8740674412718167,0.9037061440035998,0.8487053377881836
LBP06_S03,LBP06,-1550,101,3,100,-1550,1716264471.0,2024-05-21 04:07:51+00:00,2024-05-21 13:07:51+09:00,2024,5,21,4,7,51,0,4.0,7.0,51.0,40.522987,141.590012,2.365,3.0,15.0,0.986328,-0.191406,1.216064,-82.458496,-117.492676,-32.897949,-551.0,57.0,532.0,475.0,0.0,1025.5,22.77,0.123872,-101.434433,3.817969,0.0,1.0,1.0,3.0,0.0,0.0,0.0,5.0,0.0,0.21583336000000003,-0.2789388133333333,0.9669043066666667,0.15055341333333522,1.2418619200000007,11.7236328,6.850968331466168,25.782561118189758,13.678969869933141,21.7898010150159,12.86765319890564,1.9880462832648624,25.38354299828331,-0.9046646593373077,25.33140847850472,-0.903527604265596,0.7704946399999999,0.08753281333333332,0.24915969333333332,1.1071871466666665,0.814496492601864,0.8453809487403333,0.8910178664344606,0.8481708245821473
LBP06_S03,LBP06,-1549,102,3,101,-1549,1716264471.04,2024-05-21 04:07:51.040000+00:00,2024-05-21 13:07:51.040000+09:00,2024,5,21,4,7,51,40,,,,,,,,,0.271729,-1.126221,1.468506,-152.46582,87.158203,29.174805,,,,,,,,,,,0.0,1.0,1.0,3.0,0.0,0.0,0.0,5.0,0.0,0.21009442666666667,-0.27669597333333334,0.9551367333333334,0.5566406533333351,1.5966796266666672,11.73746744,10.864848371485996,20.713390795713913,11.588996730634342,22.22439494987534,13.696188830734195,2.451606152490236,26.22059671521799,-0.9133262106412633,26.136040578547796,-0.905533337624818,0.06163457333333333,-0.8495250266666665,0.5133692666666667,1.4245288666666664,0.9945046985916425,0.8681533756879375,0.8933014273791083,0.8504221149515241
LBP06_S03,LBP06,-1548,103,3,102,-1548,1716264471.08,2024-05-21 04:07:51.080000+00:00,2024-05-21 13:07:51.080000+09:00,2024,5,21,4,7,51,80,,,,,,,,,0.079346,-0.70166,1.961914,157.531738,22.827148,-54.443359,,,,,,,,,,,0.0,1.0,1.0,3.0,0.0,0.0,0.0,5.0,0.0,0.21343101333333336,-0.27581706666666667,0.9571386933333333,-0.5566405999999982,0.7739257200000004,11.713053373333334,16.577933691538085,14.979246892101585,9.960941250172857,22.887512297536862,14.29535870641826,2.8500438024971504,27.135184712679255,-0.9046518601111572,27.059454861893357,-0.9055437996604189,-0.13408501333333336,-0.4258429333333333,1.0047753066666667,1.5647032533333334,1.099497344952516,0.8842730817370626,0.9033965471765063,0.8541959820727513
LBP06_S03,LBP06,-1547,104,3,103,-1547,1716264471.12,2024-05-21 04:07:51.120000+00:00,2024-05-21 13:07:51.120000+09:00,2024,5,21,4,7,51,120,,,,,,,,,0.571289,-0.362061,2.049072,-20.019531,40.466309,42.602539,,,,,,,,,,,0.0,1.0,1.0,3.0,0.0,0.0,0.0,5.0,0.0,0.21600913333333333,-0.28005860000000005,0.9596777466666666,1.417643253333335,0.657552026666667,11.204427066666668,23.330621353751116,9.662693866898882,8.54053053696533,23.820737151686906,14.681866461094215,3.1916650239757636,28.163299644331985,-0.9059743396701765,28.076453893114007,-0.9060575199679711,0.3552798666666667,-0.08200239999999998,1.0893942533333332,1.5266765199999999,1.1487941575670269,0.9017290870753175,0.9154478380439826,0.8585929697666957
LBP06_S03,LBP06,-1546,105,3,104,-1546,1716264471.16,2024-05-21 04:07:51.160000+00:00,2024-05-21 13:07:51.160000+09:00,2024,5,21,4,7,51,160,,,,,,,,,-0.208008,-0.268311,-0.320068,88.928223,116.210938,69.274902,,,,,,,,,,,0.0,1.0,1.0,3.0,0.0,0.0,0.0,5.0,0.0,0.21470704000000002,-0.2716048133333333,0.9566471599999999,3.057454453333335,1.1124674000000006,11.36718748,29.989978524055783,5.584893384040534,7.020769168684244,25.020336292649137,14.905262196455835,3.4724957907231335,29.32988742492785,-0.8949531196718123,29.159022714129215,-0.9037589420861311,-0.42271504000000004,0.003293813333333284,-1.27671516,1.7027240133333332,1.3448793455259478,0.9110831116023134,0.9304697187720035,0.8657442399984494
LBP06_S03,LBP06,-1545,106,3,105,-1545,1716264471.2,2024-05-21 04:07:51.200000+00:00,2024-05-21 13:07:51.200000+09:00,2024,5,21,4,7,51,200,,,,,,,,,0.000977,0.570557,-0.139648,89.477539,-31.799316,5.432129,,,,,,,,,,,0.0,1.0,1.0,3.0,0.0,0.0,0.0,5.0,0.0,0.21425781333333332,-0.28162760000000003,0.9583789333333335,2.734375026666669,1.319986933333334,11.222330706666666,35.287168478405505,3.207185538159461,5.262659912775003,26.431823031785356,15.033549617982214,3.6830021872341336,30.630269146893298,-0.9122056669716999,30.274558489368427,-0.90422803954495,-0.21328081333333332,0.8521846,-1.0980269333333335,2.1634923466666667,1.4061900455268102,0.9283300985353319,0.9306096062359813,0.8735767879046575
LBP06_S03,LBP06,-1544,107,3,106,-1544,1716264471.24,2024-05-21 04:07:51.240000+00:00,2024-05-21 13:07:51.240000+09:00,2024,5,21,4,7,51,240,,,,,,,,,0.471191,-0.520996,0.631592,-108.886719,-206.970215,15.563965,,,,,,,,,,,0.0,1.0,1.0,3.0,0.0,0.0,0.0,5.0,0.0,0.21337890666666667,-0.27680012,0.9577929866666667,4.884440133333336,1.207682253333334,11.512858053333332,38.13778571601957,2.510620277114707,3.429758631514247,27.95733446042614,15.133974429066802,3.8201925324947035,32.01942540298166,-0.9063696256508397,31.38493457931944,-0.9053539531860724,0.2578120933333333,-0.24419588000000003,-0.32620098666666664,0.82820896,0.48218853883123003,0.8968686119037365,0.9209927466275508,0.8679855272036086
LBP06_S03,LBP06,-1543,108,3,107,-1543,1716264471.28,2024-05-21 04:07:51.280000+00:00,2024-05-21 13:07:51.280000+09:00,2024,5,21,4,7,51,280,,,,,,,,,0.712891,-0.0896,0.948242,194.458008,21.179199,-13.000488,,,,,,,,,,,0.0,1.0,1.0,3.0,0.0,0.0,0.0,5.0,0.0,0.21572265333333335,-0.27704752,0.96052736,5.037434933333335,1.3208007466666674,11.254069000000001,37.85660842799298,2.9446282361304488,1.9587379771838058,29.47159879754586,15.25175955851202,3.898542051582056,33.4124218733411,-0.9017550289038618,32.44715425394796,-0.9055755731904179,0.4971683466666667,0.18744751999999998,-0.012285360000000023,0.6969012266666667,0.531473299189853,0.8993398315749568,0.8981736227611085,0.8632459183583444
LBP06_S03,LBP06,-1542,109,3,108,-1542,1716264471.32,2024-05-21 04:07:51.320000+00:00,2024-05-21 13:07:51.320000+09:00,2024,5,21,4,7,51,320,,,,,,,,,0.062744,-0.472656,1.117432,-140.014648,64.147949,-1.098633,,,,,,,,,,,0.0,1.0,1.0,3.0,0.0,0.0,0.0,5.0,0.0,0.2158984266666667,-0.26986978666666667,0.95986004,3.785807320000002,1.3460286133333341,11.59586588,34.258459411971636,3.5824350507817524,1.3784751949101728,30.841937174024725,15.395056960543291,3.953681059378463,34.69675001184043,-0.8895216953055941,33.41595880234401,-0.9057562012133344,-0.1531544266666667,-0.20278621333333335,0.15757195999999996,0.5135126,0.29901078459465164,0.8782169268440653,0.8878210611304508,0.8554093192782931
LBP06_S03,LBP06,-1541,110,3,109,-1541,1716264471.36,2024-05-21 04:07:51.360000+00:00,2024-05-21 13:07:51.360000+09:00,2024,5,21,4,7,51,360,,,,,,,,,0.234863,-0.448242,1.80835,195.922852,39.733887,-65.551758,,,,,,,,,,,0.0,1.0,1.0,3.0,0.0,0.0,0.0,5.0,0.0,0.21363930666666667,-0.27868487999999997,0.9587890666666665,0.7283528933333352,1.2776692400000005,11.714680986666668,27.670295098517673,3.5081930765549343,2.068134803282346,31.948748977965433,15.53538468360549,4.036406451509757,35.754206963187436,-0.9088581891857882,34.247573821558795,-0.9062295880211625,0.02122369333333332,-0.16955712,0.8495609333333334,1.0403417466666667,0.8665759294762383,0.8605262737559527,0.8957898165711157,0.8555622865412786
LBP06_S03,LBP06,-1540,111,3,110,-1540,1716264471.4,2024-05-21 04:07:51.400000+00:00,2024-05-21 13:07:51.400000+09:00,2024,5,21,4,7,51,400,,,,,,,,,0.057373,-0.382568,1.080322,-85.327148,99.54834,14.709473,,,,,,,,,,,0.0,1.0,1.0,3.0,0.0,0.0,0.0,5.0,0.0,0.21229490666666667,-0.2813020666666667,0.9579329466666667,2.473144560000002,1.5275064666666678,11.011555986666666,18.866784391721648,2.268755420731739,4.070643436382611,32.7034203536343,15.626134900434758,4.199232188965062,36.487303897793375,-0.91592379574853,34.90301788327298,-0.9086332871237293,-0.15492190666666666,-0.10126593333333334,0.12238905333333328,0.3785768933333333,0.22188886135841968,0.8512203874350875,0.8872199217224341,0.8469991321469157
LBP06_S03,LBP06,-1539,112,3,111,-1539,1716264471.44,2024-05-21 04:07:51.440000+00:00,2024-05-21 13:07:51.440000+09:00,2024,5,21,4,7,51,440,,,,,,,,,-0.172363,0.262207,-0.478027,120.727539,92.468262,37.536621,,,,,,,,,,,0.0,1.0,1.0,3.0,0.0,0.0,0.0,5.0,0.0,0.21070636000000004,-0.278916,0.9548405066666668,2.064615920000002,0.3955077733333341,10.401204413333335,8.920943174809578,0.12400419713979657,7.044953068645782,33.06025808062668,15.63109506832035,4.481030311710893,36.84279346150319,-0.9155424106847204,35.3497966120821,-0.9100251106161827,-0.38306936,0.541123,-1.4328675066666667,2.357059866666667,1.5788177625555648,0.8778200261451959,0.8920224073792852,0.8567567138856977
LBP06_S03,LBP06,-1538,113,3,112,-1538,1716264471.48,2024-05-21 04:07:51.480000+00:00,2024-05-21 13:07:51.480000+09:00,2024,5,21,4,7,51,480,,,,,,,,,0.022705,0.091064,0.033447,-74.951172,-112.792969,30.151367,,,,,,,,,,,0.0,1.0,1.0,3.0,0.0,0.0,0.0,5.0,0.0,0.21173826666666667,-0.27475910666666664,0.9469173333333333,-0.11555986666666475,0.8919270400000009,11.239420560000001,-1.0334801806351386,-2.083353718355218,10.368096561345629,33.018918873401276,15.547760919586143,4.895754174164718,36.82323019663968,-0.9064581403403217,35.56199697134405,-0.9116911045929136,-0.18903326666666667,0.3658231066666666,-0.9134703333333333,1.4683267066666665,1.001992101345132,0.9031780854931469,0.887164421869516,0.8635051462594138
LBP06_S03,LBP06,-1537,114,3,113,-1537,1716264471.52,2024-05-21 04:07:51.520000+00:00,2024-05-21 13:07:51.520000+09:00,2024,5,21,4,7,51,520,,,,,,,,,0.357422,-0.204346,0.465332,-10.131836,-142.272949,-15.014648,,,,,,,,,,,0.0,1.0,1.0,3.0,0.0,0.0,0.0,5.0,0.0,0.21281248,-0.27886718666666666,0.9442610933333333,-1.020507786666665,0.8536783466666675,11.163736973333334,-10.093671050915505,-3.395950331146509,13.329775832770768,32.61517203136466,15.411922906340282,5.428945207475549,36.47944983647998,-0.9107082077484556,35.51998498460173,-0.9161773483774104,0.14460952000000002,0.07452118666666666,-0.4789290933333333,0.6980598,0.5058047024078831,0.9112021346830388,0.8918201470212402,0.8632338674869509
LBP06_S03,LBP06,-1536,115,3,114,-1536,1716264471.56,2024-05-21 04:07:51.560000+00:00,2024-05-21 13:07:51.560000+09:00,2024,5,21,4,7,51,560,,,,,,,,,0.623291,0.223145,0.664551,28.625488,-12.084961,8.117676,,,,,,,,,,,0.0,1.0,1.0,3.0,0.0,0.0,0.0,5.0,0.0,0.21825518666666668,-0.29150065333333336,0.9584505466666665,-1.0058593599999983,0.042317680000001016,10.0032552,-17.85030678140275,-3.2895751118630367,15.339720502377364,31.90115976010855,15.28033990186576,6.042534027570644,35.88432804206969,-0.9189901106974802,35.21143409266453,-0.9188617118431445,0.4050358133333334,0.5146456533333333,-0.2938995466666665,1.2135810133333331,0.7178377965169851,0.9180163183017784,0.8754066401818151,0.858324348250031
LBP06_S03,LBP06,-1535,116,3,115,-1535,1716264471.6,2024-05-21 04:07:51.600000+00:00,2024-05-21 13:07:51.600000+09:00,2024,5,21,4,7,51,600,,,,,,,,,0.401123,-0.429688,1.041748,-192.199707,-6.835938,61.584473,,,,,,,,,,,0.0,1.0,1.0,3.0,0.0,0.0,0.0,5.0,0.0,0.21309567999999998,-0.2890332,0.9541862266666667,-1.2296549333333318,2.9866536133333343,10.954589826666666,-24.508973262660106,-1.980671009525594,16.088906365103327,30.920800829602143,15.201113061484737,6.686090282174778,35.09805643498452,-0.9261239018962346,34.634834100141596,-0.9183880733758378,0.18802732000000003,-0.14065480000000002,0.08756177333333315,0.4162438933333332,0.2506094770328936,0.9064981520203286,0.8649307693862444,0.8575782171048455
LBP06_S03,LBP06,-1534,117,3,116,-1534,1716264471.64,2024-05-21 04:07:51.640000+00:00,2024-05-21 13:07:51.640000+09:00,2024,5,21,4,7,51,640,,,,,,,,,0.091553,-0.851807,1.694824,-45.043945,6.164551,-3.967285,,,,,,,,,,,0.0,1.0,1.0,3.0,0.0,0.0,0.0,5.0,0.0,0.21339841333333334,-0.2874707066666667,0.9510612266666667,0.14078777333333495,3.8452148133333335,11.047363266666666,-30.771917533236074,-0.31631715865289073,15.632196865964843,29.6899241282727,15.188460375138622,7.3113781568133716,34.141428995601125,-0.9230295654181505,33.80497465093628,-0.9195763507245177,-0.12184541333333335,-0.5643362933333333,0.7437627733333334,1.42994448,0.9415438490692126,0.8883665801152941,0.8681621573894343,0.8591455247903358
LBP06_S03,LBP06,-1533,118,3,117,-1533,1716264471.68,2024-05-21 04:07:51.680000+00:00,2024-05-21 13:07:51.680000+09:00,2024,5,21,4,7,51,680,,,,,,,,,0.522217,-0.495605,1.729248,42.358398,50.537109,17.578125,,,,,,,,,,,0.0,1.0,1.0,3.0,0.0,0.0,0.0,5.0,0.0,0.20085609333333335,-0.2849707066666667,0.9404004133333332,-1.4843749866666651,2.364095026666668,11.824544253333334,-37.45345825781908,0.684054551733113,14.373396987254372,28.191785797959938,15.215822557207947,7.886314036303546,32.99230200591787,-0.9466174667488274,32.757905210737405,-0.9201065850590779,0.3213609066666667,-0.21063429333333333,0.7888475866666667,1.3208427866666668,0.8774509404242946,0.8823990780807748,0.8805148618020489,0.85063469344275
LBP06_S03,LBP06,-1532,119,3,118,-1532,1716264471.72,2024-05-21 04:07:51.720000+00:00,2024-05-21 13:07:51.720000+09:00,2024,5,21,4,7,51,720,,,,,,,,,-0.247803,0.008789,0.449219,76.904297,204.040527,36.254883,,,,,,,,,,,0.0,1.0,1.0,3.0,0.0,0.0,0.0,5.0,0.0,0.20816402666666667,-0.27611979999999997,0.9376399999999999,-0.23925779999999833,1.470540346666668,12.065429666666667,-44.93568679977649,0.3743585300675952,12.948130988885898,26.394358325968877,15.23079689841065,8.404239275858982,31.611241092468497,-0.9163653299629357,31.551749025418168,-0.9213435275777387,-0.45596702666666666,0.28490879999999996,-0.48842099999999994,1.2292968266666666,0.7263842144249011,0.8862434280777625,0.8704152624038496,0.845181512759568
LBP06_S03,LBP06,-1531,120,3,119,-1531,1716264471.76,2024-05-21 04:07:51.760000+00:00,2024-05-21 13:07:51.760000+09:00,2024,5,21,4,7,51,760,,,,,,,,,-0.139404,0.063477,-0.15918,-93.322754,-59.631348,14.831543,,,,,,,,,,,0.0,1.0,1.0,3.0,0.0,0.0,0.0,5.0,0.0,0.21374020000000002,-0.27617838666666666,0.9283626666666667,-3.107910146666665,1.2841796800000012,12.482096333333335,-52.707962273541455,-1.1871415325127785,12.025581540539616,24.286039835027218,15.18331123711014,8.885262537480568,29.988207037958095,-0.9041218045127226,30.260740639053893,-0.9225278494567929,-0.3531442,0.33965538666666667,-1.0875426666666668,1.7803422533333335,1.1928225599416569,0.9106344278469435,0.8690949403854057,0.8533521177277673
LBP06_S03,LBP06,-1530,121,3,120,-1530,1716264471.8,2024-05-21 04:07:51.800000+00:00,2024-05-21 13:07:51.800000+09:00,2024,5,21,4,7,51,800,,,,,,,,,0.205322,-0.324707,0.279785,35.400391,-108.032227,-32.592773,,,,,,,,,,,0.0,1.0,1.0,3.0,0.0,0.0,0.0,5.0,0.0,0.21331376000000002,-0.29061849333333334,0.9409147466666667,2.364095066666668,0.5371093733333346,10.829264306666667,-59.26225958213352,-3.298303147057916,12.07990222972214,21.915549451741878,15.051379111227822,9.368458626669453,28.188709405740205,-0.9278065692353289,28.96366394996212,-0.9258065730546308,-0.007991760000000014,-0.034088506666666685,-0.6611297466666668,0.7032100133333334,0.6620562184906897,0.8899194484742899,0.860778488468068,0.8572205258859348
LBP06_S03,LBP06,-1529,122,3,121,-1529,1716264471.84,2024-05-21 04:07:51.840000+00:00,2024-05-21 13:07:51.840000+09:00,2024,5,21,4,7,51,840,,,,,,,,,0.811035,0.478027,0.736084,53.833008,-72.265625,-33.26416,,,,,,,,,,,0.0,1.0,1.0,3.0,0.0,0.0,0.0,5.0,0.0,0.2184342,-0.2929329466666667,0.9622591466666667,-1.1124674399999988,-1.907552093333332,10.048014306666667,-62.48377517640485,-5.008168042629195,13.20656329067989,19.416198444685683,14.851052389522655,9.896721158296648,26.372099059514355,-0.920844754030322,27.732444343872743,-0.9268389095184428,0.5926007999999999,0.7709599466666667,-0.22617514666666672,1.5897358933333332,0.9983537171236443,0.8795316685345784,0.8522153344647576,0.8676995062358769
LBP06_S03,LBP06,-1528,123,3,122,-1528,1716264471.88,2024-05-21 04:07:51.880000+00:00,2024-05-21 13:07:51.880000+09:00,2024,5,21,4,7,51,880,,,,,,,,,0.409912,-0.598633,1.309326,-354.492188,-13.85498,47.851562,,,,,,,,,,,0.0,1.0,1.0,3.0,0.0,0.0,0.0,5.0,0.0,0.21689449333333333,-0.2895214933333333,0.95721684,-0.1936848799999988,1.4786783733333342,10.8683268,-60.44357546977193,-5.592733212969852,15.062407528396182,16.998455425894807,14.627343061003861,10.499217459432495,24.761668343447347,-0.9188275655269296,26.626657554731185,-0.9292683170677781,0.19301750666666667,-0.30911150666666665,0.35210916000000003,0.8542381733333334,0.506741099566099,0.8593065331338142,0.8546132628161083,0.864906277529158
LBP06_S03,LBP06,-1527,124,3,123,-1527,1716264471.92,2024-05-21 04:07:51.920000+00:00,2024-05-21 13:07:51.920000+09:00,2024,5,21,4,7,51,920,,,,,,,,,-0.098389,-0.518555,1.824707,-193.054199,2.380371,25.085449,,,,,,,,,,,0.0,1.0,1.0,3.0,0.0,0.0,0.0,5.0,0.0,0.21544591999999999,-0.2899935066666667,0.95351892,-4.042968733333332,1.4925130133333342,11.43066404,-52.273469209864146,-4.839604424358734,16.969429261146022,14.907516657500242,14.433758884029512,11.177994629878336,23.56936597283722,-0.9225514265389989,25.693816264209953,-0.9309908419863655,-0.31383492,-0.2285614933333333,0.87118808,1.4135844933333335,0.9537826712518194,0.8314000842080247,0.8597536311781653,0.8734940279090263
LBP06_S03,LBP06,-1526,125,3,124,-1526,1716264471.96,2024-05-21 04:07:51.960000+00:00,2024-05-21 13:07:51.960000+09:00,2024,5,21,4,7,51,960,,,,,,,,,0.755371,-1.683594,2.508057,-66.040039,-8.605957,25.146484,,,,,,,,,,,0.0,1.0,1.0,3.0,0.0,0.0,0.0,5.0,0.0,0.21141922666666665,-0.30404623999999997,0.9568685333333333,-4.568684879999999,1.1759440000000008,10.604654920000002,-38.69913129876386,-3.029150670109086,18.148181723705754,13.359551405549688,14.312592857225148,11.903921898826566,22.913561151151946,-0.9517773466758586,24.970227248725028,-0.9343406744730366,0.5439517733333333,-1.3795477600000001,1.5511884666666667,3.4746880000000004,2.145977915299498,0.890786980946659,0.8824272111092379,0.8993997563179528
LBP06_S03,LBP06,-1525,126,3,125,-1525,1716264472.0,2024-05-21 04:07:52+00:00,2024-05-21 13:07:52+09:00,2024,5,21,4,7,52,0,4.0,7.0,52.0,40.523067,141.590042,2.529,3.0,15.0,-0.025635,-0.17334,0.657471,236.51123,208.312988,59.509277,-551.0,68.0,533.0,392.0,0.0,1025.699951,22.83,0.125853,-103.081947,3.817969,0.0,1.0,1.0,3.0,0.0,0.0,0.0,4.0,0.0,0.21483718666666665,-0.2983919466666667,0.9588737466666667,-2.9174804533333325,1.8888346266666676,10.113932266666668,-21.939872567669173,-0.7004839482714658,17.983909784456998,12.481956502842921,14.28457349929429,12.623278290204846,22.785860374090777,-0.9364472665343553,24.478104706940776,-0.939953533578157,-0.24047218666666664,0.1250519466666667,-0.30140274666666667,0.66692688,0.4053498212946218,0.8744211140943693,0.8599010314173513,0.8854856156544302
LBP06_S03,LBP06,-1524,127,3,126,-1524,1716264472.04,2024-05-21 04:07:52.040000+00:00,2024-05-21 13:07:52.040000+09:00,2024,5,21,4,7,52,40,,,,,,,,,-0.13916,0.508057,-0.061279,27.34375,-54.016113,15.014648,,,,,,,,,,,0.0,1.0,1.0,3.0,0.0,0.0,0.0,4.0,0.0,0.2140071066666667,-0.30466798666666667,0.9640104666666667,-2.1972656133333324,2.620442706666667,9.279785133333332,-5.026659944366301,1.602196516805521,16.21848037165058,12.28089010506827,14.34866135996651,13.272017505070869,23.083561104185534,-0.9473236409115022,24.2191310087261,-0.9432976239945134,-0.35316710666666673,0.8127249866666666,-1.0252894666666668,2.1911815600000004,1.3551632372674727,0.8888474556414026,0.87850041566467,0.8918167701332065
LBP06_S03,LBP06,-1523,128,3,127,-1523,1716264472.08,2024-05-21 04:07:52.080000+00:00,2024-05-21 13:07:52.080000+09:00,2024,5,21,4,7,52,80,,,,,,,,,0.4646,-0.396729,0.984375,-10.803223,-155.639648,-15.136719,,,,,,,,,,,0.0,1.0,1.0,3.0,0.0,0.0,0.0,4.0,0.0,0.21169917333333332,-0.31302084,0.9675879466666667,-1.004231759999999,1.7822265600000007,8.80777992,9.100196202343664,3.448893969940113,13.003970316106813,12.644897953162017,14.486617118764114,13.79217631771514,23.66388910070559,-0.963842715934702,24.168514601893175,-0.9483490094011688,0.2529008266666667,-0.08370815999999998,0.0167870533333333,0.35339603999999997,0.2669226280008594,0.8555444669633363,0.8699087743501994,0.8874458537721163
LBP06_S03,LBP06,-1522,129,3,128,-1522,1716264472.12,2024-05-21 04:07:52.120000+00:00,2024-05-21 13:07:52.120000+09:00,2024,5,21,4,7,52,120,,,,,,,,,0.598389,0.018555,1.416016,-13.793945,-3.112793,8.300781,,,,,,,,,,,0.0,1.0,1.0,3.0,0.0,0.0,0.0,4.0,0.0,0.21661453333333336,-0.3101757866666667,0.9776530400000002,0.7405599066666677,1.1263020800000008,8.5262044,18.317943960896145,4.505965138330419,8.820105460419034,13.377615711597862,14.666855724297331,14.144980536131902,24.37535093761921,-0.9498636548296457,24.274857100471515,-0.9531069937699217,0.3817744666666666,0.32873078666666666,0.43836295999999975,1.148868213333333,0.6678156618416976,0.8363053271343232,0.8690172071048202,0.8890670010740962
LBP06_S03,LBP06,-1521,130,3,129,-1521,1716264472.16,2024-05-21 04:07:52.160000+00:00,2024-05-21 13:07:52.160000+09:00,2024,5,21,4,7,52,160,,,,,,,,,0.281494,-1.087402,1.825928,-69.274902,48.400879,-2.258301,,,,,,,,,,,0.0,1.0,1.0,3.0,0.0,0.0,0.0,4.0,0.0,0.21294265333333334,-0.31215494666666666,0.9765202266666665,-1.4314778533333323,1.7171224000000007,8.723958306666667,21.69037761597814,4.506817821175879,4.312058933796511,14.245230816236987,14.847128437144367,14.317462893483762,25.066981620115598,-0.9602503955639272,24.469274163225972,-0.9560082400084058,0.06855134666666668,-0.7752470533333333,0.8494077733333335,1.6932061733333335,1.1520420331875574,0.8285918346407875,0.8698374731215505,0.8965104240615983
LBP06_S03,LBP06,-1520,131,3,130,-1520,1716264472.2,2024-05-21 04:07:52.200000+00:00,2024-05-21 13:07:52.200000+09:00,2024,5,21,4,7,52,200,,,,,,,,,0.279297,-0.435547,1.823242,126.89209,34.667969,-24.169922,,,,,,,,,,,0.0,1.0,1.0,3.0,0.0,0.0,0.0,4.0,0.0,0.21236322666666665,-0.31202799999999997,0.97428716,-1.2263997333333323,2.5398763066666676,8.272298146666667,19.521530640368212,3.3172927103715275,0.1215021253420244,15.026092041851715,14.979820145559227,14.322322978497443,25.598972423593437,-0.9612474733988917,24.682138226088156,-0.9563405571786229,0.06693377333333336,-0.12351900000000005,0.84895484,1.0394076133333334,0.8605006645744462,0.8067642594026929,0.8675471789690125,0.8893278239582186
LBP06_S03,LBP06,-1519,132,3,131,-1519,1716264472.24,2024-05-21 04:07:52.240000+00:00,2024-05-21 13:07:52.240000+09:00,2024,5,21,4,7,52,240,,,,,,,,,0.154541,-0.061523,1.147461,-29.35791,85.81543,34.240723,,,,,,,,,,,0.0,1.0,1.0,3.0,0.0,0.0,0.0,4.0,0.0,0.20938146666666665,-0.31488606666666663,0.9714453599999999,-2.0084635333333325,2.686360680000001,8.04606116,13.207855596987459,1.064029522650451,-3.2384918124430078,15.554406265731213,15.022381326465245,14.192783305999722,25.865934991185117,-0.9713586080968782,24.86007958552731,-0.9565031476420343,-0.05484046666666664,0.25336306666666664,0.17601564000000014,0.4842191733333334,0.3133397929717277,0.8000103095683128,0.8484394607360247,0.8806652676078048
LBP06_S03,LBP06,-1518,133,3,132,-1518,1716264472.28,2024-05-21 04:07:52.280000+00:00,2024-05-21 13:07:52.280000+09:00,2024,5,21,4,7,52,280,,,,,,,,,-0.181152,-0.106201,0.035645,35.705566,-13.61084,11.59668,,,,,,,,,,,0.0,1.0,1.0,3.0,0.0,0.0,0.0,4.0,0.0,0.21009110666666667,-0.3124121066666667,0.9668620266666669,-0.6608072799999991,2.6692708266666676,7.540690053333335,4.949538229941231,-1.8065698692276877,-5.45258353776885,15.752387794928863,14.950118531696138,13.974679964488969,25.82509332923073,-0.9664074092144572,24.97539288191464,-0.9553583428134711,-0.3912431066666667,0.2062111066666667,-0.9312170266666668,1.5286712400000002,1.0309021970006582,0.8199874654807451,0.8596636485278508,0.8721115703343205
LBP06_S03,LBP06,-1517,134,3,133,-1517,1716264472.32,2024-05-21 04:07:52.320000+00:00,2024-05-21 13:07:52.320000+09:00,2024,5,21,4,7,52,320,,,,,,,,,0.018066,-0.260498,0.452148,47.546387,-79.223633,-28.503418,,,,,,,,,,,0.0,1.0,1.0,3.0,0.0,0.0,0.0,4.0,0.0,0.21224932,-0.30510416,0.9596191866666667,-1.8855794133333326,2.4527994800000013,8.085123653333333,-2.676741046832367,-4.634996132248582,-6.431462294462144,15.645318153055568,14.764718686406194,13.717421472710482,25.513536600381787,-0.9515638889238381,25.02618632266041,-0.9531738379455591,-0.19418332,0.044606160000000006,-0.5074711866666667,0.7462606666666667,0.5451824250405023,0.829834331098579,0.8540256289713222,0.8684921511198269
LBP06_S03,LBP06,-1516,135,3,134,-1516,1716264472.36,2024-05-21 04:07:52.360000+00:00,2024-05-21 13:07:52.360000+09:00,2024,5,21,4,7,52,360,,,,,,,,,0.72998,0.210205,0.688721,52.246094,-62.988281,-44.006348,,,,,,,,,,,0.0,1.0,1.0,3.0,0.0,0.0,0.0,4.0,0.0,0.20942054666666668,-0.30337890666666667,0.9563639866666667,-1.6943359333333325,2.048339853333334,7.514648400000001,-7.274963749248568,-6.787295913650651,-6.3134239600180395,15.354319603085624,14.493226849860168,13.46488451430976,25.042201779773798,-0.9551005183780304,25.031169524926305,-0.9546574960381017,0.5205594533333333,0.5135839066666666,-0.26764298666666664,1.3017863466666664,0.7787061974541796,0.8263195418176967,0.8434229077868247,0.8726330583199761
LBP06_S03,LBP06,-1515,136,3,135,-1515,1716264472.4,2024-05-21 04:07:52.400000+00:00,2024-05-21 13:07:52.400000+09:00,2024,5,21,4,7,52,400,,,,,,,,,0.361816,-0.270752,1.249756,-201.416016,36.132812,28.625488,,,,,,,,,,,0.0,1.0,1.0,3.0,0.0,0.0,0.0,4.0,0.0,0.21372068,-0.2979068933333333,0.9571940666666667,-3.616536453333332,0.08626302666666731,6.583658826666667,-7.239843412717719,-7.887459261160485,-5.432274098778635,15.064725866576916,14.177728479413748,13.247593550358616,24.56527396848231,-0.9380731711684691,25.022673201889738,-0.9515529001725488,0.14809532000000003,0.02715489333333332,0.29256193333333336,0.4678121466666667,0.3290320605557837,0.8306052697855912,0.8409128286103394,0.8683483710768198
LBP06_S03,LBP06,-1514,137,3,136,-1514,1716264472.44,2024-05-21 04:07:52.440000+00:00,2024-05-21 13:07:52.440000+09:00,2024,5,21,4,7,52,440,,,,,,,,,-0.135742,-0.737305,1.809082,-45.10498,-22.583008,-30.334473,,,,,,,,,,,0.0,1.0,1.0,3.0,0.0,0.0,0.0,4.0,0.0,0.22107093333333333,-0.30686848,0.9709766266666666,-4.475911453333333,0.646158853333334,6.609700493333333,-2.2502832617481143,-7.91038302552759,-4.234890184475914,14.974714536106992,13.861313158392644,13.07819794297958,24.23669406805884,-0.9358755926258715,25.03868636136763,-0.9463023027443395,-0.3568129333333333,-0.43043652,0.8381053733333335,1.6253548266666669,1.0074778826127422,0.8077516745878783,0.8427858503665371,0.8639321631154829
LBP06_S03,LBP06,-1513,138,3,137,-1513,1716264472.48,2024-05-21 04:07:52.480000+00:00,2024-05-21 13:07:52.480000+09:00,2024,5,21,4,7,52,480,,,,,,,,,0.540771,-1.012695,2.351318,-6.286621,-37.231445,-6.469727,,,,,,,,,,,0.0,1.0,1.0,3.0,0.0,0.0,0.0,4.0,0.0,0.21499672,-0.30240558666666667,0.9631185466666666,-5.048014319999999,1.9026692666666671,7.140299453333333,6.567777765006666,-7.101924878426422,-3.152762106764911,15.237425646707258,13.577236163255588,12.952087458708984,24.17182350816326,-0.9419976672555811,25.113914085764993,-0.9424754296286327,0.32577427999999997,-0.7102894133333333,1.3881994533333333,2.4242631466666666,1.5930278260086652,0.8313931035744198,0.8672855945337833,0.8685739824378172
LBP06_S03,LBP06,-1512,139,3,138,-1512,1716264472.52,2024-05-21 04:07:52.520000+00:00,2024-05-21 13:07:52.520000+09:00,2024,5,21,4,7,52,520,,,,,,,,,-0.147949,-0.14209,0.333008,99.121094,159.423828,81.298828,,,,,,,,,,,0.0,1.0,1.0,3.0,0.0,0.0,0.0,4.0,0.0,0.20464190666666668,-0.30290038666666663,0.9526790933333334,-4.044596346666666,2.0092773466666674,7.568359346666668,16.938373756773096,-5.801234383154992,-2.4674880661105627,15.914960596978183,13.345186787929388,12.853387936064562,24.425182960278175,-0.9647002357550732,25.27103832205947,-0.9384182840978385,-0.3525909066666667,0.16081038666666664,-0.6196710933333334,1.1330723866666668,0.7308711184859021,0.8403957602175405,0.8757989474502896,0.8746786847533404
LBP06_S03,LBP06,-1511,140,3,139,-1511,1716264472.56,2024-05-21 04:07:52.560000+00:00,2024-05-21 13:07:52.560000+09:00,2024,5,21,4,7,52,560,,,,,,,,,-0.178711,0.202881,-0.236572,47.851562,-31.860352,-13.916016,,,,,,,,,,,0.0,1.0,1.0,3.0,0.0,0.0,0.0,4.0,0.0,0.21029945333333336,-0.28723632,0.9425781866666667,-1.8302408799999994,-0.6461588533333325,6.813151013333334,26.118957546994547,-4.288428081781239,-2.2303539757109343,16.959718898857965,13.173649664658138,12.764173777036126,24.98201838974994,-0.9292044369083982,25.514361719071065,-0.9380407518390239,-0.3890104533333334,0.49011731999999997,-1.1791501866666667,2.05827796,1.3348929855545062,0.8650779677790413,0.8915471430404098,0.8719637493808906
LBP06_S03,LBP06,-1510,141,3,140,-1510,1716264472.6,2024-05-21 04:07:52.600000+00:00,2024-05-21 13:07:52.600000+09:00,2024,5,21,4,7,52,600,,,,,,,,,0.346191,-0.209961,0.491943,111.999512,-118.347168,-52.246094,,,,,,,,,,,0.0,1.0,1.0,3.0,0.0,0.0,0.0,4.0,0.0,0.21450192,-0.28004882666666664,0.9318913333333334,-5.445963533333333,-1.058756506666666,8.287760386666667,31.70914212407005,-2.745568202354305,-2.279473631811463,18.228084583820767,13.063826936563965,12.672994831763667,25.759104018372362,-0.9087414991167974,25.82798844664837,-0.9381012291683328,0.13168908000000001,0.07008782666666663,-0.4399483333333334,0.64172524,0.4645523148590274,0.8736356812920866,0.8900669166562075,0.8678324066881917
LBP06_S03,LBP06,-1509,142,3,141,-1509,1716264472.64,2024-05-21 04:07:52.640000+00:00,2024-05-21 13:07:52.640000+09:00,2024,5,21,4,7,52,640,,,,,,,,,0.787109,0.266846,1.143311,120.544434,-30.944824,-29.541016,,,,,,,,,,,0.0,1.0,1.0,3.0,0.0,0.0,0.0,4.0,0.0,0.20752601333333334,-0.28600259999999994,0.9280143866666667,-6.883138013333332,-1.3045247466666658,7.830403613333333,32.280743453354226,-1.3187303915343382,-2.343703296229649,19.519314321954937,13.011077720902591,12.579246699914481,26.618212235158698,-0.933089876939811,26.179762053403373,-0.9412380484239475,0.5795829866666666,0.5528485999999999,0.21529661333333328,1.3477281999999997,0.8294037886748626,0.8691500788763126,0.8787583294958032,0.8684914645517271
LBP06_S03,LBP06,-1508,143,3,142,-1508,1716264472.68,2024-05-21 04:07:52.680000+00:00,2024-05-21 13:07:52.680000+09:00,2024,5,21,4,7,52,680,,,,,,,,,0.095703,-0.989502,1.361328,-233.276367,50.78125,34.118652,,,,,,,,,,,0.0,1.0,1.0,3.0,0.0,0.0,0.0,4.0,0.0,0.21580076,-0.29261392,0.9578483600000001,-8.244628906666668,-2.8035481866666663,6.940917946666667,27.643165998191183,-0.17834906948106333,-2.166881266626167,20.625040961882583,13.003943758123349,12.492571449249434,27.396335692175544,-0.9258359539065136,26.53034218482923,-0.942898276309762,-0.12009776000000001,-0.6968880799999999,0.40347964000000003,1.22046548,0.8141696923231874,0.8666188289522684,0.8745089535165217,0.8758828508521219
LBP06_S03,LBP06,-1507,144,3,143,-1507,1716264472.72,2024-05-21 04:07:52.720000+00:00,2024-05-21 13:07:52.720000+09:00,2024,5,21,4,7,52,720,,,,,,,,,0.039307,-0.593994,1.957275,101.074219,-12.573242,-20.324707,,,,,,,,,,,0.0,1.0,1.0,3.0,0.0,0.0,0.0,4.0,0.0,0.21752601333333335,-0.3100944,0.9745280399999999,-7.9711913999999995,-0.6030273599999995,7.272949200000001,18.75061841403608,0.515469732744339,-1.5799521980857882,21.375065698444025,13.024562547433122,12.429373361326002,27.9467705704977,-0.9477885663356933,26.84458312286612,-0.9428772133298606,-0.17821901333333334,-0.28389960000000003,0.9827469600000002,1.4448655733333335,1.038341267109667,0.8790971110596589,0.8826702695687106,0.8733092119557863
LBP06_S03,LBP06,-1506,145,3,144,-1506,1716264472.76,2024-05-21 04:07:52.760000+00:00,2024-05-21 13:07:52.760000+09:00,2024,5,21,4,7,52,760,,,,,,,,,0.472656,-0.972412,2.226318,46.325684,40.588379,-13.061523,,,,,,,,,,,0.0,1.0,1.0,3.0,0.0,0.0,0.0,4.0,0.0,0.20763994666666669,-0.3010123733333333,0.96174484,-3.889973946666666,3.2942708133333336,7.343749973333334,7.396040047902754,0.7309159058609828,-0.4962984398241216,21.670907300360135,13.05379918366756,12.409521423733038,28.17846905554685,-0.95570529167112,27.101327298651956,-0.9393429714264936,0.26501605333333333,-0.6713996266666667,1.2645731599999999,2.20098884,1.4560756313478023,0.8896272339159048,0.9001308308814241,0.8759390382289054
LBP06_S03,LBP06,-1505,146,3,145,-1505,1716264472.8,2024-05-21 04:07:52.800000+00:00,2024-05-21 13:07:52.800000+09:00,2024,5,21,4,7,52,800,,,,,,,,,-0.329102,0.158447,-0.032715,20.874023,116.149902,62.316895,,,,,,,,,,,0.0,1.0,1.0,3.0,0.0,0.0,0.0,4.0,0.0,0.19919593333333332,-0.2977115866666667,0.95366216,-5.436197906666665,2.1166992000000007,7.5895182000000005,-4.16417662601462,0.6575277219173845,1.1397294129611444,21.50434023531955,13.080100292544257,12.455110600251484,28.083010036032398,-0.9694413637246163,27.29889859021976,-0.9403425785726067,-0.5282979333333333,0.4561585866666667,-0.9863771600000001,1.9708336800000001,1.2083539482799184,0.9114791431074739,0.9006992957908819,0.8776787066812034
LBP06_S03,LBP06,-1504,147,3,146,-1504,1716264472.84,2024-05-21 04:07:52.840000+00:00,2024-05-21 13:07:52.840000+09:00,2024,5,21,4,7,52,840,,,,,,,,,-0.053711,0.202393,-0.023438,-33.14209,-55.236816,0.366211,,,,,,,,,,,0.0,1.0,1.0,3.0,0.0,0.0,0.0,4.0,0.0,0.20196286666666666,-0.29044270666666666,0.9457845466666667,-3.334960933333332,-0.05289714666666612,7.749837213333335,-13.603819764918844,0.6636216777199713,3.3964050137954453,20.960187444722795,13.106645159653056,12.5909668008033,27.74249538231741,-0.9524778714840165,27.455891969977568,-0.9432838708650548,-0.25567386666666664,0.49283570666666665,-0.9692225466666666,1.71773212,1.11698187309774,0.9162242693464377,0.8978779689405081,0.8735516460919842
LBP06_S03,LBP06,-1503,148,3,147,-1503,1716264472.88,2024-05-21 04:07:52.880000+00:00,2024-05-21 13:07:52.880000+09:00,2024,5,21,4,7,52,880,,,,,,,,,0.461426,-0.464355,0.742676,-23.31543,-155.273438,-14.953613,,,,,,,,,,,0.0,1.0,1.0,3.0,0.0,0.0,0.0,4.0,0.0,0.20539386666666667,-0.2885481733333333,0.9348991199999999,-5.209960933333333,-0.7820638133333327,8.642578106666669,-18.94452896606949,1.102165542946737,6.34530945325693,20.202406286080016,13.150731781370926,12.844779178933578,27.31423288853213,-0.9417870374565666,27.608265139286164,-0.9446773678611153,0.2560321333333333,-0.1758068266666667,-0.19222311999999986,0.6240620799999999,0.36525363990569004,0.9105647709600214,0.8849356520469179,0.8732637655307459
LBP06_S03,LBP06,-1502,149,3,148,-1502,1716264472.92,2024-05-21 04:07:52.920000+00:00,2024-05-21 13:07:52.920000+09:00,2024,5,21,4,7,52,920,,,,,,,,,0.625488,0.138184,1.079102,56.274414,20.263672,-12.329102,,,,,,,,,,,0.0,1.0,1.0,3.0,0.0,0.0,0.0,4.0,0.0,0.20777342666666668,-0.28381185333333336,0.93718428,-4.794921879999999,-2.0019531333333327,8.920898413333335,-18.9708641355808,2.0776101639670537,9.99123432651084,19.443571720656784,13.233836187929608,13.244428551994012,26.992624718136504,-0.9293578167214029,27.803651700574694,-0.9492660406352094,0.4177145733333334,0.42199585333333334,0.14191772000000002,0.9816281466666668,0.6104970141250285,0.8968333446749497,0.8641167144414872,0.8721135356770935
LBP06_S03,LBP06,-1501,150,3,149,-1501,1716264472.96,2024-05-21 04:07:52.960000+00:00,2024-05-21 13:07:52.960000+09:00,2024,5,21,4,7,52,960,,,,,,,,,0.041016,-0.438721,1.195557,-206.115723,71.411133,45.532227,,,,,,,,,,,0.0,1.0,1.0,3.0,0.0,0.0,0.0,4.0,0.0,0.21196938666666665,-0.29599284000000003,0.9668750266666666,-7.32421876,-3.7630208399999994,8.179524720000002,-13.551320331264568,3.3434744148641116,14.17883349109422,18.901518907406203,13.367575164524172,13.81158189163778,26.957731305428027,-0.9392005083695294,28.093313801941427,-0.9519660981019614,-0.17095338666666665,-0.14272816,0.2286819733333334,0.5423635200000001,0.31920500152318393,0.8237624281238972,0.857274704535278,0.8628722834474576
LBP06_S03,LBP06,-1500,151,3,150,-1500,1716264473.0,2024-05-21 04:07:53+00:00,2024-05-21 13:07:53+09:00,2024,5,21,4,7,53,0,4.0,7.0,53.0,40.523144,141.590042,2.907,3.0,14.0,0.217773,-1.223633,2.106934,-46.081543,-64.880371,-25.878906,-552.0,64.0,533.0,488.0,0.0,1026.0,22.889999,0.128827,-105.553726,3.817969,0.0,1.0,1.0,3.0,0.0,0.0,0.0,4.0,0.0,0.21664712,-0.30183267999999996,0.9857194266666667,-6.173502613333333,-1.6666666666666659,7.840169253333333,-3.739812927363823,4.421986183552842,18.535027422847065,18.75192639031165,13.544454611866286,14.552982988551664,27.32903781595039,-0.9381544220412784,28.522275422515612,-0.9506247016144208,0.0011258799999999958,-0.92180032,1.1212145733333332,2.044140773333333,1.451495510503882,0.8656082556922675,0.8700146848933185,0.8618034395089901
LBP06_S03,LBP06,-1499,152,3,151,-1499,1716264473.04,2024-05-21 04:07:53.040000+00:00,2024-05-21 13:07:53.040000+09:00,2024,5,21,4,7,53,40,,,,,,,,,0.486572,-0.8125,1.911377,116.149902,56.45752,17.211914,,,,,,,,,,,0.0,1.0,1.0,3.0,0.0,0.0,0.0,4.0,0.0,0.20883788,-0.2965787733333333,0.9773568,-5.143229173333332,2.2208658800000007,8.579101533333333,8.435462877720617,4.883798867344989,22.491062634636034,19.089344905420475,13.739806566560086,15.452625493937106,28.14194392824464,-0.9470248469004164,29.118913379723512,-0.9469456901421921,0.27773412,-0.5159212266666666,0.9340202000000001,1.7276755466666667,1.1025899906789707,0.8555053258287275,0.872176390735065,0.870835385719356
LBP06_S03,LBP06,-1498,153,3,152,-1498,1716264473.08,2024-05-21 04:07:53.080000+00:00,2024-05-21 13:07:53.080000+09:00,2024,5,21,4,7,53,80,,,,,,,,,-0.439453,-0.095703,-0.080322,116.088867,168.029785,52.490234,,,,,,,,,,,0.0,1.0,1.0,3.0,0.0,0.0,0.0,4.0,0.0,0.2012109333333333,-0.30224284,0.9694759333333334,-6.552734373333333,1.477050773333334,8.710123666666666,20.469955665835062,4.6193143728390185,25.392883189838603,19.908143132053876,13.924579141473647,16.46834082153065,29.350201305060917,-0.9717226816474536,29.88610939937564,-0.9461433303436984,-0.6406639333333333,0.20653984000000003,-1.0497979333333334,1.8970017066666667,1.2470704397957242,0.894711238300522,0.875127852631929,0.8781762623336404
LBP06_S03,LBP06,-1497,154,3,153,-1497,1716264473.12,2024-05-21 04:07:53.120000+00:00,2024-05-21 13:07:53.120000+09:00,2024,5,21,4,7,53,120,,,,,,,,,0.031982,0.312744,0.13916,70.19043,-34.729004,27.648926,,,,,,,,,,,0.0,1.0,1.0,3.0,0.0,0.0,0.0,4.0,0.0,0.19716145333333332,-0.29814778666666664,0.95991864,-3.8940429733333333,-0.04475911999999918,7.863769493333334,29.989212748594053,3.9313433377669997,26.67009474011799,21.10771164199764,14.081832874984327,17.53514461113537,30.843391584165023,-0.9747891410032135,30.796528182203723,-0.9467383373915654,-0.16517945333333334,0.6108917866666667,-0.82075864,1.59682988,1.0363965321993993,0.9094544731148302,0.8728799001245767,0.8824962957748236
LBP06_S03,LBP06,-1496,155,3,154,-1496,1716264473.16,2024-05-21 04:07:53.160000+00:00,2024-05-21 13:07:53.160000+09:00,2024,5,21,4,7,53,160,,,,,,,,,0.241211,-0.188965,0.607666,-80.444336,-147.766113,49.316406,,,,,,,,,,,0.0,1.0,1.0,3.0,0.0,0.0,0.0,4.0,0.0,0.20414386666666667,-0.2869140533333333,0.9447916933333332,-2.618815106666666,-1.4322916799999992,7.447102826666668,35.23311000849407,3.376407394409962,26.002498886408592,22.517036042337402,14.216889170760725,18.575244566591714,32.468085261288664,-0.9422913267957138,31.794211409574142,-0.9491837897465029,0.037067133333333335,0.09794905333333331,-0.3371256933333332,0.47214187999999985,0.3530180201178516,0.877493512592042,0.8530426736164148,0.872389486278381
LBP06_S03,LBP06,-1495,156,3,155,-1495,1716264473.2,2024-05-21 04:07:53.200000+00:00,2024-05-21 13:07:53.200000+09:00,2024,5,21,4,7,53,200,,,,,,,,,0.700195,-0.458496,1.183838,-11.59668,-28.564453,48.217773,,,,,,,,,,,0.0,1.0,1.0,3.0,0.0,0.0,0.0,4.0,0.0,0.20349933333333334,-0.27985025333333335,0.9355794533333334,-3.622233066666666,-2.4405924533333323,7.106119760000001,35.29820732598324,3.441615867546501,23.415195507155435,23.928964335376733,14.354553805462585,19.51185238687793,34.04938960811142,-0.9326512490023297,32.8030582919133,-0.9548690821041179,0.49669566666666665,-0.17864574666666666,0.24825854666666658,0.9235999599999999,0.583312261212278,0.8664059764575552,0.8365851179301241,0.86716677813186
LBP06_S03,LBP06,-1494,157,3,156,-1494,1716264473.24,2024-05-21 04:07:53.240000+00:00,2024-05-21 13:07:53.240000+09:00,2024,5,21,4,7,53,240,,,,,,,,,0.366943,-0.406494,1.47168,42.175293,47.912598,-0.183105,,,,,,,,,,,0.0,1.0,1.0,3.0,0.0,0.0,0.0,4.0,0.0,0.20785154666666666,-0.2937499866666667,0.9497493733333334,-7.3160807199999995,-5.174153639999999,6.490885386666667,30.183345965043276,4.263790061583851,19.261065621411028,25.136298173978464,14.525105407925938,20.28229501173437,35.41445557883867,-0.9444542734990786,33.74017079044394,-0.960361445677411,0.15909145333333335,-0.11274401333333334,0.5219306266666667,0.7937660933333334,0.5571650402877755,0.8761589863501972,0.838084647959255,0.8576793026074155
LBP06_S03,LBP06,-1493,158,3,157,-1493,1716264473.28,2024-05-21 04:07:53.280000+00:00,2024-05-21 13:07:53.280000+09:00,2024,5,21,4,7,53,280,,,,,,,,,0.04248,-0.914795,1.993164,92.102051,-15.319824,-48.88916,,,,,,,,,,,0.0,1.0,1.0,3.0,0.0,0.0,0.0,4.0,0.0,0.2123632666666667,-0.30236001333333334,0.9739355733333332,-4.433593733333332,-3.8696288933333327,6.289876266666667,20.74082812343502,5.566733864930805,14.104139282891602,25.965931298915866,14.74777476252317,20.846460583050032,36.418420716812975,-0.9477371079352381,34.529921833281755,-0.9624173200441328,-0.1698832666666667,-0.6124349866666667,1.0192284266666667,1.8015466800000002,1.2011509159602496,0.8829689351085807,0.8514782002946629,0.8674320773880941
LBP06_S03,LBP06,-1492,159,3,158,-1492,1716264473.32,2024-05-21 04:07:53.320000+00:00,2024-05-21 13:07:53.320000+09:00,2024,5,21,4,7,53,320,,,,,,,,,0.348633,-0.619629,1.744141,55.175781,39.978027,10.131836,,,,,,,,,,,0.0,1.0,1.0,3.0,0.0,0.0,0.0,4.0,0.0,0.21165037333333334,-0.30538410666666665,0.98659508,-4.421386706666666,-1.068522119999999,7.145182253333334,8.559548823402883,6.8314352418115645,8.568367413058507,26.30831325185198,15.021032172195632,21.18919527957237,36.969456991840694,-0.9538123402707777,35.11466341717159,-0.959092583756702,0.1369826266666667,-0.31424489333333333,0.75754592,1.2087734399999999,0.8314985952503009,0.8944215819169727,0.862127956507776,0.8674909466198724
LBP06_S03,LBP06,-1491,160,3,159,-1491,1716264473.36,2024-05-21 04:07:53.360000+00:00,2024-05-21 13:07:53.360000+09:00,2024,5,21,4,7,53,360,,,,,,,,,-0.31958,0.776123,-0.433105,74.157715,192.626953,52.429199,,,,,,,,,,,0.0,1.0,1.0,3.0,0.0,0.0,0.0,4.0,0.0,0.19402667999999998,-0.30822264,0.9701920799999999,-3.9656575466666664,1.368815120000001,7.723795533333334,-4.281210271091292,7.560650679670855,3.2255654294118132,26.13706484100833,15.323458199382467,21.31821789674884,37.04620012881966,-0.996053431945679,35.46018322725111,-0.9572812104887352,-0.51360668,1.08434564,-1.40329708,3.0012494,1.8463044124586168,0.9371255105171502,0.8817225261674235,0.8746571086969332
LBP06_S03,LBP06,-1490,161,3,160,-1490,1716264473.4,2024-05-21 04:07:53.400000+00:00,2024-05-21 13:07:53.400000+09:00,2024,5,21,4,7,53,400,,,,,,,,,0.210693,-0.549805,0.276611,-279.968262,-132.507324,18.371582,,,,,,,,,,,0.0,1.0,1.0,3.0,0.0,0.0,0.0,4.0,0.0,0.19044594666666667,-0.30027016,0.95812828,0.3027343866666673,0.30517578666666756,7.1468098666666675,-15.62866605787509,7.461252280978741,-1.448179817105117,25.511918198693326,15.621908290621617,21.260290704064637,36.700162801256745,-0.9930780577742105,35.556451788926225,-0.960315782234642,0.02024705333333332,-0.24953483999999998,-0.68151728,0.9512991733333334,0.7260464051843427,0.9530060843022926,0.891805677043942,0.8782772471743238
LBP06_S03,LBP06,-1489,162,3,161,-1489,1716264473.44,2024-05-21 04:07:53.440000+00:00,2024-05-21 13:07:53.440000+09:00,2024,5,21,4,7,53,440,,,,,,,,,0.209961,-0.623047,0.657471,103.393555,-78.00293,-53.833008,,,,,,,,,,,0.0,1.0,1.0,3.0,0.0,0.0,0.0,4.0,0.0,0.19778644,-0.29433916,0.94553388,3.2470703200000006,-1.394042959999999,6.367187480000001,-23.766679621517692,6.455961671741689,-5.075791814441821,24.561251013832617,15.880146757491284,21.057259031486964,36.03945435662274,-0.967583590567633,35.41532712599962,-0.9649937196800987,0.012174560000000001,-0.32870784000000003,-0.28806288,0.62894528,0.43723824949625995,0.9301964989776333,0.8689740867827558,0.8719227332369024
LBP06_S03,LBP06,-1488,163,3,162,-1488,1716264473.48,2024-05-21 04:07:53.480000+00:00,2024-05-21 13:07:53.480000+09:00,2024,5,21,4,7,53,480,,,,,,,,,0.460693,0.4375,0.86792,13.793945,14.343262,11.413574,,,,,,,,,,,0.0,1.0,1.0,3.0,0.0,0.0,0.0,4.0,0.0,0.19590168,-0.27266924,0.9282487200000001,2.7311198000000005,-0.9464518133333324,6.39485676,-27.844393025606085,4.5823632282334,-7.385470457943882,23.447475292808374,16.06344128662062,20.761840213169208,35.19761714395929,-0.938475318773147,35.06663573273451,-0.9714367416241633,0.26479132000000005,0.7101692399999999,-0.06032872000000011,1.0352892800000002,0.7603251587619329,0.8968883922877641,0.8641407479310917,0.8771531937851103
LBP06_S03,LBP06,-1487,164,3,163,-1487,1716264473.52,2024-05-21 04:07:53.520000+00:00,2024-05-21 13:07:53.520000+09:00,2024,5,21,4,7,53,520,,,,,,,,,0.203369,-0.650146,1.620117,-189.51416,28.076172,8.605957,,,,,,,,,,,0.0,1.0,1.0,3.0,0.0,0.0,0.0,4.0,0.0,0.19345376,-0.28044268,0.9404459866666667,-3.5058593599999996,-3.2568359199999986,6.043294266666667,-28.066011234004144,1.921031125575279,-8.233978143141657,22.32483484344821,16.14028253164363,20.43248108744354,34.29858968496019,-0.9566754083235424,34.553238520651846,-0.975910149430011,0.009915239999999992,-0.36970332,0.6796710133333334,1.0592895733333334,0.7737774506722461,0.8986046455752178,0.8695002028963791,0.8834008468252658
LBP06_S03,LBP06,-1486,165,3,164,-1486,1716264473.56,2024-05-21 04:07:53.560000+00:00,2024-05-21 13:07:53.560000+09:00,2024,5,21,4,7,53,560,,,,,,,,,0.073975,-0.827148,1.758057,22.705078,-16.052246,-43.212891,,,,,,,,,,,0.0,1.0,1.0,3.0,0.0,0.0,0.0,4.0,0.0,0.19848955999999998,-0.2986067466666667,0.9683268399999999,-4.302571599999999,-2.8971353999999994,5.893554693333334,-25.58220998132914,-1.3600035550116136,-7.6315499100425965,21.301546444195044,16.085882389443167,20.127219091041837,33.43077087803982,-0.9726370442547849,33.9252016941191,-0.9765177654435881,-0.12451455999999998,-0.5285412533333333,0.7897301600000001,1.4427859733333332,0.9584015117584018,0.8835449866233737,0.8743114772012075,0.8888797575680644
LBP06_S03,LBP06,-1485,166,3,165,-1485,1716264473.6,2024-05-21 04:07:53.600000+00:00,2024-05-21 13:07:53.600000+09:00,2024,5,21,4,7,53,600,,,,,,,,,0.33667,-0.503418,1.499023,29.602051,72.814941,-9.033203,,,,,,,,,,,0.0,1.0,1.0,3.0,0.0,0.0,0.0,4.0,0.0,0.19624997333333333,-0.2997623333333333,0.9727506666666667,-3.3333333199999995,0.6982422000000008,6.7187500133333335,-22.11831356626033,-4.89103773051682,-5.748112535775705,20.41681390154463,15.890240880222494,19.89729458961081,32.63814297884541,-0.9794306234568972,33.233418086084704,-0.9727619940521783,0.1404200266666667,-0.20365566666666673,0.5262723333333333,0.8703480266666668,0.5815118083810706,0.8882233663642554,0.8809295238281709,0.8894523998922235
LBP06_S03,LBP06,-1484,167,3,166,-1484,1716264473.64,2024-05-21 04:07:53.640000+00:00,2024-05-21 13:07:53.640000+09:00,2024,5,21,4,7,53,640,,,,,,,,,-0.412354,-0.086914,-0.428467,-0.732422,85.083008,35.583496,,,,,,,,,,,0.0,1.0,1.0,3.0,0.0,0.0,0.0,4.0,0.0,0.18225582666666665,-0.29800452,0.9465592533333334,-1.9099934799999994,1.6210937600000008,6.482747413333334,-19.44895917937799,-8.051789417760679,-2.8900426089948006,19.638855534369508,15.568169303512068,19.781692885251015,31.927541646187574,-1.008884492939723,32.52363938980863,-0.9698250691013974,-0.5946098266666666,0.21109052,-1.3750262533333333,2.1807266,1.51288375328653,0.915562564948722,0.8923563219125172,0.8910264079801096
LBP06_S03,LBP06,-1483,168,3,167,-1483,1716264473.68,2024-05-21 04:07:53.680000+00:00,2024-05-21 13:07:53.680000+09:00,2024,5,21,4,7,53,680,,,,,,,,,-0.092529,0.224365,-0.053955,14.892578,-60.058594,-16.418457,,,,,,,,,,,0.0,1.0,1.0,3.0,0.0,0.0,0.0,4.0,0.0,0.17921871999999997,-0.28175452,0.9255143333333332,-1.0791015599999998,-0.039876293333332646,6.606445333333333,-18.88769712746397,-10.101586954472848,0.5497147857146943,18.88334764927095,15.164105825333154,19.803681476679603,31.28444859598635,-0.9924711859937145,31.832224916700767,-0.9690368635374383,-0.27174771999999997,0.50611952,-0.9794693333333332,1.7573365733333333,1.1355016366305568,0.9284158427210167,0.8975173358366425,0.8924779165846866
LBP06_S03,LBP06,-1482,169,3,168,-1482,1716264473.72,2024-05-21 04:07:53.720000+00:00,2024-05-21 13:07:53.720000+09:00,2024,5,21,4,7,53,720,,,,,,,,,0.336182,-0.132324,0.369873,-29.724121,-158.203125,-3.417969,,,,,,,,,,,0.0,1.0,1.0,3.0,0.0,0.0,0.0,4.0,0.0,0.19064776,-0.2785481333333333,0.9190462400000001,-3.1713867199999997,-2.1468098933333324,6.67805992,-20.96111498897711,-10.483342218051776,4.153228101690764,18.044903049711863,14.744772136611083,19.969810600747234,30.6890887265132,-0.9598885004065489,31.18463735798765,-0.9754185102941143,0.14553423999999998,0.14622413333333328,-0.5491732400000001,0.8409316133333333,0.5866455145260719,0.910348012617673,0.894722561838666,0.8918961839183648
LBP06_S03,LBP06,-1481,170,3,169,-1481,1716264473.76,2024-05-21 04:07:53.760000+00:00,2024-05-21 13:07:53.760000+09:00,2024,5,21,4,7,53,760,,,,,,,,,0.742432,-0.017822,0.943848,27.709961,-39.306641,0.976562,,,,,,,,,,,0.0,1.0,1.0,3.0,0.0,0.0,0.0,4.0,0.0,0.19660153333333333,-0.2866470933333333,0.9251725466666666,-4.2985026133333335,-2.1142578133333325,6.551920586666667,-25.356969538028626,-9.145889751575407,7.53522312654315,17.030624268190717,14.378936546548067,20.27121952580896,30.12836404847566,-0.9584957180315827,30.5969254326286,-0.9807101369093323,0.5458304666666667,0.2688250933333333,0.018675453333333425,0.8333310133333335,0.6087253910462681,0.8764540030056116,0.8830406184607581,0.89223855492282
LBP06_S03,LBP06,-1480,171,3,170,-1480,1716264473.8,2024-05-21 04:07:53.800000+00:00,2024-05-21 13:07:53.800000+09:00,2024,5,21,4,7,53,800,,,,,,,,,0.379395,-0.463379,1.34375,-165.893555,15.991211,44.494629,,,,,,,,,,,0.0,1.0,1.0,3.0,0.0,0.0,0.0,4.0,0.0,0.19875973333333335,-0.2931054266666666,0.9508040533333332,-4.298502613333333,-1.8343098933333324,6.131184906666666,-31.117865064397307,-6.662673123084354,10.390325928396557,15.785909665614824,14.112429621624692,20.686832562944822,29.60237583849607,-0.9637088082664012,30.079385336628622,-0.9821335241528615,0.18063526666666663,-0.17027357333333337,0.3929459466666668,0.7438547866666668,0.4647888836248161,0.8467114004194076,0.8790952717634407,0.8827033306670571
LBP06_S03,LBP06,-1479,172,3,171,-1479,1716264473.84,2024-05-21 04:07:53.840000+00:00,2024-05-21 13:07:53.840000+09:00,2024,5,21,4,7,53,840,,,,,,,,,-0.076904,-0.59668,1.898682,-27.587891,14.343262,-18.127441,,,,,,,,,,,0.0,1.0,1.0,3.0,0.0,0.0,0.0,4.0,0.0,0.20249672,-0.29583654666666664,0.9688476800000001,-4.816894546666666,-0.3222656133333326,6.346028653333334,-36.957352188086844,-4.021354560892326,12.52800366268739,14.307615578091351,13.951575439188998,21.18795270945232,29.1253096255441,-0.9597015349280422,29.64071396849002,-0.9800089291844104,-0.27940072,-0.30084345333333334,0.9298343199999999,1.5100784933333333,1.016446461157648,0.8426899839418038,0.8794571266441209,0.87948197394094
LBP06_S03,LBP06,-1478,173,3,172,-1478,1716264473.88,2024-05-21 04:07:53.880000+00:00,2024-05-21 13:07:53.880000+09:00,2024,5,21,4,7,53,880,,,,,,,,,0.504395,-0.385742,1.896973,-69.824219,32.165527,10.375977,,,,,,,,,,,0.0,1.0,1.0,3.0,0.0,0.0,0.0,4.0,0.0,0.1914127466666667,-0.30847652,0.96866864,-5.550130226666666,2.5732422000000006,7.418619800000001,-41.54681835479684,-2.162844240090124,13.890923521856578,12.645742843899477,13.865061669585392,21.74358965032658,28.721741556828167,-1.002291786339907,29.290985136895205,-0.9731797622784704,0.31298225333333335,-0.07726548,0.92830436,1.3185520933333335,0.9826885722833307,0.8673873812369095,0.8889760760984654,0.8790862284435816
LBP06_S03,LBP06,-1477,174,3,173,-1477,1716264473.92,2024-05-21 04:07:53.920000+00:00,2024-05-21 13:07:53.920000+09:00,2024,5,21,4,7,53,920,,,,,,,,,-0.087891,-0.551025,0.643311,26.672363,167.602539,39.978027,,,,,,,,,,,0.0,1.0,1.0,3.0,0.0,0.0,0.0,4.0,0.0,0.18382811999999998,-0.30119136,0.9496484533333333,-2.3299153733333324,1.563313826666667,7.0849609466666665,-43.67951959103977,-1.5131883658584482,14.552357481537914,10.898562060257886,13.804534134951055,22.325683949588097,28.42147043136961,-1.0095916744757198,29.042950415866564,-0.9691134945026192,-0.27171912,-0.24983363999999997,-0.3063374533333333,0.8278902133333332,0.47967777013738727,0.8621546114774038,0.8794939780761769,0.8634626801201262
LBP06_S03,LBP06,-1476,175,3,174,-1476,1716264473.96,2024-05-21 04:07:53.960000+00:00,2024-05-21 13:07:53.960000+09:00,2024,5,21,4,7,53,960,,,,,,,,,-0.229492,0.297363,-0.242432,-6.225586,-10.864258,24.536133,,,,,,,,,,,0.0,1.0,1.0,3.0,0.0,0.0,0.0,4.0,0.0,0.18836262666666664,-0.29291336,0.9299251466666667,-1.4127604266666658,0.324707053333334,6.989746106666668,-42.3330721280385,-1.7746552134094757,14.69031691882263,9.205239175136345,13.733547926414676,22.913296626341,28.25536991804007,-0.986870916690079,28.9123243827919,-0.9691186556448217,-0.4178546266666666,0.59027636,-1.1723571466666667,2.1804881333333332,1.3774795641104798,0.9044855939808957,0.8641240110523963,0.8730116676838173
LBP06_S03,LBP06,-1475,176,3,175,-1475,1716264474.0,2024-05-21 04:07:54+00:00,2024-05-21 13:07:54+09:00,2024,5,21,4,7,54,0,4.0,7.0,54.0,40.523216,141.590027,3.322,3.0,14.0,0.209717,-0.228516,0.433105,-7.202148,-109.49707,-0.793457,-555.0,69.0,536.0,483.0,0.0,1025.5,22.950001,0.123872,-101.434433,3.817969,0.0,1.0,1.0,3.0,0.0,0.0,0.0,5.0,0.0,0.19181641333333335,-0.27933263999999997,0.9117936400000001,-0.45003255999999947,-0.2278645599999995,6.41276044,-36.74119743741532,-2.110988660186224,14.537636653828491,7.735591277639732,13.649108380007227,23.49480209249414,28.251429297459385,-0.9581846737723851,28.9173388711311,-0.9725107472901102,0.017900586666666635,0.05081663999999997,-0.47868864000000005,0.5474058666666667,0.48171109180602234,0.8656942172329813,0.8656512364626243,0.8685745290065394
LBP06_S03,LBP06,-1474,177,3,176,-1474,1716264474.04,2024-05-21 04:07:54.040000+00:00,2024-05-21 13:07:54.040000+09:00,2024,5,21,4,7,54,40,,,,,,,,,0.696045,0.048584,0.710938,13.61084,-111.999512,-27.46582,,,,,,,,,,,0.0,1.0,1.0,3.0,0.0,0.0,0.0,5.0,0.0,0.1991471333333333,-0.2787369333333334,0.9267871333333335,-4.082031266666666,-2.121581999999999,5.856119813333334,-26.577684667602803,-1.6366012659706421,14.316052459069109,6.67248389093562,13.583644329368402,24.067444190856904,28.430253330239417,-0.9405928238803237,29.076451636787958,-0.9743875749255105,0.4968978666666667,0.3273209333333334,-0.21584913333333355,1.0400679333333338,0.6329591864068648,0.8469089850620971,0.8512071554454123,0.8637539221774089
LBP06_S03,LBP06,-1473,178,3,177,-1473,1716264474.08,2024-05-21 04:07:54.080000+00:00,2024-05-21 13:07:54.080000+09:00,2024,5,21,4,7,54,80,,,,,,,,,0.394531,-0.162598,1.1604,-113.647461,-8.117676,56.152344,,,,,,,,,,,0.0,1.0,1.0,3.0,0.0,0.0,0.0,5.0,0.0,0.2034147066666667,-0.29200841333333327,0.9574870000000001,-4.912109386666666,-1.442057253333333,5.720214866666667,-12.24886800163754,0.06974999542090737,14.177816839796241,6.182529170870119,13.586434329185238,24.634556864448754,28.80410138569996,-0.9518085082352017,29.403085918087896,-0.9750072783675809,0.19111629333333333,0.12941041333333328,0.202913,0.5234397066666666,0.30732096938799486,0.8093190062457879,0.8520151222731549,0.8531915705032154
LBP06_S03,LBP06,-1472,179,3,178,-1472,1716264474.12,2024-05-21 04:07:54.120000+00:00,2024-05-21 13:07:54.120000+09:00,2024,5,21,4,7,54,120,,,,,,,,,0.048096,-0.808594,1.758301,-127.807617,22.033691,8.300781,,,,,,,,,,,0.0,1.0,1.0,3.0,0.0,0.0,0.0,5.0,0.0,0.20439778666666666,-0.29880529333333333,0.9761881733333333,-6.634114599999998,0.9497070666666669,6.358235706666667,4.8498176922156135,2.7216554734559533,14.180380483829243,6.376521878558743,13.695300548123477,25.201772083801924,29.38282839576659,-0.9599401118285756,29.898583278821395,-0.9691375544794137,-0.15630178666666666,-0.5097887066666666,0.7821128266666666,1.44820332,0.9465808193686306,0.8057263777325571,0.8575904254236937,0.8504953926605702
LBP06_S03,LBP06,-1471,180,3,179,-1471,1716264474.16,2024-05-21 04:07:54.160000+00:00,2024-05-21 13:07:54.160000+09:00,2024,5,21,4,7,54,160,,,,,,,,,0.412598,-0.76416,1.91748,-13.183594,3.78418,2.563477,,,,,,,,,,,0.0,1.0,1.0,3.0,0.0,0.0,0.0,5.0,0.0,0.1916862,-0.301748,0.9642741066666666,-7.709960959999998,3.98681644,7.814941439999999,22.336161065522543,5.472168327375047,14.299043035789968,7.269968321179645,13.914187281218478,25.773733805233523,30.17850893186764,-0.992416634484466,30.546780022408576,-0.9623639348586774,0.22091180000000002,-0.46241199999999993,0.9532058933333335,1.6365296933333333,1.0822330415435661,0.8348949785895857,0.8561942455908138,0.8469934419408051
LBP06_S03,LBP06,-1470,181,3,180,-1470,1716264474.2,2024-05-21 04:07:54.200000+00:00,2024-05-21 13:07:54.200000+09:00,2024,5,21,4,7,54,200,,,,,,,,,0.130371,-0.740479,1.111328,109.985352,133.239746,30.334473,,,,,,,,,,,0.0,1.0,1.0,3.0,0.0,0.0,0.0,5.0,0.0,0.18869141333333334,-0.29015294666666663,0.9446386933333332,-5.302734399999999,2.560221386666667,7.414550813333333,37.25750791313825,7.336977796815143,14.459816554464345,8.760268637705176,14.207666393091083,26.352126467412095,31.193503495064668,-0.9824770846204057,31.313178908843962,-0.9589910268412256,-0.05832041333333335,-0.45032605333333336,0.16668930666666693,0.6753357733333336,0.48371494692552264,0.8309110860181154,0.8486585312378354,0.8346937739594545
LBP06_S03,LBP06,-1469,182,3,181,-1469,1716264474.24,2024-05-21 04:07:54.240000+00:00,2024-05-21 13:07:54.240000+09:00,2024,5,21,4,7,54,240,,,,,,,,,-0.270264,0.160156,-0.327148,197.20459,85.327148,20.874023,,,,,,,,,,,0.0,1.0,1.0,3.0,0.0,0.0,0.0,5.0,0.0,0.1920052133333333,-0.28446609333333334,0.9272005466666667,-4.392089866666665,1.545410186666667,6.997884146666667,46.86182065488821,7.636774750154045,14.570000552182425,10.634741463900705,14.513137383097245,26.934926489499393,32.39165243854348,-0.9658985693487456,32.14917625778524,-0.9601629334878925,-0.4622692133333333,0.44462209333333336,-1.2543485466666668,2.1612398533333335,1.4088193312134503,0.8649772576551424,0.8705681220026699,0.8470488511912175
LBP06_S03,LBP06,-1468,183,3,182,-1468,1716264474.28,2024-05-21 04:07:54.280000+00:00,2024-05-21 13:07:54.280000+09:00,2024,5,21,4,7,54,280,,,,,,,,,0.07959,0.157959,0.342041,78.491211,-67.138672,5.432129,,,,,,,,,,,0.0,1.0,1.0,3.0,0.0,0.0,0.0,5.0,0.0,0.19278646666666666,-0.27148106666666666,0.91417972,-5.442708359999999,0.1757812800000004,6.993815133333334,49.43210122666685,6.21920551830963,14.533126643883177,12.612025512967378,14.76190560382963,27.51625155525472,33.67671516416312,-0.9435945474582358,32.999457191248624,-0.9652622351328214,-0.11319646666666666,0.4294400666666667,-0.5721387200000001,1.1147752533333335,0.7242754488782065,0.8459022389718608,0.8644355870402208,0.8496195465203955
LBP06_S03,LBP06,-1467,184,3,183,-1467,1716264474.32,2024-05-21 04:07:54.320000+00:00,2024-05-21 13:07:54.320000+09:00,2024,5,21,4,7,54,320,,,,,,,,,0.270264,0.07251,0.526611,17.578125,-98.571777,10.925293,,,,,,,,,,,0.0,1.0,1.0,3.0,0.0,0.0,0.0,5.0,0.0,0.20041342666666664,-0.28130528,0.9339941733333335,-6.9132487199999995,-0.550943973333333,5.619303413333333,44.81885751863031,3.3772128689197283,14.247477977092899,14.40477981371259,14.89699411858642,28.086150674338434,34.90343786724141,-0.9418554782683562,33.80961815075965,-0.9682020072599975,0.06985057333333336,0.35381528,-0.4073831733333334,0.8310490266666668,0.544082167389826,0.8344055818574418,0.8644135818872072,0.8528871649576645
