file_name,test_id,_program_index,program_index,session_id,index,_index,unixtime,datetime_utc,datetime_jst,rtc_year,rtc_month,rtc_day,rtc_hour,rtc_min,rtc_sec,rtc_msec,gps_hour,gps_min,gps_sec,latitude,longitude,altitude,fix_type,SIV,acc_x,acc_y,acc_z,gyro_x,gyro_y,gyro_z,mag_x,mag_y,mag_z,illuminance,atmopress,water_pressure,water_temp,depth,alt_wps,battery_level,behavior_class,camera_command,camera_recording,camera_count,play_audio,speaker_on,audio_file,prev_sd_write_time_ms,delay_occurred_counter,acc_x_ma,acc_y_ma,acc_z_ma,gyro_x_ma,gyro_y_ma,gyro_z_ma,gyro_x_lowpass,gyro_y_lowpass,gyro_z_lowpass,angle_x,angle_y,angle_z,combined_angle_change,gravity_adjusted_angle,smoothed_angle_change,smoothed_gravity_angle,acc_x_dy,acc_y_dy,acc_z_dy,ODBA,VeDBA,smoothed_VeDBA_1s,smoothed_VeDBA_2s,smoothed_VeDBA_3s
LBP06_S00,LBP06,-1700,1,0,0,-1700,1716238607.0,2024-05-20 20:56:47+00:00,2024-05-21 05:56:47+09:00,2024,5,20,20,56,47,0,20.0,56.0,47.0,40.548706,141.548523,3.203,3.0,9.0,0.019775,0.268066,1.036865,-289.367676,-112.426758,32.043457,-568.0,73.0,544.0,195.0,0.0,1021.700012,19.33,0.086215,-70.074615,4.028906,0.0,1.0,1.0,0.0,0.0,0.0,0.0,5.0,0.0,,,,,,,-288.67378656972744,-111.68544330340609,31.963907230550408,-11.546951462789098,-4.467417732136243,1.2785562892220164,12.446871713893486,,21.472283322834794,,,,,,,,,
LBP06_S00,LBP06,-1699,2,0,1,-1699,1716238607.04,2024-05-20 20:56:47.040000+00:00,2024-05-21 05:56:47.040000+09:00,2024,5,20,20,56,47,40,,,,,,,,,0.661133,-1.779297,2.435059,-100.646973,52.429199,-50.109863,,,,,,,,,,,0.0,1.0,1.0,0.0,0.0,0.0,0.0,5.0,0.0,,,,,,,-188.36957393314654,-67.59486661520168,24.135933524245683,-19.08173442011496,-7.171212396744311,2.2439936301918437,20.507910257541134,,21.522811809326196,,,,,,,,,
LBP06_S00,LBP06,-1698,3,0,2,-1698,1716238607.08,2024-05-20 20:56:47.080000+00:00,2024-05-21 05:56:47.080000+09:00,2024,5,20,20,56,47,80,,,,,,,,,0.117432,-0.468262,2.119873,-19.775391,-27.160645,-28.747559,,,,,,,,,,,0.0,1.0,1.0,0.0,0.0,0.0,0.0,5.0,0.0,,,,,,,-97.65288295982992,-28.0231608227018,17.23649013810642,-22.987849738508157,-8.292138829652384,2.9334532357161005,24.613125560492954,,21.15925155834478,,,,,,,,,
LBP06_S00,LBP06,-1697,4,0,3,-1697,1716238607.12,2024-05-20 20:56:47.120000+00:00,2024-05-21 05:56:47.120000+09:00,2024,5,20,20,56,47,120,,,,,,,,,0.50708,-0.617432,2.254883,5.371094,7.202148,10.375977,,,,,,,,,,,0.0,1.0,1.0,0.0,0.0,0.0,0.0,5.0,0.0,,,,,,,-24.26561013305392,3.4003099503267067,11.918311172797264,-23.958474143830312,-8.156126431639315,3.410185682627991,25.53742837600278,,20.57793538275596,,,,,,,,,
LBP06_S00,LBP06,-1696,5,0,4,-1696,1716238607.16,2024-05-20 20:56:47.160000+00:00,2024-05-21 05:56:47.160000+09:00,2024,5,20,20,56,47,160,,,,,,,,,0.233643,-0.645264,1.4729,126.464844,154.541016,52.978516,,,,,,,,,,,0.0,1.0,1.0,0.0,0.0,0.0,0.0,5.0,0.0,,,,,,,27.28198191343141,24.64156894808353,8.397976801078922,-22.867194867293055,-7.1704636737159735,3.7461047546711477,24.25608070624362,,19.927308881385272,,,,,,,,,
LBP06_S00,LBP06,-1695,6,0,5,-1695,1716238607.2,2024-05-20 20:56:47.200000+00:00,2024-05-21 05:56:47.200000+09:00,2024,5,20,20,56,47,200,,,,,,,,,-0.401855,0.318848,-0.106934,84.594727,53.955078,7.263184,,,,,,,,,,,0.0,1.0,1.0,0.0,0.0,0.0,0.0,5.0,0.0,,,,,,,56.26748598016696,35.459863050253496,6.4854863107775325,-20.616495428086377,-5.752069151705833,4.005524207102249,21.775454241783212,,19.304790159559186,,,,,,,,,
LBP06_S00,LBP06,-1694,7,0,6,-1694,1716238607.24,2024-05-20 20:56:47.240000+00:00,2024-05-21 05:56:47.240000+09:00,2024,5,20,20,56,47,240,,,,,,,,,0.073242,-0.312012,0.655762,-35.766602,-115.29541,31.555176,,,,,,,,,,,0.0,1.0,1.0,0.0,0.0,0.0,0.0,5.0,0.0,,,,,,,65.40409071007451,37.11035696762938,5.7376705851864,-18.000331799683398,-4.267654873000658,4.235031030509705,18.9778900524563,,19.395373528554753,,,,,,,,,
LBP06_S00,LBP06,-1693,8,0,7,-1693,1716238607.28,2024-05-20 20:56:47.280000+00:00,2024-05-21 05:56:47.280000+09:00,2024,5,20,20,56,47,280,,,,,,,,,0.799072,-0.141113,1.246338,23.193359,-51.818848,-21.42334,,,,,,,,,,,0.0,1.0,1.0,0.0,0.0,0.0,0.0,5.0,0.0,,,,,,,59.7757612564383,31.729613703914453,5.6387811338074245,-15.609301349425866,-2.99847032484408,4.460582275862002,16.50872215363421,,18.695251092881158,,,,,,,,,
LBP06_S00,LBP06,-1692,9,0,8,-1692,1716238607.32,2024-05-20 20:56:47.320000+00:00,2024-05-21 05:56:47.320000+09:00,2024,5,20,20,56,47,320,,,,,,,,,0.44873,-0.777588,1.829346,-21.54541,39.611816,-1.464844,,,,,,,,,,,0.0,1.0,1.0,0.0,0.0,0.0,0.0,5.0,0.0,,,,,,,45.44235053295867,21.702807256229757,5.743617372079045,-13.791607328107519,-2.1303580345948894,4.690326970745164,14.722296870419761,,17.632091609435882,,,,,,,,,
LBP06_S00,LBP06,-1691,10,0,9,-1691,1716238607.36,2024-05-20 20:56:47.360000+00:00,2024-05-21 05:56:47.360000+09:00,2024,5,20,20,56,47,360,,,,,,,,,0.218262,-0.767334,2.043457,33.14209,-2.563477,-11.962891,,,,,,,,,,,0.0,1.0,1.0,0.0,0.0,0.0,0.0,5.0,0.0,,,,,,,28.132204297001184,9.27496771399956,5.769139430255973,-12.666319156227472,-1.759359326034907,4.921092547955403,13.702121663124409,,16.537411569236998,,,,,,,,,
LBP06_S00,LBP06,-1690,11,0,10,-1690,1716238607.4,2024-05-20 20:56:47.400000+00:00,2024-05-21 05:56:47.400000+09:00,2024,5,20,20,56,47,400,,,,,,,,,0.178467,-0.209229,1.638184,4.577637,49.438477,41.564941,,,,,,,,,,,0.0,1.0,1.0,0.0,0.0,0.0,0.0,5.0,0.0,,,,,,,12.32091898192739,-3.523774470034983,5.643508261784892,-12.173482396950376,-1.9003103048363064,5.146832878426799,13.352705403849171,,15.627367827112682,,,,,,,,,
LBP06_S00,LBP06,-1689,12,0,11,-1689,1716238607.44,2024-05-20 20:56:47.440000+00:00,2024-05-21 05:56:47.440000+09:00,2024,5,20,20,56,47,440,,,,,,,,,-0.213867,-0.199463,0.448486,21.118164,152.46582,49.865723,,,,,,,,,,,0.0,1.0,1.0,0.0,0.0,0.0,0.0,5.0,0.0,,,,,,,0.8010759906020988,-14.78731294886574,5.5094044321092435,-12.141439357326293,-2.491802822790936,5.367209055711168,13.506685900805154,,15.003952461094082,,,,,,,,,
LBP06_S00,LBP06,-1688,13,0,12,-1688,1716238607.48,2024-05-20 20:56:47.480000+00:00,2024-05-21 05:56:47.480000+09:00,2024,5,20,20,56,47,480,,,,,,,,,-0.017334,0.161621,-0.001221,47.607422,-15.686035,-20.019531,,,,,,,,,,,0.0,1.0,1.0,0.0,0.0,0.0,0.0,5.0,0.0,,,,,,,-5.321558398245958,-22.724576002928806,5.661395249930268,-12.354301693256131,-3.4007858629080885,5.593664865708379,13.981530726040235,,14.675901113824754,,,,,,,,,
LBP06_S00,LBP06,-1687,14,0,13,-1687,1716238607.52,2024-05-20 20:56:47.520000+00:00,2024-05-21 05:56:47.520000+09:00,2024,5,20,20,56,47,520,,,,,,,,,0.021484,0.076416,0.365723,-7.263184,-119.750977,-31.37207,,,,,,,,,,,0.0,1.0,1.0,0.0,0.0,0.0,0.0,5.0,0.0,,,,,,,-6.357670025391473,-25.89975374259833,6.412513188079026,-12.60860849427179,-4.436776012612022,5.85016539323154,14.59062797401387,,14.59295512505319,,,,,,,,,
LBP06_S00,LBP06,-1686,15,0,14,-1686,1716238607.56,2024-05-20 20:56:47.560000+00:00,2024-05-21 05:56:47.560000+09:00,2024,5,20,20,56,47,560,,,,,,,,,0.718994,-0.367432,0.742676,-19.226074,-164.733887,-18.005371,,,,,,,,,,,0.0,1.0,1.0,0.0,0.0,0.0,0.0,5.0,0.0,,,,,,,-3.6409271590680325,-23.673824578437337,7.933666955238573,-12.754245580634512,-5.383728995749515,6.167512071441084,15.155643285000494,,14.683347940061171,,,,,,,,,
LBP06_S00,LBP06,-1685,16,0,15,-1685,1716238607.6,2024-05-20 20:56:47.600000+00:00,2024-05-21 05:56:47.600000+09:00,2024,5,20,20,56,47,600,,,,,,,,,0.28833,0.361328,0.910889,-27.954102,-22.521973,35.583496,,,,,,,,,,,0.0,1.0,1.0,0.0,0.0,0.0,0.0,5.0,0.0,,,,,,,0.9006513069450514,-16.591065605465072,10.144582967565631,-12.71821952835671,-6.047371619968118,6.573295390143709,15.541300581597229,,14.883045908147427,,,,,,,,,
LBP06_S00,LBP06,-1684,17,0,16,-1684,1716238607.64,2024-05-20 20:56:47.640000+00:00,2024-05-21 05:56:47.640000+09:00,2024,5,20,20,56,47,640,,,,,,,,,0.450195,-1.585205,2.078125,-114.501953,-14.831543,15.441895,,,,,,,,,,,0.0,1.0,1.0,0.0,0.0,0.0,0.0,5.0,0.0,,,,,,,5.191588611657281,-6.41638509566058,12.714331793381161,-12.51055598389042,-6.304027023794541,7.081868661878955,15.697376579762985,,15.148659178063962,,,,,,,,,
LBP06_S00,LBP06,-1683,18,0,17,-1683,1716238607.68,2024-05-20 20:56:47.680000+00:00,2024-05-21 05:56:47.680000+09:00,2024,5,20,20,56,47,680,,,,,,,,,0.359131,-0.706787,1.772461,169.128418,35.15625,10.620117,,,,,,,,,,,0.0,1.0,1.0,0.0,0.0,0.0,0.0,5.0,0.0,,,,,,,7.474880870289331,4.29725458419226,15.16727072582979,-12.211560749078847,-6.132136840426851,7.688559490912147,15.679262265918592,,15.456051826783447,,,,,,,,,
LBP06_S00,LBP06,-1682,19,0,18,-1682,1716238607.72,2024-05-20 20:56:47.720000+00:00,2024-05-21 05:56:47.720000+09:00,2024,5,20,20,56,47,720,,,,,,,,,0.344971,-0.306641,1.742676,40.710449,86.120605,34.240723,,,,,,,,,,,0.0,1.0,1.0,0.0,0.0,0.0,0.0,5.0,0.0,,,,,,,6.738343259983438,12.971608235964565,17.037761217201574,-11.942027018679509,-5.613272510988268,8.37006993960021,15.626225020499577,,15.794970054718885,,,,,,,,,
LBP06_S00,LBP06,-1681,20,0,19,-1681,1716238607.76,2024-05-20 20:56:47.760000+00:00,2024-05-21 05:56:47.760000+09:00,2024,5,20,20,56,47,760,,,,,,,,,-0.135986,0.157715,0.268555,35.705566,184.509277,50.65918,,,,,,,,,,,0.0,1.0,1.0,0.0,0.0,0.0,0.0,5.0,0.0,,,,,,,2.960660705722282,17.775569608841124,18.00388909680471,-11.823600590450617,-4.902249726634623,9.090225503472398,15.69910134398697,,16.166969160293643,,,,,,,,,
LBP06_S00,LBP06,-1680,21,0,20,-1680,1716238607.8,2024-05-20 20:56:47.800000+00:00,2024-05-21 05:56:47.800000+09:00,2024,5,20,20,56,47,800,,,,,,,,,0.255127,0.469238,0.187988,40.283203,-26.489258,-10.437012,,,,,,,,,,,0.0,1.0,1.0,0.0,0.0,0.0,0.0,5.0,0.0,,,,,,,-2.965004987934129,18.07632967372584,17.949702362305473,-11.942200789967982,-4.17919653968559,9.808213597964617,16.008838103014533,,16.58581880085925,,,,,,,,,
LBP06_S00,LBP06,-1679,22,0,21,-1679,1716238607.84,2024-05-20 20:56:47.840000+00:00,2024-05-21 05:56:47.840000+09:00,2024,5,20,20,56,47,840,,,,,,,,,-0.157959,0.074219,0.470703,-132.324219,-81.848145,21.789551,,,,,,,,,,,0.0,1.0,1.0,0.0,0.0,0.0,0.0,5.0,0.0,,,,,,,-9.64503940481802,14.40102601380306,16.94244192937354,-12.328002366160703,-3.603155499133467,10.485911275139559,16.580612387999984,,17.076018166180617,,,,,,,,,
LBP06_S00,LBP06,-1678,23,0,22,-1678,1716238607.88,2024-05-20 20:56:47.880000+00:00,2024-05-21 05:56:47.880000+09:00,2024,5,20,20,56,47,880,,,,,,,,,0.948975,-1.001465,1.332764,-151.550293,-116.821289,-21.057129,,,,,,,,,,,0.0,1.0,1.0,0.0,0.0,0.0,0.0,5.0,0.0,,,,,,,-15.767874308154926,7.997860962146428,15.153547223381965,-12.9587173384869,-3.28324106064761,11.092053164074837,17.370713005394627,,17.666636015796456,,,,,,,,,
LBP06_S00,LBP06,-1677,24,0,23,-1677,1716238607.92,2024-05-20 20:56:47.920000+00:00,2024-05-21 05:56:47.920000+09:00,2024,5,20,20,56,47,920,,,,,,,,,0.282471,0.034424,1.234131,81.237793,76.049805,22.216797,,,,,,,,,,,0.0,1.0,1.0,0.0,0.0,0.0,0.0,5.0,0.0,,,,,,,-20.577449277004536,0.2829451437035727,12.779321580068336,-13.781815309567083,-3.271923254899467,11.603226027277572,18.310619029761426,,18.381107182253977,,,,,,,,,
LBP06_S00,LBP06,-1676,25,0,24,-1676,1716238607.96,2024-05-20 20:56:47.960000+00:00,2024-05-21 05:56:47.960000+09:00,2024,5,20,20,56,47,960,,,,,,,,,0.182373,-0.956299,1.868164,-87.646484,-60.058594,0.549316,,,,,,,,,,,0.0,1.0,1.0,0.0,0.0,0.0,0.0,5.0,0.0,,,,,,,-24.015562636092493,-7.537612265634407,10.009837535457635,-14.742437815010783,-3.5734277455248433,12.003619528695877,19.34413969065659,,19.226711877144066,,,,,,,,,
LBP06_S00,LBP06,-1675,26,0,25,-1675,1716238608.0,2024-05-20 20:56:48+00:00,2024-05-21 05:56:48+09:00,2024,5,20,20,56,48,0,20.0,56.0,48.0,40.548752,141.548416,3.251,3.0,9.0,0.189941,-0.555664,1.860352,66.162109,1.89209,9.216309,-571.0,81.0,543.0,120.0,0.0,1022.0,19.33,0.089188,-72.553726,4.028906,0.0,1.0,1.0,0.0,0.0,0.0,0.0,6.0,0.0,,,,,,,-26.499622624739747,-14.554998189310652,7.056131892665545,-15.802422720000372,-4.155627673097269,12.285864804402499,20.44329423481088,,20.188795114986412,,,,,,,,,
LBP06_S00,LBP06,-1674,27,0,26,-1674,1716238608.04,2024-05-20 20:56:48.040000+00:00,2024-05-21 05:56:48.040000+09:00,2024,5,20,20,56,48,40,,,,,,,,,-0.223389,0.245361,0.279785,-19.042969,140.197754,80.627441,,,,,,,,,,,0.0,1.0,1.0,0.0,0.0,0.0,0.0,6.0,0.0,,,,,,,-28.49490702605494,-20.04495265140642,4.199988273648797,-16.94221900104257,-4.957425779153526,12.45386433534845,21.60355507592137,,21.23291042520181,,,,,,,,,
LBP06_S00,LBP06,-1673,28,0,27,-1673,1716238608.08,2024-05-20 20:56:48.080000+00:00,2024-05-21 05:56:48.080000+09:00,2024,5,20,20,56,48,80,,,,,,,,,0.021729,-0.306641,0.046631,-5.737305,-7.202148,-11.352539,,,,,,,,,,,0.0,1.0,1.0,0.0,0.0,0.0,0.0,6.0,0.0,,,,,,,-30.12357824305741,-23.35423403285732,1.8061092322413956,-18.147162130764865,-5.891595140467819,12.526108704638107,22.823973930493807,,22.313589784782852,,,,,,,,,
LBP06_S00,LBP06,-1672,29,0,28,-1672,1716238608.12,2024-05-20 20:56:48.120000+00:00,2024-05-21 05:56:48.120000+09:00,2024,5,20,20,56,48,120,,,,,,,,,-0.015625,0.389893,0.236084,47.546387,-81.726074,-37.597656,,,,,,,,,,,0.0,1.0,1.0,0.0,0.0,0.0,0.0,6.0,0.0,,,,,,,-31.01049234994488,-23.952745306260038,0.255000318102962,-19.38758182476266,-6.849704952718221,12.536308717362225,24.082271969400477,,23.385237885012703,,,,,,,,,
LBP06_S00,LBP06,-1671,30,0,29,-1671,1716238608.16,2024-05-20 20:56:48.160000+00:00,2024-05-21 05:56:48.160000+09:00,2024,5,20,20,56,48,160,,,,,,,,,0.356689,-0.472412,0.601562,-112.854004,-159.545898,-41.320801,,,,,,,,,,,0.0,1.0,1.0,0.0,0.0,0.0,0.0,6.0,0.0,,,,,,,-30.446415366896613,-21.6654937894287,-0.18526954109844174,-20.605438439438522,-7.716324704295369,12.528897935718287,25.319933722410404,,24.411156446848103,,,,,,,,,
LBP06_S00,LBP06,-1670,31,0,30,-1670,1716238608.2,2024-05-20 20:56:48.200000+00:00,2024-05-21 05:56:48.200000+09:00,2024,5,20,20,56,48,200,,,,,,,,,0.339844,0.153809,0.737061,49.621582,-2.319336,-11.291504,,,,,,,,,,,0.0,1.0,1.0,0.0,0.0,0.0,0.0,6.0,0.0,,,,,,,-27.80323943925741,-16.922014086724715,0.5284276150423524,-21.71756801700882,-8.393205267764358,12.550035040319981,26.4499912051685,,25.368719773339286,,,,,,,,,
LBP06_S00,LBP06,-1669,32,0,31,-1669,1716238608.24,2024-05-20 20:56:48.240000+00:00,2024-05-21 05:56:48.240000+09:00,2024,5,20,20,56,48,240,,,,,,,,,0.036865,-0.353027,1.029297,-295.043945,-29.968262,59.143066,,,,,,,,,,,0.0,1.0,1.0,0.0,0.0,0.0,0.0,6.0,0.0,,,,,,,-23.006172320563003,-10.800028079084605,2.1951980970217124,-22.637814909831338,-8.825206390927743,12.63784296420085,27.38740598381042,,26.250128356130382,,,,,,,,,
LBP06_S00,LBP06,-1668,33,0,32,-1668,1716238608.28,2024-05-20 20:56:48.280000+00:00,2024-05-21 05:56:48.280000+09:00,2024,5,20,20,56,48,280,,,,,,,,,0.341797,-0.671387,1.897705,29.23584,26.794434,5.249023,,,,,,,,,,,0.0,1.0,1.0,0.0,0.0,0.0,0.0,6.0,0.0,,,,,,,-16.806872505903435,-4.753590486210701,4.457620925553912,-23.310089810067474,-9.01535001037617,12.816147801223007,28.087194007693157,,27.059380384470096,,,,,,,,,
LBP06_S00,LBP06,-1667,34,0,33,-1667,1716238608.32,2024-05-20 20:56:48.320000+00:00,2024-05-21 05:56:48.320000+09:00,2024,5,20,20,56,48,320,,,,,,,,,0.398438,-0.535645,1.800781,43.273926,44.006348,5.249023,,,,,,,,,,,0.0,1.0,1.0,0.0,0.0,0.0,0.0,6.0,0.0,,,,,,,-10.665289274975803,-0.11539456729972103,6.936879017918096,-23.736701381066506,-9.01996579306816,13.093622961939731,28.569804648115458,,27.80737915789973,-0.975891339068533,,,,,,,,
LBP06_S00,LBP06,-1666,35,0,34,-1666,1716238608.36,2024-05-20 20:56:48.360000+00:00,2024-05-21 05:56:48.360000+09:00,2024,5,20,20,56,48,360,,,,,,,,,0.0896,-0.411377,0.915039,34.545898,119.995117,19.165039,,,,,,,,,,,0.0,1.0,1.0,0.0,0.0,0.0,0.0,6.0,0.0,,,,,,,-6.241817955168298,2.3907712683589297,9.337472466626757,-23.986374099273238,-8.924334942333802,13.467121860604802,28.91977295556841,,28.507506555174633,-0.9725161067999222,,,,,,,,
LBP06_S00,LBP06,-1665,36,0,35,-1665,1716238608.4,2024-05-20 20:56:48.400000+00:00,2024-05-21 05:56:48.400000+09:00,2024,5,20,20,56,48,400,,,,,,,,,-0.208008,0.464111,-0.116943,118.286133,46.75293,-0.976562,,,,,,,,,,,0.0,1.0,1.0,0.0,0.0,0.0,0.0,6.0,0.0,,,,,,,-4.724693149023713,2.8754861484816767,11.479720559074911,-24.175361825234187,-8.809315496394534,13.926310682967799,29.257380062721786,,29.172911664710938,-0.968976982098806,,,,,,,,
LBP06_S00,LBP06,-1664,37,0,36,-1664,1716238608.44,2024-05-20 20:56:48.440000+00:00,2024-05-21 05:56:48.440000+09:00,2024,5,20,20,56,48,440,,,,,,,,,0.114258,-0.192627,0.379639,-52.734375,-100.341797,9.643555,,,,,,,,,,,0.0,1.0,1.0,0.0,0.0,0.0,0.0,6.0,0.0,,,,,,,-6.318091278917663,2.115938828493557,13.267818706396072,-24.428085476390894,-8.724677943254791,14.457023431223641,29.696075359318538,,29.815019651941906,-0.9669171302377062,,,,,,,,
LBP06_S00,LBP06,-1663,38,0,37,-1663,1716238608.48,2024-05-20 20:56:48.480000+00:00,2024-05-21 05:56:48.480000+09:00,2024,5,20,20,56,48,480,,,,,,,,,0.4375,-0.162842,0.697266,8.666992,-125.915527,7.202148,,,,,,,,,,,0.0,1.0,1.0,0.0,0.0,0.0,0.0,6.0,0.0,0.18693357333333332,-0.28203452,1.0094303733333334,-5.737304733333334,-0.14648441333333267,5.775553413333333,-10.128588823971665,1.0746897086375202,14.630494759938639,-24.83322902934976,-8.681690354909291,15.042243221621186,30.303961664790187,-0.975891339068533,30.44190383950985,-0.9678701267816644,0.2505664266666667,0.11919252000000002,-0.31216437333333336,0.6819233200000001,0.4176565418798623,0.4176565418798623,0.4176565418798623,0.4176565418798623
LBP06_S00,LBP06,-1662,39,0,38,-1662,1716238608.52,2024-05-20 20:56:48.520000+00:00,2024-05-21 05:56:48.520000+09:00,2024,5,20,20,56,48,520,,,,,,,,,0.36499,-0.143799,1.052002,-42.84668,-13.73291,10.864258,,,,,,,,,,,0.0,1.0,1.0,0.0,0.0,0.0,0.0,6.0,0.0,0.1910384,-0.2840201866666667,1.0088086266666667,0.6282551600000003,1.9409179333333342,5.028483106666667,-14.484074147859342,0.3736798274785829,15.475016075028753,-25.412591995264133,-8.666743161810148,15.661243864622337,31.083545942149467,-0.9691408745313115,31.055748100276684,-0.9686399772291202,0.17395159999999998,0.14022118666666666,0.043193373333333396,0.35736616000000004,0.2275671501616191,0.32261184602074067,0.32261184602074067,0.32261184602074067
LBP06_S00,LBP06,-1661,40,0,39,-1661,1716238608.56,2024-05-20 20:56:48.560000+00:00,2024-05-21 05:56:48.560000+09:00,2024,5,20,20,56,48,560,,,,,,,,,0.253418,-0.426025,1.511475,-87.402344,15.74707,21.972656,,,,,,,,,,,0.0,1.0,1.0,0.0,0.0,0.0,0.0,6.0,0.0,0.18472654666666666,-0.2698567733333333,0.9978255466666667,0.7039387600000003,1.0514322533333342,5.555826853333333,-17.52785118185483,0.024990873899302365,15.681187532625769,-26.113706042538325,-8.665743526854175,16.288491365927367,31.973984817773466,-0.9618987326965734,31.649873507493872,-0.9686312289865459,0.06869145333333332,-0.1561682266666667,0.5136494533333332,0.7385091333333332,0.5412418975752791,0.39548852987225347,0.39548852987225347,0.39548852987225347
LBP06_S00,LBP06,-1660,41,0,40,-1660,1716238608.6,2024-05-20 20:56:48.600000+00:00,2024-05-21 05:56:48.600000+09:00,2024,5,20,20,56,48,600,,,,,,,,,0.284912,-0.481689,1.790283,-15.991211,-3.173828,4.333496,,,,,,,,,,,0.0,1.0,1.0,0.0,0.0,0.0,0.0,6.0,0.0,0.18323890666666667,-0.2669335866666666,0.9938411733333333,2.3087564800000004,1.7952473600000007,5.778808626666667,-17.836986060699846,-0.4391868969914343,15.139422641930024,-26.827185484966318,-8.683311002733832,16.894068271604567,32.87107107747817,-0.9607375746544071,32.20670152107584,-0.9674972014151717,0.10167309333333333,-0.21475541333333337,0.7964418266666667,1.1128703333333334,0.8311298867975309,0.5043988691035728,0.5043988691035728,0.5043988691035728
LBP06_S00,LBP06,-1659,42,0,41,-1659,1716238608.64,2024-05-20 20:56:48.640000+00:00,2024-05-21 05:56:48.640000+09:00,2024,5,20,20,56,48,640,,,,,,,,,0.262207,-0.365723,1.647461,-94.177246,63.842773,17.944336,,,,,,,,,,,0.0,1.0,1.0,0.0,0.0,0.0,0.0,6.0,0.0,0.17897458666666669,-0.26722329333333333,0.9830078399999999,-0.00895185333333302,2.802734346666668,6.0839844,-14.834127856271921,-1.5351621403808045,13.815076722902914,-27.420550599217194,-8.744717488349064,17.446671340520684,33.65624785948984,-0.9716821129574967,32.69817318097623,-0.9678221698985487,0.08323241333333334,-0.09849970666666669,0.6644531600000002,0.8461852800000003,0.6768514081219719,0.5388893769072526,0.5388893769072526,0.5388893769072526
LBP06_S00,LBP06,-1658,43,0,42,-1658,1716238608.68,2024-05-20 20:56:48.680000+00:00,2024-05-21 05:56:48.680000+09:00,2024,5,20,20,56,48,680,,,,,,,,,-0.105957,-0.251709,0.271484,71.472168,173.095703,53.955078,,,,,,,,,,,0.0,1.0,1.0,0.0,0.0,0.0,0.0,6.0,0.0,0.17170570666666665,-0.2566601333333333,0.9609798533333332,-1.180826853333333,2.2989908533333336,5.721028666666667,-8.868243573064314,-3.3626140889686655,11.806024949753084,-27.775280342139766,-8.87922205190781,17.918912338510808,34.225636615361545,-0.9724892294663992,33.089602691247585,-0.9673281529028677,-0.27766270666666665,0.004951133333333302,-0.6894958533333333,0.9721096933333333,0.7433206738404396,0.5729612597294504,0.5729612597294504,0.5729612597294504
LBP06_S00,LBP06,-1657,44,0,43,-1657,1716238608.72,2024-05-20 20:56:48.720000+00:00,2024-05-21 05:56:48.720000+09:00,2024,5,20,20,56,48,720,,,,,,,,,-0.095703,0.082275,0.030518,-8.300781,-44.067383,13.85498,,,,,,,,,,,0.0,1.0,1.0,0.0,0.0,0.0,0.0,6.0,0.0,0.17668617333333334,-0.2619921733333333,0.9643620266666666,-3.09570316,0.7934570000000007,5.488281266666666,-0.9848450761352839,-5.391747341128671,9.356406033612924,-27.814674145185176,-9.094891945552957,18.293168579855326,34.51105872028737,-0.9685787395311003,33.346836039555775,-0.9664640849048048,-0.27238917333333335,0.3442671733333333,-0.9338440266666665,1.5505003733333331,1.0318819770328165,0.63852136220136,0.63852136220136,0.63852136220136
LBP06_S00,LBP06,-1656,45,0,44,-1656,1716238608.76,2024-05-20 20:56:48.760000+00:00,2024-05-21 05:56:48.760000+09:00,2024,5,20,20,56,48,760,,,,,,,,,0.150635,-0.260498,0.386719,83.374023,-94.970703,-36.071777,,,,,,,,,,,0.0,1.0,1.0,0.0,0.0,0.0,0.0,6.0,0.0,0.1780370933333333,-0.25869464,0.9620345466666667,-3.2682291999999995,0.5403645466666676,5.033365893333333,7.4681086641158805,-6.64936202949133,6.804718527715237,-27.51594979862054,-9.36086642673261,18.565357320963937,34.48805309138811,-0.9595590084155526,33.44514803445016,-0.9665828203859549,-0.02740209333333332,-0.0018033600000000316,-0.5753155466666666,0.604521,0.5759705765598654,0.630702513996173,0.630702513996173,0.630702513996173
LBP06_S00,LBP06,-1655,46,0,45,-1655,1716238608.8,2024-05-20 20:56:48.800000+00:00,2024-05-21 05:56:48.800000+09:00,2024,5,20,20,56,48,800,,,,,,,,,0.539795,0.300293,0.63208,90.270996,-111.877441,-7.263184,,,,,,,,,,,0.0,1.0,1.0,0.0,0.0,0.0,0.0,6.0,0.0,0.17488279999999998,-0.26037758666666666,0.9585710000000001,-4.452311226666667,0.3068033466666676,5.265299493333334,15.202612476660796,-6.212299049317036,4.48123621861387,-26.907845299554108,-9.60935838870529,18.74460676970849,34.172096661725604,-0.970421917765564,33.37718380731087,-0.9666933421307877,0.3649122,0.5606705866666666,-0.3264910000000001,1.2520737866666667,0.7443848423651467,0.6433338838149479,0.6433338838149479,0.6433338838149479
LBP06_S00,LBP06,-1654,47,0,46,-1654,1716238608.84,2024-05-20 20:56:48.840000+00:00,2024-05-21 05:56:48.840000+09:00,2024,5,20,20,56,48,840,,,,,,,,,0.500488,-0.187988,1.281006,-75.805664,-42.236328,22.521973,,,,,,,,,,,0.0,1.0,1.0,0.0,0.0,0.0,0.0,6.0,0.0,0.17260416,-0.25254556000000006,0.9493978133333333,-5.466308626666667,-0.4101562799999991,5.889485693333333,21.17939397251526,-3.7179185522783613,2.605635840760968,-26.060669540653496,-9.758075130796424,18.84883220333893,33.610370462032094,-0.9628819999417387,33.157192029327895,-0.9681986033544785,0.32788384000000004,0.06455756000000007,0.3316081866666668,0.724049586666667,0.47078602416666343,0.6260790978501195,0.6260790978501195,0.6260790978501195
LBP06_S00,LBP06,-1653,48,0,47,-1653,1716238608.88,2024-05-20 20:56:48.880000+00:00,2024-05-21 05:56:48.880000+09:00,2024,5,20,20,56,48,880,,,,,,,,,0.165771,-0.635498,1.644287,-91.552734,29.11377,-20.324707,,,,,,,,,,,0.0,1.0,1.0,0.0,0.0,0.0,0.0,6.0,0.0,0.17109700000000003,-0.25280922666666666,0.9457845333333333,-6.832682333333333,-0.40527346666666575,6.13118492,24.616583055231445,0.4141181639864176,1.2379694584714986,-25.07600621844424,-9.741510404236967,18.89835098167779,32.876295147872014,-0.9672506590879041,32.81996738430462,-0.9693651355263686,-0.005326000000000025,-0.38268877333333334,0.6985024666666667,1.08651724,0.7964827427200097,0.6415703382928368,0.6415703382928368,0.6415703382928368
LBP06_S00,LBP06,-1652,49,0,48,-1652,1716238608.92,2024-05-20 20:56:48.920000+00:00,2024-05-21 05:56:48.920000+09:00,2024,5,20,20,56,48,920,,,,,,,,,0.111572,-0.319336,1.519287,50.78125,23.071289,4.699707,,,,,,,,,,,0.0,1.0,1.0,0.0,0.0,0.0,0.0,6.0,0.0,0.17168618666666668,-0.2554947733333333,0.9475423466666666,-5.677897186666666,-0.5598958666666657,5.591634146666667,24.945980174876766,5.172505210882655,0.30183027954727004,-24.078167011449167,-9.534610195801662,18.910424192859683,32.06666589109346,-0.9703282293428128,32.41469952061196,-0.9712719168118309,-0.06011418666666668,-0.0638412266666667,0.5717446533333335,0.6957000666666668,0.5784300876304355,0.6363086507376366,0.6363086507376366,0.6363086507376366
LBP06_S00,LBP06,-1651,50,0,49,-1651,1716238608.96,2024-05-20 20:56:48.960000+00:00,2024-05-21 05:56:48.960000+09:00,2024,5,20,20,56,48,960,,,,,,,,,0.265137,-0.635742,1.471191,16.662598,104.553223,29.785156,,,,,,,,,,,0.0,1.0,1.0,0.0,0.0,0.0,0.0,6.0,0.0,0.17472654666666665,-0.25576496,0.9566992533333333,-5.674641973333333,-1.1604817999999992,4.994303413333333,21.870726637357937,9.434393682628228,-0.34259551241661235,-23.20333794595485,-9.157234448496533,18.896720372363017,31.294342546380477,-0.9630039501449017,31.995508286368608,-0.9745578985224537,0.09041045333333336,-0.37997704000000004,0.5144917466666666,0.98487924,0.6459553842079326,0.6370507071584287,0.6370507071584287,0.6370507071584287
LBP06_S00,LBP06,-1650,51,0,50,-1650,1716238609.0,2024-05-20 20:56:49+00:00,2024-05-21 05:56:49+09:00,2024,5,20,20,56,49,0,20.0,56.0,49.0,40.54879,141.548309,2.379,3.0,10.0,-0.485596,0.11499,-0.252441,114.807129,130.371094,14.709473,-572.0,85.0,544.0,158.0,0.0,1022.0,19.370001,0.089188,-72.553726,4.028906,0.0,1.0,1.0,0.0,0.0,0.0,0.0,5.0,0.0,0.16955076,-0.25531248,0.9549577200000001,-6.5242513466666665,-0.48502606666666587,5.5314127866666665,15.561788102883092,12.4564595537272,-0.8208230570580032,-22.580866421839527,-8.658976066347446,18.863887450080696,30.671153297648424,-0.9757901868913158,31.61139380408766,-0.9769982069021266,-0.65514676,0.37030248,-1.20739872,2.23284796,1.4227272658138967,0.6931704613481049,0.6931704613481049,0.6931704613481049
LBP06_S00,LBP06,-1649,52,0,51,-1649,1716238609.04,2024-05-20 20:56:49.040000+00:00,2024-05-21 05:56:49.040000+09:00,2024,5,20,20,56,49,40,,,,,,,,,0.055176,-0.221191,0.355469,33.691406,-58.410645,-18.371582,,,,,,,,,,,0.0,1.0,1.0,0.0,0.0,0.0,0.0,5.0,0.0,0.17066404000000002,-0.26159177333333333,0.9558236,-7.233072959999999,0.08138018666666748,5.798339866666667,6.8655981823836765,14.111388094817503,-1.2043821001074035,-22.30624249454418,-8.094520542554745,18.815712166076402,30.28400140925708,-0.9833474346763954,31.298414306223457,-0.9785715403536448,-0.11548804000000001,0.040400773333333334,-0.6003546,0.7562434133333333,0.6126951571622979,0.6878054410690512,0.6878054410690512,0.6878054410690512
LBP06_S00,LBP06,-1648,53,0,52,-1648,1716238609.08,2024-05-20 20:56:49.080000+00:00,2024-05-21 05:56:49.080000+09:00,2024,5,20,20,56,49,80,,,,,,,,,0.302979,0.280762,0.601318,97.167969,-101.196289,-31.433105,,,,,,,,,,,0.0,1.0,1.0,0.0,0.0,0.0,0.0,5.0,0.0,0.16601885333333333,-0.25911455999999994,0.9546093999999999,-6.106770880000001,0.8162434666666675,5.607096373333333,-2.6791025101635437,14.7700565367952,-1.5239459303611644,-22.41340659495072,-7.5037182810829375,18.754754328861956,30.172957978435015,-0.991557042321022,31.075913203615823,-0.9809356353600279,0.13696014666666667,0.53987656,-0.3532913999999999,1.0301281066666665,0.6595753142184358,0.6860410581408877,0.6860410581408877,0.6860410581408877
LBP06_S00,LBP06,-1647,54,0,53,-1647,1716238609.12,2024-05-20 20:56:49.120000+00:00,2024-05-21 05:56:49.120000+09:00,2024,5,20,20,56,49,120,,,,,,,,,0.525146,-0.109619,1.256592,-127.563477,-23.4375,7.263184,,,,,,,,,,,0.0,1.0,1.0,0.0,0.0,0.0,0.0,5.0,0.0,0.16742185333333334,-0.2675325333333333,0.95732424,-5.964355506666666,0.984700506666668,5.000000026666666,-11.139383355762769,14.94986421424766,-1.8112050287629895,-22.858981929181233,-6.905723712513031,18.68230612771144,30.31914637785377,-1.0014385566373278,30.94691722190159,-0.9849072839613271,0.35772414666666663,0.15791353333333333,0.2992677599999999,0.8149054399999999,0.49240678437002683,0.6746508067426018,0.6746508067426018,0.6746508067426018
LBP06_S00,LBP06,-1646,55,0,54,-1646,1716238609.16,2024-05-20 20:56:49.160000+00:00,2024-05-21 05:56:49.160000+09:00,2024,5,20,20,56,49,160,,,,,,,,,0.090576,-0.505127,1.588623,-108.398438,63.476562,0.183105,,,,,,,,,,,0.0,1.0,1.0,0.0,0.0,0.0,0.0,5.0,0.0,0.16343748,-0.25052406666666666,0.9475195466666666,-5.754394573333333,1.6064452933333344,4.847005226666667,-16.74351122141875,14.976318227802137,-2.126132168574553,-23.528722378037983,-6.306670983400945,18.597260840968456,30.646908268578667,-0.983962092212283,30.90149960456849,-0.990351036438556,-0.07286147999999999,-0.25460293333333334,0.6411034533333333,0.9685678666666666,0.6936462259723278,0.6757061078109199,0.6757061078109199,0.6757061078109199
LBP06_S00,LBP06,-1645,56,0,55,-1645,1716238609.2,2024-05-20 20:56:49.200000+00:00,2024-05-21 05:56:49.200000+09:00,2024,5,20,20,56,49,200,,,,,,,,,0.254395,-0.635498,1.955322,-15.258789,-10.620117,-10.192871,,,,,,,,,,,0.0,1.0,1.0,0.0,0.0,0.0,0.0,5.0,0.0,0.16213539999999999,-0.24969724,0.9496549600000002,-6.853027386666666,1.5364583200000013,4.222005226666667,-18.46628175999815,14.851257072386858,-2.5429974839206384,-24.26737364843791,-5.712620700505471,18.49554094161163,31.04230168308359,-0.986155252280747,30.921641773580546,-0.9961602867403855,0.0922596,-0.38580076,1.0056670399999998,1.4837273999999998,1.0810736587074439,0.6970412420686317,0.6970412420686317,0.6970412420686317
LBP06_S00,LBP06,-1644,57,0,56,-1644,1716238609.24,2024-05-20 20:56:49.240000+00:00,2024-05-21 05:56:49.240000+09:00,2024,5,20,20,56,49,240,,,,,,,,,0.348633,-0.828125,1.813721,-41.687012,53.833008,17.822266,,,,,,,,,,,0.0,1.0,1.0,0.0,0.0,0.0,0.0,5.0,0.0,0.16208330666666668,-0.2498014,0.9521875066666666,-7.823079466666666,0.971679680000001,3.671061213333333,-16.376004287790142,14.35008172688394,-3.1032859123486705,-24.922413819949515,-5.138617431430113,18.371409505117683,31.385359435955746,-0.9865229500055692,30.986536793067017,-0.9998324112485862,0.18654969333333335,-0.5783236,0.8615334933333333,1.6264067866666667,1.0542764981421417,0.7149030048723072,0.7149030048723072,0.7149030048723072
LBP06_S00,LBP06,-1643,58,0,57,-1643,1716238609.28,2024-05-20 20:56:49.280000+00:00,2024-05-21 05:56:49.280000+09:00,2024,5,20,20,56,49,280,,,,,,,,,-0.430664,-0.072754,0.02417,47.973633,150.024414,10.070801,,,,,,,,,,,0.0,1.0,1.0,0.0,0.0,0.0,0.0,5.0,0.0,0.15947913333333333,-0.25768226666666666,0.95425456,-9.104817746666667,0.37272134666666773,3.5302734533333333,-11.592029822464394,13.224592840700083,-3.767649732279043,-25.38609501284809,-4.60963371780211,18.22070351582652,31.58633533072968,-1.0069671451008952,31.077595585947726,-1.0035810646024887,-0.5901431333333333,0.18492826666666667,-0.93008456,1.70515596,1.1169264391101215,0.7340469779312507,0.7340469779312507,0.7340469779312507
LBP06_S00,LBP06,-1642,59,0,58,-1642,1716238609.32,2024-05-20 20:56:49.320000+00:00,2024-05-21 05:56:49.320000+09:00,2024,5,20,20,56,49,320,,,,,,,,,-0.049561,-0.20459,0.300293,-55.541992,-75.622559,-9.033203,,,,,,,,,,,0.0,1.0,1.0,0.0,0.0,0.0,0.0,5.0,0.0,0.15528642666666667,-0.26156246666666666,0.9520149866666668,-8.832194053333334,0.550944000000001,3.5660807466666666,-5.889229435753947,11.354461472154663,-4.399517245503081,-25.62166419027825,-4.155455258915923,18.0447228260064,31.612489717762426,-1.0247657541151032,31.182414748731922,-1.00570871705063,-0.20484742666666667,0.056972466666666666,-0.6517219866666668,0.9135418800000001,0.6855289038944944,0.73184161092958,0.73184161092958,0.73184161092958
LBP06_S00,LBP06,-1641,60,0,59,-1641,1716238609.36,2024-05-20 20:56:49.360000+00:00,2024-05-21 05:56:49.360000+09:00,2024,5,20,20,56,49,360,,,,,,,,,0.370361,-0.311035,0.972168,137.634277,-96.862793,-45.227051,,,,,,,,,,,0.0,1.0,1.0,0.0,0.0,0.0,0.0,5.0,0.0,0.15787106666666667,-0.2637792666666667,0.9515364666666668,-6.814778680000001,0.3076171866666677,2.656250013333333,-1.1246604452507432,8.767759266481528,-4.792707448839474,-25.66665060808828,-3.8047448882566623,17.85301452805282,31.495764236501053,-1.0210964531631974,31.29688405288948,-1.0056502821507536,0.21248993333333333,-0.04725573333333333,0.02063153333333323,0.2803771999999999,0.21865666298688452,0.7095292218885932,0.7095292218885932,0.7095292218885932
LBP06_S00,LBP06,-1640,61,0,60,-1640,1716238609.4,2024-05-20 20:56:49.400000+00:00,2024-05-21 05:56:49.400000+09:00,2024,5,20,20,56,49,400,,,,,,,,,0.443359,0.099854,1.382324,3.356934,20.568848,10.986328,,,,,,,,,,,0.0,1.0,1.0,0.0,0.0,0.0,0.0,5.0,0.0,0.15263342666666668,-0.24952796000000002,0.9448730533333333,-4.088541706666667,0.4459635466666676,2.4251302266666666,1.3018421840758165,5.576909329574428,-4.727424883759408,-25.614576920725245,-3.581668515073685,17.663917532702445,31.320103492513134,-1.0125114319733224,31.424678199420878,-1.0078102770704866,0.2907255733333333,0.34938196,0.43745094666666684,1.07755848,0.6308347197983002,0.7062502843014977,0.7062502843014977,0.7062502843014977
LBP06_S00,LBP06,-1639,62,0,61,-1639,1716238609.44,2024-05-20 20:56:49.440000+00:00,2024-05-21 05:56:49.440000+09:00,2024,5,20,20,56,49,440,,,,,,,,,-0.009033,-0.712158,1.543945,-174.01123,24.597168,19.348145,,,,,,,,,,,0.0,1.0,1.0,0.0,0.0,0.0,0.0,5.0,0.0,0.15170894666666668,-0.25295569333333334,0.9434212266666666,-7.725423213333333,-1.342773439999999,2.257487,0.7969150804591494,1.9470134133546058,-4.025574133257856,-25.58270031750688,-3.503787978539501,17.50289456737213,31.194589338064212,-1.0208339682154204,31.573800769565388,-1.0112086122442803,-0.1607419466666667,-0.4592023066666666,0.6005237733333333,1.2204680266666665,0.7728735564144251,0.7089152151860147,0.7089152151860147,0.7089152151860147
LBP06_S00,LBP06,-1638,63,0,62,-1638,1716238609.48,2024-05-20 20:56:49.480000+00:00,2024-05-21 05:56:49.480000+09:00,2024,5,20,20,56,49,480,,,,,,,,,0.260986,-0.337646,1.79834,100.646973,2.563477,-14.892578,,,,,,,,,,,0.0,1.0,1.0,0.0,0.0,0.0,0.0,5.0,0.0,0.15034501333333333,-0.24585933333333335,0.9411914133333332,-7.34130864,0.2482096400000009,2.3754883066666665,-2.3173723428347945,-1.8391331993236109,-2.589026281027286,-25.675395211220273,-3.577353306512445,17.39933351613104,31.22114960627698,-1.0128335668024335,31.750840466003183,-1.0146692271309359,0.11064098666666666,-0.09178666666666666,0.8571485866666668,1.0595762400000002,0.8691201986681795,0.7269737614575474,0.7150769453199441,0.7150769453199441
LBP06_S00,LBP06,-1637,64,0,63,-1637,1716238609.52,2024-05-20 20:56:49.520000+00:00,2024-05-21 05:56:49.520000+09:00,2024,5,20,20,56,49,520,,,,,,,,,-0.011719,-0.4729,1.008545,32.104492,86.120605,-1.098633,,,,,,,,,,,0.0,1.0,1.0,0.0,0.0,0.0,0.0,5.0,0.0,0.15161454666666666,-0.24111974666666663,0.9392382800000001,-9.396972693333334,0.04964193333333422,2.179362,-6.900277049215625,-5.278620337170818,-0.4253840494266286,-25.9514062931889,-3.7884981199992778,17.382318154153975,31.463839419429306,-1.000854207638566,31.954815453643555,-1.015066413850076,-0.16333354666666666,-0.23178025333333335,0.06930671999999993,0.46442051999999995,0.2918961369034108,0.7295469209272192,0.6994035820452577,0.6994035820452577
LBP06_S00,LBP06,-1636,65,0,64,-1636,1716238609.56,2024-05-20 20:56:49.560000+00:00,2024-05-21 05:56:49.560000+09:00,2024,5,20,20,56,49,560,,,,,,,,,-0.152832,0.076172,-0.041016,31.799316,52.79541,4.02832,,,,,,,,,,,0.0,1.0,1.0,0.0,0.0,0.0,0.0,5.0,0.0,0.1588932,-0.2557844533333333,0.9591373733333334,-9.951171906666668,-0.9138997333333324,1.496582053333333,-11.252283547592503,-7.643123991202117,2.330397537205757,-26.4014976350926,-4.094223079647362,17.475534055642203,31.92484973389268,-1.0055620414096125,32.17297574156769,-1.013675423025481,-0.31172520000000004,0.3319564533333333,-1.0001533733333334,1.6438350266666668,1.0989424267971146,0.7518549420960926,0.7136728265006812,0.7136728265006812
LBP06_S00,LBP06,-1635,66,0,65,-1635,1716238609.6,2024-05-20 20:56:49.600000+00:00,2024-05-21 05:56:49.600000+09:00,2024,5,20,20,56,49,600,,,,,,,,,0.050781,0.200195,0.136719,-57.312012,-91.003418,4.333496,,,,,,,,,,,0.0,1.0,1.0,0.0,0.0,0.0,0.0,5.0,0.0,0.1543456666666667,-0.25693678666666664,0.9585970133333332,-8.416341173333334,0.7112630266666676,1.8790690266666665,-13.522296718486066,-8.165316145836217,5.402745761028401,-26.942389503832043,-4.420835725480811,17.69164388608334,32.53352738452867,-1.0201386040186824,32.38018197119911,-1.0118966946802108,-0.1035646666666667,0.45713178666666665,-0.8218780133333332,1.3825744666666666,0.9461387738400658,0.7564552975777938,0.7216888936503152,0.7216888936503152
LBP06_S00,LBP06,-1634,67,0,66,-1634,1716238609.64,2024-05-20 20:56:49.640000+00:00,2024-05-21 05:56:49.640000+09:00,2024,5,20,20,56,49,640,,,,,,,,,0.473877,-0.392334,0.635254,-77.636719,-130.737305,-3.662109,,,,,,,,,,,0.0,1.0,1.0,0.0,0.0,0.0,0.0,5.0,0.0,0.15521481333333334,-0.25906895999999996,0.9583528666666669,-7.960612013333335,1.0652669333333342,2.389322933333333,-12.217752652113164,-6.377698237992469,8.385136138210466,-27.43109960991657,-4.675943655000509,18.02704933161176,33.15575640033369,-1.0211290988721262,32.54198609387838,-1.010889799052421,0.3186621866666667,-0.13326504000000006,-0.3230988666666669,0.7750260933333336,0.47296726920440035,0.7482999320210911,0.7133981728354513,0.7133981728354513
LBP06_S00,LBP06,-1633,68,0,67,-1633,1716238609.68,2024-05-20 20:56:49.680000+00:00,2024-05-21 05:56:49.680000+09:00,2024,5,20,20,56,49,680,,,,,,,,,0.557617,0.09082,0.988281,37.536621,4.516602,4.638672,,,,,,,,,,,0.0,1.0,1.0,0.0,0.0,0.0,0.0,5.0,0.0,0.15388994666666667,-0.25058589333333336,0.9578580800000002,-6.65852868,1.4241536400000008,2.640787773333333,-6.688988177104063,-2.425370779692167,10.786627931200842,-27.698659137000732,-4.7729584861881955,18.458514448859795,33.6260852071334,-1.0109390122922963,32.620305041870026,-1.0091285019411638,0.40372705333333336,0.3414058933333334,0.030422919999999798,0.7755558666666665,0.5296027489140082,0.7397512150240338,0.7074692881928242,0.7074692881928242
LBP06_S00,LBP06,-1632,69,0,68,-1632,1716238609.72,2024-05-20 20:56:49.720000+00:00,2024-05-21 05:56:49.720000+09:00,2024,5,20,20,56,49,720,,,,,,,,,0.188232,-0.868164,1.458984,-165.222168,25.878906,30.517578,,,,,,,,,,,0.0,1.0,1.0,0.0,0.0,0.0,0.0,5.0,0.0,0.15604164,-0.25414709333333335,0.9614941466666668,-8.39436852,0.9147135333333339,2.6033528799999996,2.589642383425889,2.856460488048054,12.119978610206596,-27.595073441663697,-4.658700066666273,18.94331359326806,33.794092597003754,-1.0108558458691526,32.580263647066786,-1.0096316409303854,0.03219036,-0.6140169066666668,0.4974898533333333,1.1436971200000001,0.7909166423328398,0.7301126016360346,0.7100770180096996,0.7100770180096996
LBP06_S00,LBP06,-1631,70,0,69,-1631,1716238609.76,2024-05-20 20:56:49.760000+00:00,2024-05-21 05:56:49.760000+09:00,2024,5,20,20,56,49,760,,,,,,,,,0.101807,-0.927002,1.75293,110.290527,-5.493164,-17.700195,,,,,,,,,,,0.0,1.0,1.0,0.0,0.0,0.0,0.0,5.0,0.0,0.1595768,-0.25544592,0.9700195333333335,-7.116699253333333,1.5234374933333341,2.262369813333333,14.070595387828918,8.188632289415388,12.020880165941378,-27.03224962615054,-4.331154775089658,19.424148799905712,33.56782653281526,-1.0033091697104932,32.397252085688585,-1.0131151183895302,-0.057769799999999996,-0.67155608,0.7829104666666666,1.5122363466666666,1.033089404259488,0.7483973547440196,0.7198652721384811,0.7198652721384811
LBP06_S00,LBP06,-1630,71,0,70,-1630,1716238609.8,2024-05-20 20:56:49.800000+00:00,2024-05-21 05:56:49.800000+09:00,2024,5,20,20,56,49,800,,,,,,,,,0.28125,-0.309082,1.459717,96.313477,56.518555,32.104492,,,,,,,,,,,0.0,1.0,1.0,0.0,0.0,0.0,0.0,5.0,0.0,0.15749021333333335,-0.2514778133333333,0.9680598933333334,-8.161621133333334,1.3159179600000008,2.464192733333333,25.516308488164135,12.318322956343358,10.370511816239093,-26.011597286623974,-3.8384218568359234,19.838969272555275,32.93814471930579,-1.002442475695427,32.06372493070082,-1.0160954189403222,0.12375978666666665,-0.057604186666666723,0.4916571066666665,0.6730210799999998,0.5102562470496024,0.7390322109313979,0.7137003008123376,0.7137003008123376
LBP06_S00,LBP06,-1629,72,0,71,-1629,1716238609.84,2024-05-20 20:56:49.840000+00:00,2024-05-21 05:56:49.840000+09:00,2024,5,20,20,56,49,840,,,,,,,,,-0.455078,-0.037109,0.1604,52.124023,168.640137,53.466797,,,,,,,,,,,0.0,1.0,1.0,0.0,0.0,0.0,0.0,5.0,0.0,0.15781898666666666,-0.25244785333333336,0.9717350266666667,-9.39208988,0.9497070133333341,2.3738607066666666,34.57289481126386,14.485400148635584,7.380307039023276,-24.62868149417342,-3.2590058508905,20.134181554116207,31.977778817980653,-1.0032209971028467,31.59507637520887,-1.0174835068798542,-0.6128969866666667,0.21533885333333336,-0.8113350266666667,1.6395708666666668,1.0393642593028662,0.7617753403368459,0.7230049853406384,0.7230049853406384
LBP06_S00,LBP06,-1628,73,0,72,-1628,1716238609.88,2024-05-20 20:56:49.880000+00:00,2024-05-21 05:56:49.880000+09:00,2024,5,20,20,56,49,880,,,,,,,,,-0.065186,0.074219,0.021484,57.922363,13.793945,-21.789551,,,,,,,,,,,0.0,1.0,1.0,0.0,0.0,0.0,0.0,5.0,0.0,0.15746090666666668,-0.2607258533333333,0.9754231733333332,-10.617675813333332,0.8471679600000008,2.509765653333333,39.31926782301513,14.649533230697392,3.595695680090186,-23.055910781252816,-2.6730245216626045,20.278009381319816,30.82073565824466,-1.0178649566946483,31.033107911529083,-1.0180828680542233,-0.22264690666666667,0.3349448533333333,-0.9539391733333332,1.5115309333333333,1.035258250989871,0.7713263606676405,0.7316786871642282,0.7316786871642282
LBP06_S00,LBP06,-1627,74,0,73,-1627,1716238609.92,2024-05-20 20:56:49.920000+00:00,2024-05-21 05:56:49.920000+09:00,2024,5,20,20,56,49,920,,,,,,,,,0.033447,0.032959,0.42627,-23.193359,-90.454102,5.310059,,,,,,,,,,,0.0,1.0,1.0,0.0,0.0,0.0,0.0,5.0,0.0,0.15428708,-0.26652662666666666,0.9730273333333334,-9.94140628,1.0856119600000007,2.1329752799999997,38.62480792934919,13.358548100721682,-0.2057166989850237,-21.51091846407885,-2.1386825976337374,20.269780713360415,29.633723805647303,-1.0356889822300162,30.44495632970571,-1.0212339122175487,-0.12084007999999999,0.29948562666666667,-0.5467573333333333,0.96708304,0.6350098795043351,0.7735895523425964,0.7290660166869338,0.7290660166869338
LBP06_S00,LBP06,-1626,75,0,74,-1626,1716238609.96,2024-05-20 20:56:49.960000+00:00,2024-05-21 05:56:49.960000+09:00,2024,5,20,20,56,49,960,,,,,,,,,0.582275,-0.525391,0.709961,-51.818848,-112.304688,-19.592285,,,,,,,,,,,0.0,1.0,1.0,0.0,0.0,0.0,0.0,5.0,0.0,0.15220049333333333,-0.262539,0.973291,-8.723144560000001,1.4737955600000012,1.701660173333333,32.27822754581436,11.337918170444997,-3.2043537990672855,-20.219789362246274,-1.6851658708159376,20.141606561397722,28.589578184015064,-1.0353650469175337,29.915857343658416,-1.025229039930613,0.4300745066666667,-0.26285200000000003,-0.26333000000000006,0.9562565066666668,0.5686808807130558,0.7704985722028015,0.724845355213937,0.724845355213937
LBP06_S00,LBP06,-1625,76,0,75,-1625,1716238610.0,2024-05-20 20:56:50+00:00,2024-05-21 05:56:50+09:00,2024,5,20,20,56,50,0,20.0,56.0,50.0,40.548824,141.548203,2.295,3.0,10.0,0.327637,0.119141,0.990234,188.049316,44.128418,-23.986816,-572.0,82.0,544.0,187.0,0.0,1022.299988,19.440001,0.092161,-75.032249,4.028906,0.0,1.0,1.0,0.0,0.0,0.0,0.0,5.0,0.0,0.15198240000000002,-0.26128574666666665,0.9732454266666667,-8.479817733333332,1.442871080000001,1.2679036666666663,20.952174986854324,9.054393677860624,-4.755986438121304,-19.381702362772103,-1.3229901237015127,19.95136710387287,27.84704182960908,-1.0340194834140024,29.53613565362996,-1.0296789522171497,0.1756546,0.38042674666666665,0.016988573333333257,0.5730699199999999,0.4193657827057975,0.7303641128784775,0.7170125456624462,0.7170125456624462
LBP06_S00,LBP06,-1624,77,0,76,-1624,1716238610.04,2024-05-20 20:56:50.040000+00:00,2024-05-21 05:56:50.040000+09:00,2024,5,20,20,56,50,40,,,,,,,,,0.187744,-0.717041,1.611328,-94.970703,-14.282227,-10.559082,,,,,,,,,,,0.0,1.0,1.0,0.0,0.0,0.0,0.0,5.0,0.0,0.15271157333333332,-0.2582356133333333,0.9731770666666667,-7.548014346666665,1.5926106666666677,0.9594726799999997,6.07356737073565,6.5201481959387655,-4.558210001161964,-19.138759667942676,-1.0621841958639622,19.76903870382639,27.536071763535883,-1.0271227106158154,29.38538766191968,-1.0339476682146573,0.03503242666666667,-0.45880538666666676,0.6381509333333334,1.131988746666667,0.7867440927434469,0.7373260703017234,0.7187558343394713,0.7187558343394713
LBP06_S00,LBP06,-1623,78,0,77,-1623,1716238610.08,2024-05-20 20:56:50.080000+00:00,2024-05-21 05:56:50.080000+09:00,2024,5,20,20,56,50,80,,,,,,,,,0.005859,-0.249023,1.821045,100.585938,28.625488,-12.023926,,,,,,,,,,,0.0,1.0,1.0,0.0,0.0,0.0,0.0,5.0,0.0,0.15071288,-0.26438470666666664,0.9752473733333333,-8.532714866666668,1.111653640000001,0.41585289333333314,-10.384366789383908,3.438714328514952,-2.7091763179206514,-19.554134339518033,-0.9246356227233641,19.660671651109563,27.744569388899706,-1.04244945392555,29.518209674768627,-1.0376604639151776,-0.14485388,0.015361706666666641,0.8457976266666667,1.0060132133333333,0.8582495289003852,0.7452730388890012,0.7221581195726643,0.7221581195726643
LBP06_S00,LBP06,-1622,79,0,78,-1622,1716238610.12,2024-05-20 20:56:50.120000+00:00,2024-05-21 05:56:50.120000+09:00,2024,5,20,20,56,50,120,,,,,,,,,0.187256,-0.63916,1.442383,-168.457031,82.763672,33.26416,,,,,,,,,,,0.0,1.0,1.0,0.0,0.0,0.0,0.0,5.0,0.0,0.14849607999999997,-0.26572912,0.9771061066666665,-8.041178413333334,1.188964840000001,0.6599935199999998,-26.197716801315423,-0.4241421041854813,0.35214219023858595,-20.60204301157065,-0.9416013068907834,19.674757338719107,28.503102736530753,-1.0508071229997975,29.955150395905342,-1.0389931595047899,0.03875992000000003,-0.37343087999999997,0.46527689333333344,0.8774676933333334,0.5978591314063029,0.7494911327704524,0.7191986198544177,0.7191986198544177
LBP06_S00,LBP06,-1621,80,0,79,-1621,1716238610.16,2024-05-20 20:56:50.160000+00:00,2024-05-21 05:56:50.160000+09:00,2024,5,20,20,56,50,160,,,,,,,,,-0.311523,0.146973,-0.179199,38.574219,116.760254,25.756836,,,,,,,,,,,0.0,1.0,1.0,0.0,0.0,0.0,0.0,5.0,0.0,0.14861326666666666,-0.26401036,0.9743945199999999,-6.6300456,1.8017578133333343,1.1295573199999998,-39.25036231901062,-4.891797457042163,3.9861824517089066,-22.172057504331075,-1.1372732051724699,19.834204636787465,29.770609632530682,-1.0478082925758596,30.680532871641883,-1.0383799935056717,-0.4601362666666666,0.41098336,-1.1535935199999998,2.0247131466666666,1.3082089724064796,0.7740736426278185,0.732896535030047,0.732896535030047
LBP06_S00,LBP06,-1620,81,0,80,-1620,1716238610.2,2024-05-20 20:56:50.200000+00:00,2024-05-21 05:56:50.200000+09:00,2024,5,20,20,56,50,200,,,,,,,,,-0.02832,-0.081055,0.146729,-59.020996,-58.959961,-10.192871,,,,,,,,,,,0.0,1.0,1.0,0.0,0.0,0.0,0.0,5.0,0.0,0.14729815999999998,-0.2598957733333333,0.9695605466666668,-5.328776066666667,1.618652346666668,0.6095377866666665,-47.887091309613716,-9.281002426900125,7.509462783534402,-24.087541156715623,-1.508513302248475,20.13458314812884,31.430664802203015,-1.0451296356705033,31.646615791931843,-1.038125179121272,-0.17561816,0.1788407733333333,-0.8228315466666668,1.1772904800000001,0.8601613305177752,0.7652371495002316,0.7357889167456771,0.7357889167456771
LBP06_S00,LBP06,-1619,82,0,81,-1619,1716238610.24,2024-05-20 20:56:50.240000+00:00,2024-05-21 05:56:50.240000+09:00,2024,5,20,20,56,50,240,,,,,,,,,0.174561,-0.064697,0.481201,-48.706055,-134.277344,-2.563477,,,,,,,,,,,0.0,1.0,1.0,0.0,0.0,0.0,0.0,5.0,0.0,0.14889321333333333,-0.2597330133333333,0.9723307200000001,-4.663899773333333,1.4705403733333349,0.13590498666666642,-51.18977444718933,-12.637857255644954,10.315846625754986,-26.135132134603197,-2.014027592474273,20.547217013159038,33.30599894647012,-1.040348954108052,32.7820372799697,-1.0381779433744622,0.025667786666666664,0.1950360133333333,-0.4911297200000001,0.7118335200000001,0.5290617011621652,0.7442285576210327,0.731194978621599,0.731194978621599
LBP06_S00,LBP06,-1618,83,0,82,-1618,1716238610.28,2024-05-20 20:56:50.280000+00:00,2024-05-21 05:56:50.280000+09:00,2024,5,20,20,56,50,280,,,,,,,,,0.5625,-0.267334,0.986572,-65.612793,-69.335938,-4.02832,,,,,,,,,,,0.0,1.0,1.0,0.0,0.0,0.0,0.0,5.0,0.0,0.14948565333333336,-0.25502598666666665,0.9745344933333335,-5.031738306666667,0.9960937600000012,-0.0089517866666669,-49.12900437885245,-14.172853737590438,11.949236965686614,-28.100292309757293,-2.580941741977891,21.025186491786503,35.190142869611805,-1.031191912590771,34.002004994539135,-1.0394929138629683,0.41301434666666664,-0.012308013333333367,0.012037506666666475,0.4373598666666665,0.41337300263981563,0.7160864201622205,0.7242858052306907,0.7242858052306907
LBP06_S00,LBP06,-1617,84,0,83,-1617,1716238610.32,2024-05-20 20:56:50.320000+00:00,2024-05-21 05:56:50.320000+09:00,2024,5,20,20,56,50,320,,,,,,,,,0.277832,-0.190186,1.141357,-97.595215,-14.160156,45.349121,,,,,,,,,,,0.0,1.0,1.0,0.0,0.0,0.0,0.0,5.0,0.0,0.15180661333333337,-0.2580728666666667,0.9800650933333335,-6.2410482,1.9921875066666679,-0.45084630666666686,-42.55860011247851,-13.62786273882182,12.144616574417148,-29.802636314256432,-3.1260562515307635,21.51097115476319,36.88754856301276,-1.0295573222388312,35.21835923583976,-1.0401238002969018,0.12602538666666666,0.06788686666666668,0.16129190666666648,0.3552041599999998,0.2156527391582803,0.6972913735727718,0.7134638251014904,0.7134638251014904
LBP06_S00,LBP06,-1616,85,0,84,-1616,1716238610.36,2024-05-20 20:56:50.360000+00:00,2024-05-21 05:56:50.360000+09:00,2024,5,20,20,56,50,360,,,,,,,,,0.105225,-0.787109,1.772461,-69.335938,-2.197266,6.164551,,,,,,,,,,,0.0,1.0,1.0,0.0,0.0,0.0,0.0,5.0,0.0,0.15033201333333332,-0.25748368,0.9800162666666667,-7.933756533333334,2.764485680000001,-0.2140299066666669,-33.0282489568546,-11.35528767959979,10.852712499899514,-31.123766272530617,-3.580267758714755,21.94507965475917,38.25040738691461,-1.0328169030735361,36.3488594660524,-1.0385647815091779,-0.04510701333333332,-0.52962532,0.7924447333333333,1.3671770666666667,0.9542045260973632,0.726713288097191,0.7184792563722379,0.7184792563722379
LBP06_S00,LBP06,-1615,86,0,85,-1615,1716238610.4,2024-05-20 20:56:50.400000+00:00,2024-05-21 05:56:50.400000+09:00,2024,5,20,20,56,50,400,,,,,,,,,0.222656,-0.410645,1.77002,91.186523,37.841797,1.098633,,,,,,,,,,,0.0,1.0,1.0,0.0,0.0,0.0,0.0,5.0,0.0,0.1482617066666667,-0.2548372,0.9813053333333335,-8.186035186666668,2.951660146666668,0.2750651466666665,-22.42617373451166,-8.081965603632263,8.243939529002763,-32.020813221911084,-3.9035463828600454,22.27483723591928,39.201256709987646,-1.0345471259459063,37.325694035365586,-1.036578679921981,0.0743942933333333,-0.1558078,0.7887146666666665,1.0189167599999998,0.8073917307209164,0.7337755685340955,0.720293796665068,0.720293796665068
LBP06_S00,LBP06,-1614,87,0,86,-1614,1716238610.44,2024-05-20 20:56:50.440000+00:00,2024-05-21 05:56:50.440000+09:00,2024,5,20,20,56,50,440,,,,,,,,,0.01416,-0.219727,1.135254,21.362305,107.421875,5.065918,,,,,,,,,,,0.0,1.0,1.0,0.0,0.0,0.0,0.0,5.0,0.0,0.14907225333333335,-0.25987952000000003,0.9830045599999999,-9.34977216,3.3756510266666675,0.40039066666666645,-12.539300900427783,-4.524972081897087,4.678648659097476,-32.52238525792819,-4.084545266135929,22.461983182283177,39.73574890923022,-1.0402724155008762,38.10280254768661,-1.0345001648686982,-0.13491225333333334,0.040152520000000025,0.15224944000000007,0.32731421333333344,0.20734857834608256,0.7111545694113619,0.7100348922986883,0.7100348922986883
LBP06_S00,LBP06,-1613,88,0,87,-1613,1716238610.48,2024-05-20 20:56:50.480000+00:00,2024-05-21 05:56:50.480000+09:00,2024,5,20,20,56,50,480,,,,,,,,,-0.405518,0.195557,-0.131836,-16.113281,34.973145,20.263672,,,,,,,,,,,0.0,1.0,1.0,0.0,0.0,0.0,0.0,5.0,0.0,0.14458657333333336,-0.2571093466666667,0.97563152,-7.926432320000001,3.2698567466666675,0.4093424933333331,-4.680915568192868,-1.1035031438636842,0.6403243859374932,-32.70962188065591,-4.1286853918904765,22.487596157720677,39.90811180190598,-1.0487583182648854,38.660890262617364,-1.033044280635196,-0.5501045733333334,0.4526663466666667,-1.10746752,2.11023844,1.316816680810866,0.7290624286970694,0.7280180950773084,0.7219325744263781
LBP06_S00,LBP06,-1612,89,0,88,-1612,1716238610.52,2024-05-20 20:56:50.520000+00:00,2024-05-21 05:56:50.520000+09:00,2024,5,20,20,56,50,520,,,,,,,,,0.10498,-0.394531,0.430664,-60.424805,-77.270508,-11.352539,,,,,,,,,,,0.0,1.0,1.0,0.0,0.0,0.0,0.0,5.0,0.0,0.14914386666666668,-0.2568879866666667,0.9770768266666666,-8.25602216,1.5885416400000012,0.16194665333333313,0.4846615006264767,2.083774785237101,-3.3579723097310765,-32.69023542063085,-4.045334400480993,22.353277265331435,39.80810503865722,-1.0352169351225584,39.00890243564493,-1.031825531715292,-0.044163866666666676,-0.13764301333333334,-0.5464128266666666,0.7282197066666666,0.5652106009128702,0.7399950072574478,0.7347709640923334,0.718918690320349
LBP06_S00,LBP06,-1611,90,0,89,-1611,1716238610.56,2024-05-20 20:56:50.560000+00:00,2024-05-21 05:56:50.560000+09:00,2024,5,20,20,56,50,560,,,,,,,,,0.370605,-0.181641,0.651611,65.246582,-109.619141,-32.348633,,,,,,,,,,,0.0,1.0,1.0,0.0,0.0,0.0,0.0,5.0,0.0,0.15019854666666668,-0.25426429333333334,0.9769368533333332,-7.688802106666667,0.9464518000000013,-0.09277340000000019,2.892882410574642,5.0293326888793395,-6.874023130547127,-32.574520124207865,-3.844161092925819,22.07831634010955,39.53895532566251,-1.02794727670389,39.18135439528497,-1.0302917446854605,0.22040645333333334,0.07262329333333334,-0.3253258533333332,0.6183555999999999,0.39961238500904805,0.7120218055859252,0.7319383738410089,0.7128940430503246
LBP06_S00,LBP06,-1610,91,0,90,-1610,1716238610.6,2024-05-20 20:56:50.600000+00:00,2024-05-21 05:56:50.600000+09:00,2024,5,20,20,56,50,600,,,,,,,,,0.393555,-0.27002,1.114502,-17.272949,-9.887695,-9.94873,,,,,,,,,,,0.0,1.0,1.0,0.0,0.0,0.0,0.0,5.0,0.0,0.15293617333333331,-0.25685544000000005,0.9773763066666665,-7.775878933333335,0.5777994533333345,0.2799479466666665,2.879671138038562,7.52760990890131,-9.615979018501596,-32.45933327868632,-3.5430566965697667,21.693677179369484,39.201749925413246,-1.0243444851376744,39.23194779828446,-1.028630332455832,0.24061882666666667,-0.013164559999999936,0.13712569333333358,0.3909090800000002,0.27726193600742316,0.6852667320726193,0.7208610148252066,0.7048267818087893
LBP06_S00,LBP06,-1609,92,0,91,-1609,1716238610.64,2024-05-20 20:56:50.640000+00:00,2024-05-21 05:56:50.640000+09:00,2024,5,20,20,56,50,640,,,,,,,,,0.151367,-0.30957,1.342773,-98.754883,31.799316,3.967285,,,,,,,,,,,0.0,1.0,1.0,0.0,0.0,0.0,0.0,5.0,0.0,0.15173174666666667,-0.25566404,0.9747233066666666,-6.397298200000001,0.4386392933333344,0.3361002799999998,0.9443424708974517,9.063330774339047,-11.472431994878159,-32.421559579850424,-3.1805234655962047,21.234779899574356,38.88687609577769,-1.025790111773032,39.224829213562394,-1.0269502413868723,-0.00036474666666666544,-0.05390596000000003,0.36804969333333337,0.42232040000000004,0.37197656152829467,0.6812271037655752,0.714763517893333,0.6987749596218712
LBP06_S00,LBP06,-1608,93,0,92,-1608,1716238610.68,2024-05-20 20:56:50.680000+00:00,2024-05-21 05:56:50.680000+09:00,2024,5,20,20,56,50,680,,,,,,,,,0.261475,-0.644775,1.932617,86.730957,29.907227,-36.254883,,,,,,,,,,,0.0,1.0,1.0,0.0,0.0,0.0,0.0,5.0,0.0,0.15335284000000002,-0.2543587066666667,0.9725358133333333,-7.112630226666667,-0.09847007999999893,0.7430013333333331,-2.4292282009279593,8.987484732232534,-12.480484169600025,-32.51872870788754,-2.8210240763069034,20.735560532790355,38.67026459988741,-1.0190044233917297,39.225212263100595,-1.023603508008494,0.10812216,-0.3904162933333333,0.9600811866666668,1.45861964,1.0420514231910438,0.7017250507366566,0.7207381328803452,0.7049048964713208
LBP06_S00,LBP06,-1607,94,0,93,-1607,1716238610.72,2024-05-20 20:56:50.720000+00:00,2024-05-21 05:56:50.720000+09:00,2024,5,20,20,56,50,720,,,,,,,,,0.341064,-0.314453,1.932617,-32.043457,43.762207,-7.080078,,,,,,,,,,,0.0,1.0,1.0,0.0,0.0,0.0,0.0,5.0,0.0,0.15335934666666667,-0.25152993333333334,0.9680924533333335,-5.949707053333335,0.5460611733333344,0.5957031599999997,-6.8389603451055505,6.88996022909119,-12.74677254524931,-32.792287121691764,-2.545425667143256,20.225689630980384,38.6120681594132,-1.014219451940516,39.29096759379073,-1.0199855115304994,0.1877046533333333,-0.06292306666666664,0.9645245466666665,1.2151522666666665,0.9846318856934623,0.7094736604710816,0.7197931310535581,0.7098123875103056
LBP06_S00,LBP06,-1606,95,0,94,-1606,1716238610.76,2024-05-20 20:56:50.760000+00:00,2024-05-21 05:56:50.760000+09:00,2024,5,20,20,56,50,760,,,,,,,,,-0.331299,-0.43335,0.423584,-60.424805,139.587402,40.100098,,,,,,,,,,,0.0,1.0,1.0,0.0,0.0,0.0,0.0,5.0,0.0,0.15313798666666667,-0.25233397333333335,0.9687792933333332,-5.459798200000001,0.9179687200000011,0.5021159199999997,-11.921240346148037,2.94239778661046,-12.359443379379375,-33.269136735537685,-2.4277297556788375,19.73131189580521,38.756341416909514,-1.0162027807772518,39.46660537020375,-1.0175044897427088,-0.4844369866666667,-0.18101602666666666,-0.5451952933333333,1.2106483066666667,0.7514545254595828,0.6982082653190854,0.7233028100315525,0.710530355405983
LBP06_S00,LBP06,-1605,96,0,95,-1605,1716238610.8,2024-05-20 20:56:50.800000+00:00,2024-05-21 05:56:50.800000+09:00,2024,5,20,20,56,50,800,,,,,,,,,-0.059326,0.178223,0.02002,60.72998,-13.122559,-7.751465,,,,,,,,,,,0.0,1.0,1.0,0.0,0.0,0.0,0.0,5.0,0.0,0.15300777333333335,-0.2530436133333333,0.9685579333333334,-4.361979186666668,1.326497360000001,0.5688476933333332,-17.255155387472943,-2.0134096023200154,-11.337473064193516,-33.959342951036604,-2.508266139771638,19.27781297323747,39.130070862767,-1.0177462152563088,39.780795714983824,-1.0121451629596279,-0.21233377333333334,0.43126661333333327,-0.9485379333333334,1.59213832,1.063391148188777,0.7203336613646522,0.729682936148025,0.7165110468090812
LBP06_S00,LBP06,-1604,97,0,96,-1604,1716238610.84,2024-05-20 20:56:50.840000+00:00,2024-05-21 05:56:50.840000+09:00,2024,5,20,20,56,50,840,,,,,,,,,0.035889,-0.092041,0.434814,18.981934,-100.097656,-46.447754,,,,,,,,,,,0.0,1.0,1.0,0.0,0.0,0.0,0.0,5.0,0.0,0.15341793333333334,-0.24727213333333334,0.9657909999999998,-2.6090495066666675,1.9344075200000013,0.40039066666666645,-22.30123812576365,-6.724745676017102,-9.649427256461248,-34.85139247606715,-2.777255966812322,18.89183588297902,39.7395794046122,-1.0068050817170937,40.24772285269955,-1.0088890927694618,-0.11752893333333334,0.15523113333333333,-0.5309769999999998,0.8037370666666664,0.5655495817834384,0.7013810742638752,0.7315782073003605,0.7139950223919871
LBP06_S00,LBP06,-1603,98,0,97,-1603,1716238610.88,2024-05-20 20:56:50.880000+00:00,2024-05-21 05:56:50.880000+09:00,2024,5,20,20,56,50,880,,,,,,,,,0.556152,0.067383,0.833008,52.91748,-106.445312,-38.391113,,,,,,,,,,,0.0,1.0,1.0,0.0,0.0,0.0,0.0,5.0,0.0,0.14940426666666667,-0.24394205333333333,0.9573372266666667,-4.751790386666667,1.5388997066666674,0.8797200933333332,-26.457605927264844,-10.027180655239206,-7.292535368676076,-35.90969671315774,-3.1783431930218904,18.60013446823198,40.56566510880737,-1.0125783534849389,40.87117042427816,-1.0050642926657836,0.4067477333333333,0.3113250533333333,-0.12432922666666668,0.8424020133333333,0.5270908498620884,0.6810543782187638,0.7261903694432021,0.7109310195636281
LBP06_S00,LBP06,-1602,99,0,98,-1602,1716238610.92,2024-05-20 20:56:50.920000+00:00,2024-05-21 05:56:50.920000+09:00,2024,5,20,20,56,50,920,,,,,,,,,0.213135,-0.222656,1.125244,-191.52832,-58.105469,9.643555,,,,,,,,,,,0.0,1.0,1.0,0.0,0.0,0.0,0.0,5.0,0.0,0.15141924,-0.24617187999999998,0.94992512,-4.242350293333335,-0.0805664399999993,0.39062503999999987,-29.262212168761227,-11.318865667990758,-4.377954767592774,-37.08018519990819,-3.631097819741521,18.425016277528268,41.56448280278733,-1.0104067172446531,41.64906719398864,-1.0012086335725416,0.06171575999999998,0.02351587999999999,0.17531887999999995,0.2605505199999999,0.18734604700661922,0.6631478249188553,0.7183686886307258,0.7024861006514181
LBP06_S00,LBP06,-1601,100,0,99,-1601,1716238610.96,2024-05-20 20:56:50.960000+00:00,2024-05-21 05:56:50.960000+09:00,2024,5,20,20,56,50,960,,,,,,,,,0.080078,-0.424072,1.700928,-58.837891,59.265137,9.399414,,,,,,,,,,,0.0,1.0,1.0,0.0,0.0,0.0,0.0,5.0,0.0,0.15729814666666667,-0.23553386666666667,0.9449967333333334,-2.869466186666667,-0.5183919599999992,0.3068034133333332,-30.65927272039942,-10.747582267366374,-1.1612253156628944,-38.30655610872417,-4.061001110436176,18.378567264901754,42.68085877346326,-0.9743540088730803,42.57607318578854,-0.9992938427166896,-0.07722014666666667,-0.18853813333333333,0.7559312666666665,1.0216895466666664,0.7829059066684261,0.6717168259570699,0.7211076990799357,0.7037626055088311
LBP06_S00,LBP06,-1600,101,0,100,-1600,1716238611.0,2024-05-20 20:56:51+00:00,2024-05-21 05:56:51+09:00,2024,5,20,20,56,51,0,20.0,56.0,51.0,40.548843,141.548096,2.859,3.0,10.0,0.285156,-0.200195,1.713867,-88.012695,-13.000488,-5.493164,-571.0,89.0,535.0,120.0,0.0,1022.099976,19.51,0.090179,-73.379799,4.028906,0.0,1.0,1.0,0.0,0.0,0.0,0.0,7.0,0.0,0.15350582666666668,-0.2390853066666667,0.9432421733333333,-6.573893280000001,-0.31575525333333254,0.7788086133333333,-31.145832223732068,-9.021405914686225,2.002353369418256,-39.55238939767346,-4.421857347023625,18.458661399678483,43.87102130257055,-0.9917837832360121,43.64286578498184,-0.9982551957595408,0.13165017333333334,0.03889030666666668,0.7706248266666668,0.9411653066666668,0.7827559310323712,0.6862524318901331,0.7083082723843052,0.7049968762201364
LBP06_S00,LBP06,-1599,102,0,101,-1599,1716238611.04,2024-05-20 20:56:51.040000+00:00,2024-05-21 05:56:51.040000+09:00,2024,5,20,20,56,51,40,,,,,,,,,0.32251,-0.854492,1.772217,-60.60791,67.932129,29.418945,,,,,,,,,,,0.0,1.0,1.0,0.0,0.0,0.0,0.0,7.0,0.0,0.15669918666666668,-0.24177411999999998,0.9515331866666666,-7.2696940533333345,-1.424153679999999,0.8610026266666665,-31.628059195538704,-6.976255155442385,4.747331404447554,-40.817511765495006,-4.70090755324132,18.648554655856387,45.12135181156375,-0.9875421107362512,44.832697479973675,-0.9985530046730368,0.16581081333333333,-0.61271788,0.8206838133333333,1.5992125066666667,1.0375154686833818,0.6962832869277303,0.716804678614727,0.7101125468734171
LBP06_S00,LBP06,-1598,103,0,102,-1598,1716238611.08,2024-05-20 20:56:51.080000+00:00,2024-05-21 05:56:51.080000+09:00,2024,5,20,20,56,51,80,,,,,,,,,-0.319336,-0.393066,0.006104,109.375,114.685059,17.333984,,,,,,,,,,,0.0,1.0,1.0,0.0,0.0,0.0,0.0,7.0,0.0,0.16457353333333333,-0.2500456,0.9722558533333334,-6.058756546666666,-0.4915364933333325,1.1149088799999998,-32.97630698989523,-5.160383632579707,6.7814648591740285,-42.136564045090815,-4.907322898544509,18.91981325022335,46.449232296992236,-0.980447832459309,46.11758397618324,-0.99632740677168,-0.4839095333333333,-0.14302040000000005,-0.9661518533333334,1.5930817866666667,1.0899874655088835,0.7055528043920704,0.7254129216405358,0.715868227458803
LBP06_S00,LBP06,-1597,104,0,103,-1597,1716238611.12,2024-05-20 20:56:51.120000+00:00,2024-05-21 05:56:51.120000+09:00,2024,5,20,20,56,51,120,,,,,,,,,0.049561,0.22998,0.217773,81.726074,-55.175781,0.671387,,,,,,,,,,,0.0,1.0,1.0,0.0,0.0,0.0,0.0,7.0,0.0,0.15832027999999998,-0.2485482,0.96567708,-5.286458360000001,2.224121053333334,1.6495768533333333,-35.47892257887923,-3.665559868593649,7.925009648630001,-43.555720948245984,-5.053945293288255,19.23681363616855,47.88212807741219,-0.9950715433819988,47.45690527178672,-0.9939636348466745,-0.10875927999999999,0.47852819999999996,-0.74790408,1.33519156,0.8945268760982001,0.7174195141797461,0.7334553234750993,0.7185347744534207
LBP06_S00,LBP06,-1596,105,0,104,-1596,1716238611.16,2024-05-20 20:56:51.160000+00:00,2024-05-21 05:56:51.160000+09:00,2024,5,20,20,56,51,160,,,,,,,,,0.257324,0.163818,0.564453,-15.197754,-132.629395,-22.460938,,,,,,,,,,,0.0,1.0,1.0,0.0,0.0,0.0,0.0,7.0,0.0,0.15373694666666665,-0.2472623866666667,0.9625357999999999,-5.087076840000001,2.8597004800000008,1.5144857066666664,-38.51003409984889,-2.274599770779957,8.101427502928859,-45.09612231223994,-5.144929284119453,19.560870736285704,49.424267408842525,-1.005816311205762,48.79974805828252,-0.9931779125305905,0.10358705333333335,0.4110803866666667,-0.39808279999999996,0.9127502399999999,0.5815387154576546,0.6883527039017932,0.7312131732648058,0.7165201265270125
LBP06_S00,LBP06,-1595,106,0,105,-1595,1716238611.2,2024-05-20 20:56:51.200000+00:00,2024-05-21 05:56:51.200000+09:00,2024,5,20,20,56,51,200,,,,,,,,,0.501221,-0.113281,1.009766,-80.566406,-40.527344,-14.099121,,,,,,,,,,,0.0,1.0,1.0,0.0,0.0,0.0,0.0,7.0,0.0,0.14905596000000002,-0.2481282666666667,0.9564908799999998,-4.037272146666667,1.624348906666667,0.5533854399999998,-40.64761616907619,-0.7928815473027696,7.309088260226853,-46.72202695900299,-5.1766445460115635,19.853234266694777,51.028387812685374,-1.0207243043912682,50.09001662251326,-0.9940413637050488,0.35216504000000004,0.1348472666666667,0.05327512000000012,0.5402874266666668,0.380844113958306,0.6691800152394144,0.7172085823698231,0.7116552567796399
LBP06_S00,LBP06,-1594,107,0,106,-1594,1716238611.24,2024-05-20 20:56:51.240000+00:00,2024-05-21 05:56:51.240000+09:00,2024,5,20,20,56,51,240,,,,,,,,,0.302002,-0.450439,1.668701,-199.21875,15.686035,33.569336,,,,,,,,,,,0.0,1.0,1.0,0.0,0.0,0.0,0.0,7.0,0.0,0.15293617333333331,-0.2341373866666667,0.9522460933333332,-1.7944336000000005,0.8846028133333336,-0.5151366933333337,-40.230715279769704,0.6846571200441381,5.61495420162767,-48.331255570193775,-5.149258261209798,20.077832434759884,52.58844436670779,-0.9845491027035268,51.27198278637523,-0.99462215243038,0.14906582666666668,-0.21630161333333328,0.7164549066666668,1.0818223466666668,0.7630954343312255,0.6785413645661769,0.7113849610936046,0.7123901164589482
LBP06_S00,LBP06,-1593,108,0,107,-1593,1716238611.28,2024-05-20 20:56:51.280000+00:00,2024-05-21 05:56:51.280000+09:00,2024,5,20,20,56,51,280,,,,,,,,,0.185303,-0.373779,1.750732,-49.133301,11.230469,20.385742,,,,,,,,,,,0.0,1.0,1.0,0.0,0.0,0.0,0.0,7.0,0.0,0.15375973333333334,-0.23785809333333333,0.9501855466666665,-6.652832026666667,0.7869465600000005,-0.0724283600000002,-36.08436984913409,1.762090137603725,3.185819330250312,-49.77463036415914,-5.078774655705649,20.205265207969898,53.9588780648422,-0.9889406342348841,52.29440778195715,-0.9956872416037509,0.03154326666666665,-0.13592090666666665,0.8005464533333334,0.9680106266666667,0.8126155883846138,0.6945110679959687,0.7052987440790947,0.7138017428240985
LBP06_S00,LBP06,-1592,109,0,108,-1592,1716238611.32,2024-05-20 20:56:51.320000+00:00,2024-05-21 05:56:51.320000+09:00,2024,5,20,20,56,51,320,,,,,,,,,0.423096,-0.608398,2.076416,-49.01123,16.540527,-1.525879,,,,,,,,,,,0.0,1.0,1.0,0.0,0.0,0.0,0.0,7.0,0.0,0.14895504,-0.23751954666666666,0.9556380133333334,-6.802571613333334,0.26855462666666713,-0.8251952800000002,-28.044812126964736,1.9931026679043218,0.32846866542550057,-50.89642284923772,-4.9990505489894765,20.21840395458692,54.992910667745306,-1.0025494940838129,53.113048250743475,-0.9981878745184158,0.27414096,-0.37087845333333336,1.1207779866666665,1.7657973999999999,1.2119601431124845,0.7343633641541369,0.7158273688634544,0.7207206094947706
LBP06_S00,LBP06,-1591,110,0,109,-1591,1716238611.36,2024-05-20 20:56:51.360000+00:00,2024-05-21 05:56:51.360000+09:00,2024,5,20,20,56,51,360,,,,,,,,,0.062744,-1.032227,1.19165,-57.373047,112.304688,29.35791,,,,,,,,,,,0.0,1.0,1.0,0.0,0.0,0.0,0.0,7.0,0.0,0.16074214666666667,-0.24536785333333333,0.9817057333333332,-8.434244786666667,-1.9042969333333333,-1.4664713200000001,-17.041704607283588,1.2271241917103628,-2.5132975646490325,-51.57809103352907,-4.949965581321062,20.11787205200096,55.58354441577072,-0.9829885206176625,53.69292871683732,-0.9979645246710565,-0.09799814666666667,-0.7868591466666667,0.20994426666666688,1.0948015600000003,0.8202606589062412,0.7290056094664921,0.7278594487818415,0.7220841718154757
LBP06_S00,LBP06,-1590,111,0,110,-1590,1716238611.4,2024-05-20 20:56:51.400000+00:00,2024-05-21 05:56:51.400000+09:00,2024,5,20,20,56,51,400,,,,,,,,,-0.446045,0.029053,-0.296631,169.006348,64.63623,-29.23584,,,,,,,,,,,0.0,1.0,1.0,0.0,0.0,0.0,0.0,7.0,0.0,0.16053708,-0.2533984533333333,0.9912239733333335,-8.713378893333333,-0.15787765333333292,-0.2693684533333336,-4.74156032665062,-0.17643468843870647,-4.838007438853349,-51.767753446595094,-4.9570229688586105,19.924351754446825,55.690682941190246,-0.9975916704893251,54.012066121075144,-0.9940547405173937,-0.60658208,0.28245145333333327,-1.2878549733333333,2.176888506666667,1.4513066786887736,0.7547622073852064,0.744268887959651,0.7319385300164661
LBP06_S00,LBP06,-1589,112,0,111,-1589,1716238611.44,2024-05-20 20:56:51.440000+00:00,2024-05-21 05:56:51.440000+09:00,2024,5,20,20,56,51,440,,,,,,,,,-0.042236,0.106445,0.399414,38.635254,-71.228027,-22.705078,,,,,,,,,,,0.0,1.0,1.0,0.0,0.0,0.0,0.0,7.0,0.0,0.15810544,-0.24984050666666666,0.9835351600000002,-6.891276040000001,1.0424804266666672,-0.6404622133333335,7.026062063596136,-1.4239649121432816,-6.228334577381836,-51.48671096405125,-5.013981565344341,19.67521837135155,55.3456017673829,-0.9981930024699602,54.06700545983155,-0.9895029932974957,-0.20034144,0.35628550666666664,-0.5841211600000003,1.140748106666667,0.7129330855008363,0.7749855876713966,0.7430700785413792,0.7316851240895911
LBP06_S00,LBP06,-1588,113,0,112,-1588,1716238611.48,2024-05-20 20:56:51.480000+00:00,2024-05-21 05:56:51.480000+09:00,2024,5,20,20,56,51,480,,,,,,,,,0.421143,-0.068848,0.693848,26.916504,-128.234863,-25.32959,,,,,,,,,,,0.0,1.0,1.0,0.0,0.0,0.0,0.0,7.0,0.0,0.15141598666666667,-0.24301433333333336,0.9800390666666665,-5.375976560000001,0.8951822533333338,-1.0498046666666667,16.761000174530974,-1.6440458677892071,-6.49682122767766,-50.81627095707001,-5.07974340005591,19.415345522244444,54.63563698485546,-1.0054541616059565,53.878348377389386,-0.9888174825718471,0.2697270133333333,0.17416633333333337,-0.2861910666666665,0.7300844133333332,0.4301068472232246,0.7395171943278908,0.7342898115124801,0.7318511281608359
LBP06_S00,LBP06,-1587,114,0,113,-1587,1716238611.52,2024-05-20 20:56:51.520000+00:00,2024-05-21 05:56:51.520000+09:00,2024,5,20,20,56,51,520,,,,,,,,,0.419678,0.084961,1.046875,27.038574,-2.502441,-12.268066,,,,,,,,,,,0.0,1.0,1.0,0.0,0.0,0.0,0.0,7.0,0.0,0.15618161333333333,-0.24369142666666666,0.9769628933333333,-7.172851560000001,-0.7430013466666663,-1.2394205600000001,23.499891158100258,-0.33378686195060936,-5.761335232706953,-49.876275310746,-5.093094874533934,19.184892112936165,53.68093273835073,-0.9928380449084064,53.49298168529011,-0.9879130787681927,0.26349638666666664,0.32865242666666666,0.0699121066666667,0.6620609199999999,0.427001716622837,0.7339888389562895,0.7369919231068687,0.7345102557136521
LBP06_S00,LBP06,-1586,115,0,114,-1586,1716238611.56,2024-05-20 20:56:51.560000+00:00,2024-05-21 05:56:51.560000+09:00,2024,5,20,20,56,51,560,,,,,,,,,0.103516,-0.887207,1.666748,-161.254883,-20.324707,-18.798828,,,,,,,,,,,0.0,1.0,1.0,0.0,0.0,0.0,0.0,7.0,0.0,0.15810869333333333,-0.23252606666666664,0.9688867199999999,-8.598632813333333,-0.6030273866666663,-0.42968749333333356,26.741641570831707,2.3665747687075975,-4.401131483918725,-48.80660964791274,-4.99843188378563,19.008846853579417,52.61564145122066,-0.9667184696691343,52.980148655670234,-0.9851795378385205,-0.05459269333333333,-0.6546809333333333,0.69786128,1.4071349066666667,0.9584351061802934,0.7563417478031392,0.7341817766945321,0.7400728318283857
LBP06_S00,LBP06,-1585,116,0,115,-1585,1716238611.6,2024-05-20 20:56:51.600000+00:00,2024-05-21 05:56:51.600000+09:00,2024,5,20,20,56,51,600,,,,,,,,,0.118652,-0.58252,1.929688,20.874023,2.624512,22.644043,,,,,,,,,,,0.0,1.0,1.0,0.0,0.0,0.0,0.0,7.0,0.0,0.16042314666666666,-0.24063479999999998,0.9694303333333333,-11.715494800000002,-1.115722693333333,-0.2677408800000001,26.27899226185047,5.7313715849736555,-2.9001315188565506,-47.75544995743872,-4.7691770203866835,18.892841592825157,51.57778120024942,-0.9752068321922891,52.42079848777469,-0.9845179455550281,-0.04177114666666666,-0.34188520000000006,0.9602576666666668,1.3439140133333334,1.0201593527802406,0.786057644474052,0.7356621882733356,0.742593224708155
LBP06_S00,LBP06,-1584,117,0,116,-1584,1716238611.64,2024-05-20 20:56:51.640000+00:00,2024-05-21 05:56:51.640000+09:00,2024,5,20,20,56,51,640,,,,,,,,,0.270996,-0.236816,1.444092,11.657715,109.802246,53.161621,,,,,,,,,,,0.0,1.0,1.0,0.0,0.0,0.0,0.0,7.0,0.0,0.16346350666666665,-0.24669600000000003,0.9761523333333334,-9.444986986666668,-2.480468786666666,-0.6713867066666668,22.159768586419325,8.797333266037398,-1.6440845884915598,-46.86905921398195,-4.4172836897451875,18.827078209285496,50.70187354228626,-0.9776939954470396,51.892620221854415,-0.9809682985993227,0.10753249333333337,0.009880000000000028,0.46793966666666653,0.5853521599999999,0.480237840202742,0.79038809562103,0.7358075996933026,0.739971710469232
LBP06_S00,LBP06,-1583,118,0,117,-1583,1716238611.68,2024-05-20 20:56:51.680000+00:00,2024-05-21 05:56:51.680000+09:00,2024,5,20,20,56,51,680,,,,,,,,,-0.20459,0.056885,-0.091064,169.067383,159.362793,14.953613,,,,,,,,,,,0.0,1.0,1.0,0.0,0.0,0.0,0.0,7.0,0.0,0.1698762666666667,-0.2578809066666667,0.9923762933333334,-8.52945964,-2.0792643600000003,-0.5167643066666666,14.858659365358156,10.79001557928243,-0.7717348042414899,-46.27471283936762,-3.9856830665738903,18.796208817115836,50.10521114384942,-0.9798965961983391,51.45531633905064,-0.9765939058067572,-0.3744662666666667,0.3147659066666667,-1.0834402933333334,1.7726724666666667,1.1887579358680131,0.7962563561281086,0.7489907034323826,0.745910873962933
LBP06_S00,LBP06,-1582,119,0,118,-1582,1716238611.72,2024-05-20 20:56:51.720000+00:00,2024-05-21 05:56:51.720000+09:00,2024,5,20,20,56,51,720,,,,,,,,,0.023926,0.094482,0.238281,41.564941,-55.175781,-21.66748,,,,,,,,,,,0.0,1.0,1.0,0.0,0.0,0.0,0.0,7.0,0.0,0.16496089333333333,-0.24756189333333334,0.9830826666666667,-4.306640626666667,-0.24576826666666649,-0.3719075333333333,5.5216977915927,11.380061266548578,-0.16097510251504518,-46.05384492770391,-3.530480615911947,18.789769813015234,49.86458037154658,-0.9752140847870907,51.14082706713269,-0.9716953260901949,-0.14103489333333333,0.34204389333333335,-0.7448016666666667,1.2278804533333334,0.8316335664062712,0.7901364233566209,0.7498050419138513,0.7432408951545791
LBP06_S00,LBP06,-1581,120,0,119,-1581,1716238611.76,2024-05-20 20:56:51.760000+00:00,2024-05-21 05:56:51.760000+09:00,2024,5,20,20,56,51,760,,,,,,,,,0.195068,0.092529,0.552002,55.786133,-130.554199,-46.936035,,,,,,,,,,,0.0,1.0,1.0,0.0,0.0,0.0,0.0,7.0,0.0,0.16455398666666668,-0.24760746666666666,0.9806770666666668,-2.785644533333334,0.4361978800000001,-0.7527669066666667,-3.9793479415934403,10.64350239300048,0.4431164841072956,-46.21301884536765,-3.104740520191928,18.807494472379524,49.990042736815234,-0.9763725977827407,50.95108949917169,-0.968667300904609,0.030514013333333312,0.34013646666666664,-0.42867506666666677,0.7993255466666667,0.5480750256560342,0.782001243364479,0.7401047543417821,0.7428689544758614
LBP06_S00,LBP06,-1580,121,0,120,-1580,1716238611.8,2024-05-20 20:56:51.800000+00:00,2024-05-21 05:56:51.800000+09:00,2024,5,20,20,56,51,800,,,,,,,,,0.713867,0.071777,1.046875,-0.427246,-37.17041,-40.405273,,,,,,,,,,,0.0,1.0,1.0,0.0,0.0,0.0,0.0,7.0,0.0,0.16532872,-0.24087569333333333,0.97802408,-1.1775716133333338,-0.15462242666666667,-0.8650715999999999,-11.37235931498857,8.815591208675857,1.2393001986048846,-46.66791321796719,-2.7521168718448936,18.85706648032372,50.40890028198749,-0.9620952009322692,50.86258478958174,-0.9674083484707922,0.54853828,0.31265269333333334,0.06885092000000004,0.9300418933333334,0.6351270742605705,0.764870680407351,0.7426021708860016,0.741412184234467
LBP06_S00,LBP06,-1579,122,0,121,-1579,1716238611.84,2024-05-20 20:56:51.840000+00:00,2024-05-21 05:56:51.840000+09:00,2024,5,20,20,56,51,840,,,,,,,,,0.389893,-0.143799,1.277344,-202.758789,15.686035,40.283203,,,,,,,,,,,0.0,1.0,1.0,0.0,0.0,0.0,0.0,7.0,0.0,0.16804681333333335,-0.24075523999999995,0.9802246,-2.04833984,0.04557287999999999,-0.89436848,-14.650306864626726,6.0739615067776995,2.2377908323700533,-47.253925492552256,-2.5091584115737855,18.94657811361852,50.972562939345124,-0.9544490745443067,50.83441098973952,-0.9644317155511244,0.22184618666666664,0.09695623999999994,0.29711940000000003,0.6159218266666666,0.3832703756747175,0.757579512163002,0.7294802932134385,0.740245308921241
LBP06_S00,LBP06,-1578,123,0,122,-1578,1716238611.88,2024-05-20 20:56:51.880000+00:00,2024-05-21 05:56:51.880000+09:00,2024,5,20,20,56,51,880,,,,,,,,,0.010498,-0.437012,1.740967,-110.473633,43.151855,16.357422,,,,,,,,,,,0.0,1.0,1.0,0.0,0.0,0.0,0.0,7.0,0.0,0.16603509333333333,-0.23886722666666665,0.9805305866666667,-2.0662434800000007,0.5965168933333332,-0.9431966133333333,-12.797453341327245,2.537146704791377,3.25663029812518,-47.765823626205346,-2.40767254338213,19.07684332554353,51.490744265676014,-0.9564683644403321,50.816400503780265,-0.9609308894028159,-0.15553709333333332,-0.19814477333333336,0.7604364133333332,1.11411828,0.8010722048137509,0.7685387663610684,0.7247965722899161,0.7403065017491576
LBP06_S00,LBP06,-1577,124,0,123,-1577,1716238611.92,2024-05-20 20:56:51.920000+00:00,2024-05-21 05:56:51.920000+09:00,2024,5,20,20,56,51,920,,,,,,,,,0.172363,-0.69751,1.646729,-36.499023,54.870605,14.099121,,,,,,,,,,,0.0,1.0,1.0,0.0,0.0,0.0,0.0,7.0,0.0,0.16477208,-0.24026370666666666,0.9815755066666668,-2.9524739466666667,0.4654947599999999,-1.1140950533333331,-6.203261649423629,-1.535171975143828,4.028914844311245,-48.01395409218229,-2.469079422387883,19.23799991931598,51.783557058740655,-0.9625577930525477,50.755670178651755,-0.9564052285579688,0.007590920000000001,-0.45724629333333333,0.6651534933333333,1.1299907066666666,0.8071932634301748,0.7933326550180106,0.7282402399684329,0.7433566774264875
LBP06_S00,LBP06,-1576,125,0,124,-1576,1716238611.96,2024-05-20 20:56:51.960000+00:00,2024-05-21 05:56:51.960000+09:00,2024,5,20,20,56,51,960,,,,,,,,,-0.071289,-0.427979,0.918213,123.413086,96.618652,30.456543,,,,,,,,,,,0.0,1.0,1.0,0.0,0.0,0.0,0.0,7.0,0.0,0.16807286666666668,-0.24060224,0.9827148266666668,-2.5618489466666667,0.8854166400000001,-0.8520507866666667,3.4759709431876056,-5.532698832284114,4.339025114643178,-47.874915254454784,-2.6903873756792476,19.411560923901707,51.730594355321195,-0.954128945330967,50.602305274790936,-0.9517941062910686,-0.2393618666666667,-0.18737676,-0.06450182666666682,0.49124045333333355,0.3107485141486367,0.7744463593172192,0.7230815926371446,0.7388872524923635
LBP06_S00,LBP06,-1575,126,0,125,-1575,1716238612.0,2024-05-20 20:56:52+00:00,2024-05-21 05:56:52+09:00,2024,5,20,20,56,52,0,20.0,56.0,52.0,40.54887,141.547989,2.705,3.0,10.0,-0.143799,0.131592,-0.144043,90.087891,4.272461,-3.845215,-574.0,92.0,536.0,215.0,0.0,1022.0,19.58,0.089188,-72.553726,4.028906,0.0,1.0,1.0,0.0,0.0,0.0,0.0,5.0,0.0,0.17021154666666666,-0.23908206666666668,0.9791340933333333,-1.669108066666667,1.0498046533333334,-0.8357747466666666,13.950800081578851,-8.497739017434402,4.107229974938229,-47.316883251191626,-3.0302969363766237,19.575850122899237,51.29604320182723,-0.9454405029956107,50.31582734511389,-0.9494783438641969,-0.31401054666666667,0.3706740666666667,-1.1231770933333334,1.8078617066666667,1.223735539283639,0.7920855436472698,0.7391689877687014,0.73623402947196
LBP06_S00,LBP06,-1574,127,0,126,-1574,1716238612.04,2024-05-20 20:56:52.040000+00:00,2024-05-21 05:56:52.040000+09:00,2024,5,20,20,56,52,40,,,,,,,,,0.134277,-0.024414,0.344971,76.23291,-106.567383,-37.475586,,,,,,,,,,,0.0,1.0,1.0,0.0,0.0,0.0,0.0,5.0,0.0,0.17066077333333335,-0.23826826666666667,0.9783040133333335,-0.9456380133333336,1.0262044,-0.6949869866666666,23.101983744199337,-9.432267068816675,3.392497058865486,-46.392803901423655,-3.4075876191292904,19.711550005253855,50.52176868269376,-0.942685733963954,49.872964906611614,-0.9477883880571559,-0.03638377333333334,0.21385426666666668,-0.6333330133333335,0.8835710533333335,0.6694536071389783,0.7773630691854937,0.736823178056612,0.7369908088049825
LBP06_S00,LBP06,-1573,128,0,127,-1573,1716238612.08,2024-05-20 20:56:52.080000+00:00,2024-05-21 05:56:52.080000+09:00,2024,5,20,20,56,52,80,,,,,,,,,0.508301,0.086426,0.634277,90.637207,-128.845215,-3.479004,,,,,,,,,,,0.0,1.0,1.0,0.0,0.0,0.0,0.0,5.0,0.0,0.17189776,-0.2357780266666667,0.9803775866666666,-0.5590820266666671,1.1686197733333334,-0.7918294266666666,29.564073934453297,-7.789185085513236,2.3405798423800332,-45.21024094404552,-3.71915502254982,19.805173198949056,49.497907892564285,-0.9346399877498687,49.27494566012252,-0.9470068309929889,0.33640324,0.3222040266666667,-0.34610058666666665,1.0047078533333333,0.58031731903651,0.7569762633265988,0.7312645338593344,0.7359340355358901
LBP06_S00,LBP06,-1572,129,0,128,-1572,1716238612.12,2024-05-20 20:56:52.120000+00:00,2024-05-21 05:56:52.120000+09:00,2024,5,20,20,56,52,120,,,,,,,,,0.434814,-0.020264,1.057617,-24.169922,-33.874512,11.474609,,,,,,,,,,,0.0,1.0,1.0,0.0,0.0,0.0,0.0,5.0,0.0,0.17272457333333333,-0.23405926666666663,0.9806510266666667,-1.1596679733333337,1.1930338266666667,-0.5102539066666665,32.86326391319191,-3.868049757663376,1.130814742242463,-43.895710387517845,-3.873877012856355,19.850405788638756,48.33093133293835,-0.9291028621180908,48.55099031847848,-0.9445426793048078,0.2620894266666667,0.21379526666666662,0.07696597333333333,0.5528506666666666,0.346876122946911,0.7350702332005471,0.7262448736901468,0.7339936267169154
LBP06_S00,LBP06,-1571,130,0,129,-1571,1716238612.16,2024-05-20 20:56:52.160000+00:00,2024-05-21 05:56:52.160000+09:00,2024,5,20,20,56,52,160,,,,,,,,,0.212158,-0.407227,1.424561,-162.04834,23.193359,30.700684,,,,,,,,,,,0.0,1.0,1.0,0.0,0.0,0.0,0.0,5.0,0.0,0.16973954666666666,-0.2425683866666666,0.9817871066666667,-1.3566080800000002,1.13118488,-0.14322915999999983,33.15287835450334,1.1546525316990655,-0.0439641643525186,-42.56959525333771,-3.8276909115883924,19.848647222064656,47.12526344004481,-0.953214973514022,47.755317840087976,-0.9419714107922029,0.042418453333333356,-0.1646586133333334,0.4427738933333333,0.64985096,0.4743000155445985,0.730780685204025,0.7095666945529091,0.7310690105778789
LBP06_S00,LBP06,-1570,131,0,130,-1570,1716238612.2,2024-05-20 20:56:52.200000+00:00,2024-05-21 05:56:52.200000+09:00,2024,5,20,20,56,52,200,,,,,,,,,0.254883,-0.42334,1.62207,71.960449,37.719727,-21.240234,,,,,,,,,,,0.0,1.0,1.0,0.0,0.0,0.0,0.0,5.0,0.0,0.16797521333333335,-0.23573570666666663,0.9774348933333332,-0.6396484400000004,0.9488932133333333,0.19287110666666682,30.803391075909964,5.639026564758794,-0.9732697753340421,-41.33745961030131,-3.6021298489980405,19.809716431051296,45.980275896964756,-0.9451956428618592,46.95749873205209,-0.9396430580118235,0.08690778666666668,-0.18760429333333337,0.6446351066666667,0.9191471866666667,0.6769806164193647,0.7426261453024674,0.7059030802709408,0.7256811033473711
LBP06_S00,LBP06,-1569,132,0,131,-1569,1716238612.24,2024-05-20 20:56:52.240000+00:00,2024-05-21 05:56:52.240000+09:00,2024,5,20,20,56,52,240,,,,,,,,,0.332031,-0.888428,1.865234,-4.943848,81.726074,10.803223,,,,,,,,,,,0.0,1.0,1.0,0.0,0.0,0.0,0.0,5.0,0.0,0.16877599999999998,-0.2376758133333333,0.9740755200000001,-1.1832682266666674,1.2556966000000003,0.45491537333333343,26.140688429094283,8.164049003246241,-1.4360633487993812,-40.291832073137535,-3.2755678888681907,19.75227389709932,44.99237047445411,-0.9466335039026359,46.228877136573544,-0.9393703225399574,0.16325500000000004,-0.6507521866666667,0.89115848,1.7051656666666668,1.1154792871014498,0.7567214994132763,0.7176314319897266,0.7264971405334951
LBP06_S00,LBP06,-1568,133,0,132,-1568,1716238612.28,2024-05-20 20:56:52.280000+00:00,2024-05-21 05:56:52.280000+09:00,2024,5,20,20,56,52,280,,,,,,,,,-0.44043,-0.125977,0.007568,130.310059,180.664062,15.075684,,,,,,,,,,,0.0,1.0,1.0,0.0,0.0,0.0,0.0,5.0,0.0,0.16834305333333333,-0.22943036000000003,0.96676432,1.3159179733333326,1.8912760266666668,0.29703776000000015,19.470056328510825,8.143000356637245,-1.245453071282414,-39.5130298199971,-2.949847874602701,19.702455774248026,44.251190849235655,-0.9318268475585224,45.62945524452434,-0.9391388908074777,-0.6087730533333333,0.10345336000000002,-0.95919632,1.6714227333333334,1.1407737761982528,0.7698478269258219,0.7321794474608952,0.7268151050280037
LBP06_S00,LBP06,-1567,134,0,133,-1567,1716238612.32,2024-05-20 20:56:52.320000+00:00,2024-05-21 05:56:52.320000+09:00,2024,5,20,20,56,52,320,,,,,,,,,-0.018799,0.228271,0.092773,75.927734,-30.029297,-21.66748,,,,,,,,,,,0.0,1.0,1.0,0.0,0.0,0.0,0.0,5.0,0.0,0.16850581333333334,-0.2322103066666667,0.9684049333333333,-0.681152333333334,1.4518229066666668,0.5045572933333335,11.291793186073681,6.053604552280829,-0.3280452692408844,-39.06135809255415,-2.7077036925114677,19.68933396347839,43.82683227483558,-0.936845107926498,45.19922055236788,-0.9405834327956514,-0.18730481333333335,0.4604813066666667,-0.8756319333333333,1.5234180533333332,1.0069048661916113,0.7616456158489869,0.7480044900015619,0.7311001178586319
LBP06_S00,LBP06,-1566,135,0,134,-1566,1716238612.36,2024-05-20 20:56:52.360000+00:00,2024-05-21 05:56:52.360000+09:00,2024,5,20,20,56,52,360,,,,,,,,,0.069336,-0.061279,0.338135,-23.071289,-126.525879,-9.277344,,,,,,,,,,,0.0,1.0,1.0,0.0,0.0,0.0,0.0,5.0,0.0,0.17110346666666668,-0.2327734533333333,0.9685318933333332,-1.614583333333334,1.2443033733333335,1.0742187466666668,2.4773961991419085,3.1553030999538887,1.1926929906181563,-38.96226224458847,-2.581491568513312,19.737041683103115,43.75240327496239,-0.930845417527174,44.95557082268356,-0.9434250976884219,-0.10176746666666668,0.1714944533333333,-0.6303968933333333,0.9036588133333332,0.6611862127420444,0.755282638002419,0.7421441237344556,0.7370005118553673
LBP06_S00,LBP06,-1565,136,0,135,-1565,1716238612.4,2024-05-20 20:56:52.400000+00:00,2024-05-21 05:56:52.400000+09:00,2024,5,20,20,56,52,400,,,,,,,,,0.594482,-0.067383,0.826416,41.564941,-100.891113,-25.695801,,,,,,,,,,,0.0,1.0,1.0,0.0,0.0,0.0,0.0,5.0,0.0,0.17279292,-0.24139650666666662,0.9711132666666666,-1.978352853333334,1.9205728933333335,1.3541666533333336,-5.78454209169578,0.8439892102960267,2.9560131449926415,-39.19364392825631,-2.547732000101471,19.85528220890282,44.00982724704173,-0.9427131482769505,44.89568185480351,-0.9424705206057962,0.42168907999999994,0.17401350666666662,-0.1446972666666666,0.7403998533333331,0.47858090191155855,0.7163736069313303,0.7355679071582685,0.7349704609502108
LBP06_S00,LBP06,-1564,137,0,136,-1564,1716238612.44,2024-05-20 20:56:52.440000+00:00,2024-05-21 05:56:52.440000+09:00,2024,5,20,20,56,52,440,,,,,,,,,0.431885,0.085693,1.174316,-71.044922,-8.239746,13.061523,,,,,,,,,,,0.0,1.0,1.0,0.0,0.0,0.0,0.0,5.0,0.0,0.17321934666666666,-0.24074546666666669,0.9715201733333333,0.7389322933333329,3.011881493333333,1.2923176933333336,-12.297832937552966,-0.002119414809875368,4.409732594091044,-39.685557245758424,-2.547816776693866,20.031671512666463,44.52754976220166,-0.9403714166391554,45.00118058863674,-0.941151296823908,0.25866565333333336,0.3264384666666667,0.20279582666666662,0.7878999466666666,0.46324522668610557,0.7063860925787412,0.7406858401250689,0.7308420832204999
LBP06_S00,LBP06,-1563,138,0,137,-1563,1716238612.48,2024-05-20 20:56:52.480000+00:00,2024-05-21 05:56:52.480000+09:00,2024,5,20,20,56,52,480,,,,,,,,,-0.023438,-0.604004,1.666748,-177.185059,17.76123,20.507812,,,,,,,,,,,0.0,1.0,1.0,0.0,0.0,0.0,0.0,5.0,0.0,0.17146478666666667,-0.24292971999999996,0.9707421733333332,2.556152346666666,2.24365232,0.6689452933333335,-16.27380689206813,0.6552580771096522,4.954092049874469,-40.33650952144115,-2.52160645360948,20.22983519466144,45.1955609709998,-0.9490854076316051,45.242901032866044,-0.9408960906269342,-0.19490278666666666,-0.36107428,0.6960058266666667,1.2519828933333335,0.8079516338753828,0.7214998840448276,0.7305085391863593,0.7300265023565959
LBP06_S00,LBP06,-1562,139,0,138,-1562,1716238612.52,2024-05-20 20:56:52.520000+00:00,2024-05-21 05:56:52.520000+09:00,2024,5,20,20,56,52,520,,,,,,,,,0.227783,-0.674561,1.630371,-20.080566,2.990723,5.065918,,,,,,,,,,,0.0,1.0,1.0,0.0,0.0,0.0,0.0,5.0,0.0,0.17124669333333334,-0.24724288000000003,0.9735221199999999,3.9607747333333325,2.2794596133333336,1.033528626666667,-17.61832925774586,2.1487780176878837,4.145687595109015,-41.04124269175099,-2.435655332901965,20.395662698465802,45.89443403609513,-0.9575195110457958,45.58483438615073,-0.9426346047560878,0.056536306666666675,-0.4273181199999999,0.6568488800000001,1.1407033066666665,0.7856510553732466,0.7358458575948439,0.7349173482755667,0.7366099012695271
LBP06_S00,LBP06,-1561,140,0,139,-1561,1716238612.56,2024-05-20 20:56:52.560000+00:00,2024-05-21 05:56:52.560000+09:00,2024,5,20,20,56,52,560,,,,,,,,,0.437744,-0.544189,1.513184,122.619629,122.741699,23.071289,,,,,,,,,,,0.0,1.0,1.0,0.0,0.0,0.0,0.0,5.0,0.0,0.16813470666666666,-0.23526372,0.9627994666666666,5.2164713466666655,3.69791664,1.3680012933333336,-16.91604702813912,3.5604852836931467,1.883915015317887,-41.71788457287655,-2.293235921554239,20.471019299078517,46.526373761244315,-0.9436692026877643,45.987489661683895,-0.9433013069754494,0.2696092933333334,-0.30892528,0.5503845333333335,1.1289191066666668,0.686328736253502,0.7249616027977723,0.7406516753004557,0.7311083853956122
LBP06_S00,LBP06,-1560,141,0,140,-1560,1716238612.6,2024-05-20 20:56:52.600000+00:00,2024-05-21 05:56:52.600000+09:00,2024,5,20,20,56,52,600,,,,,,,,,-0.418213,0.3125,-0.356689,0.610352,112.670898,44.433594,,,,,,,,,,,0.0,1.0,1.0,0.0,0.0,0.0,0.0,5.0,0.0,0.16854812,-0.22984380000000001,0.9606217199999999,2.7270507733333327,2.3567707999999996,1.1287434800000002,-15.116554897896544,4.210978980478169,-1.5039485512531712,-42.322546768792414,-2.1247967623351123,20.41086135702839,47.035263235297045,-0.9320034050429788,46.41139040630485,-0.9447099810213514,-0.58676112,0.5423438,-1.3173107199999998,2.4464156399999997,1.5406923581198853,0.7457829230113581,0.7659202837427052,0.7390357665193431
LBP06_S00,LBP06,-1559,142,0,141,-1559,1716238612.64,2024-05-20 20:56:52.640000+00:00,2024-05-21 05:56:52.640000+09:00,2024,5,20,20,56,52,640,,,,,,,,,0.130127,-0.295898,0.399658,-62.683105,-83.068848,-13.793945,,,,,,,,,,,0.0,1.0,1.0,0.0,0.0,0.0,0.0,5.0,0.0,0.16846998666666665,-0.23596033333333333,0.9631998533333332,1.1995442666666665,2.0597330399999993,0.6526692533333337,-13.107017232906673,3.9146716658733025,-5.331363974736769,-42.84682745810868,-1.9682098957001801,20.19760679803892,47.4095749167471,-0.9440814419328984,46.82126923968886,-0.9457527443554067,-0.03834298666666666,-0.05993766666666667,-0.5635418533333332,0.6618225066666665,0.5680159583764638,0.7492940477383069,0.7698410716796684,0.7403030823749707
LBP06_S00,LBP06,-1558,143,0,142,-1558,1716238612.68,2024-05-20 20:56:52.680000+00:00,2024-05-21 05:56:52.680000+09:00,2024,5,20,20,56,52,680,,,,,,,,,0.206543,0.025879,0.534912,116.271973,-88.134766,-67.443848,,,,,,,,,,,0.0,1.0,1.0,0.0,0.0,0.0,0.0,5.0,0.0,0.17009433333333335,-0.24104496000000003,0.9645051999999998,2.4373372399999997,2.5415038799999996,0.4142252533333337,-11.402805462277264,2.8986637518159633,-8.765156267585285,-43.30293967659977,-1.8522633456275417,19.847000547335508,47.67052438208258,-0.9492119888500583,47.190558870892964,-0.9481417671725374,0.03644866666666666,0.26692396,-0.4295931999999998,0.7329658266666664,0.5070771373372095,0.7220268157970747,0.7591415859625917,0.74000274088728
LBP06_S00,LBP06,-1557,144,0,143,-1557,1716238612.72,2024-05-20 20:56:52.720000+00:00,2024-05-21 05:56:52.720000+09:00,2024,5,20,20,56,52,720,,,,,,,,,0.479248,0.181152,1.140625,2.990723,-29.602051,-49.621582,,,,,,,,,,,0.0,1.0,1.0,0.0,0.0,0.0,0.0,5.0,0.0,0.16763990666666667,-0.2344792133333333,0.961416,3.84358724,3.162434866666666,0.511881506666667,-10.08895769609309,1.501469764512697,-11.099957883943313,-43.706497984443494,-1.7922045550470338,19.403002231977776,47.85338503016719,-0.9435121301201131,47.50451469103012,-0.9498428283861104,0.31160809333333334,0.4156312133333333,0.17920899999999995,0.9064483066666666,0.5495132164095548,0.710742001797206,0.7504392125769137,0.7367840285416363
LBP06_S00,LBP06,-1556,145,0,144,-1556,1716238612.76,2024-05-20 20:56:52.760000+00:00,2024-05-21 05:56:52.760000+09:00,2024,5,20,20,56,52,760,,,,,,,,,0.163574,-1.206055,1.598389,-254.089355,-12.817383,15.50293,,,,,,,,,,,0.0,1.0,1.0,0.0,0.0,0.0,0.0,5.0,0.0,0.16668288,-0.23387049333333332,0.9573437333333333,3.481445306666666,2.6904296666666663,0.3645833333333336,-8.991183454675504,-0.10492367956675157,-11.971419521002476,-44.06614532263051,-1.796401502229704,18.924145451137676,47.99141072117196,-0.9449321579861932,47.75993763637838,-0.9487712977597307,-0.0031088800000000083,-0.9721845066666668,0.6410452666666667,1.6163386533333335,1.16451338079616,0.7353995360028113,0.7587003896836451,0.7385363482287918
LBP06_S00,LBP06,-1555,146,0,145,-1555,1716238612.8,2024-05-20 20:56:52.800000+00:00,2024-05-21 05:56:52.800000+09:00,2024,5,20,20,56,52,800,,,,,,,,,-0.079102,-0.283691,1.868652,85.083008,17.63916,-24.353027,,,,,,,,,,,0.0,1.0,1.0,0.0,0.0,0.0,0.0,5.0,0.0,0.16591465333333333,-0.23707688,0.9577897066666666,3.417968746666667,2.1638997199999994,-0.06591795999999972,-7.926985862645061,-1.977279001400598,-11.414630737171045,-44.38322475713631,-1.875492662285728,18.467560221650835,48.108615580881825,-0.9531407816175043,47.960688531772945,-0.9485023651443795,-0.24501665333333333,-0.04661412000000004,0.9108622933333334,1.2024930666666667,0.9443919493570986,0.7477701310066722,0.7563204057070115,0.7443248242595585
LBP06_S00,LBP06,-1554,147,0,146,-1554,1716238612.84,2024-05-20 20:56:52.840000+00:00,2024-05-21 05:56:52.840000+09:00,2024,5,20,20,56,52,840,,,,,,,,,0.428955,-0.625732,2.115479,-70.251465,5.67627,5.371094,,,,,,,,,,,0.0,1.0,1.0,0.0,0.0,0.0,0.0,5.0,0.0,0.16358392,-0.23962245333333332,0.9531380133333335,4.523925773333333,2.6033528533333326,-0.1375325466666664,-6.844683810123096,-4.228663681725758,-9.761094012514423,-44.657012109541235,-2.044639209554758,18.077116461150258,48.22044607424272,-0.9642616448104626,48.11040530248318,-0.9493131574219417,0.26537108,-0.38610954666666664,1.1623409866666665,1.8138216133333331,1.2532114591770795,0.7825677743467668,0.7700736432548844,0.7471761202578813
LBP06_S00,LBP06,-1553,148,0,147,-1553,1716238612.88,2024-05-20 20:56:52.880000+00:00,2024-05-21 05:56:52.880000+09:00,2024,5,20,20,56,52,880,,,,,,,,,-0.080566,-0.528076,0.735352,36.987305,144.775391,67.993164,,,,,,,,,,,0.0,1.0,1.0,0.0,0.0,0.0,0.0,5.0,0.0,0.15734369333333334,-0.2312695866666666,0.9383203066666668,6.6438802,2.8434244666666664,0.0960286533333336,-5.745813171822097,-6.765878814924849,-7.451795310376147,-44.88684463641412,-2.315274362151752,17.779044648735212,48.33511917237131,-0.9660960197673355,48.20569314142796,-0.9490037238145664,-0.23790969333333334,-0.29680641333333335,-0.20296830666666676,0.7376844133333335,0.43115102074434697,0.7677709269839906,0.7681548466725294,0.7391213571879409
LBP06_S00,LBP06,-1552,149,0,148,-1552,1716238612.92,2024-05-20 20:56:52.920000+00:00,2024-05-21 05:56:52.920000+09:00,2024,5,20,20,56,52,920,,,,,,,,,-0.148926,0.299805,-0.150391,113.464355,-0.427246,-22.521973,,,,,,,,,,,0.0,1.0,1.0,0.0,0.0,0.0,0.0,5.0,0.0,0.16256505333333335,-0.22899094666666667,0.94192708,6.142578106666667,1.6512044266666661,0.3385416800000002,-4.4627450526337835,-9.141191525072148,-4.874392806492822,-45.06535443851947,-2.680922023154638,17.5840689364755,48.448663489577754,-0.9468042047819979,48.23330785983647,-0.9484879216729881,-0.3114910533333334,0.5287959466666666,-1.09231808,1.93260508,1.2529208344555103,0.7856000298250041,0.7894663424215074,0.7473601699206234
LBP06_S00,LBP06,-1551,150,0,149,-1551,1716238612.96,2024-05-20 20:56:52.960000+00:00,2024-05-21 05:56:52.960000+09:00,2024,5,20,20,56,52,960,,,,,,,,,0.080566,-0.013428,0.447754,61.828613,-123.352051,-50.292969,,,,,,,,,,,0.0,1.0,1.0,0.0,0.0,0.0,0.0,5.0,0.0,0.16421544000000002,-0.22839198666666666,0.9426399733333333,5.902506493333333,0.9464518133333332,0.5501302133333336,-2.4997866967203293,-10.652353974646177,-2.297659421490992,-45.16534590638828,-3.107016182140485,17.49216255961586,48.533882715189954,-0.940979876534252,48.17303322731889,-0.9491866143252995,-0.08364944000000002,0.21496398666666666,-0.4948859733333333,0.7934994,0.5460026290944222,0.7950101944228354,0.7847282768700272,0.7470577932323749
LBP06_S00,LBP06,-1550,151,0,150,-1550,1716238613.0,2024-05-20 20:56:53+00:00,2024-05-21 05:56:53+09:00,2024,5,20,20,56,53,0,20.0,56.0,53.0,40.548904,141.547882,2.804,3.0,10.0,0.685059,0.068359,0.759521,53.283691,-78.735352,-38.208008,-568.0,87.0,539.0,197.0,0.0,1022.099976,19.639999,0.090179,-73.379799,4.028906,0.0,1.0,1.0,0.0,0.0,0.0,0.0,5.0,0.0,0.16566725333333332,-0.23001958666666666,0.9430598933333334,5.153808573333333,1.2304687333333326,0.757649746666667,0.8615565384278988,-10.65761296531526,0.10009654030068435,-45.13088364485117,-3.5333207007530953,17.496166421227887,48.53243094239941,-0.9401113278186017,48.00487760769032,-0.9504389767391856,0.5193917466666667,0.29837858666666667,-0.1835388933333334,1.0013092266666668,0.626485508892802,0.7711201932072019,0.7816028684272359,0.7498193895815349
LBP06_S00,LBP06,-1549,152,0,151,-1549,1716238613.04,2024-05-20 20:56:53.040000+00:00,2024-05-21 05:56:53.040000+09:00,2024,5,20,20,56,53,40,,,,,,,,,0.332275,0.120361,1.005615,-201.904297,-3.78418,50.170898,,,,,,,,,,,0.0,1.0,1.0,0.0,0.0,0.0,0.0,5.0,0.0,0.1665689466666667,-0.2317448533333333,0.9449772133333333,5.024414040000001,1.5714517999999995,1.1140950533333336,6.157054934842563,-8.914291237576407,2.1753119485372996,-44.88460144745746,-3.8898923502561518,17.58317889916938,48.36245330619485,-0.9409871058591461,47.71679332215766,-0.9523347130312105,0.1657060533333333,0.35210585333333333,0.06063778666666664,0.5784496933333333,0.3938451081767254,0.7600958532487119,0.7687294612171027,0.7445807364539786
LBP06_S00,LBP06,-1548,153,0,152,-1548,1716238613.08,2024-05-20 20:56:53.080000+00:00,2024-05-21 05:56:53.080000+09:00,2024,5,20,20,56,53,80,,,,,,,,,0.179443,-0.857178,1.861816,-133.178711,-9.82666,0.12207,,,,,,,,,,,0.0,1.0,1.0,0.0,0.0,0.0,0.0,5.0,0.0,0.16593092,-0.23240566666666665,0.94642904,6.579589826666667,1.8749999733333327,1.1027018266666668,13.236423190149916,-5.724261272950377,3.80202107495859,-44.355144519851464,-4.118862801174167,17.735259742167724,47.94667156616777,-0.9440539674342747,47.309079280418715,-0.9532177726814796,0.013512079999999982,-0.6247723333333334,0.9153869599999999,1.5536713733333332,1.108357492573017,0.7812174601901721,0.7690968617583854,0.747915509302947
LBP06_S00,LBP06,-1547,154,0,153,-1547,1716238613.12,2024-05-20 20:56:53.120000+00:00,2024-05-21 05:56:53.120000+09:00,2024,5,20,20,56,53,120,,,,,,,,,0.415283,-1.09375,1.946533,1.831055,-19.592285,2.990723,,,,,,,,,,,0.0,1.0,1.0,0.0,0.0,0.0,0.0,5.0,0.0,0.16208001333333336,-0.23015955999999999,0.9451888,5.4093424400000005,1.4501952799999993,1.1303710933333335,21.01212697276343,-1.7976563289729075,4.903241924971711,-43.514659440940925,-4.190769054333083,17.931389419166592,47.250638704991324,-0.9504990566432274,46.79400876495952,-0.9532146103806672,0.25320298666666663,-0.8635904400000001,1.0013442000000001,2.118137626666667,1.346324777826641,0.8211954063853614,0.7781328197929542,0.7578950512552182
LBP06_S00,LBP06,-1546,155,0,154,-1546,1716238613.16,2024-05-20 20:56:53.160000+00:00,2024-05-21 05:56:53.160000+09:00,2024,5,20,20,56,53,160,,,,,,,,,0.169434,-0.691895,1.037598,107.23877,146.850586,37.353516,,,,,,,,,,,0.0,1.0,1.0,0.0,0.0,0.0,0.0,5.0,0.0,0.16212884,-0.23386073333333332,0.9448600266666667,4.875488266666667,1.8237304399999994,1.4208984400000002,27.716350520663514,2.07562434784681,5.490931146934214,-42.40600542011438,-4.107744080419211,18.15102666504396,46.30985452488624,-0.957455782125054,46.192252068090994,-0.9571593665951568,0.007305160000000005,-0.4580342666666667,0.09273797333333333,0.5580774000000001,0.4673853725797062,0.8209188206667656,0.7758497529353953,0.7466840699241946
LBP06_S00,LBP06,-1545,156,0,155,-1545,1716238613.2,2024-05-20 20:56:53.200000+00:00,2024-05-21 05:56:53.200000+09:00,2024,5,20,20,56,53,200,,,,,,,,,-0.396973,0.692871,-0.550293,257.69043,78.552246,0.671387,,,,,,,,,,,0.0,1.0,1.0,0.0,0.0,0.0,0.0,5.0,0.0,0.15833652,-0.23595058666666666,0.9416113199999999,4.2106119600000005,0.5623372133333326,1.0701497466666667,31.606440590375907,5.345923298546182,5.6706721086061185,-41.141747796499345,-3.8939071484773637,18.377853549388206,45.22777272555528,-0.9720981445377533,45.52917016027,-0.9636622751759264,-0.55530952,0.9288215866666667,-1.49190432,2.976035426666667,1.8430563482691669,0.8675618499407577,0.8050939976216125,0.7597893368275466
LBP06_S00,LBP06,-1544,157,0,156,-1544,1716238613.24,2024-05-20 20:56:53.240000+00:00,2024-05-21 05:56:53.240000+09:00,2024,5,20,20,56,53,240,,,,,,,,,0.144043,-0.068115,0.300781,65.368652,-83.129883,-31.12793,,,,,,,,,,,0.0,1.0,1.0,0.0,0.0,0.0,0.0,5.0,0.0,0.15749993333333334,-0.23518561333333332,0.9427962133333333,4.577636706666667,1.0034179333333326,1.1263020800000003,31.74173480939296,7.828873962694755,5.598693899109813,-39.87207840412363,-3.580752189969574,18.6018013053526,44.143305656853244,-0.9730922413131545,44.833135873086256,-0.9700327293162759,-0.013456933333333337,0.16707061333333334,-0.6420152133333332,0.8225427599999999,0.6635338823645401,0.8494840337512812,0.803102766582279,0.7615822992435782
LBP06_S00,LBP06,-1543,158,0,157,-1543,1716238613.28,2024-05-20 20:56:53.280000+00:00,2024-05-21 05:56:53.280000+09:00,2024,5,20,20,56,53,280,,,,,,,,,0.620605,0.237549,0.787598,54.992676,-113.647461,-12.451172,,,,,,,,,,,0.0,1.0,1.0,0.0,0.0,0.0,0.0,5.0,0.0,0.16133132,-0.23725592,0.9444335866666665,3.099772120000001,1.1686197599999995,1.5079752533333337,28.382821958763515,9.587222188400693,5.416255648211549,-38.73676552577309,-3.197263302433546,18.81845153128106,43.18441401777944,-0.9660643967592112,44.13563027309335,-0.9748399004650141,0.45927367999999996,0.47480492,-0.15683558666666653,1.0909141866666665,0.6789472928306189,0.831010974416576,0.8004294006711988,0.7651232897794555
LBP06_S00,LBP06,-1542,159,0,158,-1542,1716238613.32,2024-05-20 20:56:53.320000+00:00,2024-05-21 05:56:53.320000+09:00,2024,5,20,20,56,53,320,,,,,,,,,0.481689,-0.181152,1.306396,-162.902832,0.854492,43.151855,,,,,,,,,,,0.0,1.0,1.0,0.0,0.0,0.0,0.0,5.0,0.0,0.15605787999999998,-0.2400977066666667,0.9442675733333332,2.1752929466666675,1.9409179333333326,2.1126302000000003,22.79867623714607,10.701578262108558,5.2044225964755535,-37.82481847628724,-2.769200171949204,19.026628435140083,42.43109652089238,-0.9862517669268932,43.47094940178813,-0.9792374266264744,0.32563112,0.05894570666666668,0.36212842666666667,0.7467052533333334,0.4905580700049307,0.8103571025691088,0.7860013592090479,0.7687886941907442
LBP06_S00,LBP06,-1541,160,0,159,-1541,1716238613.36,2024-05-20 20:56:53.360000+00:00,2024-05-21 05:56:53.360000+09:00,2024,5,20,20,56,53,360,,,,,,,,,-0.045654,-0.645508,1.79541,-70.678711,39.123535,2.502441,,,,,,,,,,,0.0,1.0,1.0,0.0,0.0,0.0,0.0,5.0,0.0,0.15466138666666668,-0.24907882666666667,0.9477083199999998,2.9427083066666677,1.901041626666666,1.6406249866666671,16.63385987102166,11.139900348571315,4.986082952925912,-37.15946408144637,-2.323604158006351,19.22607175325712,41.903063636980036,-1.006008962341947,42.87342526868848,-0.9826507712801815,-0.20031538666666668,-0.3964291733333333,0.8477016800000001,1.44444624,0.9570164480718129,0.8221903119822994,0.7887364749923593,0.7688261864837369
LBP06_S00,LBP06,-1540,161,0,160,-1540,1716238613.4,2024-05-20 20:56:53.400000+00:00,2024-05-21 05:56:53.400000+09:00,2024,5,20,20,56,53,400,,,,,,,,,0.12793,-0.515381,1.848389,24.719238,28.015137,-11.71875,,,,,,,,,,,0.0,1.0,1.0,0.0,0.0,0.0,0.0,5.0,0.0,0.15652336,-0.2508822133333333,0.94923176,6.0017903466666676,1.1002603866666663,0.8243814933333334,11.2249645441156,10.835480653941891,4.765185596216564,-36.710465499681746,-1.8901849318486754,19.41667917710578,41.57208807056202,-1.0038158692220978,42.37198816670424,-0.9856153507732245,-0.028593360000000012,-0.26449878666666665,0.8991572400000001,1.1922493866666668,0.937689143921719,0.840554641662706,0.7784641242970182,0.7705634853264143
LBP06_S00,LBP06,-1539,162,0,161,-1539,1716238613.44,2024-05-20 20:56:53.440000+00:00,2024-05-21 05:56:53.440000+09:00,2024,5,20,20,56,53,440,,,,,,,,,0.261719,-0.245117,1.220703,50.65918,138.916016,24.719238,,,,,,,,,,,0.0,1.0,1.0,0.0,0.0,0.0,0.0,5.0,0.0,0.16018221333333332,-0.2482194533333333,0.9520279733333334,5.196940080000001,0.5566405999999995,0.8935546666666668,7.217697099557915,9.89374018325809,4.569558034589246,-36.42175761569943,-1.4944353245183517,19.59946149848935,41.387397306265754,-0.9890588173465272,41.98412815971696,-0.9866810764906943,0.10153678666666666,0.0031024533333333104,0.26867502666666665,0.3733142666666666,0.28723790525905823,0.8335143488056239,0.7699502206921827,0.7716286763519207
LBP06_S00,LBP06,-1538,163,0,162,-1538,1716238613.48,2024-05-20 20:56:53.480000+00:00,2024-05-21 05:56:53.480000+09:00,2024,5,20,20,56,53,480,,,,,,,,,-0.245117,0.30957,-0.400391,50.842285,47.302246,21.484375,,,,,,,,,,,0.0,1.0,1.0,0.0,0.0,0.0,0.0,5.0,0.0,0.15678051999999998,-0.24229822666666664,0.9388346133333333,5.279134093333335,1.4388020666666663,1.3972981600000003,4.594312593578456,8.729374806973528,4.467381954931427,-36.23798511195629,-1.1452603322394106,19.778156776686608,41.29986285311564,-0.988029229048878,41.712129923731446,-0.9871610095516011,-0.40189752,0.5518682266666667,-1.3392256133333333,2.2929913600000003,1.5031983899653447,0.8613242190492225,0.7914120515470251,0.7741137658073136
LBP06_S00,LBP06,-1537,164,0,163,-1537,1716238613.52,2024-05-20 20:56:53.520000+00:00,2024-05-21 05:56:53.520000+09:00,2024,5,20,20,56,53,520,,,,,,,,,0.138672,-0.333496,0.368408,-6.164551,-79.040527,-0.793457,,,,,,,,,,,0.0,1.0,1.0,0.0,0.0,0.0,0.0,5.0,0.0,0.15869784,-0.24342128,0.9416633866666668,4.374186173333334,0.8951822799999999,1.455891906666667,2.976732001271907,7.975032875276041,4.544855346708247,-36.11891583190542,-0.826259017228369,19.959950990554937,41.27539737399477,-0.9846325031802986,41.54329099185368,-0.9899144584367182,-0.020025840000000017,-0.09007472000000002,-0.5732553866666668,0.6833559466666668,0.5806343322549344,0.85312355012449,0.794484703859667,0.7743194155585412
LBP06_S00,LBP06,-1536,165,0,164,-1536,1716238613.56,2024-05-20 20:56:53.560000+00:00,2024-05-21 05:56:53.560000+09:00,2024,5,20,20,56,53,560,,,,,,,,,0.463379,0.005127,0.807129,94.238281,-98.937988,-39.611816,,,,,,,,,,,0.0,1.0,1.0,0.0,0.0,0.0,0.0,5.0,0.0,0.15870761333333333,-0.24482427999999998,0.9426724933333335,4.08772784,0.6127929599999997,1.4225260266666668,1.9733888951221927,8.17116337705153,4.853489537320179,-36.03998027610053,-0.49941248214630785,20.154090572047743,41.29548350504378,-0.9871015770554847,41.45370779555175,-0.9906023041230272,0.30467138666666665,0.24995127999999997,-0.1355434933333335,0.6901661600000001,0.4167401286317785,0.8423400058196211,0.7836508043086967,0.7745477854735108
LBP06_S00,LBP06,-1535,166,0,165,-1535,1716238613.6,2024-05-20 20:56:53.600000+00:00,2024-05-21 05:56:53.600000+09:00,2024,5,20,20,56,53,600,,,,,,,,,0.455566,-0.141113,1.13501,-62.316895,-8.056641,11.169434,,,,,,,,,,,0.0,1.0,1.0,0.0,0.0,0.0,0.0,5.0,0.0,0.16096021333333335,-0.24593756,0.9431282266666666,3.550618466666668,1.2638346266666665,1.1637369600000003,1.3926446428375963,9.424675806695229,5.357344258453195,-35.98427449038702,-0.12242544987849868,20.36838434238587,41.34917265568255,-0.9827554017124499,41.413778508511015,-0.9894488888737119,0.2946057866666667,0.10482456000000001,0.19188177333333345,0.5913121200000002,0.3668778718514158,0.7953874263688823,0.7705851746901202,0.7757426646180975
LBP06_S00,LBP06,-1534,167,0,166,-1534,1716238613.64,2024-05-20 20:56:53.640000+00:00,2024-05-21 05:56:53.640000+09:00,2024,5,20,20,56,53,640,,,,,,,,,-0.07251,-0.947754,1.427979,-113.525391,27.160645,31.494141,,,,,,,,,,,0.0,1.0,1.0,0.0,0.0,0.0,0.0,5.0,0.0,0.16058912,-0.24261398666666664,0.94287432,3.2047525866666677,1.7423502533333333,1.3639322800000004,1.2704708652010765,11.273622781932023,5.9181380753947535,-35.93345565577898,0.32851946139878224,20.60510986540166,41.42332329699809,-0.9778915719222223,41.39358882908634,-0.9870691063061093,-0.23309912,-0.7051400133333333,0.48510468000000007,1.4233438133333334,0.8870649292506216,0.8081493852038486,0.7787217164710778,0.7826105095210618
LBP06_S00,LBP06,-1533,168,0,167,-1533,1716238613.68,2024-05-20 20:56:53.680000+00:00,2024-05-21 05:56:53.680000+09:00,2024,5,20,20,56,53,680,,,,,,,,,0.12915,-0.132324,1.606201,140.50293,16.235352,-11.047363,,,,,,,,,,,0.0,1.0,1.0,0.0,0.0,0.0,0.0,5.0,0.0,0.16105461333333332,-0.25232101333333334,0.9485318666666668,3.470052066666667,1.008300773333333,0.8959960800000003,1.76946160645887,12.872158416232004,6.334810228324748,-35.862677191520625,0.8434057980480625,20.858502274534647,41.49602469900173,-0.9935988856103826,41.36723370717888,-0.9865183492573933,-0.03190461333333333,0.11999701333333335,0.6576691333333332,0.80957076,0.66928758878399,0.8146378032617199,0.7683323095293972,0.7776403250623011
LBP06_S00,LBP06,-1532,169,0,168,-1532,1716238613.72,2024-05-20 20:56:53.720000+00:00,2024-05-21 05:56:53.720000+09:00,2024,5,20,20,56,53,720,,,,,,,,,0.401123,-0.459961,1.680664,-72.814941,66.772461,12.573242,,,,,,,,,,,0.0,1.0,1.0,0.0,0.0,0.0,0.0,5.0,0.0,0.1610188,-0.25196293333333336,0.9506803066666667,3.7255859200000008,1.040039053333333,1.2882486800000004,3.041265911461569,13.40802660533078,6.41857113114386,-35.74102655506216,1.3797268622612937,21.1152451197804,41.535264557873155,-0.9931302237899828,41.31591168291849,-0.984537585581671,0.24010420000000002,-0.20799806666666665,0.7299836933333332,1.1780859599999998,0.796108921647839,0.8245016314712512,0.7676218166342287,0.7751266855416928
LBP06_S00,LBP06,-1531,170,0,169,-1531,1716238613.76,2024-05-20 20:56:53.760000+00:00,2024-05-21 05:56:53.760000+09:00,2024,5,20,20,56,53,760,,,,,,,,,-0.36377,0.185059,-0.124756,127.01416,187.255859,28.259277,,,,,,,,,,,0.0,1.0,1.0,0.0,0.0,0.0,0.0,5.0,0.0,0.15958650666666668,-0.25051110666666665,0.9420377333333334,3.7915038933333345,1.6764322799999998,1.7301432000000003,5.103653081672282,12.52062623926146,6.064469379064936,-35.536880431795275,1.8805519118317522,21.357823894943,41.50377076657259,-0.9944748098487944,41.22989734920138,-0.9833865823607246,-0.5233565066666667,0.4355701066666666,-1.0667937333333335,2.0257203466666667,1.2655718945880632,0.8285439720229273,0.7819717540128692,0.7819815837967392
LBP06_S00,LBP06,-1530,171,0,170,-1530,1716238613.8,2024-05-20 20:56:53.800000+00:00,2024-05-21 05:56:53.800000+09:00,2024,5,20,20,56,53,800,,,,,,,,,-0.047119,-0.030273,0.143066,-89.050293,-46.081543,7.8125,,,,,,,,,,,0.0,1.0,1.0,0.0,0.0,0.0,0.0,5.0,0.0,0.16001945333333334,-0.24296878666666666,0.9365657333333334,3.255208320000001,0.19042967999999974,1.5120442400000003,7.735764363346331,10.47826416647225,5.284735653956296,-35.22744985726142,2.2996824784906424,21.569213321101252,41.37019127631532,-0.980018043546073,41.10940268881622,-0.9859437812630081,-0.20713845333333333,0.21269578666666666,-0.7934997333333333,1.2133339733333335,0.8472235025748216,0.8246572341516363,0.7862136825791544,0.7790993485218864
LBP06_S00,LBP06,-1529,172,0,171,-1529,1716238613.84,2024-05-20 20:56:53.840000+00:00,2024-05-21 05:56:53.840000+09:00,2024,5,20,20,56,53,840,,,,,,,,,0.230713,-0.134277,0.444336,-51.025391,-115.661621,-3.723145,,,,,,,,,,,0.0,1.0,1.0,0.0,0.0,0.0,0.0,5.0,0.0,0.161608,-0.24744794666666664,0.94042316,1.4225260266666677,-0.38411458666666687,1.9189452800000004,10.405638497648015,8.005353194107741,4.18796827352556,-34.811224317355496,2.6198966062549522,21.736732052042274,41.1238460871912,-0.9835512468593665,40.96418859667383,-0.988679019184571,0.069105,0.11317094666666663,-0.49608716,0.6783631066666667,0.513503295521358,0.7950689076054074,0.788818340976087,0.778405398038392
LBP06_S00,LBP06,-1528,173,0,172,-1528,1716238613.88,2024-05-20 20:56:53.880000+00:00,2024-05-21 05:56:53.880000+09:00,2024,5,20,20,56,53,880,,,,,,,,,0.682861,-0.579346,1.026611,25.634766,-55.725098,-17.39502,,,,,,,,,,,0.0,1.0,1.0,0.0,0.0,0.0,0.0,5.0,0.0,0.16842766666666667,-0.24927412,0.945791,1.462402333333334,-0.10904948000000009,2.0898437200000006,12.290680645251124,5.863215635552258,2.9147744803060864,-34.319597091545454,2.8544252316770424,21.85332303125452,40.7866426105117,-0.9682215922916558,40.811817821703116,-0.9913068669455984,0.5144333333333334,-0.33007188000000004,0.08081999999999989,0.9253252133333334,0.6165395143956135,0.802484447351458,0.7851276871677244,0.779598046898839
LBP06_S00,LBP06,-1527,174,0,173,-1527,1716238613.92,2024-05-20 20:56:53.920000+00:00,2024-05-21 05:56:53.920000+09:00,2024,5,20,20,56,53,920,,,,,,,,,0.245117,-0.173828,1.155762,12.268066,23.742676,5.004883,,,,,,,,,,,0.0,1.0,1.0,0.0,0.0,0.0,0.0,5.0,0.0,0.16567702666666667,-0.24778974666666664,0.94949868,0.3914388000000008,1.4908854133333334,2.8214518,12.45466656479556,4.44529943774309,1.5666030858573803,-33.821410428953634,3.032237209186766,21.915987154688814,40.41525403682371,-0.9731224709708336,40.67464754179159,-0.9940684095919332,0.07943997333333333,0.07396174666666663,0.20626331999999992,0.3596650399999999,0.23307854150609242,0.7616907556334813,0.7736453927292426,0.7802078134921654
LBP06_S00,LBP06,-1526,175,0,174,-1526,1716238613.96,2024-05-20 20:56:53.960000+00:00,2024-05-21 05:56:53.960000+09:00,2024,5,20,20,56,53,960,,,,,,,,,-0.051514,-0.587891,1.642578,77.453613,1.647949,-37.353516,,,,,,,,,,,0.0,1.0,1.0,0.0,0.0,0.0,0.0,5.0,0.0,0.15981765333333334,-0.2617545866666667,0.9572102800000001,-0.16276041333333258,1.7480468666666664,2.6790364400000004,10.16785820053304,3.6261874349546437,0.17313529704009892,-33.41469610093231,3.1772847065849517,21.922912566570417,40.090536901192166,-1.0126735660783188,40.57580805795766,-0.9958309821269298,-0.21133165333333334,-0.3261364133333334,0.68536772,1.2228357866666668,0.7878800285706761,0.7713658516125315,0.7831880230176834,0.7802741351175286
LBP06_S00,LBP06,-1525,176,0,175,-1525,1716238614.0,2024-05-20 20:56:54+00:00,2024-05-21 05:56:54+09:00,2024,5,20,20,56,54,0,20.0,56.0,54.0,40.548946,141.547791,2.903,3.0,10.0,0.268799,-0.523682,1.922363,17.333984,-10.314941,21.850586,-571.0,87.0,540.0,160.0,0.0,1021.900024,19.700001,0.088197,-71.727585,4.028906,0.0,1.0,1.0,0.0,0.0,0.0,0.0,6.0,0.0,0.16061193333333332,-0.26145510666666666,0.9614094933333333,3.0558268266666673,1.0603841066666666,2.2021484266666667,5.253259098870034,2.925505819995786,-1.2767424945253905,-33.20456573697751,3.294304939384783,21.8718428667894,39.897031734258654,-1.0101077809280805,40.53444884172586,-0.9969019297828728,0.10818706666666669,-0.2622268933333333,0.9609535066666668,1.3313674666666668,1.0019476168723356,0.7863843359317129,0.7787522645694573,0.7831966909287282
LBP06_S00,LBP06,-1524,177,0,176,-1524,1716238614.04,2024-05-20 20:56:54.040000+00:00,2024-05-21 05:56:54.040000+09:00,2024,5,20,20,56,54,40,,,,,,,,,0.089111,0.043945,0.968018,33.569336,174.316406,54.504395,,,,,,,,,,,0.0,1.0,1.0,0.0,0.0,0.0,0.0,6.0,0.0,0.16073237333333332,-0.25799806666666664,0.9610970000000001,4.362792973333334,2.259928373333333,2.3356119733333336,-1.7016135772886782,1.8537302189880753,-2.7574059256891963,-33.27263028006905,3.368454148144306,21.76154662976183,39.89961554729089,-1.0041700495324983,40.56080390802656,-0.9985459946194626,-0.07162137333333332,0.30194306666666665,0.006920999999999955,0.38048543999999995,0.31039835190803416,0.7830464656809651,0.7715711594648386,0.7735017960383902
LBP06_S00,LBP06,-1523,178,0,177,-1523,1716238614.08,2024-05-20 20:56:54.080000+00:00,2024-05-21 05:56:54.080000+09:00,2024,5,20,20,56,54,80,,,,,,,,,-0.28833,0.013428,-0.157227,-77.331543,14.099121,-0.610352,,,,,,,,,,,0.0,1.0,1.0,0.0,0.0,0.0,0.0,6.0,0.0,0.14915685333333334,-0.24881187999999999,0.9373339733333332,2.7449544266666672,2.3819986933333333,2.51627604,-9.377403494232036,0.2138399881170581,-4.138482044775294,-33.647726419838335,3.3770077476689884,21.59600734797082,40.12432189988652,-1.0212143120737285,40.65228721801816,-1.0014835316272246,-0.4374868533333333,0.26223988,-1.0945609733333332,1.7942877066666665,1.2075712094308682,0.7870150143552792,0.7841162372727257,0.7750695792906833
LBP06_S00,LBP06,-1522,179,0,178,-1522,1716238614.12,2024-05-20 20:56:54.120000+00:00,2024-05-21 05:56:54.120000+09:00,2024,5,20,20,56,54,120,,,,,,,,,0.043701,-0.22876,0.411133,-32.836914,-77.453613,-35.03418,,,,,,,,,,,0.0,1.0,1.0,0.0,0.0,0.0,0.0,6.0,0.0,0.15542638666666667,-0.2532292,0.9450846133333333,2.6822916666666674,0.20751953333333337,2.105305986666667,-16.00444568938246,-1.8238870285530686,-5.185595698636678,-34.287904247413636,3.3040522665268655,21.388583520025353,40.54686971953381,-1.0107559491399483,40.79227481918581,-1.0043444111592632,-0.11172538666666668,0.024469199999999997,-0.5339516133333333,0.6701462,0.5460637592403708,0.7550045736118284,0.7880999899985949,0.7704234043992456
LBP06_S00,LBP06,-1521,180,0,179,-1521,1716238614.16,2024-05-20 20:56:54.160000+00:00,2024-05-21 05:56:54.160000+09:00,2024,5,20,20,56,54,160,,,,,,,,,0.37915,-0.217529,0.662354,77.636719,-96.496582,-40.344238,,,,,,,,,,,0.0,1.0,1.0,0.0,0.0,0.0,0.0,6.0,0.0,0.15604162666666668,-0.2509440533333333,0.9441829199999999,3.040364573333334,-0.32226561333333337,2.0882161333333333,-19.80900046573863,-3.9011025479705372,-5.642356784940649,-35.08026426604318,3.148008164608044,21.162889248627728,41.09017860425467,-1.0051842864082259,40.95268435710911,-1.0048829209128112,0.2231083733333333,0.033415053333333306,-0.2818289199999999,0.5383523466666665,0.3610006263001242,0.7507491837606451,0.7858340022137054,0.767482896543812
LBP06_S00,LBP06,-1520,181,0,180,-1520,1716238614.2,2024-05-20 20:56:54.200000+00:00,2024-05-21 05:56:54.200000+09:00,2024,5,20,20,56,54,200,,,,,,,,,0.317139,0.37915,0.778076,24.902344,6.04248,-6.774902,,,,,,,,,,,0.0,1.0,1.0,0.0,0.0,0.0,0.0,6.0,0.0,0.16067053333333334,-0.2533854666666666,0.9487922933333334,2.0540364400000004,0.19449871999999999,2.6806640533333335,-19.510033983889862,-5.756163370600297,-5.342938161316158,-35.860665625398774,2.917761629784032,20.94917172217508,41.63374193932221,-0.9964586919119687,41.09995879794807,-1.0036267301431778,0.15646846666666667,0.6325354666666666,-0.17071629333333338,0.9597202266666667,0.6735930154490234,0.7039706504478395,0.7857662501942987,0.7713862152303548
LBP06_S00,LBP06,-1519,182,0,181,-1519,1716238614.24,2024-05-20 20:56:54.240000+00:00,2024-05-21 05:56:54.240000+09:00,2024,5,20,20,56,54,240,,,,,,,,,0.230225,-0.404785,1.363281,-226.379395,-19.714355,22.521973,,,,,,,,,,,0.0,1.0,1.0,0.0,0.0,0.0,0.0,6.0,0.0,0.15932288,-0.2611328533333333,0.9518131333333334,0.28320310666666726,0.2905273733333333,3.750813786666667,-14.751930376977002,-7.399557071057482,-4.282371301399846,-36.45074284047785,2.6217793469417328,20.777876870119087,42.038679187107284,-1.0129266169369875,41.20251315382599,-1.0013127253194256,0.07090212000000001,-0.1436521466666667,0.41146786666666657,0.6260221333333333,0.44155277732299864,0.6950914062461778,0.7722877199987296,0.7670989798035786
LBP06_S00,LBP06,-1518,183,0,182,-1518,1716238614.28,2024-05-20 20:56:54.280000+00:00,2024-05-21 05:56:54.280000+09:00,2024,5,20,20,56,54,280,,,,,,,,,0.127686,-0.614258,1.78418,-53.894043,-28.259277,-11.901855,,,,,,,,,,,0.0,1.0,1.0,0.0,0.0,0.0,0.0,6.0,0.0,0.15985022666666665,-0.25218428,0.9556672933333334,4.318847626666667,0.73893232,3.4163411200000002,-6.337220186400416,-9.0551381671505,-2.607936462429424,-36.70423164793387,2.2595738202557127,20.67355941162191,42.186518622188245,-0.996830387612041,41.237127067483044,-0.9996677462928553,-0.032164226666666657,-0.36207372,0.8285127066666667,1.2227506533333332,0.90474594295848,0.7041233522512921,0.7675671633339342,0.76832738453123
