file_name,test_id,_program_index,program_index,session_id,index,_index,unixtime,datetime_utc,datetime_jst,rtc_year,rtc_month,rtc_day,rtc_hour,rtc_min,rtc_sec,rtc_msec,gps_hour,gps_min,gps_sec,latitude,longitude,altitude,fix_type,SIV,acc_x,acc_y,acc_z,gyro_x,gyro_y,gyro_z,mag_x,mag_y,mag_z,illuminance,atmopress,water_pressure,water_temp,depth,alt_wps,battery_level,behavior_class,camera_command,camera_recording,camera_count,play_audio,speaker_on,audio_file,prev_sd_write_time_ms,delay_occurred_counter,acc_x_ma,acc_y_ma,acc_z_ma,gyro_x_ma,gyro_y_ma,gyro_z_ma,gyro_x_lowpass,gyro_y_lowpass,gyro_z_lowpass,angle_x,angle_y,angle_z,combined_angle_change,gravity_adjusted_angle,smoothed_angle_change,smoothed_gravity_angle,acc_x_dy,acc_y_dy,acc_z_dy,ODBA,VeDBA,smoothed_VeDBA_1s,smoothed_VeDBA_2s,smoothed_VeDBA_3s
LBP06_S04,LBP06,-1650,1,4,0,-1650,1716322609.0,2024-05-21 20:16:49+00:00,2024-05-22 05:16:49+09:00,2024,5,21,20,16,49,0,20.0,16.0,48.0,40.548843,141.568253,42.243999,3.0,6.0,0.792725,-0.198486,0.780762,-10.192871,-134.58252,-8.422852,-571.0,31.0,549.0,0.0,0.0,1029.400024,14.53,0.16252,-133.522125,3.635156,0.0,1.0,1.0,4.0,0.0,0.0,0.0,5.0,0.0,,,,,,,-10.503168267503606,-133.79459469559106,-8.60772192824766,-0.4201267307001442,-5.351783787823642,-0.3443088771299064,5.379279206764715,,8.920675253816716,,,,,,,,,
LBP06_S04,LBP06,-1649,2,4,1,-1649,1716322609.04,2024-05-21 20:16:49.040000+00:00,2024-05-22 05:16:49.040000+09:00,2024,5,21,20,16,49,40,,,,,,,,,0.562988,-0.150879,1.217041,-65.979004,-3.356934,18.066406,,,,,,,,,,,0.0,1.0,1.0,4.0,0.0,0.0,0.0,5.0,0.0,,,,,,,-6.68253121671864,-83.43362346576852,-4.142187683510092,-0.6874279793688898,-8.689128726454383,-0.50999638447031,8.731186148736422,,8.872169991085547,,,,,,,,,
LBP06_S04,LBP06,-1648,3,4,2,-1648,1716322609.08,2024-05-21 20:16:49.080000+00:00,2024-05-22 05:16:49.080000+09:00,2024,5,21,20,16,49,80,,,,,,,,,0.229248,-1.000732,1.768555,-74.707031,5.554199,-0.976562,,,,,,,,,,,0.0,1.0,1.0,4.0,0.0,0.0,0.0,5.0,0.0,,,,,,,-3.0590850336657165,-38.84912489118187,-0.10169563635414292,-0.8097913807155185,-10.243093722101658,-0.5140642099244758,10.287905184825764,,8.676134777665737,,,,,,,,,
LBP06_S04,LBP06,-1647,4,4,3,-1647,1716322609.12,2024-05-21 20:16:49.120000+00:00,2024-05-22 05:16:49.120000+09:00,2024,5,21,20,16,49,120,,,,,,,,,0.340332,-0.607178,1.725586,64.63623,6.408691,-11.535645,,,,,,,,,,,0.0,1.0,1.0,4.0,0.0,0.0,0.0,5.0,0.0,,,,,,,0.06368020566673344,-4.454859895577876,3.125589537582012,-0.8072441724888492,-10.421288117924773,-0.3890406284211953,10.459743868822965,,8.416394467560027,,,,,,,,,
LBP06_S04,LBP06,-1646,5,4,4,-1646,1716322609.16,2024-05-21 20:16:49.160000+00:00,2024-05-22 05:16:49.160000+09:00,2024,5,21,20,16,49,160,,,,,,,,,0.237549,-0.337402,1.227051,45.959473,132.263184,20.751953,,,,,,,,,,,0.0,1.0,1.0,4.0,0.0,0.0,0.0,5.0,0.0,,,,,,,2.4605930520580612,17.585887540157923,5.32127286354921,-0.7088204504065267,-9.717852616318456,-0.17618971387922688,9.74526185993372,,8.15004053191533,,,,,,,,,
LBP06_S04,LBP06,-1645,6,4,5,-1645,1716322609.2,2024-05-21 20:16:49.200000+00:00,2024-05-22 05:16:49.200000+09:00,2024,5,21,20,16,49,200,,,,,,,,,-0.450684,0.045654,-0.331787,29.47998,95.88623,20.996094,,,,,,,,,,,0.0,1.0,1.0,4.0,0.0,0.0,0.0,5.0,0.0,,,,,,,4.069610455233131,27.64738401118605,6.464304996337575,-0.5460360321972015,-8.611957255871015,0.08238248597427611,8.6296436774297,,7.909335816246906,,,,,,,,,
LBP06_S04,LBP06,-1644,7,4,6,-1644,1716322609.24,2024-05-21 20:16:49.240000+00:00,2024-05-22 05:16:49.240000+09:00,2024,5,21,20,16,49,240,,,,,,,,,0.07373,-0.127441,0.355713,-14.038086,-49.438477,-9.765625,,,,,,,,,,,0.0,1.0,1.0,4.0,0.0,0.0,0.0,5.0,0.0,,,,,,,5.007893093561849,28.205456145017767,6.707576798503433,-0.34572030845472757,-7.4837390100703045,0.3506855579144134,7.4999234971468764,,7.93983482714994,,,,,,,,,
LBP06_S04,LBP06,-1643,8,4,7,-1643,1716322609.28,2024-05-21 20:16:49.280000+00:00,2024-05-22 05:16:49.280000+09:00,2024,5,21,20,16,49,280,,,,,,,,,0.614014,-0.172852,0.689941,-3.356934,-154.296875,-2.807617,,,,,,,,,,,0.0,1.0,1.0,4.0,0.0,0.0,0.0,5.0,0.0,,,,,,,5.473155076663841,22.859437928503958,6.312200061873045,-0.12679410538817393,-6.569361492930146,0.6031735603893352,6.598212296820051,,7.6404980172617725,,,,,,,,,
LBP06_S04,LBP06,-1642,9,4,8,-1642,1716322609.32,2024-05-21 20:16:49.320000+00:00,2024-05-22 05:16:49.320000+09:00,2024,5,21,20,16,49,320,,,,,,,,,0.57666,-0.202637,1.174316,-51.940918,-9.58252,25.512695,,,,,,,,,,,0.0,1.0,1.0,4.0,0.0,0.0,0.0,5.0,0.0,,,,,,,5.577643770012537,15.195609137999547,5.561589597627359,0.09631164541232756,-5.961537127410164,0.8256371442944296,6.019209046757765,,7.192601063712393,,,,,,,,,
LBP06_S04,LBP06,-1641,10,4,9,-1641,1716322609.36,2024-05-21 20:16:49.360000+00:00,2024-05-22 05:16:49.360000+09:00,2024,5,21,20,16,49,360,,,,,,,,,0.259766,-1.061768,1.704102,-55.297852,6.835938,-20.751953,,,,,,,,,,,0.0,1.0,1.0,4.0,0.0,0.0,0.0,5.0,0.0,,,,,,,5.229263440779529,7.921581454497841,4.685816813986052,0.3054821830435087,-5.6446738692302505,1.0130698168538717,5.742993375231089,,6.729585661459135,,,,,,,,,
LBP06_S04,LBP06,-1640,11,4,10,-1640,1716322609.4,2024-05-21 20:16:49.400000+00:00,2024-05-22 05:16:49.400000+09:00,2024,5,21,20,16,49,400,,,,,,,,,0.217529,-0.478271,1.669189,84.655762,4.394531,-14.465332,,,,,,,,,,,0.0,1.0,1.0,4.0,0.0,0.0,0.0,5.0,0.0,,,,,,,4.1600764473287795,2.5331281501687104,3.8229403067806507,0.4718852409366599,-5.543348743223502,1.1659874291250976,5.6842693157950555,,6.3316049984077285,,,,,,,,,
LBP06_S04,LBP06,-1639,12,4,11,-1639,1716322609.44,2024-05-21 20:16:49.440000+00:00,2024-05-22 05:16:49.440000+09:00,2024,5,21,20,16,49,440,,,,,,,,,0.264893,-0.420654,1.328857,13.061523,114.196777,24.047852,,,,,,,,,,,0.0,1.0,1.0,4.0,0.0,0.0,0.0,5.0,0.0,,,,,,,2.1113504262688187,-0.5121034878513906,3.029560847005385,0.5563392579874127,-5.563832882737558,1.287169863005313,5.737818049854738,,6.03030876166631,,,,,,,,,
LBP06_S04,LBP06,-1638,13,4,12,-1638,1716322609.48,2024-05-21 20:16:49.480000+00:00,2024-05-22 05:16:49.480000+09:00,2024,5,21,20,16,49,480,,,,,,,,,-0.322754,0.017578,-0.197754,49.377441,112.670898,26.977539,,,,,,,,,,,0.0,1.0,1.0,4.0,0.0,0.0,0.0,5.0,0.0,,,,,,,-0.9253212694013859,-1.368955895451579,2.330419673440067,0.5193264072113573,-5.618591118555622,1.3803866499429156,5.808935649331967,,5.821521193695848,,,,,,,,,
LBP06_S04,LBP06,-1637,14,4,13,-1637,1716322609.52,2024-05-21 20:16:49.520000+00:00,2024-05-22 05:16:49.520000+09:00,2024,5,21,20,16,49,520,,,,,,,,,0.09375,0.045166,0.256348,3.173828,-44.616699,-1.159668,,,,,,,,,,,0.0,1.0,1.0,4.0,0.0,0.0,0.0,5.0,0.0,,,,,,,-4.560549465322465,-0.43490534962601934,1.7727328021713615,0.33690442859845865,-5.635987332540663,1.45129596202977,5.8295898462903875,,5.681259914789974,,,,,,,,,
LBP06_S04,LBP06,-1636,15,4,14,-1636,1716322609.56,2024-05-21 20:16:49.560000+00:00,2024-05-22 05:16:49.560000+09:00,2024,5,21,20,16,49,560,,,,,,,,,0.312012,-0.136719,0.640625,-38.452148,-141.418457,3.051758,,,,,,,,,,,0.0,1.0,1.0,4.0,0.0,0.0,0.0,5.0,0.0,,,,,,,-8.053981207747022,1.7885387145809069,1.4435841993570149,0.014745180288577797,-5.564445783957426,1.5090393300040508,5.76545522941965,,5.58021748021533,,,,,,,,,
LBP06_S04,LBP06,-1635,16,4,15,-1635,1716322609.6,2024-05-21 20:16:49.600000+00:00,2024-05-22 05:16:49.600000+09:00,2024,5,21,20,16,49,600,,,,,,,,,0.58374,-0.346924,1.062988,-19.470215,-15.625,1.77002,,,,,,,,,,,0.0,1.0,1.0,4.0,0.0,0.0,0.0,5.0,0.0,,,,,,,-10.5448029929805,4.648898967390969,1.4313031642221905,-0.40704693943064224,-5.378489825261787,1.5662914565729384,5.616681310015532,,5.493692139641857,,,,,,,,,
LBP06_S04,LBP06,-1634,17,4,16,-1634,1716322609.64,2024-05-21 20:16:49.640000+00:00,2024-05-22 05:16:49.640000+09:00,2024,5,21,20,16,49,640,,,,,,,,,0.230225,-0.485352,1.518555,-84.960938,44.372559,-15.136719,,,,,,,,,,,0.0,1.0,1.0,4.0,0.0,0.0,0.0,5.0,0.0,,,,,,,-11.355492946417462,7.303603719225436,1.7509109804972496,-0.8612666572873406,-5.08634567649277,1.6363278957928284,5.4120478174422475,,5.406756529261739,,,,,,,,,
LBP06_S04,LBP06,-1633,18,4,17,-1633,1716322609.68,2024-05-21 20:16:49.680000+00:00,2024-05-22 05:16:49.680000+09:00,2024,5,21,20,16,49,680,,,,,,,,,0.311279,-0.885498,1.77417,8.728027,-28.869629,-36.071777,,,,,,,,,,,0.0,1.0,1.0,4.0,0.0,0.0,0.0,5.0,0.0,,,,,,,-10.225794474204658,8.847840279087029,2.282389505998542,-1.270298436255527,-4.732432065329289,1.7276234760327702,5.195599507761315,,5.316000857015096,,,,,,,,,
LBP06_S04,LBP06,-1632,19,4,18,-1632,1716322609.72,2024-05-21 20:16:49.720000+00:00,2024-05-22 05:16:49.720000+09:00,2024,5,21,20,16,49,720,,,,,,,,,0.414307,-0.313477,1.510498,28.137207,64.27002,10.864258,,,,,,,,,,,0.0,1.0,1.0,4.0,0.0,0.0,0.0,5.0,0.0,,,,,,,-7.3809472437243935,8.603683023110896,2.7711988229545277,-1.5655363260045028,-4.388284744404853,1.8384714289509514,5.008784701011314,,5.228709098437248,,,,,,,,,
LBP06_S04,LBP06,-1631,20,4,19,-1631,1716322609.76,2024-05-21 20:16:49.760000+00:00,2024-05-22 05:16:49.760000+09:00,2024,5,21,20,16,49,760,,,,,,,,,-0.300293,-0.177979,0.161377,25.268555,172.607422,45.837402,,,,,,,,,,,0.0,1.0,1.0,4.0,0.0,0.0,0.0,5.0,0.0,,,,,,,-3.4321849418081642,6.413361631170527,2.9090785947504076,-1.7028237236768293,-4.131750279158032,1.9548345727409677,4.877739969496371,,5.159675118327194,,,,,,,,,
LBP06_S04,LBP06,-1630,21,4,20,-1630,1716322609.8,2024-05-21 20:16:49.800000+00:00,2024-05-22 05:16:49.800000+09:00,2024,5,21,20,16,49,800,,,,,,,,,0.015137,0.043945,0.115479,-36.193848,-38.513184,13.977051,,,,,,,,,,,0.0,1.0,1.0,4.0,0.0,0.0,0.0,5.0,0.0,,,,,,,0.8142472079232995,2.7407226206406308,2.4624887197117116,-1.6702538353598972,-4.022121374332407,2.0533341215294363,4.814913211993869,,5.126522239831726,,,,,,,,,
LBP06_S04,LBP06,-1629,22,4,21,-1629,1716322609.84,2024-05-21 20:16:49.840000+00:00,2024-05-22 05:16:49.840000+09:00,2024,5,21,20,16,49,840,,,,,,,,,0.105957,-0.130859,0.387939,23.986816,-104.675293,-5.981445,,,,,,,,,,,0.0,1.0,1.0,4.0,0.0,0.0,0.0,5.0,0.0,,,,,,,4.548863053607215,-1.5203298171660444,1.380704423851603,-1.4882993132156086,-4.082934567019049,2.1085622984835,4.830261327388313,,5.145127219274983,,,,,,,,,
LBP06_S04,LBP06,-1628,23,4,22,-1628,1716322609.88,2024-05-21 20:16:49.880000+00:00,2024-05-22 05:16:49.880000+09:00,2024,5,21,20,16,49,880,,,,,,,,,0.725342,-0.198486,0.908691,33.752441,-99.182129,-19.53125,,,,,,,,,,,0.0,1.0,1.0,4.0,0.0,0.0,0.0,5.0,0.0,,,,,,,7.10118506273492,-5.447480705717954,-0.1731191083769402,-1.2042519107062117,-4.300833795247767,2.1016375341484226,4.936018063553489,,5.226255014687753,,,,,,,,,
LBP06_S04,LBP06,-1627,24,4,23,-1627,1716322609.92,2024-05-21 20:16:49.920000+00:00,2024-05-22 05:16:49.920000+09:00,2024,5,21,20,16,49,920,,,,,,,,,0.529541,-0.28418,1.31665,-71.899414,7.8125,18.005371,,,,,,,,,,,0.0,1.0,1.0,4.0,0.0,0.0,0.0,5.0,0.0,,,,,,,8.03006361393162,-8.466972267301466,-1.8763743016835046,-0.8830493661489469,-4.639512685939826,2.0265825620810825,5.139250045189839,,5.373555889953681,,,,,,,,,
LBP06_S04,LBP06,-1626,25,4,24,-1626,1716322609.96,2024-05-21 20:16:49.960000+00:00,2024-05-22 05:16:49.960000+09:00,2024,5,21,20,16,49,960,,,,,,,,,0.13208,-0.724121,1.719482,14.770508,1.89209,-25.878906,,,,,,,,,,,0.0,1.0,1.0,4.0,0.0,0.0,0.0,5.0,0.0,,,,,,,7.184061473494303,-10.481430490079441,-3.3520342950503452,-0.5956869072091748,-5.058769905543003,1.8925011902790687,5.433926444464968,,5.582711226492835,,,,,,,,,
LBP06_S04,LBP06,-1625,26,4,25,-1625,1716322610.0,2024-05-21 20:16:50+00:00,2024-05-22 05:16:50+09:00,2024,5,21,20,16,50,0,20.0,16.0,49.0,40.548927,141.568375,42.638,3.0,6.0,0.38208,-0.596191,1.739502,46.142578,0.0,-17.089844,-571.0,41.0,546.0,0.0,0.0,1029.599976,14.53,0.164502,-135.164581,3.635156,0.0,1.0,1.0,4.0,0.0,0.0,0.0,5.0,0.0,,,,,,,4.749204518599694,-11.696956521143283,-4.277365134913194,-0.4057187264651871,-5.526648166388735,1.721406584882541,5.8027311044481,,5.841594231085137,,,,,,,,,
LBP06_S04,LBP06,-1624,27,4,26,-1624,1716322610.04,2024-05-21 20:16:50.040000+00:00,2024-05-22 05:16:50.040000+09:00,2024,5,21,20,16,50,40,,,,,,,,,0.00415,-0.117432,0.761475,46.142578,144.042969,25.512695,,,,,,,,,,,0.0,1.0,1.0,4.0,0.0,0.0,0.0,5.0,0.0,,,,,,,1.269204507021805,-12.298093818147803,-4.4622967022505815,-0.3549505461843149,-6.018571919114647,1.542914716792518,6.223325771569961,,6.131404122136849,,,,,,,,,
LBP06_S04,LBP06,-1623,28,4,27,-1623,1716322610.08,2024-05-21 20:16:50.080000+00:00,2024-05-22 05:16:50.080000+09:00,2024,5,21,20,16,50,80,,,,,,,,,-0.222168,0.078857,-0.085449,-12.878418,8.666992,-5.187988,,,,,,,,,,,0.0,1.0,1.0,4.0,0.0,0.0,0.0,5.0,0.0,,,,,,,-2.412499954243195,-12.211257714253852,-3.8850614764088243,-0.4514505443540427,-6.507022227684801,1.387512257736165,6.668608260420591,,6.428968636218961,,,,,,,,,
LBP06_S04,LBP06,-1622,29,4,28,-1622,1716322610.12,2024-05-21 20:16:50.120000+00:00,2024-05-22 05:16:50.120000+09:00,2024,5,21,20,16,50,120,,,,,,,,,0.026367,-0.062988,0.216797,-15.441895,-75.134277,-10.925293,,,,,,,,,,,0.0,1.0,1.0,4.0,0.0,0.0,0.0,5.0,0.0,,,,,,,-5.331976045948404,-11.13257537911714,-2.690648834404968,-0.6647295861919789,-6.952325242849486,1.2798863043599662,7.100338066402848,,6.710548024086798,,,,,,,,,
LBP06_S04,LBP06,-1621,30,4,29,-1621,1716322610.16,2024-05-21 20:16:50.160000+00:00,2024-05-22 05:16:50.160000+09:00,2024,5,21,20,16,50,160,,,,,,,,,0.525146,-0.395752,0.741943,-21.118164,-151.184082,-23.742676,,,,,,,,,,,0.0,1.0,1.0,4.0,0.0,0.0,0.0,5.0,0.0,,,,,,,-6.683393246631089,-8.810992459606869,-1.1615937755236636,-0.9320653160572224,-7.304764941233761,1.2334225533390197,7.466570015419401,,6.956568641237088,,,,,,,,,
LBP06_S04,LBP06,-1620,31,4,30,-1620,1716322610.2,2024-05-21 20:16:50.200000+00:00,2024-05-22 05:16:50.200000+09:00,2024,5,21,20,16,50,200,,,,,,,,,0.425293,-0.026611,0.953369,-44.555664,-20.324707,16.418457,,,,,,,,,,,0.0,1.0,1.0,4.0,0.0,0.0,0.0,5.0,0.0,,,,,,,-6.098850599369031,-5.384756487772261,0.33734378060213766,-1.1760193400319836,-7.520155200744651,1.2469163045631053,7.713012122510984,,7.155180187896041,,,,,,,,,
LBP06_S04,LBP06,-1619,32,4,31,-1619,1716322610.24,2024-05-21 20:16:50.240000+00:00,2024-05-22 05:16:50.240000+09:00,2024,5,21,20,16,50,240,,,,,,,,,0.240723,-0.886475,1.500732,-69.641113,27.404785,11.291504,,,,,,,,,,,0.0,1.0,1.0,4.0,0.0,0.0,0.0,5.0,0.0,,,,,,,-3.8015305619041895,-1.5127589719717534,1.4411948097560054,-1.328080562508151,-7.5806655596235215,1.3045640969533456,7.805906468209433,,7.302562122466485,,,,,,,,,
LBP06_S04,LBP06,-1618,33,4,32,-1618,1716322610.28,2024-05-21 20:16:50.280000+00:00,2024-05-22 05:16:50.280000+09:00,2024,5,21,20,16,50,280,,,,,,,,,0.36084,-0.468262,1.631836,47.241211,-13.916016,-15.930176,,,,,,,,,,,0.0,1.0,1.0,4.0,0.0,0.0,0.0,5.0,0.0,,,,,,,-0.5432334787716598,1.825513246357467,1.8810758994932861,-1.3498099016590175,-7.507645029769223,1.379807132933077,7.7518119422318446,,7.400265088073854,,,,,,,,,
LBP06_S04,LBP06,-1617,34,4,33,-1617,1716322610.32,2024-05-21 20:16:50.320000+00:00,2024-05-22 05:16:50.320000+09:00,2024,5,21,20,16,50,320,,,,,,,,,0.281006,-0.423828,1.343262,59.753418,112.365723,14.160156,,,,,,,,,,,0.0,1.0,1.0,4.0,0.0,0.0,0.0,5.0,0.0,,,,,,,2.667707185411032,3.7657888317814128,1.567145096733715,-1.2431016142425761,-7.357013476497967,1.4424929368024255,7.59945621669275,,7.452268470117112,-0.8728342225973391,,,,,,,,
LBP06_S04,LBP06,-1616,35,4,34,-1616,1716322610.36,2024-05-21 20:16:50.360000+00:00,2024-05-22 05:16:50.360000+09:00,2024,5,21,20,16,50,360,,,,,,,,,-0.39624,-0.031494,-0.263672,19.958496,134.887695,32.287598,,,,,,,,,,,0.0,1.0,1.0,4.0,0.0,0.0,0.0,5.0,0.0,,,,,,,4.934478737695343,3.9780211643177625,0.6274927472182636,-1.0457224647347625,-7.197892629925256,1.467592646691156,7.4200419110544935,,7.464371094705652,-0.8789326205504705,,,,,,,,
LBP06_S04,LBP06,-1615,36,4,35,-1615,1716322610.4,2024-05-21 20:16:50.400000+00:00,2024-05-22 05:16:50.400000+09:00,2024,5,21,20,16,50,400,,,,,,,,,-0.010986,-0.01001,0.222168,12.084961,-41.259766,-11.779785,,,,,,,,,,,0.0,1.0,1.0,4.0,0.0,0.0,0.0,5.0,0.0,,,,,,,5.768200535287146,2.813623690197017,-0.6185435631756563,-0.8149944433232766,-7.0853476823173756,1.4428509041641298,7.276550450152549,,7.446092255900496,-0.88815859724741,,,,,,,,
LBP06_S04,LBP06,-1614,37,4,36,-1614,1716322610.44,2024-05-21 20:16:50.440000+00:00,2024-05-22 05:16:50.440000+09:00,2024,5,21,20,16,50,440,,,,,,,,,0.17334,-0.061279,0.325684,15.014648,-122.314453,-21.240234,,,,,,,,,,,0.0,1.0,1.0,4.0,0.0,0.0,0.0,5.0,0.0,,,,,,,5.18537414028195,1.0802165264964125,-1.754335569100923,-0.6075794777119986,-7.042139021257519,1.3726774814000928,7.200355427643658,,7.4127119517060525,-0.888426790245366,,,,,,,,
LBP06_S04,LBP06,-1613,38,4,37,-1613,1716322610.48,2024-05-21 20:16:50.480000+00:00,2024-05-22 05:16:50.480000+09:00,2024,5,21,20,16,50,480,,,,,,,,,0.650879,-0.142578,0.877441,15.74707,-77.026367,-14.831543,,,,,,,,,,,0.0,1.0,1.0,4.0,0.0,0.0,0.0,5.0,0.0,0.24635417333333332,-0.29817713333333334,0.9256184933333332,-0.8194987733333331,-0.999349013333333,2.075195346666667,3.585112432067891,-0.4244905163932389,-2.3994599108911863,-0.46417498042928296,-7.059118641913249,1.2766990849644453,7.1886420808531515,-0.8728342225973391,7.384592502532802,-0.8903011017361055,0.40452482666666667,0.15559913333333333,-0.04817749333333321,0.6083014533333332,0.43608771657507683,0.43608771657507683,0.43608771657507683,0.43608771657507683
LBP06_S04,LBP06,-1612,39,4,38,-1612,1716322610.52,2024-05-21 20:16:50.520000+00:00,2024-05-22 05:16:50.520000+09:00,2024,5,21,20,16,50,520,,,,,,,,,0.45752,-0.246582,1.386719,-112.060547,-9.094238,11.047363,,,,,,,,,,,0.0,1.0,1.0,4.0,0.0,0.0,0.0,5.0,0.0,0.24097656,-0.29945969333333333,0.9346158800000001,-2.1557618,0.8699543733333335,2.4308268666666666,1.491298269803865,-1.327942563923892,-2.3311858148332174,-0.4045230496371284,-7.112236344470205,1.1834516523711165,7.221364312288263,-0.8850310185036019,7.382773369773757,-0.8913080245672113,0.21654343999999998,0.05287769333333334,0.45210311999999997,0.7215242533333333,0.504067796008654,0.47007775629186543,0.47007775629186543,0.47007775629186543
LBP06_S04,LBP06,-1611,40,4,39,-1611,1716322610.56,2024-05-21 20:16:50.560000+00:00,2024-05-22 05:16:50.560000+09:00,2024,5,21,20,16,50,560,,,,,,,,,0.332764,-0.843262,1.768311,-21.057129,4.150391,-24.841309,,,,,,,,,,,0.0,1.0,1.0,4.0,0.0,0.0,0.0,5.0,0.0,0.23710611999999998,-0.30913092000000003,0.94205728,-1.5014649199999999,0.6193033333333335,1.74723312,-0.6954824388049698,-1.7916689862377884,-1.5451264406809515,-0.4323423471893272,-7.183903103919716,1.1216465947438785,7.283781627367823,-0.9066105506412888,7.422548218070048,-0.8903506115717992,0.09565788000000003,-0.5341310799999999,0.82625372,1.45604268,0.9885047548908903,0.6428867558248738,0.6428867558248738,0.6428867558248738
LBP06_S04,LBP06,-1610,41,4,40,-1610,1716322610.6,2024-05-21 20:16:50.600000+00:00,2024-05-22 05:16:50.600000+09:00,2024,5,21,20,16,50,600,,,,,,,,,0.522949,-0.562988,1.706299,35.095215,38.757324,0.610352,,,,,,,,,,,0.0,1.0,1.0,4.0,0.0,0.0,0.0,5.0,0.0,0.24087890666666667,-0.30208665333333334,0.9429068800000001,0.05615226666666691,0.6315103733333335,1.6666667066666667,-2.80378689029878,-2.2663243408890628,-0.23506160251037417,-0.5444938228012783,-7.274556077555279,1.1122441306434636,7.3792090805665636,-0.8892313692392338,7.508424574095666,-0.8876060523253031,0.2820700933333333,-0.2609013466666667,0.7633921199999999,1.3063635599999999,0.8546347635824615,0.6958237577642706,0.6958237577642706,0.6958237577642706
LBP06_S04,LBP06,-1609,42,4,41,-1609,1716322610.64,2024-05-21 20:16:50.640000+00:00,2024-05-22 05:16:50.640000+09:00,2024,5,21,20,16,50,640,,,,,,,,,-0.014893,-0.196533,0.782715,49.316406,173.64502,36.193848,,,,,,,,,,,0.0,1.0,1.0,4.0,0.0,0.0,0.0,5.0,0.0,0.23298177333333334,-0.29771816,0.9266796666666667,-0.7486979866666664,3.28287756,2.3111979600000003,-4.813451505590203,-3.074069253601085,1.2927501292069887,-0.7370318830248865,-7.397518847699322,1.1639541358117431,7.524711976476919,-0.8977983476990642,7.6333409490022515,-0.8859223424794574,-0.24787477333333333,0.10118516,-0.14396466666666663,0.4930245999999999,0.30398382375995175,0.6174557709634069,0.6174557709634069,0.6174557709634069
LBP06_S04,LBP06,-1608,43,4,42,-1608,1716322610.68,2024-05-21 20:16:50.680000+00:00,2024-05-22 05:16:50.680000+09:00,2024,5,21,20,16,50,680,,,,,,,,,-0.111328,0.134521,-0.105469,26.062012,5.737305,8.117676,,,,,,,,,,,0.0,1.0,1.0,4.0,0.0,0.0,0.0,5.0,0.0,0.22845702666666662,-0.29096686666666666,0.9094954133333333,-1.165364653333333,1.2296548933333336,1.9759115066666668,-6.676053255928722,-4.105383963615891,2.729779362987703,-1.0040740132620354,-7.561734206243957,1.2731453103312513,7.733620614641406,-0.8963426387227392,7.782522116227943,-0.8869846768548048,-0.3397850266666666,0.42548786666666666,-1.0149644133333333,1.7802373066666666,1.1518014366028964,0.7065133819033219,0.7065133819033219,0.7065133819033219
LBP06_S04,LBP06,-1607,44,4,43,-1607,1716322610.72,2024-05-21 20:16:50.720000+00:00,2024-05-22 05:16:50.720000+09:00,2024,5,21,20,16,50,720,,,,,,,,,0.022705,-0.065186,0.356445,-18.249512,-89.84375,-15.808105,,,,,,,,,,,0.0,1.0,1.0,4.0,0.0,0.0,0.0,5.0,0.0,0.2361100266666667,-0.29310228,0.9184862933333333,-1.6910807866666664,-1.3647461466666664,1.6015625466666665,-8.181249869909571,-4.841024296091324,3.8523779552658555,-1.3313240080584183,-7.75537517808761,1.4272404285418856,7.997204699655661,-0.8846061335993269,7.9396116321309425,-0.8878184057694167,-0.2134050266666667,0.22791628,-0.5620412933333333,1.0033626,0.6429447499649135,0.6974321487692635,0.6974321487692635,0.6974321487692635
LBP06_S04,LBP06,-1606,45,4,44,-1606,1716322610.76,2024-05-21 20:16:50.760000+00:00,2024-05-22 05:16:50.760000+09:00,2024,5,21,20,16,50,760,,,,,,,,,0.699707,-0.240479,0.75415,-19.348145,-137.084961,2.075195,,,,,,,,,,,0.0,1.0,1.0,4.0,0.0,0.0,0.0,5.0,0.0,0.24587565333333336,-0.29463224,0.9263573866666667,-1.24348964,-2.195638066666666,1.5828450933333333,-8.97316153813274,-4.690544725716112,4.556351916362971,-1.690250469583728,-7.942996967116255,1.6094945051964045,8.278805471310667,-0.8683941375998312,8.091653869916197,-0.8875251117008889,0.4538313466666666,0.05415323999999999,-0.17220738666666668,0.6801919733333333,0.4884166752296041,0.671305214576806,0.671305214576806,0.671305214576806
LBP06_S04,LBP06,-1605,46,4,45,-1605,1716322610.8,2024-05-21 20:16:50.800000+00:00,2024-05-22 05:16:50.800000+09:00,2024,5,21,20,16,50,800,,,,,,,,,0.596191,-0.129395,1.176514,-12.023926,-11.474609,17.883301,,,,,,,,,,,0.0,1.0,1.0,4.0,0.0,0.0,0.0,5.0,0.0,0.24456054666666666,-0.29561205333333335,0.9335644266666666,-2.20133468,-0.1700846799999996,1.8139648800000001,-8.70932979637886,-3.4159581458638026,4.841108580575978,-2.038623661438882,-8.079635292950806,1.8031388484194435,8.525714199218394,-0.8724526637126915,8.230625097013487,-0.8854754976135002,0.35163045333333337,0.16621705333333334,0.24294957333333345,0.7607970800000001,0.45858105032051916,0.6476691963261074,0.6476691963261074,0.6476691963261074
LBP06_S04,LBP06,-1604,47,4,46,-1604,1716322610.84,2024-05-21 20:16:50.840000+00:00,2024-05-22 05:16:50.840000+09:00,2024,5,21,20,16,50,840,,,,,,,,,0.290283,-0.816895,1.683594,-118.95752,9.460449,5.310059,,,,,,,,,,,0.0,1.0,1.0,4.0,0.0,0.0,0.0,5.0,0.0,0.23909830666666665,-0.30480150666666667,0.9401074,-1.6512044666666663,-0.01057946666666626,1.1962891066666665,-7.258178405015718,-1.3476647677071982,4.766623216722591,-2.3289507976395107,-8.133541883659094,1.9938037770883472,8.692167099900587,-0.8965456862329314,8.351548315025703,-0.884381108733173,0.051184693333333364,-0.5120934933333334,0.7434866,1.3067647866666667,0.9042300277725377,0.6733252794707505,0.6733252794707505,0.6733252794707505
LBP06_S04,LBP06,-1603,48,4,47,-1603,1716322610.88,2024-05-21 20:16:50.880000+00:00,2024-05-22 05:16:50.880000+09:00,2024,5,21,20,16,50,880,,,,,,,,,0.33252,-0.660645,1.771484,32.714844,0.854492,-21.606445,,,,,,,,,,,0.0,1.0,1.0,4.0,0.0,0.0,0.0,5.0,0.0,0.24180664,-0.29784511999999996,0.9429719733333334,-0.3230794666666666,-0.05696618666666626,1.21907556,-4.804512917070778,0.7553537890508547,4.408184385398938,-2.521131314322342,-8.103327732097059,2.1701311525043048,8.759537239883144,-0.8811715117434582,8.449314122429303,-0.8810042846744043,0.09071335999999999,-0.3627998800000001,0.8285120266666667,1.2820252666666667,0.9090021149270289,0.6947504463304122,0.6947504463304122,0.6947504463304122
LBP06_S04,LBP06,-1602,49,4,48,-1602,1716322610.92,2024-05-21 20:16:50.920000+00:00,2024-05-22 05:16:50.920000+09:00,2024,5,21,20,16,50,920,,,,,,,,,0.420166,-0.426514,1.410889,16.357422,83.007812,-1.831055,,,,,,,,,,,0.0,1.0,1.0,4.0,0.0,0.0,0.0,5.0,0.0,0.23951171999999998,-0.2956283333333333,0.9343489333333334,-1.0034180133333332,2.129720013333334,1.8229167066666665,-1.787319046427639,2.115549840974508,3.8279854618809215,-2.5926240761794475,-8.018705738458078,2.3232505709795417,8.741786690140787,-0.8820980778183222,8.5169782893005,-0.877772255974306,0.18065428,-0.13088566666666668,0.4765400666666667,0.7880800133333334,0.5261724638935102,0.680702281127337,0.680702281127337,0.680702281127337
LBP06_S04,LBP06,-1601,50,4,49,-1601,1716322610.96,2024-05-21 20:16:50.960000+00:00,2024-05-22 05:16:50.960000+09:00,2024,5,21,20,16,50,960,,,,,,,,,-0.309326,-0.095703,-0.061523,77.514648,154.418945,33.569336,,,,,,,,,,,0.0,1.0,1.0,4.0,0.0,0.0,0.0,5.0,0.0,0.23144530666666668,-0.28815112,0.91311196,-0.8756510799999999,1.0449218400000007,1.5209961333333333,1.2970487700748052,2.367272931026038,3.074862616161679,-2.5407421253764553,-7.924014821217036,2.446245075626009,8.67349389834075,-0.8861144097674035,8.547081990561539,-0.8774174865874734,-0.5407713066666666,0.19244812,-0.9746349599999999,1.7078543866666664,1.1310982230821998,0.7153481228161727,0.7153481228161727,0.7153481228161727
LBP06_S04,LBP06,-1600,51,4,50,-1600,1716322611.0,2024-05-21 20:16:51+00:00,2024-05-22 05:16:51+09:00,2024,5,21,20,16,51,0,20.0,16.0,50.0,40.549015,141.568497,42.604,3.0,6.0,0.104492,0.240479,0.126221,50.598145,-32.714844,-2.990723,-574.0,43.0,548.0,0.0,0.0,1029.099976,14.58,0.159547,-131.056961,3.635156,0.0,1.0,1.0,4.0,0.0,0.0,0.0,6.0,0.0,0.23705729333333334,-0.29014981333333334,0.9210188666666668,-1.5893555066666667,-1.3964843999999994,0.8707682666666666,4.097296990404822,1.746219805846316,2.207812907039187,-2.3768502457602625,-7.854166028983184,2.5345575919075762,8.588441260688718,-0.8782874804359623,8.535190320277405,-0.8788429485933781,-0.13256529333333333,0.5306288133333333,-0.7947978666666667,1.4579919733333333,0.9648026447901036,0.7331663029571677,0.7331663029571677,0.7331663029571677
LBP06_S04,LBP06,-1599,52,4,51,-1599,1716322611.04,2024-05-21 20:16:51.040000+00:00,2024-05-22 05:16:51.040000+09:00,2024,5,21,20,16,51,40,,,,,,,,,0.189697,-0.055176,0.363525,-62.561035,-148.010254,8.972168,,,,,,,,,,,0.0,1.0,1.0,4.0,0.0,0.0,0.0,6.0,0.0,0.24650715999999998,-0.29252612,0.9290755066666668,-2.0605469066666666,-2.5463867466666663,0.7194010799999999,6.479420998192546,0.920051234086182,1.3207581234215127,-2.117673405832561,-7.817363979619737,2.587387916844437,8.502370050512926,-0.8640301071113774,8.483027054037011,-0.878955868427834,-0.05681015999999997,0.23735012,-0.5655505066666668,0.8597107866666668,0.6159625389048944,0.7253527186870161,0.7253527186870161,0.7253527186870161
LBP06_S04,LBP06,-1598,53,4,52,-1598,1716322611.08,2024-05-21 20:16:51.080000+00:00,2024-05-22 05:16:51.080000+09:00,2024,5,21,20,16,51,80,,,,,,,,,0.825439,-0.451416,1.036133,-20.751953,-57.800293,-8.300781,,,,,,,,,,,0.0,1.0,1.0,4.0,0.0,0.0,0.0,6.0,0.0,0.24876952000000002,-0.29520189333333335,0.9380566266666667,-2.9166667066666667,-0.6608073199999998,0.9488932666666665,8.431039668574632,0.570399928005846,0.5437274435387472,-1.7804318190895754,-7.794547982499503,2.6091370145859867,8.410262283353378,-0.8640223517217557,8.398710472181376,-0.8773826406878099,0.5766694800000001,-0.15621410666666663,0.0980763733333333,0.83095996,0.6054498420937564,0.7178587888999374,0.7178587888999374,0.7178587888999374
LBP06_S04,LBP06,-1597,54,4,53,-1597,1716322611.12,2024-05-21 20:16:51.120000+00:00,2024-05-22 05:16:51.120000+09:00,2024,5,21,20,16,51,120,,,,,,,,,0.434814,-0.359863,1.411133,-58.288574,9.70459,10.009766,,,,,,,,,,,0.0,1.0,1.0,4.0,0.0,0.0,0.0,6.0,0.0,0.24379882666666663,-0.3002637333333333,0.9467122266666667,-3.4480794666666665,-0.524088573333333,0.7958984666666665,9.889980410580769,1.0007497314369576,0.013934677877759621,-1.3848326026663447,-7.7545179932420245,2.609694401701097,8.298241712266039,-0.8810584397310003,8.293657688869127,-0.8763936202336605,0.19101517333333334,-0.059599266666666706,0.4644207733333333,0.7150352133333333,0.5056931122076899,0.7053784549768639,0.7053784549768639,0.7053784549768639
LBP06_S04,LBP06,-1596,55,4,54,-1596,1716322611.16,2024-05-21 20:16:51.160000+00:00,2024-05-22 05:16:51.160000+09:00,2024,5,21,20,16,51,160,,,,,,,,,0.282715,-0.932617,1.719482,36.254883,6.164551,-31.677246,,,,,,,,,,,0.0,1.0,1.0,4.0,0.0,0.0,0.0,6.0,0.0,0.24688801333333335,-0.30523442666666667,0.9512174266666666,-1.8115234666666666,-1.066894573333333,0.8040364933333333,10.646232975057858,2.015929347239432,-0.16697613173295547,-0.9589832836640304,-7.673880819352447,2.603015356431779,8.15988876846934,-0.8826487576588787,8.178167955646948,-0.8745508149540697,0.035826986666666644,-0.6273825733333334,0.7682645733333333,1.4314741333333334,0.9925335868045059,0.7213315178561774,0.7213315178561774,0.7213315178561774
LBP06_S04,LBP06,-1595,56,4,55,-1595,1716322611.2,2024-05-21 20:16:51.200000+00:00,2024-05-22 05:16:51.200000+09:00,2024,5,21,20,16,51,200,,,,,,,,,0.442627,-0.337646,1.709229,54.992676,26.245117,-6.591797,,,,,,,,,,,0.0,1.0,1.0,4.0,0.0,0.0,0.0,6.0,0.0,0.24358071999999997,-0.29508142666666665,0.9394368266666665,-1.1271159066666667,1.5299478800000001,1.81803388,10.405841334788407,3.1221772567999473,0.037200150953568455,-0.5427496302724941,-7.548993729080449,2.6045033624699214,8.004081536814452,-0.8735818620572501,8.058600921623857,-0.8709454546768178,0.19904628000000002,-0.042564573333333355,0.7697921733333336,1.011403026666667,0.796248174007416,0.7252744997588741,0.7252744997588741,0.7252744997588741
LBP06_S04,LBP06,-1594,57,4,56,-1594,1716322611.24,2024-05-21 20:16:51.240000+00:00,2024-05-22 05:16:51.240000+09:00,2024,5,21,20,16,51,240,,,,,,,,,-0.080322,-0.214111,0.706055,40.771484,177.062988,38.330078,,,,,,,,,,,0.0,1.0,1.0,4.0,0.0,0.0,0.0,6.0,0.0,0.2341634,-0.28817712,0.9153840933333334,-1.6316732,1.0970051600000001,1.7325846533333333,8.978916075271314,3.8864827920276155,0.5987332107700818,-0.18359298726164153,-7.393534417399344,2.628452690900725,7.849001281344243,-0.8808134088326899,7.937813775054818,-0.8706817443546585,-0.3144854,0.07406612000000001,-0.20932909333333338,0.5978806133333334,0.38497470859885047,0.708259510200873,0.708259510200873,0.708259510200873
LBP06_S04,LBP06,-1593,58,4,57,-1593,1716322611.28,2024-05-21 20:16:51.280000+00:00,2024-05-22 05:16:51.280000+09:00,2024,5,21,20,16,51,280,,,,,,,,,-0.059326,0.004883,0.024658,22.460938,-4.089355,7.751465,,,,,,,,,,,0.0,1.0,1.0,4.0,0.0,0.0,0.0,6.0,0.0,0.2395377466666667,-0.28875328,0.9177831866666666,-2.1329752933333337,-2.1826172400000003,0.9285481999999999,6.460669212788621,4.205208069281052,1.4540047182335463,0.07483378124990331,-7.225326094628103,2.686612879630067,7.709009406760645,-0.8712813072019656,7.818203178003399,-0.8729336779559693,-0.2988637466666667,0.29363628,-0.8931251866666666,1.4856252133333334,0.986516296399732,0.7215098333531996,0.7215098333531996,0.7215098333531996
LBP06_S04,LBP06,-1592,59,4,58,-1592,1716322611.32,2024-05-21 20:16:51.320000+00:00,2024-05-22 05:16:51.320000+09:00,2024,5,21,20,16,51,320,,,,,,,,,0.009033,-0.018799,0.248535,9.155273,-79.650879,-13.977051,,,,,,,,,,,0.0,1.0,1.0,4.0,0.0,0.0,0.0,6.0,0.0,0.24691404,-0.29282228,0.92494464,-1.53320316,-3.60921228,0.34830730666666665,3.277633195131947,4.305864621195451,2.5321464322991023,0.20593910905518117,-7.053091509780285,2.7878987369220307,7.586889357919004,-0.8636700250224137,7.704943750044644,-0.8737411268950321,-0.23788104,0.27402328,-0.6764096399999999,1.18831396,0.7675976473767813,0.7236047339906352,0.7236047339906352,0.7236047339906352
LBP06_S04,LBP06,-1591,60,4,59,-1591,1716322611.36,2024-05-21 20:16:51.360000+00:00,2024-05-22 05:16:51.360000+09:00,2024,5,21,20,16,51,360,,,,,,,,,0.821533,-0.235596,0.886475,-27.587891,-114.868164,-3.662109,,,,,,,,,,,0.0,1.0,1.0,4.0,0.0,0.0,0.0,6.0,0.0,0.25225909333333335,-0.29034832000000005,0.93321288,-1.6503906533333335,-2.26562504,0.3051757866666666,0.05794543310420519,4.497687976956083,3.7609213666566155,0.2082569263793494,-6.873183990702041,2.938335591588295,7.477823558109829,-0.8500608069948847,7.60691043727242,-0.8737892350667158,0.5692739066666666,0.05475232000000005,-0.04673788000000001,0.6707641066666666,0.5738074823351517,0.7170918100056142,0.7170918100056142,0.7170918100056142
LBP06_S04,LBP06,-1590,61,4,60,-1590,1716322611.4,2024-05-21 20:16:51.400000+00:00,2024-05-22 05:16:51.400000+09:00,2024,5,21,20,16,51,400,,,,,,,,,0.553467,-0.225342,1.374023,-47.485352,14.709473,15.808105,,,,,,,,,,,0.0,1.0,1.0,4.0,0.0,0.0,0.0,6.0,0.0,0.24644202666666667,-0.3000000133333333,0.94327148,-3.5091146,-0.8780924933333335,0.4085286533333333,-2.608531085979397,4.871452147584496,5.051064812015074,0.1039156829401735,-6.678325904798662,3.140378184068898,7.380569794998328,-0.8756503772143694,7.534441314314892,-0.8729344861083916,0.30702497333333334,0.07465801333333333,0.43075151999999994,0.8124345066666666,0.5342144000188731,0.7094719179228334,0.7094719179228334,0.7094719179228334
LBP06_S04,LBP06,-1589,62,4,61,-1589,1716322611.44,2024-05-21 20:16:51.440000+00:00,2024-05-22 05:16:51.440000+09:00,2024,5,21,20,16,51,440,,,,,,,,,0.200195,-0.796631,1.785156,-52.124023,16.174316,-4.760742,,,,,,,,,,,0.0,1.0,1.0,4.0,0.0,0.0,0.0,6.0,0.0,0.24401689333333332,-0.30426433333333336,0.9474804666666667,-1.5681966266666667,-0.930989626666667,-0.03906249333333333,-4.389624612616577,5.183954171213172,6.280487506339339,-0.07166930156448958,-6.470967737950135,3.3915976843224716,7.306264079998736,-0.8865494431244848,7.49541729319926,-0.8720542155280935,-0.043821893333333306,-0.4923666666666666,0.8376755333333332,1.3738640933333333,0.972648750538984,0.7199989912274793,0.7199989912274793,0.7199989912274793
LBP06_S04,LBP06,-1588,63,4,62,-1588,1716322611.48,2024-05-21 20:16:51.480000+00:00,2024-05-22 05:16:51.480000+09:00,2024,5,21,20,16,51,480,,,,,,,,,0.372803,-0.675537,1.904541,25.32959,11.230469,-5.187988,,,,,,,,,,,0.0,1.0,1.0,4.0,0.0,0.0,0.0,6.0,0.0,0.24810218666666667,-0.29967774666666663,0.9446223999999999,-1.21419272,0.5379231333333331,0.56315104,-5.290062001453233,5.0187101638052765,7.298867631969526,-0.2832717816226189,-6.270219331397923,3.6835523896012528,7.277668003765834,-0.8720968411123841,7.492286535120786,-0.8691395657051864,0.12470081333333333,-0.3758592533333334,0.9599186000000002,1.460478666666667,1.0383950066271728,0.7440912828295632,0.7322449918197752,0.7322449918197752
LBP06_S04,LBP06,-1587,64,4,63,-1587,1716322611.52,2024-05-21 20:16:51.520000+00:00,2024-05-22 05:16:51.520000+09:00,2024,5,21,20,16,51,520,,,,,,,,,0.156006,-0.331787,1.17334,37.231445,145.080566,20.690918,,,,,,,,,,,0.0,1.0,1.0,4.0,0.0,0.0,0.0,6.0,0.0,0.23762366666666665,-0.2930306133333333,0.9172981866666667,-1.13606772,2.402343706666666,1.2394205733333332,-5.554221377816018,4.109825186972036,7.958681222428952,-0.5054406367352596,-6.105826323919042,4.0018996384984105,7.317908584543796,-0.8815395214478371,7.521799662801129,-0.8686264247875608,-0.08161766666666664,-0.0387563866666667,0.2560418133333333,0.37641586666666665,0.27151595016607916,0.73478920899586,0.7151809532400086,0.7151809532400086
LBP06_S04,LBP06,-1586,65,4,64,-1586,1716322611.56,2024-05-21 20:16:51.560000+00:00,2024-05-22 05:16:51.560000+09:00,2024,5,21,20,16,51,560,,,,,,,,,-0.345215,0.108398,-0.298096,37.17041,63.781738,27.893066,,,,,,,,,,,0.0,1.0,1.0,4.0,0.0,0.0,0.0,6.0,0.0,0.2395214533333333,-0.2906282666666667,0.9103971333333334,-1.5218099066666666,-0.17333989333333363,0.7275390666666668,-5.465656167689269,2.5977373059818687,8.162039394957343,-0.7240668834428303,-6.001916831679767,4.328381214296704,7.435197538894049,-0.8741012680756372,7.5772642602750935,-0.8706550954983697,-0.5847364533333332,0.3990262666666667,-1.2084931333333335,2.192255853333333,1.4005692894893138,0.751271790379797,0.7396591081060553,0.7396591081060553
LBP06_S04,LBP06,-1585,66,4,65,-1585,1716322611.6,2024-05-21 20:16:51.600000+00:00,2024-05-22 05:16:51.600000+09:00,2024,5,21,20,16,51,600,,,,,,,,,0.068115,-0.116699,0.27417,-1.464844,-77.392578,-1.953125,,,,,,,,,,,0.0,1.0,1.0,4.0,0.0,0.0,0.0,6.0,0.0,0.24660478666666663,-0.29320638666666665,0.9206998666666667,-1.3427734533333333,-2.163899786666667,0.7080078133333333,-5.179097036014844,1.02338931640674,7.8995009030877466,-0.9312307648834242,-5.960981259023498,4.644361250420214,7.61384132565813,-0.8647791562542684,7.6516371188841195,-0.8727502995136813,-0.17848978666666665,0.17650738666666665,-0.6465298666666667,1.00152704,0.6935519663184772,0.7448284784892377,0.7380692066651043,0.7380692066651043
LBP06_S04,LBP06,-1584,67,4,66,-1584,1716322611.64,2024-05-21 20:16:51.640000+00:00,2024-05-22 05:16:51.640000+09:00,2024,5,21,20,16,51,640,,,,,,,,,0.487061,-0.17334,0.769287,-35.095215,-137.390137,18.676758,,,,,,,,,,,0.0,1.0,1.0,4.0,0.0,0.0,0.0,6.0,0.0,0.2547167733333333,-0.29428386666666667,0.9335970000000001,-1.7277018266666668,-1.242675826666667,0.9204101600000001,-4.69065421306031,0.039815417342382683,7.255725072108303,-1.1188569334058365,-5.959388642329802,4.934590253304546,7.817693700559519,-0.8516669106036189,7.739581151253492,-0.8732406285028038,0.2323442266666667,0.12094386666666668,-0.16431000000000007,0.5175980933333335,0.309207106402191,0.7450374097949273,0.7237738033230072,0.7237738033230072
LBP06_S04,LBP06,-1583,68,4,67,-1583,1716322611.68,2024-05-21 20:16:51.680000+00:00,2024-05-22 05:16:51.680000+09:00,2024,5,21,20,16,51,680,,,,,,,,,0.422363,-0.155029,0.921631,15.197754,0.488281,-3.662109,,,,,,,,,,,0.0,1.0,1.0,4.0,0.0,0.0,0.0,6.0,0.0,0.25206703999999996,-0.3005826933333334,0.9451627600000001,-2.610677093333334,1.107584586666666,1.1686197999999999,-3.9527087381622787,0.020610471137312077,6.373297411950438,-1.2769652829323277,-5.95856422348431,5.189522149782563,8.004140683564067,-0.86614989802571,7.837588736140338,-0.872378145733934,0.17029596000000002,0.14555369333333337,-0.023531760000000124,0.3393814133333335,0.22525615499691296,0.7079755985306879,0.7076925888608752,0.7076925888608752
LBP06_S04,LBP06,-1582,69,4,68,-1582,1716322611.72,2024-05-21 20:16:51.720000+00:00,2024-05-22 05:16:51.720000+09:00,2024,5,21,20,16,51,720,,,,,,,,,0.158447,-0.502197,1.593262,-113.525391,19.65332,-4.638672,,,,,,,,,,,0.0,1.0,1.0,4.0,0.0,0.0,0.0,6.0,0.0,0.24880857333333334,-0.30854818666666667,0.9556184933333333,-1.33951824,1.2556965599999996,0.6193033999999998,-3.0415687179922446,0.8246836970248997,5.391457959305076,-1.3986280316520174,-5.925576875603314,5.405180468154766,8.141535332658657,-0.8839567321305025,7.942755070174575,-0.8718634597980655,-0.09036157333333333,-0.19364881333333334,0.6376435066666667,0.9216538933333334,0.6724985638905462,0.7091577510877133,0.7065927755805523,0.7065927755805523
LBP06_S04,LBP06,-1581,70,4,69,-1581,1716322611.76,2024-05-21 20:16:51.760000+00:00,2024-05-22 05:16:51.760000+09:00,2024,5,21,20,16,51,760,,,,,,,,,0.230957,-0.829834,1.819824,-0.488281,-30.639648,-20.202637,,,,,,,,,,,0.0,1.0,1.0,4.0,0.0,0.0,0.0,6.0,0.0,0.25181638666666667,-0.30343099999999995,0.9584830800000002,0.03987629333333312,1.839192653333333,0.6095377733333334,-2.248300037355452,1.8705556146981481,4.393736137535304,-1.4885600331462354,-5.850754651015388,5.5809299136561785,8.221552144200077,-0.871012847148001,8.051731986723668,-0.8689516047598784,-0.020859386666666674,-0.526403,0.86134092,1.4086033066666666,1.0096749045547067,0.7300080802607174,0.715777082519163,0.715777082519163
LBP06_S04,LBP06,-1580,71,4,70,-1580,1716322611.8,2024-05-21 20:16:51.800000+00:00,2024-05-22 05:16:51.800000+09:00,2024,5,21,20,16,51,800,,,,,,,,,0.421631,-0.443848,1.47998,44.921875,84.106445,14.160156,,,,,,,,,,,0.0,1.0,1.0,4.0,0.0,0.0,0.0,6.0,0.0,0.24234046666666667,-0.2981836,0.9358040399999998,-0.2571614666666669,4.03645828,1.343587253333333,-2.006840836421056,2.4696761220731838,3.3958655265919857,-1.5688336666030778,-5.75196760613246,5.716764534719858,8.260010118692058,-0.8805536671055949,8.16096063895149,-0.8672509015511135,0.1792905333333333,-0.14566440000000003,0.5441759600000002,0.8691308933333336,0.5911773745774046,0.7353119332309928,0.7121123852267585,0.7121123852267585
LBP06_S04,LBP06,-1579,72,4,71,-1579,1716322611.84,2024-05-21 20:16:51.840000+00:00,2024-05-22 05:16:51.840000+09:00,2024,5,21,20,16,51,840,,,,,,,,,-0.418701,-0.054199,-0.259277,53.955078,154.35791,38.757324,,,,,,,,,,,0.0,1.0,1.0,4.0,0.0,0.0,0.0,6.0,0.0,0.23978838666666666,-0.29336264,0.9206738266666668,-1.1352539200000002,1.7724608799999995,1.1189778799999996,-2.6789001468800193,2.2118701795026783,2.380872331202261,-1.6759896724782786,-5.663492798952353,5.811999427967948,8.286339928867193,-0.8779246154357875,8.267956938394965,-0.8685176479406913,-0.6584893866666667,0.23916364,-1.1799508266666667,2.0776038533333336,1.372257800998793,0.754033044160043,0.7309736828202451,0.7309736828202451
LBP06_S04,LBP06,-1578,73,4,72,-1578,1716322611.88,2024-05-21 20:16:51.880000+00:00,2024-05-22 05:16:51.880000+09:00,2024,5,21,20,16,51,880,,,,,,,,,0.084229,0.106201,0.233398,19.775391,-45.227051,-0.427246,,,,,,,,,,,0.0,1.0,1.0,4.0,0.0,0.0,0.0,6.0,0.0,0.24657874666666668,-0.2945052266666667,0.9311165333333334,-0.992024746666667,-1.6487630800000006,0.45735678666666646,-4.319978522731301,1.1689339925184763,1.354420066728131,-1.8487888133875305,-5.616735439251614,5.866176230637073,8.329331344108196,-0.8669499817536972,8.372575300403057,-0.8716410790805362,-0.16234974666666668,0.40070622666666667,-0.6977185333333334,1.260774506666667,0.8208130555059336,0.7505054817831991,0.7334692209504031,0.7334692209504031
LBP06_S04,LBP06,-1577,74,4,73,-1577,1716322611.92,2024-05-21 20:16:51.920000+00:00,2024-05-22 05:16:51.920000+09:00,2024,5,21,20,16,51,920,,,,,,,,,0.122314,-0.035889,0.360352,-26.855469,-119.873047,-4.089355,,,,,,,,,,,0.0,1.0,1.0,4.0,0.0,0.0,0.0,6.0,0.0,0.25658850666666666,-0.29692384,0.9430143200000002,-1.3085937600000002,-1.6813151600000007,0.5908203199999997,-6.576931059723849,-0.20512459745463565,0.3768667301474666,-2.1118660557764843,-5.624940423149799,5.881250899842972,8.407677750034747,-0.8524209710659679,8.477280275960975,-0.8731355618686081,-0.13427450666666665,0.26103484,-0.5826623200000002,0.9779716666666668,0.6524294674385768,0.7555557619250018,0.7312789573419753,0.7312789573419753
LBP06_S04,LBP06,-1576,75,4,74,-1576,1716322611.96,2024-05-21 20:16:51.960000+00:00,2024-05-22 05:16:51.960000+09:00,2024,5,21,20,16,51,960,,,,,,,,,0.763428,-0.294434,0.97876,4.638672,-49.804688,-20.324707,,,,,,,,,,,0.0,1.0,1.0,4.0,0.0,0.0,0.0,6.0,0.0,0.25891924,-0.30268881333333336,0.9590201733333333,-3.0558268266666673,0.29785150666666593,0.7519531333333331,-8.789862714802437,-1.4003372523318582,-0.45341541800983404,-2.4634605643685816,-5.680953913243074,5.863114283122579,8.527484061172261,-0.8570942359879866,8.586007397843762,-0.8729112038929596,0.50450876,0.008254813333333388,0.019739826666666627,0.5325034,0.5049622675178175,0.7305103237024265,0.7253232549781817,0.7253232549781817
LBP06_S04,LBP06,-1575,76,4,75,-1575,1716322612.0,2024-05-21 20:16:52+00:00,2024-05-22 05:16:52+09:00,2024,5,21,20,16,52,0,20.0,16.0,51.0,40.549107,141.568604,42.155998,3.0,6.0,0.389404,-0.294678,1.455566,-110.412598,5.615234,18.249512,-568.0,45.0,549.0,0.0,0.0,1029.400024,14.65,0.16252,-133.522125,3.635156,0.0,1.0,1.0,4.0,0.0,0.0,0.0,5.0,0.0,0.25414385333333334,-0.31063804,0.9712695333333334,-2.4812825466666673,1.472167906666666,0.3946940133333332,-10.247136575075821,-2.1730173381403035,-1.0530254400314625,-2.8733460273716145,-5.767874606768686,5.820993265521321,8.683804320092884,-0.8774466201500466,8.701893196733533,-0.8735259641995283,0.13526014666666664,0.01596004000000001,0.4842964666666665,0.6355166533333332,0.5030835892562063,0.7120415614810708,0.7196248020109517,0.7196248020109517
LBP06_S04,LBP06,-1574,77,4,76,-1574,1716322612.04,2024-05-21 20:16:52.040000+00:00,2024-05-22 05:16:52.040000+09:00,2024,5,21,20,16,52,40,,,,,,,,,0.272705,-0.876221,1.775146,-16.906738,-22.155762,-33.203125,,,,,,,,,,,0.0,1.0,1.0,4.0,0.0,0.0,0.0,5.0,0.0,0.25469072,-0.31511394666666664,0.97629232,-1.0742187466666668,2.131347586666666,0.2400716266666664,-10.457124136402921,-2.646655135619608,-1.4054032253609225,-3.291630992827731,-5.87374081219347,5.7647771365068845,8.863877320640432,-0.8829012220020677,8.824878739983927,-0.8716337442508577,0.018014279999999994,-0.5611070533333333,0.7988536799999999,1.3779750133333333,0.9763876492632816,0.7264585658954061,0.7260438731922598,0.7260438731922598
LBP06_S04,LBP06,-1573,78,4,77,-1573,1716322612.08,2024-05-21 20:16:52.080000+00:00,2024-05-22 05:16:52.080000+09:00,2024,5,21,20,16,52,80,,,,,,,,,0.512207,-0.472412,1.832275,42.114258,6.469727,-7.019043,,,,,,,,,,,0.0,1.0,1.0,4.0,0.0,0.0,0.0,5.0,0.0,0.24870438666666667,-0.30638998666666667,0.9599706933333334,-0.2815755200000003,4.285481693333333,1.27360028,-9.303349187016611,-3.1390762667322374,-1.5772683285963804,-3.6637649603083955,-5.99930386286276,5.70168640336303,9.051190439143266,-0.8810947259064293,8.950501341459265,-0.8696608188489858,0.2635026133333333,-0.16602201333333333,0.8723043066666667,1.3018289333333333,0.9262352506647347,0.7392899822382453,0.7309265897159788,0.7309265897159788
LBP06_S04,LBP06,-1572,79,4,78,-1572,1716322612.12,2024-05-21 20:16:52.120000+00:00,2024-05-22 05:16:52.120000+09:00,2024,5,21,20,16,52,120,,,,,,,,,-0.251953,-0.279541,0.508545,4.272461,205.26123,36.804199,,,,,,,,,,,0.0,1.0,1.0,4.0,0.0,0.0,0.0,5.0,0.0,0.24135413333333333,-0.2976692933333333,0.9391992133333334,0.03255207999999953,3.377278573333333,1.0791015733333331,-7.032556951815125,-3.8507244421334255,-1.6880471630165192,-3.9450672383810006,-6.153332840548098,5.634164516842369,9.228806551486516,-0.8817131523740185,9.070716693364,-0.871144356013545,-0.4933071333333333,0.018128293333333323,-0.4306542133333334,0.9420896400000001,0.6550905389932622,0.7452658793096683,0.7291209694606761,0.7291209694606761
LBP06_S04,LBP06,-1571,80,4,79,-1571,1716322612.16,2024-05-21 20:16:52.160000+00:00,2024-05-22 05:16:52.160000+09:00,2024,5,21,20,16,52,160,,,,,,,,,-0.101807,0.168945,-0.061768,14.709473,-21.728516,-4.394531,,,,,,,,,,,0.0,1.0,1.0,4.0,0.0,0.0,0.0,5.0,0.0,0.24204424000000002,-0.2955566666666667,0.9353580666666667,-0.3344726533333338,-0.26204434666666715,0.3979492266666664,-4.1270463415209155,-4.6415310895981925,-1.8488911044620415,-4.110149092041837,-6.338994084132025,5.560208872663887,9.380410133097772,-0.8771604502136865,9.176595761519224,-0.8755030029450916,-0.34385124,0.4645016666666667,-0.9971260666666667,1.8054789733333334,1.1524998335842773,0.7516645291808591,0.7389669895565737,0.7389669895565737
LBP06_S04,LBP06,-1570,81,4,80,-1570,1716322612.2,2024-05-21 20:16:52.200000+00:00,2024-05-22 05:16:52.200000+09:00,2024,5,21,20,16,52,200,,,,,,,,,0.123291,-0.114502,0.342529,-9.94873,-98.693848,-7.080078,,,,,,,,,,,0.0,1.0,1.0,4.0,0.0,0.0,0.0,5.0,0.0,0.2545214533333333,-0.30050132,0.9505663999999999,-1.1905924533333339,-1.4168295066666672,0.09765625333333304,-1.1595388884756055,-5.06954571906593,-2.1066072761073364,-4.156530647580861,-6.541775912894662,5.4759445816195935,9.48986555119601,-0.8616314676188885,9.261876397293443,-0.8790505632413435,-0.13123045333333333,0.18599932000000002,-0.6080374,0.9252671733333333,0.6492508442207022,0.7457846359893905,0.7369279862534857,0.7369279862534857
LBP06_S04,LBP06,-1569,82,4,81,-1569,1716322612.24,2024-05-21 20:16:52.240000+00:00,2024-05-22 05:16:52.240000+09:00,2024,5,21,20,16,52,240,,,,,,,,,0.806152,-0.242188,0.946045,19.53125,-111.755371,-11.169434,,,,,,,,,,,0.0,1.0,1.0,4.0,0.0,0.0,0.0,5.0,0.0,0.25982093333333334,-0.3044563866666667,0.9662369733333335,-2.146809893333334,0.02848299999999938,0.42887369333333303,1.3019092641079493,-4.681916665925006,-2.423079455743619,-4.104454277016543,-6.729052579531663,5.3790214033898485,9.542565943620573,-0.8581953614170684,9.325996707129038,-0.8804233846533217,0.5463310666666666,0.0622683866666667,-0.020191973333333446,0.6287914266666668,0.5502387683272612,0.752395198378527,0.7327793369662362,0.7327793369662362
LBP06_S04,LBP06,-1568,83,4,82,-1568,1716322612.28,2024-05-21 20:16:52.280000+00:00,2024-05-22 05:16:52.280000+09:00,2024,5,21,20,16,52,280,,,,,,,,,0.515381,-0.246338,1.230469,-75.195312,-2.380371,14.526367,,,,,,,,,,,0.0,1.0,1.0,4.0,0.0,0.0,0.0,5.0,0.0,0.2529622133333333,-0.31208658666666667,0.9795084666666668,-2.358398426666667,1.5608723199999992,0.1993815066666664,2.739041699840435,-3.355979919526115,-2.6962149788025767,-3.994892609022925,-6.863291776312708,5.271172804237746,9.531484863155544,-0.8817853533992902,9.37537320551483,-0.88162093242475,0.2624187866666667,0.06574858666666666,0.25096053333333324,0.5791279066666666,0.36900905887961716,0.7276949088777224,0.7248712874426141,0.7248712874426141
LBP06_S04,LBP06,-1567,84,4,83,-1567,1716322612.32,2024-05-21 20:16:52.320000+00:00,2024-05-22 05:16:52.320000+09:00,2024,5,21,20,16,52,320,,,,,,,,,0.166992,-0.891846,1.665039,-10.681152,2.380371,-20.812988,,,,,,,,,,,0.0,1.0,1.0,4.0,0.0,0.0,0.0,5.0,0.0,0.25100258666666664,-0.31956053333333334,0.9890950533333331,-1.7342122266666669,1.851399653333333,-0.13753256000000028,2.7281736783664146,-1.4427793673153613,-2.8060478280741146,-3.8857656618882683,-6.921002951005322,5.158930891114781,9.466468431586971,-0.8960074403814331,9.422247590324421,-0.8802919739398147,-0.08401058666666664,-0.5722854666666667,0.6759439466666668,1.33224,0.8896452400059653,0.7325768125828896,0.7283771162205579,0.7283771162205579
LBP06_S04,LBP06,-1566,85,4,84,-1566,1716322612.36,2024-05-21 20:16:52.360000+00:00,2024-05-22 05:16:52.360000+09:00,2024,5,21,20,16,52,360,,,,,,,,,0.462891,-0.540039,1.918945,44.311523,3.356934,-19.042969,,,,,,,,,,,0.0,1.0,1.0,4.0,0.0,0.0,0.0,5.0,0.0,0.24738605333333336,-0.3124837066666667,0.9778417999999999,-0.096028626666667,3.988443933333333,0.47526039999999975,1.0329788785051088,0.39237414849702545,-2.6631355327264794,-3.844446506748064,-6.905307985065441,5.052405469805722,9.380290418914477,-0.8925698389505053,9.481375726567641,-0.8789104273733768,0.21550494666666664,-0.22755529333333335,0.9411032,1.38416344,0.991916844605465,0.7493011870737023,0.7338675272285767,0.7338675272285767
LBP06_S04,LBP06,-1565,86,4,85,-1565,1716322612.4,2024-05-21 20:16:52.400000+00:00,2024-05-22 05:16:52.400000+09:00,2024,5,21,20,16,52,400,,,,,,,,,0.04541,-0.312012,1.022461,33.630371,168.395996,30.822754,,,,,,,,,,,0.0,1.0,1.0,4.0,0.0,0.0,0.0,5.0,0.0,0.24012693333333335,-0.3023242,0.9525325599999999,0.43212891999999975,4.265950439999999,0.859374973333333,-2.261190503732109,1.5265042972668932,-2.2420016436829,-3.9348941268973485,-6.844247813174766,4.962725404058406,9.325007418448818,-0.8911748342698292,9.565920687213032,-0.8797232011329369,-0.19471693333333334,-0.009687800000000024,0.0699284400000002,0.27433317333333357,0.20711958940769318,0.736217394649255,0.7231175693138647,0.7231175693138647
LBP06_S04,LBP06,-1564,87,4,86,-1564,1716322612.44,2024-05-21 20:16:52.440000+00:00,2024-05-22 05:16:52.440000+09:00,2024,5,21,20,16,52,440,,,,,,,,,-0.340088,0.140137,-0.263916,22.644043,32.836914,1.403809,,,,,,,,,,,0.0,1.0,1.0,4.0,0.0,0.0,0.0,5.0,0.0,0.23430988,-0.29736977333333336,0.9384602933333333,0.28076173333333304,2.3291014933333325,0.7902017999999998,-6.648595893548428,1.6982385007977527,-1.5937995968940804,-4.2008379626392855,-6.776318273142856,4.898973420182643,9.357642304498349,-0.894876699716351,9.68438235917112,-0.8836886483150106,-0.57439788,0.4375067733333334,-1.2023762933333333,2.2142809466666664,1.402516970318379,0.7534121234404307,0.736705557333955,0.736705557333955
LBP06_S04,LBP06,-1563,88,4,87,-1563,1716322612.48,2024-05-21 20:16:52.480000+00:00,2024-05-22 05:16:52.480000+09:00,2024,5,21,20,16,52,480,,,,,,,,,0.098145,-0.132324,0.395264,-4.150391,-70.43457,-21.789551,,,,,,,,,,,0.0,1.0,1.0,4.0,0.0,0.0,0.0,5.0,0.0,0.25004881333333334,-0.29914712000000004,0.9524446666666667,-1.4249674266666668,-1.3981120400000007,0.01627601333333312,-11.239336736023168,1.0849820717037602,-0.8431711794643825,-4.650411432080213,-6.7329189902747055,4.865246573004068,9.519934287239169,-0.8678051410570758,9.83954228590554,-0.8886036647192428,-0.15190381333333336,0.16682312000000005,-0.5571806666666668,0.8759076000000001,0.6011281204359465,0.7359214479927817,0.7400063654111725,0.7340471762183077
LBP06_S04,LBP06,-1562,89,4,88,-1562,1716322612.52,2024-05-21 20:16:52.520000+00:00,2024-05-22 05:16:52.520000+09:00,2024,5,21,20,16,52,520,,,,,,,,,0.80249,-0.133057,0.860596,-32.165527,-130.859375,-12.512207,,,,,,,,,,,0.0,1.0,1.0,4.0,0.0,0.0,0.0,5.0,0.0,0.25536132,-0.30560545333333333,0.9681738266666667,-2.7937825333333333,-0.8203125600000007,0.20182289333333311,-14.971218060640478,0.10344996714646261,-0.17412244752375247,-5.249260154505832,-6.728780991588847,4.858281675103118,9.82008791391873,-0.8678976867096398,10.028807696832644,-0.8912281925480672,0.54712868,0.17254845333333332,-0.10757782666666671,0.8272549600000001,0.5836914853041727,0.7484084693983055,0.7415988391970829,0.7311557206238053
LBP06_S04,LBP06,-1561,90,4,89,-1561,1716322612.56,2024-05-21 20:16:52.560000+00:00,2024-05-22 05:16:52.560000+09:00,2024,5,21,20,16,52,560,,,,,,,,,0.481689,-0.337402,1.314209,-102.661133,0.0,20.263672,,,,,,,,,,,0.0,1.0,1.0,4.0,0.0,0.0,0.0,5.0,0.0,0.25394530666666665,-0.31574868,0.9858170666666666,-2.2460937333333333,0.9993488933333328,-0.20996096000000022,-16.932752969077846,-0.9017476320955208,0.2001726435661377,-5.926570273268945,-6.764850896872668,4.866288580845763,10.22585973955168,-0.8852881878092873,10.2445153065187,-0.8927624868420765,0.22774369333333333,-0.021653319999999976,0.3283919333333334,0.5777889466666667,0.4002215861226556,0.7083945612636391,0.7298331758217182,0.7249116803501987
LBP06_S04,LBP06,-1560,91,4,90,-1560,1716322612.6,2024-05-21 20:16:52.600000+00:00,2024-05-22 05:16:52.600000+09:00,2024,5,21,20,16,52,600,,,,,,,,,0.210938,-0.726562,1.712158,-59.326172,-5.371094,-9.70459,,,,,,,,,,,0.0,1.0,1.0,4.0,0.0,0.0,0.0,5.0,0.0,0.24838866666666665,-0.3198046666666667,0.9976204533333334,-1.8115234266666669,1.2386067066666662,-0.40690106666666687,-16.652066733379534,-1.8417758657552084,0.09077498961164915,-6.5926529426041265,-6.838521931502876,4.8699195804302295,10.674482270776902,-0.9012859394396273,10.473393592047412,-0.8926727382413533,-0.03745066666666666,-0.40675733333333336,0.7145375466666667,1.1587455466666667,0.8230540603451519,0.7135746450247062,0.729201561756972,0.7267291318315867
LBP06_S04,LBP06,-1559,92,4,91,-1559,1716322612.64,2024-05-21 20:16:52.640000+00:00,2024-05-22 05:16:52.640000+09:00,2024,5,21,20,16,52,640,,,,,,,,,0.461914,-0.858154,1.856445,37.780762,3.662109,-14.526367,,,,,,,,,,,0.0,1.0,1.0,4.0,0.0,0.0,0.0,5.0,0.0,0.24411783999999997,-0.31850258666666664,0.9927669333333332,-0.5891927066666669,2.937011653333333,-0.4231771200000002,-14.209836445494334,-2.8111174148522786,-0.5973108234300325,-7.1610464004239,-6.950966628096967,4.846027147493028,11.09416521096478,-0.9073455254593895,10.695775260955092,-0.8917307247601182,0.21779616000000002,-0.5396514133333333,0.8636780666666667,1.62112564,1.0414406454832081,0.742863986587947,0.743950698191437,0.7324511593525252
LBP06_S04,LBP06,-1558,93,4,92,-1558,1716322612.68,2024-05-21 20:16:52.680000+00:00,2024-05-22 05:16:52.680000+09:00,2024,5,21,20,16,52,680,,,,,,,,,0.063232,-0.124023,0.890625,60.058594,165.893555,39.978027,,,,,,,,,,,0.0,1.0,1.0,4.0,0.0,0.0,0.0,5.0,0.0,0.235153,-0.30715168,0.9667220133333333,-0.048828120000000204,3.5929361333333327,0.10416662666666641,-10.131963684595211,-3.8343863580282367,-1.8034918188207383,-7.566324947807709,-7.104342082418096,4.7738874747401985,11.42413897242656,-0.9080306316875333,10.886129641253572,-0.8913672179079187,-0.171921,0.18312868,-0.0760970133333333,0.4311466933333333,0.2624570424237001,0.7443520220850184,0.7261638103078532,0.7240584072645105
LBP06_S04,LBP06,-1557,94,4,93,-1557,1716322612.72,2024-05-21 20:16:52.720000+00:00,2024-05-22 05:16:52.720000+09:00,2024,5,21,20,16,52,720,,,,,,,,,-0.291992,0.204346,-0.293457,-9.70459,31.799316,4.455566,,,,,,,,,,,0.0,1.0,1.0,4.0,0.0,0.0,0.0,5.0,0.0,0.22930663999999998,-0.30172525333333333,0.94722656,-0.8349609333333335,2.6741535866666664,0.17822261333333306,-5.1474747354495705,-4.649080817370727,-3.290167243304341,-7.772223937225691,-7.290305315112925,4.642280785008025,11.62354452844753,-0.9113503833215247,11.016310714955043,-0.8961936924115591,-0.5212986399999999,0.5060712533333334,-1.2406835600000001,2.2680534533333336,1.437760787325379,0.7749625110224118,0.7420601310550624,0.7365795016515433
LBP06_S04,LBP06,-1556,95,4,94,-1556,1716322612.76,2024-05-21 20:16:52.760000+00:00,2024-05-22 05:16:52.760000+09:00,2024,5,21,20,16,52,760,,,,,,,,,0.102783,-0.221191,0.341309,-12.329102,-73.364258,-14.465332,,,,,,,,,,,0.0,1.0,1.0,4.0,0.0,0.0,0.0,5.0,0.0,0.23867512,-0.3008268266666667,0.9473469999999999,-2.0930989466666667,-1.6495768800000008,-0.3116862400000003,0.03948213389422137,-4.723314075673089,-4.6867095801488565,-7.770644651869922,-7.479237878139848,4.454812401802071,11.6690732742016,-0.8916723529432748,11.061489282198352,-0.902140772729467,-0.13589212,0.07963582666666671,-0.606038,0.8215659466666667,0.6261713747936564,0.7596223698319697,0.7448152250463435,0.7346759132574417
LBP06_S04,LBP06,-1555,96,4,95,-1555,1716322612.8,2024-05-21 20:16:52.800000+00:00,2024-05-22 05:16:52.800000+09:00,2024,5,21,20,16,52,800,,,,,,,,,0.568359,-0.26123,0.652588,8.789062,-145.507812,-29.541016,,,,,,,,,,,0.0,1.0,1.0,4.0,0.0,0.0,0.0,5.0,0.0,0.24581053333333333,-0.30314128,0.9617089866666665,-3.0167643200000005,-1.4770508400000006,-0.27180993333333364,4.860508198536946,-3.537658815716638,-5.598088298011825,-7.576224323928445,-7.620744230768514,4.230888869881598,11.548824107525606,-0.8817546994574782,11.006712615335369,-0.9063379577543996,0.3225484666666666,0.041911279999999995,-0.30912098666666654,0.6735807333333331,0.448720239278361,0.7539240844200079,0.7446180088255003,0.7298292069188134
LBP06_S04,LBP06,-1554,97,4,96,-1554,1716322612.84,2024-05-21 20:16:52.840000+00:00,2024-05-22 05:16:52.840000+09:00,2024,5,21,20,16,52,840,,,,,,,,,0.506836,0.054688,1.008057,15.197754,-3.90625,-9.216309,,,,,,,,,,,0.0,1.0,1.0,4.0,0.0,0.0,0.0,5.0,0.0,0.24839192000000002,-0.3128352933333333,0.9801139333333333,-4.8844400933333345,-0.39876308000000077,0.025227826666666408,8.874955823698542,-0.952453698580167,-5.739915376911992,-7.221226090980503,-7.658842378711721,4.001292254805119,11.261186107483155,-0.8912416311943563,10.8509478464804,-0.908337496079928,0.25844407999999996,0.36752329333333333,0.027943066666666683,0.65391044,0.45016389082684494,0.71704032801313,0.7355366860865865,0.7251681183172806
LBP06_S04,LBP06,-1553,98,4,97,-1553,1716322612.88,2024-05-21 20:16:52.880000+00:00,2024-05-22 05:16:52.880000+09:00,2024,5,21,20,16,52,880,,,,,,,,,0.289062,-0.922363,1.663086,-105.651855,4.882812,-11.779785,,,,,,,,,,,0.0,1.0,1.0,4.0,0.0,0.0,0.0,5.0,0.0,0.23928059999999998,-0.31822592000000005,0.9905598933333333,-4.178059880000001,0.9187824933333326,-0.23437504000000028,11.716697810298523,2.6006096338514983,-5.039383928999939,-6.752558178568562,-7.554817993357661,3.799716897645121,10.821745024253884,-0.9160698860934795,10.606613159996652,-0.9089870990064064,0.0497814,-0.60413708,0.6725261066666668,1.3264445866666668,0.9054011063418861,0.7204238500465681,0.7354646659148837,0.7281227574652248
LBP06_S04,LBP06,-1552,99,4,98,-1552,1716322612.92,2024-05-21 20:16:52.920000+00:00,2024-05-22 05:16:52.920000+09:00,2024,5,21,20,16,52,920,,,,,,,,,0.347656,-0.604004,1.632324,73.669434,3.845215,-15.563965,,,,,,,,,,,0.0,1.0,1.0,4.0,0.0,0.0,0.0,5.0,0.0,0.23651692000000002,-0.32264649333333334,0.9903710933333334,-2.4812825333333337,2.1378580133333327,-0.1831055066666669,13.083208314556673,6.250849378955994,-3.6549068502611775,-6.229229845986295,-7.304784018199421,3.653520623634674,10.271873586351811,-0.9273684898887198,10.295270842940681,-0.9071877124638249,0.11113908,-0.28135750666666665,0.6419529066666667,1.0344494933333332,0.7096601130391308,0.7227130758705903,0.7391344188977961,0.7278249728777072
LBP06_S04,LBP06,-1551,100,4,99,-1551,1716322612.96,2024-05-21 20:16:52.960000+00:00,2024-05-22 05:16:52.960000+09:00,2024,5,21,20,16,52,960,,,,,,,,,0.438477,-0.380127,1.505127,41.320801,112.060547,19.287109,,,,,,,,,,,0.0,1.0,1.0,4.0,0.0,0.0,0.0,5.0,0.0,0.22852213333333335,-0.31157226666666665,0.9629199200000002,-0.9529622266666671,3.4757486399999995,0.43212886666666633,12.810099468966401,9.077543228355532,-1.9077547346376993,-5.716825867227639,-6.9416822890652,3.577210434249166,9.678093070921856,-0.9272600380586111,9.942120057877505,-0.9056252178774573,0.20995486666666666,-0.06855473333333334,0.54220708,0.82071668,0.585465041741647,0.7259331868395433,0.728221755270985,0.725565291431103
LBP06_S04,LBP06,-1550,101,4,100,-1550,1716322613.0,2024-05-21 20:16:53+00:00,2024-05-22 05:16:53+09:00,2024,5,21,20,16,53,0,20.0,16.0,52.0,40.549191,141.568726,41.736,3.0,6.0,-0.403809,-0.097656,-0.309814,52.001953,139.831543,33.630371,-572.0,47.0,550.0,0.0,0.0,1029.199951,14.71,0.160538,-131.878403,3.635156,0.0,1.0,1.0,4.0,0.0,0.0,0.0,5.0,0.0,0.22469074666666666,-0.30226237333333333,0.9404654933333332,-1.2402343600000003,2.5903319733333325,0.5322265199999998,10.993852312946043,10.525593533838446,-0.16171100379548697,-5.277071774709797,-6.520658547711663,3.5707419940973466,9.116834582227225,-0.9212813226949121,9.571803509481942,-0.9079102976671546,-0.6284997466666666,0.2046063733333333,-1.2502794933333332,2.0833856133333333,1.4142399057509798,0.7623794394993344,0.7372105004902025,0.7363258322798512
LBP06_S04,LBP06,-1549,102,4,101,-1549,1716322613.04,2024-05-21 20:16:53.040000+00:00,2024-05-22 05:16:53.040000+09:00,2024,5,21,20,16,53,40,,,,,,,,,0.146484,0.062744,0.243896,17.211914,-49.133301,-12.878418,,,,,,,,,,,0.0,1.0,1.0,4.0,0.0,0.0,0.0,5.0,0.0,0.22683918666666666,-0.30024414666666666,0.9320149733333333,-1.4331054533333338,-1.3460286933333339,-0.04069014666666689,8.062644776815697,10.603493776419345,1.2901070139567188,-4.954565983637169,-6.096518796654889,3.6223462746556154,8.65081834612728,-0.913841554724173,9.206359366647282,-0.911510245394528,-0.08035518666666666,0.3629881466666667,-0.6881189733333333,1.1314623066666667,0.7821285521613803,0.7546090756152583,0.7405338207553323,0.7370304895087978
LBP06_S04,LBP06,-1548,103,4,102,-1548,1716322613.08,2024-05-21 20:16:53.080000+00:00,2024-05-22 05:16:53.080000+09:00,2024,5,21,20,16,53,80,,,,,,,,,0.309082,-0.114502,0.687256,0.549316,-140.625,-6.652832,,,,,,,,,,,0.0,1.0,1.0,4.0,0.0,0.0,0.0,5.0,0.0,0.2403222666666667,-0.30185871999999997,0.94762696,-1.2491861866666671,-2.587076866666667,-0.6445312933333336,4.707991782030832,9.759545613764567,2.2815758082741646,-4.7662463123559355,-5.706136972104306,3.713609306986582,8.310715801866865,-0.89003676626172,8.864397534373655,-0.9145812595384181,0.06875973333333332,0.18735671999999998,-0.26037096000000004,0.5164874133333334,0.32806017476760435,0.7306820725793731,0.7349860274088091,0.7308339695884766
LBP06_S04,LBP06,-1547,104,4,103,-1547,1716322613.12,2024-05-21 20:16:53.120000+00:00,2024-05-22 05:16:53.120000+09:00,2024,5,21,20,16,53,120,,,,,,,,,0.634766,-0.143799,1.184082,-44.311523,-6.04248,5.004883,,,,,,,,,,,0.0,1.0,1.0,4.0,0.0,0.0,0.0,5.0,0.0,0.2439388,-0.31032552,0.9648925866666667,-2.795410146666667,-1.2638346800000007,-0.5371094133333335,1.6773634022911763,8.546141000330925,2.761181682029062,-4.699151776264289,-5.364291332091069,3.824056574267744,8.092036677815763,-0.8957254374578475,8.5599786426095,-0.9139285764138035,0.39082720000000004,0.16652652,0.21918941333333342,0.7765431333333335,0.478038681531695,0.7235999982809104,0.7344329387952894,0.7270609055876291
LBP06_S04,LBP06,-1546,105,4,104,-1546,1716322613.16,2024-05-21 20:16:53.160000+00:00,2024-05-22 05:16:53.160000+09:00,2024,5,21,20,16,53,160,,,,,,,,,0.326416,-0.868164,1.609375,-87.341309,25.085449,-5.126953,,,,,,,,,,,0.0,1.0,1.0,4.0,0.0,0.0,0.0,5.0,0.0,0.23978189333333333,-0.31797850666666666,0.9773079466666666,-1.117350253333334,0.7381184533333328,-1.3264974400000002,-0.4743661382454083,7.316239775963781,2.739256404071831,-4.718126421794105,-5.071641741052518,3.9336268304306174,7.965907790245973,-0.9145231508402492,8.300549468330962,-0.912525045409754,0.08663410666666665,-0.5501854933333334,0.6320670533333334,1.2688866533333334,0.8424478057552632,0.7111979171677498,0.7314312231743045,0.728757771766565
LBP06_S04,LBP06,-1545,106,4,105,-1545,1716322613.2,2024-05-21 20:16:53.200000+00:00,2024-05-22 05:16:53.200000+09:00,2024,5,21,20,16,53,200,,,,,,,,,0.180908,-0.624023,1.737549,50.78125,-9.216309,-24.780273,,,,,,,,,,,0.0,1.0,1.0,4.0,0.0,0.0,0.0,5.0,0.0,0.2414453066666667,-0.32247721333333335,0.9900488266666667,-1.2500000000000007,1.3167317333333328,-1.1417643733333336,-1.5401570756328147,6.143721154461152,2.239492924119333,-4.779732704819418,-4.825892894874071,4.02320654739539,7.894382679179008,-0.9177541767312103,8.084864236146846,-0.9081673014447113,-0.06053730666666668,-0.30154578666666665,0.7475001733333333,1.1095832666666667,0.80830138938903,0.7175599389744829,0.7316722874819368,0.7299105778190644
LBP06_S04,LBP06,-1544,107,4,106,-1544,1716322613.24,2024-05-21 20:16:53.240000+00:00,2024-05-22 05:16:53.240000+09:00,2024,5,21,20,16,53,240,,,,,,,,,0.466309,-0.502686,1.715576,33.813477,71.166992,10.559082,,,,,,,,,,,0.0,1.0,1.0,4.0,0.0,0.0,0.0,5.0,0.0,0.23568033333333338,-0.31773764000000004,0.9723730399999999,0.8870442799999994,3.448893199999999,-0.4305013466666668,-1.6429364323649949,4.974073738685009,1.2877573277212535,-4.845450162114018,-4.626929945326671,4.074716840504241,7.841567784746893,-0.9219517726332579,7.902751037901569,-0.9044563186025316,0.2306286666666666,-0.18494835999999992,0.7432029600000001,1.1587799866666666,0.7998413077029066,0.7275440405495087,0.7399696194640178,0.7309095882459765
LBP06_S04,LBP06,-1543,108,4,107,-1543,1716322613.28,2024-05-21 20:16:53.280000+00:00,2024-05-22 05:16:53.280000+09:00,2024,5,21,20,16,53,280,,,,,,,,,-0.349854,-0.074707,-0.069092,24.963379,150.878906,39.123535,,,,,,,,,,,0.0,1.0,1.0,4.0,0.0,0.0,0.0,5.0,0.0,0.23298828,-0.30546876,0.9503027333333334,1.009928386666666,3.4537759999999995,-0.3141276400000001,-1.076816898281287,3.846882369298113,-0.05772522356952203,-4.88852283804527,-4.473054650554746,4.07240783156146,7.777556106612329,-0.9095430548473342,7.737992297935771,-0.9029906072947966,-0.5828422799999999,0.23076176,-1.0193947333333333,1.8329987733333333,1.1967128876976438,0.7606521937022299,0.7441735512899761,0.7374701980974084
LBP06_S04,LBP06,-1542,109,4,108,-1542,1716322613.32,2024-05-21 20:16:53.320000+00:00,2024-05-22 05:16:53.320000+09:00,2024,5,21,20,16,53,320,,,,,,,,,0.0896,-0.062256,0.208496,-6.103516,-57.434082,-2.685547,,,,,,,,,,,0.0,1.0,1.0,4.0,0.0,0.0,0.0,5.0,0.0,0.22776692,-0.30111329333333336,0.9365169333333334,0.3450520799999994,1.1865233999999993,-0.5045573200000001,-0.1252146483002619,2.9933534731422515,-1.6627616911105083,-4.89353142397728,-4.3533205116290565,4.00589736391704,7.677581843566428,-0.9133331798482232,7.573769633486097,-0.904865747026786,-0.13816692000000003,0.23885729333333336,-0.7280209333333334,1.1050451466666669,0.77856109826548,0.7562088280326104,0.74439282030775,0.7380409050441872
LBP06_S04,LBP06,-1541,110,4,109,-1541,1716322613.36,2024-05-21 20:16:53.360000+00:00,2024-05-22 05:16:53.360000+09:00,2024,5,21,20,16,53,360,,,,,,,,,0.113037,-0.117188,0.519531,30.700684,-121.704102,-17.333984,,,,,,,,,,,0.0,1.0,1.0,4.0,0.0,0.0,0.0,5.0,0.0,0.24509438666666664,-0.30363933333333337,0.9520410133333334,-0.9318033866666673,-2.4544271200000005,-1.2003580933333333,1.0297716601159437,2.7153290534070362,-3.3024773496220807,-4.852340557572642,-4.244707349492775,3.8737982699321565,7.521240749080681,-0.8836825984081855,7.3984229040145575,-0.9071796042332471,-0.13205738666666664,0.18645133333333336,-0.4325100133333334,0.7510187333333334,0.4891504520171759,0.7360981723290788,0.7426996797013905,0.7346314467835432
LBP06_S04,LBP06,-1540,111,4,110,-1540,1716322613.4,2024-05-21 20:16:53.400000+00:00,2024-05-22 05:16:53.400000+09:00,2024,5,21,20,16,53,400,,,,,,,,,0.739746,-0.191406,1.114502,-11.657715,-43.701172,-1.77002,,,,,,,,,,,0.0,1.0,1.0,4.0,0.0,0.0,0.0,5.0,0.0,0.25114581333333336,-0.31155925333333334,0.9680533866666667,-2.3535156266666672,-1.3663737333333341,-1.2394206,2.270210022074507,3.13173339877676,-4.6992894676547285,-4.761532156689662,-4.119438013541704,3.685826691225967,7.295702599774465,-0.884171494273115,7.209003833868434,-0.9067166791069387,0.48860018666666666,0.12015325333333335,0.14644861333333337,0.7552020533333333,0.5240363947709565,0.7487748445436094,0.7424961195964324,0.731785567702292
LBP06_S04,LBP06,-1539,112,4,111,-1539,1716322613.44,2024-05-21 20:16:53.440000+00:00,2024-05-22 05:16:53.440000+09:00,2024,5,21,20,16,53,440,,,,,,,,,0.348145,-0.493652,1.526123,-116.027832,26.123047,-9.155273,,,,,,,,,,,0.0,1.0,1.0,4.0,0.0,0.0,0.0,5.0,0.0,0.2517578,-0.32291341333333334,0.9862565066666668,-1.1735026000000004,0.17740882666666602,-1.6569010800000001,3.4315146887804,4.000716505003522,-5.599315114907467,-4.624271569138446,-3.9594093533415635,3.4618540866296685,7.003230946469304,-0.8991844416468249,7.011357666060595,-0.9064510444375544,0.0963872,-0.17073858666666664,0.5398664933333331,0.8069922799999998,0.5743674676762262,0.7156488644379232,0.7345304939391771,0.7296866597019445
LBP06_S04,LBP06,-1538,113,4,112,-1538,1716322613.48,2024-05-21 20:16:53.480000+00:00,2024-05-22 05:16:53.480000+09:00,2024,5,21,20,16,53,480,,,,,,,,,0.292725,-0.73877,1.796143,58.837891,11.047363,-41.625977,,,,,,,,,,,0.0,1.0,1.0,4.0,0.0,0.0,0.0,5.0,0.0,0.24803384000000003,-0.32481770666666665,0.9980110666666667,-0.5061848933333339,0.46712237333333273,-1.6593424800000003,4.223711207319881,4.781497695563755,-5.846703440298674,-4.455323120845651,-3.7681494455190134,3.2279859490177216,6.668489157370125,-0.9087881635816129,6.817254859596973,-0.9028168763171159,0.04469115999999998,-0.4139522933333334,0.7981319333333333,1.2567753866666667,0.9002046344828915,0.7276119249998011,0.7317666864962915,0.7358748852740488
LBP06_S04,LBP06,-1537,114,4,113,-1537,1716322613.52,2024-05-21 20:16:53.520000+00:00,2024-05-22 05:16:53.520000+09:00,2024,5,21,20,16,53,520,,,,,,,,,0.498535,-0.582275,1.763428,-6.530762,40.344238,-0.549316,,,,,,,,,,,0.0,1.0,1.0,4.0,0.0,0.0,0.0,5.0,0.0,0.24197915999999997,-0.3240559866666667,0.9893522133333332,1.6137695333333326,2.923990866666666,-1.2801107066666664,4.273704989582285,4.922752292903562,-5.417500956677443,-4.284374921262359,-3.571239353802871,3.011285910750624,6.338569383100371,-0.9188640095224587,6.640357597890839,-0.8993029157387099,0.25655584000000003,-0.2582190133333333,0.7740757866666668,1.2888506400000002,0.8553895494969322,0.7384798475675115,0.7434441584829085,0.7405591753205591
LBP06_S04,LBP06,-1536,115,4,114,-1536,1716322613.56,2024-05-21 20:16:53.560000+00:00,2024-05-22 05:16:53.560000+09:00,2024,5,21,20,16,53,560,,,,,,,,,-0.116211,-0.188965,0.544189,38.391113,165.710449,52.67334,,,,,,,,,,,0.0,1.0,1.0,4.0,0.0,0.0,0.0,5.0,0.0,0.23628254666666668,-0.3100488266666667,0.9627213599999999,2.0768229199999997,3.4497070133333327,-0.8089193066666668,3.2934445385366136,4.1974936082792675,-4.400941273971212,-4.152637139720895,-3.4033396094717,2.835248259791775,6.071717088784738,-0.9098938995771637,6.492941521680301,-0.8970368731884335,-0.35249354666666666,0.12108382666666673,-0.4185323599999998,0.8921097333333332,0.5604304862238121,0.7448882035715577,0.7266413824175985,0.734851518404998
LBP06_S04,LBP06,-1535,116,4,115,-1535,1716322613.6,2024-05-21 20:16:53.600000+00:00,2024-05-22 05:16:53.600000+09:00,2024,5,21,20,16,53,600,,,,,,,,,-0.02832,0.091064,0.148438,58.654785,-29.35791,-13.977051,,,,,,,,,,,0.0,1.0,1.0,4.0,0.0,0.0,0.0,5.0,0.0,0.22995442666666666,-0.30527344000000006,0.9425390800000001,1.6544596399999993,2.4137369599999996,-0.9358724266666667,1.279918172706821,2.861119712707661,-2.9513420570178472,-4.101440412812622,-3.2888948209633937,2.7171945775110613,5.917921001100633,-0.9150978300373684,6.3843113131873634,-0.8994429348697361,-0.25827442666666667,0.39633744000000004,-0.7941010800000001,1.4487129466666668,0.9243297956210843,0.7489392329825949,0.7312569390036505,0.7357807854988463
LBP06_S04,LBP06,-1534,117,4,116,-1534,1716322613.64,2024-05-21 20:16:53.640000+00:00,2024-05-22 05:16:53.640000+09:00,2024,5,21,20,16,53,640,,,,,,,,,0.036865,-0.038086,0.494629,21.789551,-99.304199,-14.892578,,,,,,,,,,,0.0,1.0,1.0,4.0,0.0,0.0,0.0,5.0,0.0,0.24349609333333333,-0.3029687466666667,0.9458984533333333,1.7399088533333327,-2.096354173333334,-1.4835612266666665,-1.3879766359104748,1.5123766425898553,-1.2520387335111685,-4.156959478249041,-3.2283997552597996,2.6671130281706144,5.900539720110653,-0.8856100914288719,6.320486744755092,-0.9030467138430056,-0.20663109333333332,0.26488274666666667,-0.45126945333333335,0.9227832933333333,0.5625863469064742,0.7297850610395256,0.7363245238137363,0.7392288191408
LBP06_S04,LBP06,-1533,118,4,117,-1533,1716322613.68,2024-05-21 20:16:53.680000+00:00,2024-05-22 05:16:53.680000+09:00,2024,5,21,20,16,53,680,,,,,,,,,0.824463,-0.236328,1.035156,-38.146973,-80.871582,-14.404297,,,,,,,,,,,0.0,1.0,1.0,4.0,0.0,0.0,0.0,5.0,0.0,0.25192709333333335,-0.3058463466666667,0.9618066666666668,0.5379231733333328,-1.819661453333334,-1.17594404,-4.041568889464561,0.7297381645809634,0.48629913707835565,-4.3186222338276234,-3.199210228676561,2.686564993653749,6.008583489550994,-0.8744034490632743,6.304057253244567,-0.9048735347739484,0.5725359066666666,0.0695183466666667,0.07334933333333316,0.7154035866666665,0.581386523447468,0.7425422402804764,0.7434471311827473,0.7316232869653941
LBP06_S04,LBP06,-1532,119,4,118,-1532,1716322613.72,2024-05-21 20:16:53.720000+00:00,2024-05-22 05:16:53.720000+09:00,2024,5,21,20,16,53,720,,,,,,,,,0.420166,-0.361816,1.531738,-89.96582,18.554688,9.033203,,,,,,,,,,,0.0,1.0,1.0,4.0,0.0,0.0,0.0,5.0,0.0,0.2526562666666667,-0.3179752533333333,0.9815202133333334,-0.703938813333334,-0.4199218666666674,-1.06526696,-5.97768533137581,0.7130900499039806,2.0108340193652467,-4.557729647082656,-3.1706866266804017,2.7669983544283587,6.20342108146105,-0.8906727543454601,6.333589160330527,-0.9057178728780512,0.1675097333333333,-0.04384074666666671,0.5502177866666667,0.7615682666666667,0.5768198458739615,0.7081046026224196,0.7415335568224157,0.7307416215775149
LBP06_S04,LBP06,-1531,120,4,119,-1531,1716322613.76,2024-05-21 20:16:53.760000+00:00,2024-05-22 05:16:53.760000+09:00,2024,5,21,20,16,53,760,,,,,,,,,0.185303,-0.812744,1.749512,-35.217285,-22.155762,-15.136719,,,,,,,,,,,0.0,1.0,1.0,4.0,0.0,0.0,0.0,5.0,0.0,0.24592450666666665,-0.3212499866666667,0.9924642266666668,-0.6079101733333339,1.0083007866666658,-0.9643554933333334,-6.744677836003137,1.1614056404531141,3.034380646635868,-4.827516760522782,-3.124230401062277,2.8883735802937935,6.4349386641513,-0.9077432152212105,6.403027702291267,-0.9039188770853894,-0.06062150666666666,-0.4914940133333333,0.7570477733333332,1.309163293333333,0.9046339941224856,0.7192431073955728,0.7394327386137712,0.7362911858294199
LBP06_S04,LBP06,-1530,121,4,120,-1530,1716322613.8,2024-05-21 20:16:53.800000+00:00,2024-05-22 05:16:53.800000+09:00,2024,5,21,20,16,53,800,,,,,,,,,0.449219,-0.689941,1.895508,34.790039,10.314941,-7.385254,,,,,,,,,,,0.0,1.0,1.0,4.0,0.0,0.0,0.0,5.0,0.0,0.24191734666666667,-0.32490884,0.9936360933333332,1.3411458133333327,2.8572591199999993,-0.7649739866666666,-6.301554829430855,1.4603875237484998,3.2906159250647264,-5.079578953700016,-3.065814900112337,3.0199982172963824,6.657456915451748,-0.9202092840058107,6.50211132977788,-0.9012310277357745,0.2073016533333333,-0.36503216000000005,0.9018719066666667,1.47420572,0.9947840918227271,0.7410856614973476,0.7475048729586777,0.743440559716116
LBP06_S04,LBP06,-1529,122,4,121,-1529,1716322613.84,2024-05-21 20:16:53.840000+00:00,2024-05-22 05:16:53.840000+09:00,2024,5,21,20,16,53,840,,,,,,,,,0.019043,-0.286133,0.8396,3.90625,169.73877,51.269531,,,,,,,,,,,0.0,1.0,1.0,4.0,0.0,0.0,0.0,5.0,0.0,0.23450849333333332,-0.31289712000000003,0.9686068,2.3486327866666663,3.8972981866666663,0.056966120000000064,-4.975213887745647,1.058629692563588,2.627307922180668,-5.278587509209842,-3.023469712409794,3.125090534183609,6.838936031364054,-0.9174526509562516,6.618474647680766,-0.8993101989169423,-0.2154654933333333,0.026764120000000002,-0.12900679999999998,0.3712364133333333,0.25255583814869753,0.7331813393902216,0.7251108337016757,0.7347515705211315
LBP06_S04,LBP06,-1528,123,4,122,-1528,1716322613.88,2024-05-21 20:16:53.880000+00:00,2024-05-22 05:16:53.880000+09:00,2024,5,21,20,16,53,880,,,,,,,,,-0.211914,0.101318,-0.126709,72.32666,21.66748,7.202148,,,,,,,,,,,0.0,1.0,1.0,4.0,0.0,0.0,0.0,5.0,0.0,0.22987958666666666,-0.3066015466666667,0.9469303733333334,1.8286132666666663,3.064778653333332,0.6233723733333334,-3.271911955734838,-0.20107888515295064,1.0965262402373004,-5.409463987439236,-3.031512867815912,3.1689515837931013,6.963808228229742,-0.9172315446226427,6.741206971367919,-0.9025256490137581,-0.4417935866666667,0.40791954666666674,-1.0736393733333334,1.9233525066666668,1.2305614303008725,0.746187752348581,0.7333058011975746,0.7390390280594494
LBP06_S04,LBP06,-1527,124,4,123,-1527,1716322613.92,2024-05-21 20:16:53.920000+00:00,2024-05-22 05:16:53.920000+09:00,2024,5,21,20,16,53,920,,,,,,,,,-0.016113,-0.054932,0.355469,5.004883,-62.255859,-7.019043,,,,,,,,,,,0.0,1.0,1.0,4.0,0.0,0.0,0.0,5.0,0.0,0.23499677333333333,-0.30229490666666664,0.94263024,1.5657551999999995,-0.9244791600000007,-0.17578127999999993,-1.679329457170328,-1.9989044313903448,-1.010703279780625,-5.476637165726049,-3.1114690450715257,3.1285234526018764,7.032954802707759,-0.9008740515958403,6.864660138952347,-0.9076881105445928,-0.25110977333333334,0.24736290666666663,-0.5871612399999999,1.0856339199999998,0.6848378257780725,0.7451948608581387,0.7339539683643644,0.7411545662179102
LBP06_S04,LBP06,-1526,125,4,124,-1526,1716322613.96,2024-05-21 20:16:53.960000+00:00,2024-05-22 05:16:53.960000+09:00,2024,5,21,20,16,53,960,,,,,,,,,0.871094,-0.229004,0.987305,-50.415039,-125.12207,-24.475098,,,,,,,,,,,0.0,1.0,1.0,4.0,0.0,0.0,0.0,5.0,0.0,0.2478743733333333,-0.3066341066666667,0.9618327200000001,1.257324213333333,-1.2638346266666676,-0.22054039999999997,-0.5710619920052677,-3.7463426611649973,-3.2165965863239707,-5.49947964540626,-3.261322751518126,2.9998595891489175,7.062553363650871,-0.8830154060810144,6.990743531415923,-0.9111483150881258,0.6232196266666667,0.07763010666666667,0.025472279999999903,0.7263220133333333,0.6285522838809958,0.7469183505437127,0.7364257686916281,0.7344539536952275
LBP06_S04,LBP06,-1525,126,4,125,-1525,1716322614.0,2024-05-21 20:16:54+00:00,2024-05-22 05:16:54+09:00,2024,5,21,20,16,54,0,20.0,16.0,53.0,40.549274,141.568832,41.153,3.0,6.0,0.50293,-0.243896,1.305908,-52.062988,10.620117,10.925293,-572.0,46.0,551.0,0.0,0.0,1029.699951,14.77,0.165493,-135.985718,3.635156,0.0,1.0,1.0,4.0,0.0,0.0,0.0,10.0,0.0,0.24793295999999998,-0.31555989333333334,0.97768884,0.33772786666666643,0.08300781333333257,-0.16845706666666657,-0.22357695241245196,-4.934167349920005,-4.982401749983016,-5.508422723502758,-3.458689445514926,2.800563519149597,7.081554180129491,-0.8958895418490467,7.128298186295021,-0.9120675202175027,0.25499704,0.07166389333333334,0.32821916000000007,0.6548800933333334,0.42176654799492885,0.7072194162334706,0.7347994278664025,0.7272134724046252
LBP06_S04,LBP06,-1524,127,4,126,-1524,1716322614.04,2024-05-21 20:16:54.040000+00:00,2024-05-22 05:16:54.040000+09:00,2024,5,21,20,16,54,40,,,,,,,,,0.083496,-0.815918,1.686768,-21.484375,-11.535645,-21.911621,,,,,,,,,,,0.0,1.0,1.0,4.0,0.0,0.0,0.0,10.0,0.0,0.24099285333333337,-0.32185872,0.9897233466666665,1.2556966133333332,1.5755208399999991,-0.3393555066666666,-0.8579986397499456,-5.385171015125242,-5.858756370325424,-5.542742669092755,-3.6740962861199358,2.56621326433658,7.127862956982183,-0.9177645923970298,7.2893996990525265,-0.9114523023475776,-0.15749685333333335,-0.49405928000000005,0.6970446533333335,1.348600786666667,0.8687756210349178,0.7106852989884122,0.7326471873018352,0.7305843134996922
LBP06_S04,LBP06,-1523,128,4,127,-1523,1716322614.08,2024-05-21 20:16:54.080000+00:00,2024-05-22 05:16:54.080000+09:00,2024,5,21,20,16,54,80,,,,,,,,,0.408691,-0.755615,1.921387,11.84082,-39.855957,-23.071289,,,,,,,,,,,0.0,1.0,1.0,4.0,0.0,0.0,0.0,10.0,0.0,0.23828778666666664,-0.3241569066666667,0.9913639733333334,2.933756506666666,2.6578776133333326,-0.3401693066666666,-2.602898630280128,-5.265083323615535,-5.606132431141732,-5.6468586143039605,-3.8846996190645573,2.341967967090911,7.24311516539528,-0.9260280643716213,7.483892069564641,-0.9091864218240258,0.1704032133333334,-0.43145809333333335,0.9300230266666666,1.5318843333333332,1.0392959980426115,0.7391347319194124,0.7349084022493928,0.7363689289123436
LBP06_S04,LBP06,-1522,129,4,128,-1522,1716322614.12,2024-05-21 20:16:54.120000+00:00,2024-05-22 05:16:54.120000+09:00,2024,5,21,20,16,54,120,,,,,,,,,0.114502,-0.262207,1.047119,33.38623,137.084961,8.789062,,,,,,,,,,,0.0,1.0,1.0,4.0,0.0,0.0,0.0,10.0,0.0,0.23093101333333332,-0.3135449333333334,0.9647363733333333,4.942220053333333,4.292805999999999,0.22867834666666675,-5.3538235804518015,-4.8813847614716,-4.2490297547748455,-5.8610115575220325,-4.079955009523421,2.172006776899917,7.464255006096808,-0.9252747997807891,7.714278033901851,-0.9064878175105082,-0.11642901333333332,0.05133793333333336,0.08238262666666663,0.2501495733333333,0.15158560525726267,0.7260766088684352,0.7248383035746727,0.7316474954863379
LBP06_S04,LBP06,-1521,130,4,129,-1521,1716322614.16,2024-05-21 20:16:54.160000+00:00,2024-05-22 05:16:54.160000+09:00,2024,5,21,20,16,54,160,,,,,,,,,-0.389648,-0.081299,-0.233887,76.782227,55.358887,7.873535,,,,,,,,,,,0.0,1.0,1.0,4.0,0.0,0.0,0.0,10.0,0.0,0.2255273733333333,-0.30041017333333336,0.9423665866666668,4.201660159999999,3.5522461066666664,0.7177734000000001,-8.618135271024697,-4.435140878308818,-2.0544262800016035,-6.20573696836302,-4.2573606446557735,2.0898297256998526,7.810485212942278,-0.9169352665149815,7.972909463711555,-0.9068797619822837,-0.6151753733333333,0.21911117333333335,-1.1762535866666668,2.0105401333333335,1.3453709326358712,0.7461935339436594,0.7286957255557047,0.7363519934307561
LBP06_S04,LBP06,-1520,131,4,130,-1520,1716322614.2,2024-05-21 20:16:54.200000+00:00,2024-05-22 05:16:54.200000+09:00,2024,5,21,20,16,54,200,,,,,,,,,0.00415,0.069336,0.24707,-3.967285,-42.663574,-1.037598,,,,,,,,,,,0.0,1.0,1.0,4.0,0.0,0.0,0.0,10.0,0.0,0.2278808933333333,-0.30177736,0.9358561733333335,2.4910481733333327,-0.647786453333334,0.06510413333333347,-11.490949489255124,-3.908748456811821,0.5484659381831808,-6.665374947933225,-4.413710582928246,2.11176836322718,8.268472043026804,-0.9140571053065586,8.242408472977122,-0.9102611798630008,-0.22373089333333332,0.37111336,-0.6887861733333335,1.283630426666667,0.8137610405870989,0.7464119199915822,0.7319859294830325,0.7365854983184852
LBP06_S04,LBP06,-1519,132,4,131,-1519,1716322614.24,2024-05-21 20:16:54.240000+00:00,2024-05-22 05:16:54.240000+09:00,2024,5,21,20,16,54,240,,,,,,,,,0.622314,-0.146729,0.715088,-53.588867,-147.216797,1.586914,,,,,,,,,,,0.0,1.0,1.0,4.0,0.0,0.0,0.0,10.0,0.0,0.24109703999999998,-0.3060807466666667,0.9523275333333333,3.989257813333333,-1.5218098800000006,-0.2571614799999999,-12.858994578263761,-3.16277387524835,3.07388024724455,-7.179734731063776,-4.54022153793818,2.234723573116962,8.783859736485198,-0.8947938457207341,8.498882952748307,-0.9125694136860194,0.38121696000000005,0.15935174666666668,-0.23723953333333336,0.77780824,0.4764472121164914,0.7334761561681256,0.7305100983588173,0.7378051316987204
LBP06_S04,LBP06,-1518,133,4,132,-1518,1716322614.28,2024-05-21 20:16:54.280000+00:00,2024-05-22 05:16:54.280000+09:00,2024,5,21,20,16,54,280,,,,,,,,,0.47583,-0.168701,1.101807,-46.813965,8.850098,10.742188,,,,,,,,,,,0.0,1.0,1.0,4.0,0.0,0.0,0.0,10.0,0.0,0.2451400133333333,-0.30804364,0.96763352,2.550455733333333,-0.5273437333333338,0.34261065333333346,-11.79490712519625,-2.1459604394476224,5.079173615057262,-7.651531016071625,-4.626059955516085,2.4378905177192527,9.267667871601843,-0.8902455014874665,8.71637500932249,-0.9121856889498613,0.23068998666666668,0.13934264000000002,0.13417347999999996,0.5042061066666667,0.3010594027858071,0.6976500167716521,0.7291511052369409,0.7286657064505347
LBP06_S04,LBP06,-1517,134,4,133,-1517,1716322614.32,2024-05-21 20:16:54.320000+00:00,2024-05-22 05:16:54.320000+09:00,2024,5,21,20,16,54,320,,,,,,,,,0.202637,-0.74585,1.628906,-130.92041,1.220703,8.300781,,,,,,,,,,,0.0,1.0,1.0,4.0,0.0,0.0,0.0,10.0,0.0,0.24178064000000002,-0.3136295866666667,0.9833496666666668,3.1005859466666665,1.438802093333333,0.3833007600000001,-7.9682515075194,-1.027668440925189,6.2410520124645235,-7.9702610763724016,-4.667166693153092,2.6875325982178335,9.619269100804802,-0.9047934963135938,8.870715076730393,-0.9114506158204652,-0.03914364000000001,-0.43222041333333333,0.6455563333333332,1.1169203866666666,0.7778751119307422,0.6976225773182627,0.7269157026754364,0.7288027393112542
LBP06_S04,LBP06,-1516,135,4,134,-1516,1716322614.36,2024-05-21 20:16:54.360000+00:00,2024-05-22 05:16:54.360000+09:00,2024,5,21,20,16,54,360,,,,,,,,,0.138184,-0.639893,1.669922,25.390625,-16.052246,-23.132324,,,,,,,,,,,0.0,1.0,1.0,4.0,0.0,0.0,0.0,10.0,0.0,0.23939132000000002,-0.3189258133333333,0.9910514800000001,2.799479173333333,2.298177093333333,1.0091145733333333,-1.8566580122918714,-0.1267812478686613,6.404423588222341,-8.044527396864076,-4.672237943067839,2.943709541746727,9.757543456306522,-0.9168295848881854,8.94178231236881,-0.9082096653220215,-0.10120732000000002,-0.32096718666666674,0.6788705199999998,1.1010450266666667,0.7577123725156977,0.7083650541382035,0.722231613233641,0.7312548045136614
LBP06_S04,LBP06,-1515,136,4,135,-1515,1716322614.4,2024-05-21 20:16:54.400000+00:00,2024-05-22 05:16:54.400000+09:00,2024,5,21,20,16,54,400,,,,,,,,,0.346191,-0.556885,1.359863,79.772949,106.140137,19.65332,,,,,,,,,,,0.0,1.0,1.0,4.0,0.0,0.0,0.0,10.0,0.0,0.23239587999999997,-0.31095056000000004,0.9748796000000001,4.536132813333333,4.580891946666665,1.8709309733333335,5.368384443199036,0.3222744289690187,5.606088618771681,-7.829792019136114,-4.659346965909078,3.167953086497594,9.646298977841365,-0.9189718800792337,8.914603003991783,-0.9052316481050072,0.11379512000000006,-0.24593443999999992,0.3849834,0.74471296,0.4707922008588162,0.706235286381718,0.7275050654626637,0.7304091751915274
LBP06_S04,LBP06,-1514,137,4,136,-1514,1716322614.44,2024-05-21 20:16:54.440000+00:00,2024-05-22 05:16:54.440000+09:00,2024,5,21,20,16,54,440,,,,,,,,,-0.399414,0.033936,-0.273682,62.5,116.516113,41.381836,,,,,,,,,,,0.0,1.0,1.0,4.0,0.0,0.0,0.0,10.0,0.0,0.2273893733333333,-0.30078129333333337,0.9533008266666665,3.9737955733333337,4.122721373333333,2.05240884,12.231337130221501,0.39127874521738354,4.071682586383472,-7.340538533927254,-4.643695816100383,3.330820389952933,9.302783522724008,-0.9139273450354495,8.780687517713329,-0.9042538753568558,-0.6268033733333334,0.3347172933333334,-1.2269828266666665,2.188503493333333,1.4178875104229396,0.7399760880915863,0.7278124762647549,0.7363456919899801
LBP06_S04,LBP06,-1513,138,4,137,-1513,1716322614.48,2024-05-21 20:16:54.480000+00:00,2024-05-22 05:16:54.480000+09:00,2024,5,21,20,16,54,480,,,,,,,,,0.085449,0.022705,0.220459,3.78418,-55.175781,2.319336,,,,,,,,,,,0.0,1.0,1.0,4.0,0.0,0.0,0.0,10.0,0.0,0.22168623999999998,-0.29629886666666666,0.9391634533333335,2.9402669199999996,1.168619813333333,1.6951497333333334,17.42539788755836,0.4819305089214747,2.1739914901049744,-6.643522618424919,-4.624418595743524,3.417780049557132,8.7865158394743,-0.9186773330776604,8.540457241829357,-0.9065845013456642,-0.13623723999999998,0.31900386666666664,-0.7187044533333335,1.1739455600000002,0.7980351770143143,0.7358893097928433,0.7317506173963223,0.7331408942618087
LBP06_S04,LBP06,-1512,139,4,138,-1512,1716322614.52,2024-05-21 20:16:54.520000+00:00,2024-05-22 05:16:54.520000+09:00,2024,5,21,20,16,54,520,,,,,,,,,0.317139,-0.18042,0.539551,22.766113,-150.146484,-22.277832,,,,,,,,,,,0.0,1.0,1.0,4.0,0.0,0.0,0.0,10.0,0.0,0.23800134666666664,-0.3006543333333333,0.9564193066666666,1.380208333333333,-2.3722330533333333,1.06363932,20.160357375240498,1.0924193830537103,0.3408100273062916,-5.8371083234153,-4.580721820421376,3.431412450649384,8.174927362480984,-0.8928652947963519,8.20568940262898,-0.9086823779978793,0.07913765333333336,0.1202343333333333,-0.41686830666666663,0.6162402933333333,0.44101955533780124,0.7193145100264781,0.7288971787969948,0.735400942330765
LBP06_S04,LBP06,-1511,140,4,139,-1511,1716322614.56,2024-05-21 20:16:54.560000+00:00,2024-05-22 05:16:54.560000+09:00,2024,5,21,20,16,54,560,,,,,,,,,0.666016,-0.012695,0.872803,50.964355,-29.296875,-17.39502,,,,,,,,,,,0.0,1.0,1.0,4.0,0.0,0.0,0.0,10.0,0.0,0.2423763466666667,-0.30232425333333335,0.9698861066666667,0.7218424533333329,-1.5869140400000001,1.4591471333333335,20.280652327680528,2.460883659482572,-1.0744250482693098,-5.025882230308079,-4.4822864740420725,3.3884354487186115,7.538692129172004,-0.8871550943448383,7.799524526516665,-0.9089721438468347,0.42363965333333337,0.28962925333333334,-0.09708310666666675,0.8103520133333334,0.5222842041100444,0.7177886587419274,0.7313384311567426,0.7236904745257081
LBP06_S04,LBP06,-1510,141,4,140,-1510,1716322614.6,2024-05-21 20:16:54.600000+00:00,2024-05-22 05:16:54.600000+09:00,2024,5,21,20,16,54,600,,,,,,,,,0.339355,-0.751709,1.569092,-117.431641,21.850586,6.103516,,,,,,,,,,,0.0,1.0,1.0,4.0,0.0,0.0,0.0,10.0,0.0,0.24010421333333334,-0.31101565333333336,0.98279952,-0.1448567600000003,-0.1253254933333335,1.4306640666666668,18.17809561585101,4.334038224411263,-1.911133154329444,-4.298758405674038,-4.3089249450656215,3.3119901225454336,6.929317180242255,-0.9042793778250452,7.3525470918215365,-0.9084620122763273,0.09925078666666667,-0.4406933466666666,0.5862924799999999,1.126236613333333,0.7401352690925959,0.7104208776807879,0.7296800553316914,0.724311585229363
LBP06_S04,LBP06,-1509,142,4,141,-1509,1716322614.64,2024-05-21 20:16:54.640000+00:00,2024-05-22 05:16:54.640000+09:00,2024,5,21,20,16,54,640,,,,,,,,,0.175293,-0.747314,1.700439,90.759277,12.756348,-40.527344,,,,,,,,,,,0.0,1.0,1.0,4.0,0.0,0.0,0.0,10.0,0.0,0.23698246666666667,-0.31650718666666666,0.9903906666666665,0.9724934933333331,-0.31982420000000017,1.0913086,14.599970528013412,6.038107972992687,-2.2505335052987103,-3.7147595845535015,-4.067400626145914,3.221968782333485,6.381556977645486,-0.9181001056088154,6.896115645721264,-0.9055187023422857,-0.061689466666666665,-0.43080681333333337,0.7100483333333335,1.2025446133333335,0.8328077427482792,0.7212297335144601,0.7255073972769928,0.7312929270473107
LBP06_S04,LBP06,-1508,143,4,142,-1508,1716322614.68,2024-05-21 20:16:54.680000+00:00,2024-05-22 05:16:54.680000+09:00,2024,5,21,20,16,54,680,,,,,,,,,0.547119,-0.492432,1.877197,5.249023,43.884277,10.192871,,,,,,,,,,,0.0,1.0,1.0,4.0,0.0,0.0,0.0,10.0,0.0,0.23414392,-0.30783530666666664,0.9804199599999999,2.219238293333333,1.1710612133333334,1.6333007866666667,10.452681577796993,6.824867724609852,-2.3633726697565423,-3.2966523214416217,-3.79440591716152,3.127433875543223,5.919989479598092,-0.9112242680096202,6.456043226377476,-0.9020248026895507,0.31297508,-0.18459669333333334,0.8967770400000001,1.3943488133333335,0.9675941294580952,0.736678037754885,0.7396101390176807,0.7411907667067933
LBP06_S04,LBP06,-1507,144,4,143,-1507,1716322614.72,2024-05-21 20:16:54.720000+00:00,2024-05-22 05:16:54.720000+09:00,2024,5,21,20,16,54,720,,,,,,,,,-0.273926,-0.146729,0.267578,46.75293,179.56543,48.706055,,,,,,,,,,,0.0,1.0,1.0,4.0,0.0,0.0,0.0,10.0,0.0,0.22871098666666664,-0.29832685333333336,0.9550488666666669,1.798502613333333,1.66503908,2.1484374933333332,6.643079073169129,6.284701798128171,-2.573195729681043,-3.0309291585148563,-3.543017845236393,3.0245060463559814,5.557620339681634,-0.9076911548031469,6.049501514341051,-0.8986365975805072,-0.5026369866666667,0.15159785333333337,-0.6874708666666669,1.3417057066666669,0.8650098508202319,0.748205637952736,0.7281551202875778,0.7437575838658558
LBP06_S04,LBP06,-1506,145,4,144,-1506,1716322614.76,2024-05-21 20:16:54.760000+00:00,2024-05-22 05:16:54.760000+09:00,2024,5,21,20,16,54,760,,,,,,,,,0.029053,0.090332,0.164551,8.728027,-30.273438,-11.474609,,,,,,,,,,,0.0,1.0,1.0,4.0,0.0,0.0,0.0,10.0,0.0,0.2226660533333333,-0.29304689333333334,0.9350391066666667,1.1873372399999995,-0.13916013333333335,1.9466145733333333,3.9369556486471042,4.574195798639985,-3.096076328750807,-2.8734509325689723,-3.3600500132907936,2.900662993205949,5.287769109355235,-0.9117282691831112,5.686127118354795,-0.900137102929828,-0.1936130533333333,0.3833788933333333,-0.7704881066666667,1.3474800533333333,0.8821095809418081,0.7473046614255088,0.7332738844105409,0.7420567128843504
LBP06_S04,LBP06,-1505,146,4,145,-1505,1716322614.8,2024-05-21 20:16:54.800000+00:00,2024-05-22 05:16:54.800000+09:00,2024,5,21,20,16,54,800,,,,,,,,,0.030029,-0.117188,0.446045,-4.943848,-85.9375,-0.12207,,,,,,,,,,,0.0,1.0,1.0,4.0,0.0,0.0,0.0,10.0,0.0,0.23386072,-0.2931868666666667,0.9434115066666667,0.6681315066666663,-3.9550780933333334,1.1889648400000004,2.8041197125636748,2.316387906056387,-3.932690696231345,-2.761286144066425,-3.2673944970485382,2.7433553653566953,5.08198451683864,-0.8895387807388188,5.371773923967568,-0.9021888572023556,-0.20383172,0.1759988666666667,-0.4973665066666667,0.8771970933333334,0.5655938587890722,0.7301370521041626,0.735611356800755,0.741715599340506
LBP06_S04,LBP06,-1504,147,4,146,-1504,1716322614.84,2024-05-21 20:16:54.840000+00:00,2024-05-22 05:16:54.840000+09:00,2024,5,21,20,16,54,840,,,,,,,,,0.880859,-0.243652,0.905029,-41.809082,-118.713379,-13.427734,,,,,,,,,,,0.0,1.0,1.0,4.0,0.0,0.0,0.0,10.0,0.0,0.23990563999999998,-0.29389976,0.95278,0.9659830799999998,-3.32438148,1.0506184933333336,3.269028156743035,0.23878421416704088,-4.8609391455227176,-2.6305250177967037,-3.2578431284818565,2.548917799535787,4.902059329286127,-0.8789883485080975,5.11156718687048,-0.9028494067313743,0.6409533599999999,0.05024776,-0.04775099999999999,0.7389521199999999,0.6446907825316778,0.7458224498794818,0.7395018946348517,0.7320147057609444
LBP06_S04,LBP06,-1503,148,4,147,-1503,1716322614.88,2024-05-21 20:16:54.880000+00:00,2024-05-22 05:16:54.880000+09:00,2024,5,21,20,16,54,880,,,,,,,,,0.538086,-0.487793,1.434326,-86.853027,36.376953,-3.356934,,,,,,,,,,,0.0,1.0,1.0,4.0,0.0,0.0,0.0,10.0,0.0,0.24227542666666668,-0.30065430666666665,0.9646354666666666,-1.243489586666667,-1.6162109066666666,1.23291016,4.846278824272821,-1.2126579630243957,-5.523680998408865,-2.436673864825791,-3.3063494470028325,2.327970559599432,4.7210987191100635,-0.8847952819872279,4.909781253961613,-0.9020775317448481,0.29581057333333327,-0.18713869333333333,0.46969053333333344,0.9526398,0.5857763932946205,0.7200310483992318,0.7331094003739064,0.728880883598127
LBP06_S04,LBP06,-1502,149,4,148,-1502,1716322614.92,2024-05-21 20:16:54.920000+00:00,2024-05-22 05:16:54.920000+09:00,2024,5,21,20,16,54,920,,,,,,,,,0.168213,-0.887451,1.725586,61.645508,-4.089355,-35.400391,,,,,,,,,,,0.0,1.0,1.0,4.0,0.0,0.0,0.0,10.0,0.0,0.23417646666666664,-0.3056673333333333,0.9706087733333334,-0.1285807333333338,-0.8211262666666667,0.9122721466666669,6.650364463276345,-2.037836993786052,-5.56271686869293,-2.170659286294737,-3.387862926754275,2.105461884851715,4.5411834026184135,-0.9078703482895595,4.767496117383276,-0.9009895780888311,-0.06596346666666664,-0.5817836666666667,0.7549772266666667,1.4027243600000001,0.9554130135810832,0.7308540559113523,0.7380244583847454,0.7329206642133603
LBP06_S04,LBP06,-1501,150,4,149,-1501,1716322614.96,2024-05-21 20:16:54.960000+00:00,2024-05-22 05:16:54.960000+09:00,2024,5,21,20,16,54,960,,,,,,,,,0.484131,-0.437256,1.860352,54.6875,-28.076172,-20.507812,,,,,,,,,,,0.0,1.0,1.0,4.0,0.0,0.0,0.0,10.0,0.0,0.23441734666666672,-0.30586916,0.96960292,1.5299479066666664,-0.3377278266666666,1.3354492266666669,7.698801655394424,-2.5422640453601377,-4.738404430736249,-1.8627072200789598,-3.4895534885686805,1.915925707622265,4.395160185299736,-0.9076726370701125,4.681162533170784,-0.8989617647622229,0.24971365333333326,-0.13138684,0.89074908,1.2718495733333333,0.9343732305171805,0.7430868937767997,0.7450026221602561,0.7386461437200186
LBP06_S04,LBP06,-1500,151,4,150,-1500,1716322615.0,2024-05-21 20:16:55+00:00,2024-05-22 05:16:55+09:00,2024,5,21,20,16,55,0,20.0,16.0,54.0,40.549362,141.568939,40.832001,3.0,6.0,-0.064697,-0.237549,0.806152,48.583984,189.880371,46.691895,-572.0,42.0,548.0,0.0,0.0,1029.300049,14.85,0.16153,-132.700806,3.635156,0.0,1.0,1.0,4.0,0.0,0.0,0.0,5.0,0.0,0.22609702666666667,-0.29706056,0.94401372,1.731770813333333,1.49902348,2.2713216266666665,7.3084250850821615,-3.013131743689795,-2.992967229015869,-1.5703702166756734,-3.6100787583162726,1.7962070184616303,4.327249809271379,-0.9108848731152327,4.643679744612491,-0.8956828342560093,-0.29079402666666665,0.05951155999999996,-0.13786171999999997,0.4881673066666666,0.3272745721256175,0.7393072147420271,0.7232633154877489,0.7363020234916108
LBP06_S04,LBP06,-1499,152,4,151,-1499,1716322615.04,2024-05-21 20:16:55.040000+00:00,2024-05-22 05:16:55.040000+09:00,2024,5,21,20,16,55,40,,,,,,,,,-0.154541,0.174316,-0.222168,17.822266,17.272949,2.13623,,,,,,,,,,,0.0,1.0,1.0,4.0,0.0,0.0,0.0,5.0,0.0,0.21945965333333334,-0.28794273333333337,0.9218782933333334,2.150065093333333,0.48014327999999995,2.23225912,5.402595002039161,-3.4434737343455963,-0.4523769639338386,-1.354266416594107,-3.7478177076900963,1.7781119399042769,4.363697648556811,-0.9103813557435543,4.647007700067187,-0.8975772086713663,-0.3740006533333333,0.46225873333333334,-1.1440462933333333,1.9803056799999998,1.2893415166380229,0.7561298505661513,0.7334075747772818,0.7404747417232739
LBP06_S04,LBP06,-1498,153,4,152,-1498,1716322615.08,2024-05-21 20:16:55.080000+00:00,2024-05-22 05:16:55.080000+09:00,2024,5,21,20,16,55,80,,,,,,,,,0.037598,-0.114258,0.318604,10.437012,-71.228027,-16.540527,,,,,,,,,,,0.0,1.0,1.0,4.0,0.0,0.0,0.0,5.0,0.0,0.22293946666666667,-0.2861491066666667,0.91923832,1.6691080666666664,-3.36669916,1.2931315200000002,2.571419472903653,-3.4991944037943723,2.6066663120900952,-1.2514096376779609,-3.887785483841871,1.8823785923878806,4.497138113814722,-0.9003447314494478,4.684385118206892,-0.9007809423318346,-0.18534146666666668,0.1718911066666667,-0.60063432,0.9578668933333334,0.6516591119435874,0.7406243751221904,0.7398795535208015,0.7368137265403253
LBP06_S04,LBP06,-1497,154,4,153,-1497,1716322615.12,2024-05-21 20:16:55.120000+00:00,2024-05-22 05:16:55.120000+09:00,2024,5,21,20,16,55,120,,,,,,,,,0.763672,-0.106689,0.760498,10.681152,-132.995605,-4.272461,,,,,,,,,,,0.0,1.0,1.0,4.0,0.0,0.0,0.0,5.0,0.0,0.23250326666666665,-0.29019532000000003,0.92858076,0.9676106666666664,-4.2545572400000005,1.3020833466666668,-0.15644930255165002,-2.7571544355091615,5.796483996488032,-1.2576676097800268,-3.9980716612622373,2.114237952247402,4.694284497556713,-0.8874130215370666,4.750711550716915,-0.9029986259866811,0.5311687333333334,0.18350632000000003,-0.16808276,0.8827578133333334,0.5865719111584681,0.7580238273582386,0.7420502181133368,0.7359001448358614
LBP06_S04,LBP06,-1496,155,4,154,-1496,1716322615.16,2024-05-21 20:16:55.160000+00:00,2024-05-22 05:16:55.160000+09:00,2024,5,21,20,16,55,160,,,,,,,,,0.530518,-0.046875,1.131348,-75.439453,-0.976562,18.676758,,,,,,,,,,,0.0,1.0,1.0,4.0,0.0,0.0,0.0,5.0,0.0,0.23870443999999996,-0.2924967466666667,0.9372558933333333,0.04069009333333317,-3.046061146666667,1.74641928,-1.735696953203326,-1.0457141592194992,8.661402328484803,-1.3270954879081598,-4.039900227631017,2.460694045386794,4.912941223772311,-0.8789389641209754,4.840846534726132,-0.9036666337805576,0.2918135600000001,0.2456217466666667,0.19409210666666676,0.7315274133333336,0.42796838914312657,0.7213277256185288,0.733760629781094,0.7262397255766461
LBP06_S04,LBP06,-1495,156,4,155,-1495,1716322615.2,2024-05-21 20:16:55.200000+00:00,2024-05-22 05:16:55.200000+09:00,2024,5,21,20,16,55,200,,,,,,,,,0.177979,-1.02417,1.821045,-103.088379,6.286621,1.220703,,,,,,,,,,,0.0,1.0,1.0,4.0,0.0,0.0,0.0,5.0,0.0,0.23135744000000003,-0.30256836000000004,0.946071,0.11555989333333325,-2.028808546666667,1.4583333466666666,-1.532659123028293,1.3587621624192068,10.739396283881334,-1.3884018528292916,-3.9855497411342493,2.8902698967420473,5.1152640713855995,-0.908482524892388,4.947251894688629,-0.9035440440066955,-0.05337844000000003,-0.72160164,0.874974,1.64995408,1.1354019928569457,0.7341933637093225,0.7403026418504524,0.732721740891796
LBP06_S04,LBP06,-1494,157,4,156,-1494,1716322615.24,2024-05-21 20:16:55.240000+00:00,2024-05-22 05:16:55.240000+09:00,2024,5,21,20,16,55,240,,,,,,,,,0.30127,-0.487793,1.766846,26.733398,-4.638672,-3.601074,,,,,,,,,,,0.0,1.0,1.0,4.0,0.0,0.0,0.0,5.0,0.0,0.22888998666666666,-0.30093750666666663,0.9468457466666667,2.2298177066666667,-1.8277994400000004,0.9993489733333335,0.4383232016213395,3.8192879387182934,11.651493805014548,-1.3708689247644381,-3.8327782235855175,3.356329648942629,5.275833510683171,-0.9110256851127819,5.05950528027677,-0.9025283322934972,0.07238001333333333,-0.18685549333333334,0.8200002533333333,1.07923576,0.844129289377941,0.7489006467997806,0.741188401483953,0.7366402811724717
LBP06_S04,LBP06,-1493,158,4,157,-1493,1716322615.28,2024-05-21 20:16:55.280000+00:00,2024-05-22 05:16:55.280000+09:00,2024,5,21,20,16,55,280,,,,,,,,,0.214844,-0.520752,1.318359,70.983887,136.291504,29.47998,,,,,,,,,,,0.0,1.0,1.0,4.0,0.0,0.0,0.0,5.0,0.0,0.2275455866666667,-0.2964843866666667,0.9368880666666667,2.4682617199999997,0.1912435333333328,1.7415364800000002,3.5788158752378703,5.649031058043717,11.206654321885372,-1.2277162897549232,-3.6068169812637687,3.804595821818044,5.384363044210299,-0.906972118535692,5.167036261797743,-0.900251293179878,-0.012701586666666681,-0.22426761333333328,0.3814709333333334,0.6184401333333334,0.4426933088180629,0.754566003041071,0.7261080099063615,0.7376227378383177
LBP06_S04,LBP06,-1492,159,4,158,-1492,1716322615.32,2024-05-21 20:16:55.320000+00:00,2024-05-22 05:16:55.320000+09:00,2024,5,21,20,16,55,320,,,,,,,,,-0.388672,0.009033,-0.212158,64.880371,80.383301,40.83252,,,,,,,,,,,0.0,1.0,1.0,4.0,0.0,0.0,0.0,5.0,0.0,0.21691081333333329,-0.28732424,0.9096322,2.740885413333333,0.8463542133333328,1.9596354400000002,7.0173854530507676,6.440166041410758,9.488849809844083,-0.9470208716328925,-3.3492103396073385,4.184149814211807,5.442533242710579,-0.9145504262283248,5.263413745303518,-0.8996489715440577,-0.6055828133333333,0.29635724,-1.1217902,2.0237302533333335,1.3088053370616932,0.7758032120463089,0.7367128946822858,0.7432115391323939
LBP06_S04,LBP06,-1491,160,4,159,-1491,1716322615.36,2024-05-21 20:16:55.360000+00:00,2024-05-22 05:16:55.360000+09:00,2024,5,21,20,16,55,360,,,,,,,,,0.115723,-0.067871,0.293213,5.310059,-59.082031,23.4375,,,,,,,,,,,0.0,1.0,1.0,4.0,0.0,0.0,0.0,5.0,0.0,0.21710286666666667,-0.28245118666666663,0.9013607066666667,2.9199218666666664,-2.089843706666667,1.1303711200000002,9.98183340618152,6.203434963372459,6.881495823580315,-0.5477475353856317,-3.1010729410724402,4.459409647155019,5.459213784924708,-0.90644673933149,5.349064056195117,-0.9020945614012751,-0.10137986666666667,0.21458018666666662,-0.6081477066666667,0.9241077600000001,0.652814037072717,0.7716072786285896,0.7399861663833965,0.7386901683652907
LBP06_S04,LBP06,-1490,161,4,160,-1490,1716322615.4,2024-05-21 20:16:55.400000+00:00,2024-05-22 05:16:55.400000+09:00,2024,5,21,20,16,55,400,,,,,,,,,0.429199,0.010986,0.699951,13.916016,-130.79834,-29.11377,,,,,,,,,,,0.0,1.0,1.0,4.0,0.0,0.0,0.0,5.0,0.0,0.2244791733333333,-0.28856771999999997,0.9088704666666668,0.4199218666666665,-4.425455680000001,1.8432617466666665,12.037911999337952,5.249008210228786,3.995339724269288,-0.0662310554121136,-2.8911126126632887,4.619223236125791,5.44978366515279,-0.9007277559832486,5.4309671236890615,-0.903502285135193,0.2047198266666667,0.29955371999999997,-0.20891946666666683,0.7131930133333335,0.4186764647655191,0.7695226491848578,0.7378789677832878,0.741510926703395
LBP06_S04,LBP06,-1489,162,4,161,-1489,1716322615.44,2024-05-21 20:16:55.440000+00:00,2024-05-22 05:16:55.440000+09:00,2024,5,21,20,16,55,440,,,,,,,,,0.625732,-0.185303,1.17627,-0.488281,7.385254,-1.953125,,,,,,,,,,,0.0,1.0,1.0,4.0,0.0,0.0,0.0,5.0,0.0,0.23037434666666665,-0.2877148533333333,0.9153580933333334,1.7317708266666667,-3.1787108933333337,1.3582357066666668,13.110910397358653,3.9263624553677126,1.5070687263978497,0.4582053604822325,-2.73405811444858,4.679505985181705,5.439007463766544,-0.8876109646073651,5.520043251624512,-0.9022976025845741,0.3953576533333333,0.1024118533333333,0.2609119066666665,0.758681413333333,0.48463479527665326,0.7321925405790064,0.7360843143352963,0.7292724977028388
LBP06_S04,LBP06,-1488,163,4,162,-1488,1716322615.48,2024-05-21 20:16:55.480000+00:00,2024-05-22 05:16:55.480000+09:00,2024,5,21,20,16,55,480,,,,,,,,,0.102539,-0.801758,1.584473,-73.120117,30.578613,-17.883301,,,,,,,,,,,0.0,1.0,1.0,4.0,0.0,0.0,0.0,5.0,0.0,0.22359374666666668,-0.2831478,0.9202506666666667,1.4957682266666665,-1.3899739200000008,1.7879232133333334,13.343827470603205,2.433160896286714,-0.03350609120932331,0.9919584593063607,-2.6367316785971116,4.6781657415333315,5.460912948872477,-0.8943215150912438,5.627725995943577,-0.900329104812782,-0.12105474666666667,-0.5186101999999999,0.6642223333333334,1.30388728,0.8513530990918801,0.734325257462109,0.7351072836274761,0.7326088307515846
LBP06_S04,LBP06,-1487,164,4,163,-1487,1716322615.52,2024-05-21 20:16:55.520000+00:00,2024-05-22 05:16:55.520000+09:00,2024,5,21,20,16,55,520,,,,,,,,,0.281982,-0.605469,1.763184,36.682129,-18.920898,-25.32959,,,,,,,,,,,0.0,1.0,1.0,4.0,0.0,0.0,0.0,5.0,0.0,0.22226236,-0.29269208,0.9266797066666667,0.3564453066666666,-2.4536132400000006,1.4347331066666666,12.920752806080243,0.8247329056315649,-0.3476315821967883,1.5087885715495704,-2.603742362371849,4.66426047824546,5.5507876064726975,-0.9118689201092419,5.763144500827367,-0.8976101880359042,0.05971964000000002,-0.31277692,0.8365042933333334,1.2090008533333334,0.8950616011490581,0.7524869392945592,0.7359007246605187,0.7367604322961829
LBP06_S04,LBP06,-1486,165,4,164,-1486,1716322615.56,2024-05-21 20:16:55.560000+00:00,2024-05-22 05:16:55.560000+09:00,2024,5,21,20,16,55,560,,,,,,,,,0.278809,-0.509766,1.437256,23.193359,81.176758,20.202637,,,,,,,,,,,0.0,1.0,1.0,4.0,0.0,0.0,0.0,5.0,0.0,0.22600910666666668,-0.28542970666666667,0.9244173333333333,0.8439127599999999,-1.785481720000001,1.98811852,11.966593838632656,-0.8173784327238042,0.5331813948287059,1.9874523250948766,-2.636437499680801,4.685587734038608,5.7319718987117545,-0.893016201460154,5.931884286260534,-0.8923253833096201,0.05279989333333329,-0.22433629333333338,0.5128386666666668,0.7899748533333335,0.5622438076768791,0.7540853234372326,0.7359369910895801,0.7389207285835726
LBP06_S04,LBP06,-1485,166,4,165,-1485,1716322615.6,2024-05-21 20:16:55.600000+00:00,2024-05-22 05:16:55.600000+09:00,2024,5,21,20,16,55,600,,,,,,,,,-0.34082,0.069336,-0.284912,91.308594,117.248535,32.958984,,,,,,,,,,,0.0,1.0,1.0,4.0,0.0,0.0,0.0,5.0,0.0,0.21924153333333332,-0.2789192933333333,0.9058821733333334,0.22216797333333327,0.8194987466666659,3.1184896133333337,10.5501751052408,-2.225568284382955,2.3349712831416083,2.4094593293045086,-2.725460231056119,4.778986585364272,6.006025350740095,-0.8964356993861985,6.136288815497179,-0.8882436017922108,-0.5600615333333333,0.3482552933333333,-1.1907941733333334,2.0991109999999997,1.3612279139435053,0.7789290292312689,0.7446749534560284,0.746096379964884
LBP06_S04,LBP06,-1484,167,4,166,-1484,1716322615.64,2024-05-21 20:16:55.640000+00:00,2024-05-22 05:16:55.640000+09:00,2024,5,21,20,16,55,640,,,,,,,,,0.056641,0.126953,0.178711,-17.76123,-51.879883,22.155762,,,,,,,,,,,0.0,1.0,1.0,4.0,0.0,0.0,0.0,5.0,0.0,0.21660156,-0.27246746666666666,0.8915494933333334,-0.04801430666666669,-1.1417642800000005,2.8027344133333334,8.733188634404561,-2.9627290424977746,4.665463517585151,2.758786874680691,-2.84396939275603,4.965605126067678,6.35266095387383,-0.8913407073948622,6.3761545514502265,-0.886948041347609,-0.15996056,0.39942046666666664,-0.7128384933333334,1.2722195200000002,0.8326240493316706,0.7789216814946047,0.7500757075045322,0.7433121586828635
LBP06_S04,LBP06,-1483,168,4,167,-1483,1716322615.68,2024-05-21 20:16:55.680000+00:00,2024-05-22 05:16:55.680000+09:00,2024,5,21,20,16,55,680,,,,,,,,,0.239746,-0.226562,0.402344,-68.237305,-149.108887,-8.972168,,,,,,,,,,,0.0,1.0,1.0,4.0,0.0,0.0,0.0,5.0,0.0,0.22388019999999997,-0.27465495999999995,0.89995444,-1.2882486933333333,-2.8727213200000006,2.2753906666666666,6.589607925489552,-2.659470919810561,7.124747448904249,3.022371191700273,-2.950348229548452,5.250595024023848,6.738548093048191,-0.8797829507669129,6.648707081532812,-0.8858273653913716,0.015865800000000013,0.048092959999999935,-0.49761044000000004,0.5615692,0.5001807737290541,0.760225147265443,0.7484515925101641,0.7464818084336015
LBP06_S04,LBP06,-1482,169,4,168,-1482,1716322615.72,2024-05-21 20:16:55.720000+00:00,2024-05-22 05:16:55.720000+09:00,2024,5,21,20,16,55,720,,,,,,,,,0.699219,-0.118408,0.941895,102.661133,-33.752441,-19.714355,,,,,,,,,,,0.0,1.0,1.0,4.0,0.0,0.0,0.0,5.0,0.0,0.23301432,-0.27486003999999997,0.9076106933333333,-0.48339844,-3.299153613333334,1.4827474400000002,4.174367576001806,-1.3381442155859726,9.360360433382931,3.1893458947403452,-3.003873998171891,5.625009441359166,7.1299310970422445,-0.8617023789654834,6.948189996232694,-0.8832632433340308,0.46620468000000004,0.15645203999999996,0.03428430666666671,0.6569410266666666,0.4929497521631166,0.7453427433191584,0.7467741906359471,0.7338843279647713
LBP06_S04,LBP06,-1481,170,4,169,-1481,1716322615.76,2024-05-21 20:16:55.760000+00:00,2024-05-22 05:16:55.760000+09:00,2024,5,21,20,16,55,760,,,,,,,,,0.406006,-0.368408,1.489258,-120.239258,1.220703,30.517578,,,,,,,,,,,0.0,1.0,1.0,4.0,0.0,0.0,0.0,5.0,0.0,0.23050130666666666,-0.27415690666666664,0.9122721466666667,-0.9847005200000001,-1.4127603866666671,1.3582357200000001,1.4829888040263672,0.414684032512199,11.075926091247238,3.2486654469014,-2.987286636871403,6.068046485009055,7.503259077291165,-0.865628924157399,7.266566299946058,-0.8795661046958132,0.17550469333333332,-0.09425109333333337,0.5769858533333333,0.84674164,0.6104079299315752,0.734474677278749,0.740889669352129,0.7336741486999436
LBP06_S04,LBP06,-1480,171,4,170,-1480,1716322615.8,2024-05-21 20:16:55.800000+00:00,2024-05-22 05:16:55.800000+09:00,2024,5,21,20,16,55,800,,,,,,,,,0.316406,-0.680176,1.831299,50.048828,1.953125,-26.489258,,,,,,,,,,,0.0,1.0,1.0,4.0,0.0,0.0,0.0,5.0,0.0,0.22838868,-0.28521485333333335,0.9194466266666668,-1.3492838533333333,-1.564941386666667,0.8146159200000002,-1.542362764661104,1.596337544567697,12.03410720014028,3.1869709363149554,-2.923433135088695,6.5494107730146665,7.848441024683266,-0.8877721515372284,7.595954759957638,-0.8763017247254863,0.08801732000000001,-0.39496114666666665,0.9118523733333332,1.39483084,0.9976051858074231,0.7517551303594832,0.7409460912318228,0.7409926146536644
LBP06_S04,LBP06,-1479,172,4,171,-1479,1716322615.84,2024-05-21 20:16:55.840000+00:00,2024-05-22 05:16:55.840000+09:00,2024,5,21,20,16,55,840,,,,,,,,,0.327637,-0.342529,1.585693,-7.385254,60.546875,37.719727,,,,,,,,,,,0.0,1.0,1.0,4.0,0.0,0.0,0.0,5.0,0.0,0.22990234666666665,-0.2799772133333333,0.9189518400000001,0.90576172,-1.735839826666667,0.5216471733333334,-4.939453850446403,1.222915406725974,12.084739562070771,2.989392782297099,-2.874516518819656,7.032800355497497,8.164532764592398,-0.8764042050449931,7.931279384339372,-0.8727046167525554,0.09773465333333337,-0.06255178666666666,0.6667411599999999,0.8270276,0.6767632990311491,0.753038031019462,0.7494302404494719,0.7440139400963884
LBP06_S04,LBP06,-1478,173,4,172,-1478,1716322615.88,2024-05-21 20:16:55.880000+00:00,2024-05-22 05:16:55.880000+09:00,2024,5,21,20,16,55,880,,,,,,,,,-0.235596,-0.324219,0.450195,24.597168,176.086426,52.856445,,,,,,,,,,,0.0,1.0,1.0,4.0,0.0,0.0,0.0,5.0,0.0,0.23186522666666667,-0.2776757733333333,0.9139518400000001,0.9781901066666666,-0.30192056000000056,1.3045247733333334,-8.615994457322092,-1.1735220148633791,11.212646354749618,2.6447530040042153,-2.9214573994141912,7.481306209687482,8.455742095871285,-0.8686802945178345,8.270994151193225,-0.8688279301257937,-0.4674612266666667,-0.04654322666666666,-0.46375684000000006,0.9777612933333334,0.6601186840500995,0.7560117226496811,0.7380213855244564,0.7407435077991646
LBP06_S04,LBP06,-1477,174,4,173,-1477,1716322615.92,2024-05-21 20:16:55.920000+00:00,2024-05-22 05:16:55.920000+09:00,2024,5,21,20,16,55,920,,,,,,,,,-0.027832,0.158691,0.013916,31.494141,-30.517578,-1.953125,,,,,,,,,,,0.0,1.0,1.0,4.0,0.0,0.0,0.0,5.0,0.0,0.22301757333333333,-0.2706770666666667,0.8924316666666667,0.4671223999999999,0.0675455866666664,1.6007487333333335,-12.273575254676096,-5.267686635403136,9.568178803252442,2.1538099938171715,-3.1321648648303166,7.8640333618175795,8.734550643606351,-0.8748975337270657,8.615572151009726,-0.8678680778477623,-0.25084957333333335,0.4293680666666667,-0.8785156666666667,1.5587333066666669,1.0094910706357756,0.7581748449318688,0.7445144504216104,0.7447412539004532
LBP06_S04,LBP06,-1476,175,4,174,-1476,1716322615.96,2024-05-21 20:16:55.960000+00:00,2024-05-22 05:16:55.960000+09:00,2024,5,21,20,16,55,960,,,,,,,,,0.010742,-0.043945,0.444824,-36.193848,-109.49707,-7.507324,,,,,,,,,,,0.0,1.0,1.0,4.0,0.0,0.0,0.0,5.0,0.0,0.22933918666666667,-0.26969400000000004,0.8986002933333332,0.7283528666666667,-1.6056314933333335,0.09847009333333347,-15.43508224701012,-10.054010804157631,7.442795897606399,1.5364067039367666,-3.534325296996622,8.161745197721835,9.025856498827551,-0.8603724017568862,8.965245253398484,-0.8691593697616611,-0.21859718666666667,0.22574900000000003,-0.45377629333333325,0.89812248,0.5519603839143901,0.7428783310677574,0.7429826124222784,0.7442945251294232
LBP06_S04,LBP06,-1475,176,4,175,-1475,1716322616.0,2024-05-21 20:16:56+00:00,2024-05-22 05:16:56+09:00,2024,5,21,20,16,56,0,20.0,16.0,55.0,40.54945,141.569046,41.553001,3.0,6.0,0.819824,-0.424316,0.984375,-65.002441,-125.732422,-13.73291,-577.0,41.0,549.0,0.0,0.0,1029.400024,14.91,0.16252,-133.522125,3.635156,0.0,1.0,1.0,4.0,0.0,0.0,0.0,5.0,0.0,0.22977863999999998,-0.27025389333333333,0.9020084933333333,1.1279296799999998,-2.3234049333333338,-0.24902339999999987,-17.590466607197165,-14.291530466760763,5.186063807130078,0.83278803964888,-4.105986515667053,8.369187750007038,9.35927159455744,-0.8604646196568887,9.31832754638224,-0.8687771465608982,0.59004536,-0.1540621066666667,0.08236650666666667,0.8264739733333334,0.6153640394015326,0.7544019097587937,0.7468545622504105,0.7336428469114306
LBP06_S04,LBP06,-1474,177,4,176,-1474,1716322616.04,2024-05-21 20:16:56.040000+00:00,2024-05-22 05:16:56.040000+09:00,2024,5,21,20,16,56,40,,,,,,,,,0.474609,-0.0625,1.253906,-32.165527,9.765625,16.784668,,,,,,,,,,,0.0,1.0,1.0,4.0,0.0,0.0,0.0,5.0,0.0,0.23467772,-0.27135089333333334,0.9078906533333333,0.8764648399999999,-0.6754557200000003,-0.3491210533333332,-18.395780648214018,-17.021251016067975,3.1019503427319957,0.09695681372031928,-4.786836556309772,8.493265763716318,9.749808622412345,-0.8525738411272459,9.670476096215388,-0.8675647241491653,0.23993128,0.20885089333333334,0.34601534666666667,0.79479752,0.4700131220481225,0.7216287739751978,0.7388793122706745,0.7294813078432537
LBP06_S04,LBP06,-1473,178,4,177,-1473,1716322616.08,2024-05-21 20:16:56.080000+00:00,2024-05-22 05:16:56.080000+09:00,2024,5,21,20,16,56,80,,,,,,,,,0.138672,-0.766357,1.655762,-64.453125,-31.005859,-8.789062,,,,,,,,,,,0.0,1.0,1.0,4.0,0.0,0.0,0.0,5.0,0.0,0.22997067999999998,-0.27625324,0.9155924666666666,-1.0017903600000002,-0.15869140000000034,-0.07405594666666655,-17.81318442648004,-17.87131386510778,1.3752645428958612,-0.6155705633388823,-5.501689110914083,8.548276345432152,10.184328091213226,-0.8701844279865981,10.014757143656077,-0.8662608076298272,-0.09129868,-0.49010375999999994,0.7401695333333334,1.3215719733333333,0.8924057836045015,0.7312586408416344,0.7359415079819124,0.7370059159610791
LBP06_S04,LBP06,-1472,179,4,178,-1472,1716322616.12,2024-05-21 20:16:56.120000+00:00,2024-05-22 05:16:56.120000+09:00,2024,5,21,20,16,56,120,,,,,,,,,0.400635,-0.555664,1.753418,39.489746,-20.629883,-20.446777,,,,,,,,,,,0.0,1.0,1.0,4.0,0.0,0.0,0.0,5.0,0.0,0.22881834666666667,-0.27752928,0.9173535333333332,0.26448567999999983,-0.8129882800000003,-0.5598957999999999,-16.106037104416004,-17.026505929216288,0.05761124548104632,-1.2598120475155223,-6.1827493480827345,8.550580795251394,10.62666212092982,-0.8746152981044703,10.34216760929485,-0.866084479431423,0.17181665333333335,-0.27813472000000006,0.8360644666666667,1.2860158400000001,0.8977102412553636,0.7437041740455101,0.7508640007018744,0.7426015367573946
LBP06_S04,LBP06,-1471,180,4,179,-1471,1716322616.16,2024-05-21 20:16:56.160000+00:00,2024-05-22 05:16:56.160000+09:00,2024,5,21,20,16,56,160,,,,,,,,,0.113525,-0.217773,0.861572,6.164551,136.901855,35.522461,,,,,,,,,,,0.0,1.0,1.0,4.0,0.0,0.0,0.0,5.0,0.0,0.23118488000000004,-0.27265624,0.9156673466666666,-0.04801432000000015,-0.28564453333333367,-0.11149085333333318,-13.690162737464206,-14.952910537491958,-0.8912252393950622,-1.8074185570140906,-6.780865769582412,8.514931785675591,11.034082007128726,-0.8618066921497722,10.64219318483512,-0.8635457781287845,-0.11765988000000004,0.05488324,-0.0540953466666666,0.22663846666666665,0.140649649574746,0.732211424462775,0.7267695750406519,0.733244228008321
LBP06_S04,LBP06,-1470,181,4,180,-1470,1716322616.2,2024-05-21 20:16:56.200000+00:00,2024-05-22 05:16:56.200000+09:00,2024,5,21,20,16,56,200,,,,,,,,,-0.226562,0.089111,-0.165283,19.226074,27.832031,13.85498,,,,,,,,,,,0.0,1.0,1.0,4.0,0.0,0.0,0.0,5.0,0.0,0.22193357333333333,-0.26970701333333336,0.9004818,-0.12939452000000018,1.1417643199999998,0.5118815466666669,-10.930829403419137,-12.096108698062828,-1.53713670234285,-2.244651733150856,-7.264710117504926,8.453446317581877,11.369926523014744,-0.8756479274198984,10.903527388646086,-0.8634961635849546,-0.44849557333333334,0.35881801333333335,-1.0657648,1.8730783866666667,1.2106829704390476,0.7352226635660589,0.734708013637691,0.7386093157556547
LBP06_S04,LBP06,-1469,182,4,181,-1469,1716322616.24,2024-05-21 20:16:56.240000+00:00,2024-05-22 05:16:56.240000+09:00,2024,5,21,20,16,56,240,,,,,,,,,0.012939,-0.106689,0.214844,-12.023926,-64.147949,-4.577637,,,,,,,,,,,0.0,1.0,1.0,4.0,0.0,0.0,0.0,5.0,0.0,0.22501625333333333,-0.2662532266666667,0.8969987333333334,-0.5981445200000002,-1.5722656266666668,-0.3173827866666665,-8.004807542262899,-8.753327164347986,-1.9230567463323682,-2.5648440348413724,-7.614843204078845,8.376524047728582,11.607343238999283,-0.8633650398516115,11.11573301066397,-0.8651004950587982,-0.21207725333333333,0.15956422666666667,-0.6821547333333333,1.0537962133333334,0.7319648789540474,0.7307360871491033,0.7398183669744419,0.7377042967056698
LBP06_S04,LBP06,-1468,183,4,182,-1468,1716322616.28,2024-05-21 20:16:56.280000+00:00,2024-05-22 05:16:56.280000+09:00,2024,5,21,20,16,56,280,,,,,,,,,0.489746,-0.085205,0.558838,-13.977051,-135.314941,-17.700195,,,,,,,,,,,0.0,1.0,1.0,4.0,0.0,0.0,0.0,5.0,0.0,0.2256607866666667,-0.26910804,0.9006282933333334,0.11311850666666658,-2.354329426666667,-0.4695637866666665,-4.901368424693209,-5.1722340279288765,-2.067914243791531,-2.7608987718291007,-7.821732565196,8.293807477976921,11.729846752258997,-0.8669170125337933,11.272065960920614,-0.8664713400227356,0.26408521333333335,0.18390304,-0.34179029333333344,0.7897785466666668,0.46944854099191735,0.7318062964360574,0.7431861497385642,0.7280074387495935
