file_name,test_id,_program_index,program_index,session_id,index,_index,unixtime,datetime_utc,datetime_jst,rtc_year,rtc_month,rtc_day,rtc_hour,rtc_min,rtc_sec,rtc_msec,gps_hour,gps_min,gps_sec,latitude,longitude,altitude,fix_type,SIV,acc_x,acc_y,acc_z,gyro_x,gyro_y,gyro_z,mag_x,mag_y,mag_z,illuminance,atmopress,water_pressure,water_temp,depth,alt_wps,battery_level,behavior_class,camera_command,camera_recording,camera_count,play_audio,speaker_on,audio_file,prev_sd_write_time_ms,delay_occurred_counter,acc_x_ma,acc_y_ma,acc_z_ma,gyro_x_ma,gyro_y_ma,gyro_z_ma,gyro_x_lowpass,gyro_y_lowpass,gyro_z_lowpass,angle_x,angle_y,angle_z,combined_angle_change,gravity_adjusted_angle,smoothed_angle_change,smoothed_gravity_angle,acc_x_dy,acc_y_dy,acc_z_dy,ODBA,VeDBA,smoothed_VeDBA_1s,smoothed_VeDBA_2s,smoothed_VeDBA_3s
LBP06_S02,LBP06,-1650,1,2,0,-1650,1716263185.0,2024-05-21 03:46:25+00:00,2024-05-21 12:46:25+09:00,2024,5,21,3,46,25,0,3.0,46.0,25.0,40.538906,141.607437,-2.943,3.0,13.0,0.835205,-0.25293,0.973877,47.302246,-117.004395,-76.293945,-584.0,87.0,531.0,778.0,0.0,1026.099976,21.75,0.129818,-106.37719,3.853125,0.0,1.0,1.0,2.0,0.0,0.0,0.0,4.0,0.0,,,,,,,46.08344470503108,-116.52096237900102,-76.12677638050381,1.8433377882012432,-4.660838495160041,-3.0450710552201525,5.864619971551092,,11.89153311785509,,,,,,,,,
LBP06_S02,LBP06,-1649,2,2,1,-1649,1716263185.04,2024-05-21 03:46:25.040000+00:00,2024-05-21 12:46:25.040000+09:00,2024,5,21,3,46,25,40,,,,,,,,,0.541016,-0.385742,1.270752,-130.310059,78.796387,-1.159668,,,,,,,,,,,0.0,1.0,1.0,2.0,0.0,0.0,0.0,4.0,0.0,,,,,,,43.144129232167096,-74.1618705174296,-61.01995896099855,3.569102957487927,-7.627313315857226,-5.485869413660095,10.050331714084534,,12.81696814810215,,,,,,,,,
LBP06_S02,LBP06,-1648,3,2,2,-1648,1716263185.08,2024-05-21 03:46:25.080000+00:00,2024-05-21 12:46:25.080000+09:00,2024,5,21,3,46,25,80,,,,,,,,,-0.136719,-1.140625,1.711182,82.946777,46.203613,-54.992676,,,,,,,,,,,0.0,1.0,1.0,2.0,0.0,0.0,0.0,4.0,0.0,,,,,,,42.044611202680905,-36.618282777150775,-47.26728869590464,5.250887405595163,-9.092044626943256,-7.37656096149628,12.83163067046572,,13.70969406675803,,,,,,,,,
LBP06_S02,LBP06,-1647,4,2,3,-1647,1716263185.12,2024-05-21 03:46:25.120000+00:00,2024-05-21 12:46:25.120000+09:00,2024,5,21,3,46,25,120,,,,,,,,,0.494385,0.557617,2.093018,12.756348,-56.57959,-1.098633,,,,,,,,,,,0.0,1.0,1.0,2.0,0.0,0.0,0.0,4.0,0.0,,,,,,,43.81711077657455,-7.510464659586164,-35.86203972588602,7.003571836658145,-9.392463213326703,-8.81104255053172,14.65956529069696,,14.60887084030748,,,,,,,,,
LBP06_S02,LBP06,-1646,5,2,4,-1646,1716263185.16,2024-05-21 03:46:25.160000+00:00,2024-05-21 12:46:25.160000+09:00,2024,5,21,3,46,25,160,,,,,,,,,0.074219,-1.095215,1.036621,-47.546387,144.470215,-12.512207,,,,,,,,,,,0.0,1.0,1.0,2.0,0.0,0.0,0.0,4.0,0.0,,,,,,,48.269426429695756,11.465379940156112,-27.230246424834366,8.934348893845975,-8.933848015720459,-9.900252407525095,16.05151794247714,,15.515203436346228,,,,,,,,,
LBP06_S02,LBP06,-1645,6,2,5,-1645,1716263185.2,2024-05-21 03:46:25.200000+00:00,2024-05-21 12:46:25.200000+09:00,2024,5,21,3,46,25,200,,,,,,,,,-0.300293,0.356934,-0.263672,58.288574,0.854492,-31.677246,,,,,,,,,,,0.0,1.0,1.0,2.0,0.0,0.0,0.0,4.0,0.0,,,,,,,53.95102797356872,20.66699226401723,-21.206874499015903,11.092390012788723,-8.107168325159769,-10.74852738748573,17.44414329933745,,16.403271271010645,,,,,,,,,
LBP06_S02,LBP06,-1644,7,2,6,-1644,1716263185.24,2024-05-21 03:46:25.240000+00:00,2024-05-21 12:46:25.240000+09:00,2024,5,21,3,46,25,240,,,,,,,,,0.179688,-0.490234,0.303711,171.691895,-76.049805,-64.208984,,,,,,,,,,,0.0,1.0,1.0,2.0,0.0,0.0,0.0,4.0,0.0,,,,,,,58.576350131293445,22.03212681697406,-17.195128628516933,13.43544401804046,-7.2258832524808065,-11.436332532626407,19.0660495786933,,18.372370881075533,,,,,,,,,
LBP06_S02,LBP06,-1643,8,2,7,-1643,1716263185.28,2024-05-21 03:46:25.280000+00:00,2024-05-21 12:46:25.280000+09:00,2024,5,21,3,46,25,280,,,,,,,,,0.553711,0.49585,0.54126,128.78418,-67.260742,-29.174805,,,,,,,,,,,0.0,1.0,1.0,2.0,0.0,0.0,0.0,4.0,0.0,,,,,,,59.733912695111265,18.247583534239,-14.422616699808499,15.82480052584491,-6.495979911111247,-12.013237200618747,20.903108255153644,,19.975931029380575,,,,,,,,,
LBP06_S02,LBP06,-1642,9,2,8,-1642,1716263185.32,2024-05-21 03:46:25.320000+00:00,2024-05-21 12:46:25.320000+09:00,2024,5,21,3,46,25,320,,,,,,,,,0.500732,-0.227051,1.198975,-76.843262,-5.554199,32.714844,,,,,,,,,,,0.0,1.0,1.0,2.0,0.0,0.0,0.0,4.0,0.0,,,,,,,55.618146663842765,11.912757578537825,-12.184225250721518,18.049526392398622,-6.019469607969734,-12.500606210647607,22.765864204656218,,21.28590442907851,,,,,,,,,
LBP06_S02,LBP06,-1641,10,2,9,-1641,1716263185.36,2024-05-21 03:46:25.360000+00:00,2024-05-21 12:46:25.360000+09:00,2024,5,21,3,46,25,360,,,,,,,,,0.117188,-1.088867,1.740234,88.256836,4.821777,-38.94043,,,,,,,,,,,0.0,1.0,1.0,2.0,0.0,0.0,0.0,4.0,0.0,,,,,,,45.54862483869967,5.001593684287426,-9.992779090454407,19.87147138594661,-5.819405860598237,-12.900317374265784,24.395881782990415,,22.33351209781811,,,,,,,,,
LBP06_S02,LBP06,-1640,11,2,10,-1640,1716263185.4,2024-05-21 03:46:25.400000+00:00,2024-05-21 12:46:25.400000+09:00,2024,5,21,3,46,25,400,,,,,,,,,0.482666,-0.622559,1.952637,168.334961,8.789062,-38.879395,,,,,,,,,,,0.0,1.0,1.0,2.0,0.0,0.0,0.0,4.0,0.0,,,,,,,30.152987276969665,-1.2588256278298282,-7.61572265882986,21.077590877025397,-5.86975888571143,-13.204946280618978,25.55561607219997,,23.109929283675914,,,,,,,,,
LBP06_S02,LBP06,-1639,12,2,11,-1639,1716263185.44,2024-05-21 03:46:25.440000+00:00,2024-05-21 12:46:25.440000+09:00,2024,5,21,3,46,25,440,,,,,,,,,0.011475,0.196533,0.681885,24.230957,144.104004,37.475586,,,,,,,,,,,0.0,1.0,1.0,2.0,0.0,0.0,0.0,4.0,0.0,,,,,,,11.191623140561493,-6.197140594516682,-5.0196882968730545,21.525255802647855,-6.117644509492097,-13.405733812493901,26.08593319713493,,23.578381130116874,,,,,,,,,
LBP06_S02,LBP06,-1638,13,2,12,-1638,1716263185.48,2024-05-21 03:46:25.480000+00:00,2024-05-21 12:46:25.480000+09:00,2024,5,21,3,46,25,480,,,,,,,,,-0.4375,0.128418,-0.267822,-171.325684,50.537109,33.38623,,,,,,,,,,,0.0,1.0,1.0,2.0,0.0,0.0,0.0,4.0,0.0,,,,,,,-8.924106675926273,-9.435025595360775,-2.2672822059642934,21.168291535610805,-6.495045533306528,-13.496425100732473,25.931364667445074,,23.69636373474015,,,,,,,,,
LBP06_S02,LBP06,-1637,14,2,13,-1637,1716263185.52,2024-05-21 03:46:25.520000+00:00,2024-05-21 12:46:25.520000+09:00,2024,5,21,3,46,25,520,,,,,,,,,0.10498,-0.431641,0.180176,-126.89209,-111.633301,-7.69043,,,,,,,,,,,0.0,1.0,1.0,2.0,0.0,0.0,0.0,4.0,0.0,,,,,,,-27.771630830563048,-10.775810415788978,0.5783324454208023,20.057426302388283,-6.926077949938087,-13.473291802915641,25.135641978092973,,23.44001959446269,,,,,,,,,
LBP06_S02,LBP06,-1636,15,2,14,-1636,1716263185.56,2024-05-21 03:46:25.560000+00:00,2024-05-21 12:46:25.560000+09:00,2024,5,21,3,46,25,560,,,,,,,,,0.528076,-0.449219,0.672119,63.842773,-114.929199,-42.907715,,,,,,,,,,,0.0,1.0,1.0,2.0,0.0,0.0,0.0,4.0,0.0,,,,,,,-43.48109869360627,-10.304713953420242,3.495827878558591,18.318182354644033,-7.338266508074897,-13.333458687773298,23.815689801055164,,22.82149961324861,,,,,,,,,
LBP06_S02,LBP06,-1635,16,2,15,-1635,1716263185.6,2024-05-21 03:46:25.600000+00:00,2024-05-21 12:46:25.600000+09:00,2024,5,21,3,46,25,600,,,,,,,,,0.355713,0.440674,0.769287,30.822754,1.403809,1.586914,,,,,,,,,,,0.0,1.0,1.0,2.0,0.0,0.0,0.0,4.0,0.0,,,,,,,-55.02875054815741,-8.561526471106287,6.490398414222574,16.117032332717738,-7.680727566919148,-13.073842751204396,22.128661763747044,,21.895563422305855,,,,,,,,,
LBP06_S02,LBP06,-1634,17,2,16,-1634,1716263185.64,2024-05-21 03:46:25.640000+00:00,2024-05-21 12:46:25.640000+09:00,2024,5,21,3,46,25,640,,,,,,,,,0.186523,-0.545166,1.506836,-179.260254,-6.04248,58.59375,,,,,,,,,,,0.0,1.0,1.0,2.0,0.0,0.0,0.0,4.0,0.0,,,,,,,-62.22620861798047,-6.563848502811308,9.554984814139601,13.627983987998519,-7.9432815070316005,-12.691643358638812,20.245875624926054,,20.755641595059032,,,,,,,,,
LBP06_S02,LBP06,-1633,18,2,17,-1633,1716263185.68,2024-05-21 03:46:25.680000+00:00,2024-05-21 12:46:25.680000+09:00,2024,5,21,3,46,25,680,,,,,,,,,0.159912,-0.69458,1.741211,-89.111328,-64.51416,-1.464844,,,,,,,,,,,0.0,1.0,1.0,2.0,0.0,0.0,0.0,4.0,0.0,,,,,,,-65.50561989214489,-5.554331524936408,12.641729941979554,11.007759192312722,-8.165454768029058,-12.18597416095963,18.33966685237901,,19.519716296188495,,,,,,,,,
LBP06_S02,LBP06,-1632,19,2,18,-1632,1716263185.72,2024-05-21 03:46:25.720000+00:00,2024-05-21 12:46:25.720000+09:00,2024,5,21,3,46,25,720,,,,,,,,,0.641846,-0.26416,1.729492,27.832031,79.956055,-8.300781,,,,,,,,,,,0.0,1.0,1.0,2.0,0.0,0.0,0.0,4.0,0.0,,,,,,,-65.61772169047993,-6.532209735505094,15.650112341089935,8.383050324693524,-8.42674315744926,-11.559969667316032,16.580664392515423,,18.308135484087604,,,,,,,,,
LBP06_S02,LBP06,-1631,20,2,19,-1631,1716263185.76,2024-05-21 03:46:25.760000+00:00,2024-05-21 12:46:25.760000+09:00,2024,5,21,3,46,25,760,,,,,,,,,-0.487061,-0.018799,-0.281738,-12.084961,199.279785,24.963379,,,,,,,,,,,0.0,1.0,1.0,2.0,0.0,0.0,0.0,4.0,0.0,,,,,,,-63.33077343400622,-9.781946804491747,18.42536990828973,5.849819387333276,-8.81802102962893,-10.822954870984443,15.136519873562886,,17.2210416817532,,,,,,,,,
LBP06_S02,LBP06,-1630,21,2,20,-1630,1716263185.8,2024-05-21 03:46:25.800000+00:00,2024-05-21 12:46:25.800000+09:00,2024,5,21,3,46,25,800,,,,,,,,,-0.088623,0.068359,0.087646,-134.765625,-69.213867,38.269043,,,,,,,,,,,0.0,1.0,1.0,2.0,0.0,0.0,0.0,4.0,0.0,,,,,,,-59.21274349685585,-14.6560925466018,20.769089666216914,3.481309647459042,-9.404264731493003,-9.992191284335766,14.156397799731758,,16.324704987576048,,,,,,,,,
LBP06_S02,LBP06,-1629,22,2,21,-1629,1716263185.84,2024-05-21 03:46:25.840000+00:00,2024-05-21 12:46:25.840000+09:00,2024,5,21,3,46,25,840,,,,,,,,,0.107422,-0.518799,0.305908,-109.008789,-146.850586,-4.394531,,,,,,,,,,,0.0,1.0,1.0,2.0,0.0,0.0,0.0,4.0,0.0,,,,,,,-53.56090991731478,-19.76789295744151,22.467557935718407,1.3388732507664507,-10.194980449790663,-9.09348896690703,13.726680208429553,,15.649535155648763,,,,,,,,,
LBP06_S02,LBP06,-1628,23,2,22,-1628,1716263185.88,2024-05-21 03:46:25.880000+00:00,2024-05-21 12:46:25.880000+09:00,2024,5,21,3,46,25,880,,,,,,,,,0.73291,-0.146729,0.811035,140.50293,-88.134766,17.944336,,,,,,,,,,,0.0,1.0,1.0,2.0,0.0,0.0,0.0,4.0,0.0,,,,,,,-46.48194407902116,-23.525558428563286,23.33320497104543,-0.5204045123943959,-11.136002786933194,-8.160160768065213,13.815556546436156,,15.195846933969168,,,,,,,,,
LBP06_S02,LBP06,-1627,24,2,23,-1627,1716263185.92,2024-05-21 03:46:25.920000+00:00,2024-05-21 12:46:25.920000+09:00,2024,5,21,3,46,25,920,,,,,,,,,0.281006,0.080322,1.128906,-155.273438,9.521484,101.501465,,,,,,,,,,,0.0,1.0,1.0,2.0,0.0,0.0,0.0,4.0,0.0,,,,,,,-38.07069425399919,-24.73715555375896,23.242613878979682,-2.0432322825543636,-12.125489009083552,-7.2304562129060255,14.264703954748926,,14.941859552842256,,,,,,,,,
LBP06_S02,LBP06,-1626,25,2,24,-1626,1716263185.96,2024-05-21 03:46:25.960000+00:00,2024-05-21 12:46:25.960000+09:00,2024,5,21,3,46,25,960,,,,,,,,,-0.328857,-0.47876,1.611084,-90.148926,-20.019531,-8.361816,,,,,,,,,,,0.0,1.0,1.0,2.0,0.0,0.0,0.0,4.0,0.0,,,,,,,-28.616561969519932,-22.99260676419998,22.15073102157886,-3.187894761335161,-13.045193279651551,-6.344426972042871,14.852322859283635,,14.85008636697276,,,,,,,,,
LBP06_S02,LBP06,-1625,26,2,25,-1625,1716263186.0,2024-05-21 03:46:26+00:00,2024-05-21 12:46:26+09:00,2024,5,21,3,46,26,0,3.0,46.0,26.0,40.538845,141.607407,-2.869,3.0,13.0,0.466553,-0.512695,2.591064,-9.643555,-141.235352,-45.288086,-581.0,98.0,527.0,810.0,0.0,1026.099976,21.75,0.129818,-106.37719,3.853125,0.0,1.0,1.0,2.0,0.0,0.0,0.0,4.0,0.0,,,,,,,-18.75214414628188,-18.684573133830597,20.07332426205342,-3.9379805271864363,-13.792576205004774,-5.541494001560735,15.37696344447424,,14.871048565775627,,,,,,,,,
LBP06_S02,LBP06,-1624,27,2,26,-1624,1716263186.04,2024-05-21 03:46:26.040000+00:00,2024-05-21 12:46:26.040000+09:00,2024,5,21,3,46,26,40,,,,,,,,,0.287109,-0.286133,1.381836,16.784668,170.532227,19.348145,,,,,,,,,,,0.0,1.0,1.0,2.0,0.0,0.0,0.0,4.0,0.0,,,,,,,-9.455326522925244,-12.722709008425172,17.060793571371036,-4.316193588103446,-14.30148456534178,-4.859062258705894,15.708993408130086,,14.946302411785174,,,,,,,,,
LBP06_S02,LBP06,-1623,28,2,27,-1623,1716263186.08,2024-05-21 03:46:26.080000+00:00,2024-05-21 12:46:26.080000+09:00,2024,5,21,3,46,26,80,,,,,,,,,-0.612549,0.068359,-0.406738,-5.004883,96.984863,41.442871,,,,,,,,,,,0.0,1.0,1.0,2.0,0.0,0.0,0.0,4.0,0.0,,,,,,,-1.8693278796162192,-6.1223504776268145,13.206807603796122,-4.390966703288095,-14.546378584446852,-4.330789954554049,15.799793041109906,,15.014693185122605,,,,,,,,,
LBP06_S02,LBP06,-1622,29,2,28,-1622,1716263186.12,2024-05-21 03:46:26.120000+00:00,2024-05-21 12:46:26.120000+09:00,2024,5,21,3,46,26,120,,,,,,,,,0.019775,-0.465088,0.219482,11.962891,-78.430176,16.784668,,,,,,,,,,,0.0,1.0,1.0,2.0,0.0,0.0,0.0,4.0,0.0,,,,,,,3.0017760516707406,0.3184501090650551,8.707590832731563,-4.270895661221266,-14.533640580084251,-3.982486321244787,15.662932533820483,,15.023347933362865,,,,,,,,,
LBP06_S02,LBP06,-1621,30,2,29,-1621,1716263186.16,2024-05-21 03:46:26.160000+00:00,2024-05-21 12:46:26.160000+09:00,2024,5,21,3,46,26,160,,,,,,,,,0.731201,0.328857,0.634033,92.651367,-112.670898,38.574219,,,,,,,,,,,0.0,1.0,1.0,2.0,0.0,0.0,0.0,4.0,0.0,,,,,,,4.605816922490767,6.120917012073511,3.928289790688754,-4.086662984321635,-14.28880389960131,-3.8253547296172368,15.346141861591505,,14.93817018185194,,,,,,,,,
LBP06_S02,LBP06,-1620,31,2,30,-1620,1716263186.2,2024-05-21 03:46:26.200000+00:00,2024-05-21 12:46:26.200000+09:00,2024,5,21,3,46,26,200,,,,,,,,,0.840332,-0.2771,1.410889,-140.441895,19.287109,13.73291,,,,,,,,,,,0.0,1.0,1.0,2.0,0.0,0.0,0.0,4.0,0.0,,,,,,,3.056977790688681,11.041751973965741,-0.5980322094976408,-3.964383872694088,-13.84713382064268,-3.8492760179971426,14.908936259827234,,14.746222838685773,,,,,,,,,
LBP06_S02,LBP06,-1619,32,2,31,-1619,1716263186.24,2024-05-21 03:46:26.240000+00:00,2024-05-21 12:46:26.240000+09:00,2024,5,21,3,46,26,240,,,,,,,,,-0.175049,-0.727783,1.644531,28.808594,48.522949,-30.517578,,,,,,,,,,,0.0,1.0,1.0,2.0,0.0,0.0,0.0,4.0,0.0,,,,,,,-0.8028603156147167,14.960921348503202,-4.282635092185805,-3.9964982853186766,-13.248696966702552,-4.020581421684575,14.410587941803891,,14.449100723072817,,,,,,,,,
LBP06_S02,LBP06,-1618,33,2,32,-1618,1716263186.28,2024-05-21 03:46:26.280000+00:00,2024-05-21 12:46:26.280000+09:00,2024,5,21,3,46,26,280,,,,,,,,,0.577881,-0.469482,2.203369,131.04248,-32.958984,-71.472168,,,,,,,,,,,0.0,1.0,1.0,2.0,0.0,0.0,0.0,4.0,0.0,,,,,,,-5.50373487589507,17.864627935910292,-6.678103309923313,-4.2166476803544795,-12.53411184926614,-4.287705554081508,13.90210402883873,,14.053849502017338,,,,,,,,,
LBP06_S02,LBP06,-1617,34,2,33,-1617,1716263186.32,2024-05-21 03:46:26.320000+00:00,2024-05-21 12:46:26.320000+09:00,2024,5,21,3,46,26,320,,,,,,,,,0.030518,-0.02124,0.996826,-71.411133,177.124023,28.503418,,,,,,,,,,,0.0,1.0,1.0,2.0,0.0,0.0,0.0,4.0,0.0,,,,,,,-9.204344589431603,19.908381201517905,-7.673066101754399,-4.5848214639317435,-11.737776601205423,-4.594628198151684,13.412926439639685,,13.569401339232437,-0.8879278919398045,,,,,,,,
LBP06_S02,LBP06,-1616,35,2,34,-1616,1716263186.36,2024-05-21 03:46:26.360000+00:00,2024-05-21 12:46:26.360000+09:00,2024,5,21,3,46,26,360,,,,,,,,,-0.525635,-0.564453,-0.578857,-38.696289,51.513672,13.85498,,,,,,,,,,,0.0,1.0,1.0,2.0,0.0,0.0,0.0,4.0,0.0,,,,,,,-10.100325342439005,21.440674290062404,-7.589564710813527,-4.988834477629304,-10.880149629602927,-4.898210786584225,12.932849427621958,,13.012848698869883,-0.8947028419450977,,,,,,,,
LBP06_S02,LBP06,-1615,36,2,35,-1615,1716263186.4,2024-05-21 03:46:26.400000+00:00,2024-05-21 12:46:26.400000+09:00,2024,5,21,3,46,26,400,,,,,,,,,0.09375,0.356689,0.352783,109.313965,-76.23291,-53.894043,,,,,,,,,,,0.0,1.0,1.0,2.0,0.0,0.0,0.0,4.0,0.0,,,,,,,-6.933836314324823,22.88015527975653,-7.134489470832734,-5.266187930202297,-9.964943418412666,-5.183590365417534,12.40574228834469,,12.42305889482717,-0.8963773476708097,,,,,,,,
LBP06_S02,LBP06,-1614,37,2,36,-1614,1716263186.44,2024-05-21 03:46:26.440000+00:00,2024-05-21 12:46:26.440000+09:00,2024,5,21,3,46,26,440,,,,,,,,,1.115723,0.112549,1.483887,-160.949707,-81.665039,-26.367188,,,,,,,,,,,0.0,1.0,1.0,2.0,0.0,0.0,0.0,4.0,0.0,,,,,,,0.528796755116199,24.457616664781252,-7.214779400677292,-5.245036059997649,-8.986638751821417,-5.472181541444626,11.75648119757529,,11.868317029371243,-0.8850886830314495,,,,,,,,
LBP06_S02,LBP06,-1613,38,2,37,-1613,1716263186.48,2024-05-21 03:46:26.480000+00:00,2024-05-21 12:46:26.480000+09:00,2024,5,21,3,46,26,480,,,,,,,,,-0.013184,-0.959229,1.592529,-149.536133,101.318359,41.137695,,,,,,,,,,,0.0,1.0,1.0,2.0,0.0,0.0,0.0,4.0,0.0,0.21681312,-0.26959964,1.0330989733333333,3.8159179333333335,5.59814448,-4.188639346666667,11.246249035399808,25.96975990438861,-8.661834204182245,-4.795186098581657,-7.947848355645872,-5.818654909611916,10.955311413260894,-0.8879278919398045,11.429356281487948,-0.8813934432327197,-0.22999712,-0.6896293600000001,0.5594300266666667,1.4790565066666668,0.9173054475574489,0.9173054475574489,0.9173054475574489,0.9173054475574489
LBP06_S02,LBP06,-1612,39,2,38,-1612,1716263186.52,2024-05-21 03:46:26.520000+00:00,2024-05-21 12:46:26.520000+09:00,2024,5,21,3,46,26,520,,,,,,,,,0.146484,-0.818115,2.006104,88.623047,-54.321289,-25.695801,,,,,,,,,,,0.0,1.0,1.0,2.0,0.0,0.0,0.0,4.0,0.0,0.20375322666666668,-0.2606771066666667,1.0187239733333333,6.506347626666667,7.086588493333334,-3.218587266666667,23.05791727581775,26.724987201470814,-11.934253384303565,-3.8728694075489467,-6.87884886758704,-6.2960250449840585,10.09740613019495,-0.9014777919503909,11.16667869034444,-0.877180992595353,-0.05726922666666667,-0.5574378933333333,0.9873800266666668,1.6020871466666669,1.1353132106635466,1.0263093291104979,1.0263093291104979,1.0263093291104979
LBP06_S02,LBP06,-1611,40,2,39,-1611,1716263186.56,2024-05-21 03:46:26.560000+00:00,2024-05-21 12:46:26.560000+09:00,2024,5,21,3,46,26,560,,,,,,,,,0.405273,0.566406,1.932861,153.869629,82.763672,47.485352,,,,,,,,,,,0.0,1.0,1.0,2.0,0.0,0.0,0.0,4.0,0.0,0.19756506666666668,-0.25168297333333334,1.0063183733333334,8.621419239999998,4.279785106666666,-3.396809920000001,33.2940378150665,25.754772983056547,-16.89309538920479,-2.5411078949462866,-5.848657948264778,-6.97174886055225,9.448243821164372,-0.8997263591222339,11.105869202420715,-0.8735715856435318,0.20770793333333332,0.8180889733333333,0.9265426266666665,1.952339533333333,1.2533528604864463,1.101990506235814,1.101990506235814,1.101990506235814
LBP06_S02,LBP06,-1610,41,2,40,-1610,1716263186.6,2024-05-21 03:46:26.600000+00:00,2024-05-21 12:46:26.600000+09:00,2024,5,21,3,46,26,600,,,,,,,,,-0.585449,-0.863525,0.16626,37.597656,128.90625,2.624512,,,,,,,,,,,0.0,1.0,1.0,2.0,0.0,0.0,0.0,4.0,0.0,0.21253577333333332,-0.24421552000000002,0.9973242266666666,7.3209635199999985,2.076009066666667,-3.0574544533333334,39.65836037432475,22.205193712112344,-22.74744374611675,-0.9547734799732965,-4.960450199780285,-7.88164661039692,9.361517605267952,-0.8512226891133685,11.245865947267053,-0.8698434941632783,-0.7979847733333333,-0.61930948,-0.8310642266666667,2.24835848,1.3080488061745963,1.1535050812205094,1.1535050812205094,1.1535050812205094
LBP06_S02,LBP06,-1609,42,2,41,-1609,1716263186.64,2024-05-21 03:46:26.640000+00:00,2024-05-21 12:46:26.640000+09:00,2024,5,21,3,46,26,640,,,,,,,,,0.016357,-0.072266,0.237305,188.354492,-8.422852,-76.721191,,,,,,,,,,,0.0,1.0,1.0,2.0,0.0,0.0,0.0,4.0,0.0,0.21041662666666666,-0.24991864000000003,0.9840918000000001,6.4493814799999996,3.741861933333334,-2.840983093333334,41.00973608351196,15.725760497075598,-28.220880589372925,0.6856159633671819,-4.331419779897261,-9.010481833971836,10.020980462970956,-0.8666124840378007,11.573219799992636,-0.8717297579816052,-0.19405962666666665,0.17765264000000003,-0.7467868000000001,1.1184990666666668,0.7917765618248722,1.0811593773413821,1.0811593773413821,1.0811593773413821
LBP06_S02,LBP06,-1608,43,2,42,-1608,1716263186.68,2024-05-21 03:46:26.680000+00:00,2024-05-21 12:46:26.680000+09:00,2024,5,21,3,46,26,680,,,,,,,,,0.379395,0.354004,0.857178,186.645508,-55.847168,-102.050781,,,,,,,,,,,0.0,1.0,1.0,2.0,0.0,0.0,0.0,4.0,0.0,0.21201493333333332,-0.24617189333333334,0.9982194,7.9158528399999994,1.7968749466666671,-3.5278320533333334,37.668751584816114,6.686607974631242,-31.898921945617136,2.192366026759826,-4.063955460912011,-10.28643871179652,11.275328117403648,-0.8561187394085196,12.070816703047228,-0.8734243711084589,0.16738006666666666,0.6001758933333333,-0.14104139999999998,0.9085973599999999,0.6388425989003571,1.0074399142678778,1.0074399142678778,1.0074399142678778
LBP06_S02,LBP06,-1607,44,2,43,-1607,1716263186.72,2024-05-21 03:46:26.720000+00:00,2024-05-21 12:46:26.720000+09:00,2024,5,21,3,46,26,720,,,,,,,,,0.491699,0.616211,1.053223,-158.508301,42.663574,1.037598,,,,,,,,,,,0.0,1.0,1.0,2.0,0.0,0.0,0.0,4.0,0.0,0.22163407999999998,-0.25508465333333336,1.0294108133333335,7.252604146666666,1.4542642666666674,-3.843587266666667,31.091742363424498,-3.8418007464450388,-32.63312738448484,3.436035721296806,-4.217627490769813,-11.591763807175914,12.80483156040244,-0.8519151439326037,12.716854615694874,-0.8691457097321365,0.27006492000000004,0.8712956533333334,0.023812186666666513,1.16517276,0.9125010667204805,0.9938772217611068,0.9938772217611068,0.9938772217611068
LBP06_S02,LBP06,-1606,45,2,44,-1606,1716263186.76,2024-05-21 03:46:26.760000+00:00,2024-05-21 12:46:26.760000+09:00,2024,5,21,3,46,26,760,,,,,,,,,-0.347412,-0.4104,1.847412,-229.187012,-19.042969,-7.751465,,,,,,,,,,,0.0,1.0,1.0,2.0,0.0,0.0,0.0,4.0,0.0,0.22528966666666667,-0.25480470666666666,1.0462890666666667,4.226888000000001,4.538574173333334,-2.682291693333334,23.087872544854736,-14.29608033925912,-29.858967081440667,4.359550623090995,-4.789470704340177,-12.786122490433542,14.332816876085326,-0.8437468538015046,13.474384673036411,-0.8628720337170339,-0.5727016666666667,-0.15559529333333333,0.8011229333333334,1.5294198933333334,0.9969930032968478,0.9942666944530745,0.9942666944530745,0.9942666944530745
LBP06_S02,LBP06,-1605,46,2,45,-1605,1716263186.8,2024-05-21 03:46:26.800000+00:00,2024-05-21 12:46:26.800000+09:00,2024,5,21,3,46,26,800,,,,,,,,,0.217041,-0.744629,2.396484,-161.499023,-194.274902,-38.513184,,,,,,,,,,,0.0,1.0,1.0,2.0,0.0,0.0,0.0,4.0,0.0,0.21230138666666667,-0.2632422133333333,1.0307389333333332,2.1720377333333336,7.74007156,-1.2719726800000006,15.034080140885328,-22.909313669879044,-23.742239898242797,4.960913828726408,-5.705843251135339,-13.735812086363254,15.679280815600517,-0.8868198685282208,14.27683135361902,-0.8584365027773995,0.004739613333333337,-0.4813867866666667,1.3657450666666668,1.851871466666667,1.448107485456845,1.044693449009049,1.044693449009049,1.044693449009049
LBP06_S02,LBP06,-1604,47,2,46,-1604,1716263186.84,2024-05-21 03:46:26.840000+00:00,2024-05-21 12:46:26.840000+09:00,2024,5,21,3,46,26,840,,,,,,,,,0.266846,-1.295166,1.156494,251.342773,164.672852,-50.231934,,,,,,,,,,,0.0,1.0,1.0,2.0,0.0,0.0,0.0,4.0,0.0,0.20931962666666665,-0.26058270666666666,1.0185058533333333,4.020996066666667,7.134602813333334,-1.9026692933333338,7.557841328460318,-27.997582355088806,-15.14558742805063,5.263227481864821,-6.825746545338891,-14.341635583485278,16.732450228121227,-0.8886758892501423,15.023958625404887,-0.8583790109234153,0.05752637333333338,-1.0345832933333334,0.1379881466666666,1.2300978133333333,1.0453289449230005,1.0447569986004441,1.0447569986004441,1.0447569986004441
LBP06_S02,LBP06,-1603,48,2,47,-1603,1716263186.88,2024-05-21 03:46:26.880000+00:00,2024-05-21 12:46:26.880000+09:00,2024,5,21,3,46,26,880,,,,,,,,,-0.391113,0.624023,-0.694092,241.577148,75.195312,5.615234,,,,,,,,,,,0.0,1.0,1.0,2.0,0.0,0.0,0.0,4.0,0.0,0.21416662666666667,-0.24292319999999998,1.0021419200000001,4.7827148133333335,5.739746053333334,-1.717122413333334,0.8256904594635969,-28.22360215431642,-5.446452093510963,5.296255100243364,-7.954690631511548,-14.559493667225716,17.415690539737355,-0.8451412781765797,15.607054425403167,-0.8562476165418584,-0.6052796266666667,0.8669462,-1.69623392,3.1684597466666666,1.998791797939632,1.1314874349040067,1.1314874349040067,1.1314874349040067
LBP06_S02,LBP06,-1602,49,2,48,-1602,1716263186.92,2024-05-21 03:46:26.920000+00:00,2024-05-21 12:46:26.920000+09:00,2024,5,21,3,46,26,920,,,,,,,,,-0.173584,0.250732,-0.208252,9.460449,-96.008301,26.855469,,,,,,,,,,,0.0,1.0,1.0,2.0,0.0,0.0,0.0,4.0,0.0,0.21217444,-0.2374153866666667,0.9891275866666667,1.788736946666667,5.263671840000001,-1.3533528800000005,-4.878775183270862,-22.87433337074493,3.7509953143907864,5.1011040929125295,-8.869663966341346,-14.409453854650085,17.672706703610324,-0.8387410317993648,15.953984114521052,-0.8577509519666708,-0.38575844,0.4881473866666667,-1.1973795866666666,2.0712854133333334,1.3493759000763157,1.1496448070016991,1.1496448070016991,1.1496448070016991
LBP06_S02,LBP06,-1601,50,2,49,-1601,1716263186.96,2024-05-21 03:46:26.960000+00:00,2024-05-21 12:46:26.960000+09:00,2024,5,21,3,46,26,960,,,,,,,,,0.810547,-0.312256,0.795898,-97.839355,-183.59375,21.42334,,,,,,,,,,,0.0,1.0,1.0,2.0,0.0,0.0,0.0,4.0,0.0,0.21348953333333331,-0.24750653333333333,0.9999316266666667,-0.1310221733333331,3.1583658533333336,-2.1004232000000007,-8.793223843953307,-12.16214268920255,10.950006344262347,4.749375139154397,-9.356149673909448,-13.971453600879592,17.47271062699045,-0.8553710497258895,16.058123390107728,-0.8611408763378267,0.5970574666666667,-0.06474946666666664,-0.2040336266666667,0.8658405600000001,0.6342711035092079,1.110000675963815,1.110000675963815,1.110000675963815
LBP06_S02,LBP06,-1600,51,2,50,-1600,1716263187.0,2024-05-21 03:46:27+00:00,2024-05-21 12:46:27+09:00,2024,5,21,3,46,27,0,3.0,46.0,27.0,40.538792,141.607361,-2.593,3.0,13.0,0.415283,0.443604,0.828125,-47.912598,11.169434,37.17041,-574.0,95.0,529.0,741.0,0.0,1025.699951,21.799999,0.125853,-103.081947,3.853125,0.0,1.0,1.0,2.0,0.0,0.0,0.0,7.0,0.0,0.22594395999999997,-0.25942710666666663,1.0253320133333332,1.5755208000000005,2.208658826666668,-2.756347666666667,-9.81267502026385,2.562690787300104,15.060893057076427,4.3568681383438435,-9.253642042417443,-13.369017878596535,16.83279032312662,-0.850647770573528,15.97836618885151,-0.8640272645312803,0.18933904000000004,0.7030311066666666,-0.19720701333333324,1.0895771599999997,0.7543159915558817,1.0845946270775342,1.0845946270775342,1.0845946270775342
LBP06_S02,LBP06,-1599,52,2,51,-1599,1716263187.04,2024-05-21 03:46:27.040000+00:00,2024-05-21 12:46:27.040000+09:00,2024,5,21,3,46,27,40,,,,,,,,,0.081787,-1.110352,1.703369,-155.578613,17.333984,-2.502441,,,,,,,,,,,0.0,1.0,1.0,2.0,0.0,0.0,0.0,7.0,0.0,0.23043289333333333,-0.26156577333333336,1.0454980266666667,3.6946614266666664,4.9072265333333345,-2.3909505333333336,-7.004163974097106,18.883642102330366,15.59221710646136,4.076701579379959,-8.498296358324229,-12.745329194338082,15.85193846295375,-0.8452985402222299,15.814789467226111,-0.8596905012587721,-0.14864589333333333,-0.8487862266666666,0.6578709733333332,1.655303093333333,1.0841253976078826,1.0845633451128907,1.0845633451128907,1.0845633451128907
LBP06_S02,LBP06,-1598,53,2,52,-1598,1716263187.08,2024-05-21 03:46:27.080000+00:00,2024-05-21 12:46:27.080000+09:00,2024,5,21,3,46,27,80,,,,,,,,,0.4104,-0.028809,1.877441,75.195312,32.531738,-15.136719,,,,,,,,,,,0.0,1.0,1.0,2.0,0.0,0.0,0.0,7.0,0.0,0.21776688000000002,-0.2611165466666667,1.0354133866666668,5.187174453333333,8.8387044,-1.3940429733333337,-0.14508125718885262,33.780872806807466,12.700980287297178,4.070898329092405,-7.14706144605193,-12.237289982846194,14.744625008582519,-0.8711520936566449,15.672005162600888,-0.8554471450558456,0.19263311999999996,0.23230754666666673,0.8420276133333331,1.2669682799999997,0.8944746037619229,1.0726827987784553,1.0726827987784553,1.0726827987784553
LBP06_S02,LBP06,-1597,54,2,53,-1597,1716263187.12,2024-05-21 03:46:27.120000+00:00,2024-05-21 12:46:27.120000+09:00,2024,5,21,3,46,27,120,,,,,,,,,0.641357,-0.688965,1.677979,19.226074,158.325195,9.94873,,,,,,,,,,,0.0,1.0,1.0,2.0,0.0,0.0,0.0,7.0,0.0,0.2118782,-0.2621614666666666,1.0254817466666666,6.676432266666666,8.666178346666667,-1.7366536533333337,10.020662497510468,44.37933300281247,7.117483753972013,4.471724828992823,-5.3718881259394315,-11.952590632687313,13.846224316269199,-0.8858143876441623,15.633653635734536,-0.8568301199755339,0.42947879999999994,-0.42680353333333343,0.6524972533333335,1.508779586666667,0.890149403933296,1.061945540258152,1.061945540258152,1.061945540258152
LBP06_S02,LBP06,-1596,55,2,54,-1596,1716263187.16,2024-05-21 03:46:27.160000+00:00,2024-05-21 12:46:27.160000+09:00,2024,5,21,3,46,27,160,,,,,,,,,-0.67334,0.098389,-0.473633,17.211914,177.67334,69.702148,,,,,,,,,,,0.0,1.0,1.0,2.0,0.0,0.0,0.0,7.0,0.0,0.21190750666666666,-0.2548730533333333,1.0116471066666666,8.9949544,6.890462200000002,-2.259928386666667,21.902505901277213,48.703937047395286,-0.018056453746182272,5.347825065043912,-3.42373064404362,-11.95331289083716,13.535244863523124,-0.8726107357360413,15.757151313493111,-0.8596704536952988,-0.8852475066666667,0.3532620533333333,-1.4852801066666665,2.7237896666666668,1.7647986348715756,1.100992934403342,1.100992934403342,1.100992934403342
LBP06_S02,LBP06,-1595,56,2,55,-1595,1716263187.2,2024-05-21 03:46:27.200000+00:00,2024-05-21 12:46:27.200000+09:00,2024,5,21,3,46,27,200,,,,,,,,,0.174805,-0.356689,0.350342,40.466309,-48.339844,-26.489258,,,,,,,,,,,0.0,1.0,1.0,2.0,0.0,0.0,0.0,7.0,0.0,0.2191470933333333,-0.2477506533333333,1.0017935866666667,10.704752573333332,7.041829386666668,-2.1280924400000005,33.459870688158766,46.14765446122545,-7.379122016642524,6.6862198925702625,-1.577824465594602,-12.248477771502861,14.043513599346529,-0.8434522358031387,16.078170645128594,-0.8595590915871438,-0.044342093333333304,-0.10893834666666669,-0.6514515866666668,0.8047320266666668,0.6619841043304338,1.0778872065047678,1.0778872065047678,1.0778872065047678
LBP06_S02,LBP06,-1594,57,2,56,-1594,1716263187.24,2024-05-21 03:46:27.240000+00:00,2024-05-21 12:46:27.240000+09:00,2024,5,21,3,46,27,240,,,,,,,,,1.048584,0.323486,0.604004,134.643555,-61.157227,-62.438965,,,,,,,,,,,0.0,1.0,1.0,2.0,0.0,0.0,0.0,7.0,0.0,0.21450515999999997,-0.24390950666666664,0.9941568666666666,8.82242836,5.990397093333335,-1.1092122400000004,42.695471801135284,37.50491789142973,-13.714891236862593,8.394038764615674,-0.07762774993741295,-12.797073420977364,15.304607181869002,-0.8462423272208766,16.61407628314668,-0.8620670187563203,0.83407884,0.5673955066666666,-0.3901528666666666,1.7916272133333333,1.0815934687716482,1.078072519618112,1.078072519618112,1.078072519618112
LBP06_S02,LBP06,-1593,58,2,57,-1593,1716263187.28,2024-05-21 03:46:27.280000+00:00,2024-05-21 12:46:27.280000+09:00,2024,5,21,3,46,27,280,,,,,,,,,0.50708,-0.728516,1.560547,-77.026367,20.324707,-17.822266,,,,,,,,,,,0.0,1.0,1.0,2.0,0.0,0.0,0.0,7.0,0.0,0.22286780000000003,-0.2604752533333334,1.0212694933333333,8.095703106666667,2.6562499600000007,-1.6284179733333337,48.081335546150754,24.640771917407736,-18.10423435445995,10.317292186461705,0.9080031267588965,-13.521242795155763,17.03217527107384,-0.8589710273734641,17.36195057453824,-0.8659498315494212,0.2842121999999999,-0.4680407466666667,0.5392775066666666,1.2915304533333332,0.7685433913356796,1.0633330373189485,1.0633330373189485,1.0633330373189485
LBP06_S02,LBP06,-1592,59,2,58,-1592,1716263187.32,2024-05-21 03:46:27.320000+00:00,2024-05-21 12:46:27.320000+09:00,2024,5,21,3,46,27,320,,,,,,,,,-0.213135,-0.433105,1.594238,206.420898,53.649902,-62.561035,,,,,,,,,,,0.0,1.0,1.0,2.0,0.0,0.0,0.0,7.0,0.0,0.22902990666666662,-0.27246744,1.0442154666666668,13.254394506666666,3.786621053333334,-2.5952148533333337,48.81387706149739,10.00454226555419,-20.12392023188636,12.2698472689216,1.308184817381064,-14.326199604431217,18.90768348119606,-0.867144368997013,18.29139601530582,-0.8638247018374716,-0.44216490666666664,-0.16063756,0.5500225333333333,1.152825,0.7237672398946454,1.0478982283451166,1.0478982283451166,1.0478982283451166
LBP06_S02,LBP06,-1591,60,2,59,-1591,1716263187.36,2024-05-21 03:46:27.360000+00:00,2024-05-21 12:46:27.360000+09:00,2024,5,21,3,46,27,360,,,,,,,,,0.757812,-0.489014,2.195801,-15.74707,-11.657715,-5.859375,,,,,,,,,,,0.0,1.0,1.0,2.0,0.0,0.0,0.0,7.0,0.0,0.229248,-0.26524088,1.04765948,16.468912733333333,7.698567666666667,-1.8318685066666671,44.86589559729387,-3.831856274327603,-19.865356931887735,14.064483092813354,1.1549105664079597,-15.120813881706727,20.682903943345295,-0.8542574286443402,19.33626846149721,-0.8598626937484573,0.528564,-0.22377312,1.1481415199999998,1.9004786399999998,1.2836211517727667,1.0581470511028404,1.0581470511028404,1.0581470511028404
LBP06_S02,LBP06,-1590,61,2,60,-1590,1716263187.4,2024-05-21 03:46:27.400000+00:00,2024-05-21 12:46:27.400000+09:00,2024,5,21,3,46,27,400,,,,,,,,,-0.15332,-0.337402,0.755859,-111.938477,71.777344,62.5,,,,,,,,,,,0.0,1.0,1.0,2.0,0.0,0.0,0.0,7.0,0.0,0.21744786666666666,-0.26332681333333335,1.0336620799999998,15.950520799999998,9.66959632,-2.186686213333334,36.871711009194605,-14.556872670901209,-17.80055819155699,15.539351533181138,0.5726356595719114,-15.832836209369006,22.19184670330747,-0.8757270422652919,20.39486705691474,-0.8577068219365251,-0.37076786666666667,-0.07407518666666663,-0.27780307999999987,0.7226461333333332,0.4691806640194574,1.033606784974366,1.033606784974366,1.033606784974366
LBP06_S02,LBP06,-1589,62,2,61,-1589,1716263187.44,2024-05-21 03:46:27.440000+00:00,2024-05-21 12:46:27.440000+09:00,2024,5,21,3,46,27,440,,,,,,,,,0.034912,-0.031006,0.118652,98.693848,-64.51416,0.0,,,,,,,,,,,0.0,1.0,1.0,2.0,0.0,0.0,0.0,7.0,0.0,0.21323237333333334,-0.26292968,1.02139972,18.55875648,8.919270800000001,-3.784179706666667,25.93021515777134,-20.453585437659417,-14.573777808512691,16.576560139491992,-0.24550775793446522,-16.415787321709512,23.330681376869375,-0.884126668153238,21.349966454837553,-0.8581611826429721,-0.17832037333333334,0.23192368,-0.90274772,1.3129917733333334,0.9489679630291427,1.0302212320965571,1.0302212320965571,1.0302212320965571
LBP06_S02,LBP06,-1588,63,2,62,-1588,1716263187.48,2024-05-21 03:46:27.480000+00:00,2024-05-21 12:46:27.480000+09:00,2024,5,21,3,46,27,480,,,,,,,,,0.161621,-0.082031,0.54834,159.973145,-82.214355,-96.557617,,,,,,,,,,,0.0,1.0,1.0,2.0,0.0,0.0,0.0,7.0,0.0,0.22534825333333336,-0.2583821466666667,1.0083951599999998,19.302571586666666,7.165527306666668,-3.4456380400000004,13.40721277848579,-20.69665195216932,-10.82053722023884,17.112848650631424,-1.0733738360212381,-16.848608810519067,24.039079416258296,-0.8499007965371507,22.103866587153085,-0.8567028474720647,-0.06372725333333337,0.17635114666666668,-0.4600551599999998,0.7001335599999998,0.49680140900633973,1.013401070554513,1.0097050850546259,1.0097050850546259
LBP06_S02,LBP06,-1587,64,2,63,-1587,1716263187.52,2024-05-21 03:46:27.520000+00:00,2024-05-21 12:46:27.520000+09:00,2024,5,21,3,46,27,520,,,,,,,,,0.825928,0.209717,1.178223,12.390137,-48.583984,17.883301,,,,,,,,,,,0.0,1.0,1.0,2.0,0.0,0.0,0.0,7.0,0.0,0.2266242933333333,-0.2578808533333333,0.98831704,20.393880186666667,9.020996066666669,-2.637532573333334,0.7563029402188598,-15.548375822332433,-7.069556509064254,17.143100768240178,-1.6953088689145355,-17.131391070881637,24.294948778183098,-0.8461943067540183,22.60379783396025,-0.8573534560651226,0.5993037066666667,0.4675978533333333,0.18990596000000004,1.2568075200000002,0.7835030050420159,0.9993286623296516,1.001327230239344,1.001327230239344
LBP06_S02,LBP06,-1586,65,2,64,-1586,1716263187.56,2024-05-21 03:46:27.560000+00:00,2024-05-21 12:46:27.560000+09:00,2024,5,21,3,46,27,560,,,,,,,,,0.15918,-0.132568,1.275879,-226.68457,44.372559,11.474609,,,,,,,,,,,0.0,1.0,1.0,2.0,0.0,0.0,0.0,7.0,0.0,0.22394852,-0.2574739466666667,0.98708332,19.608561173333335,6.850585906666669,-3.087565133333334,-10.664968665684919,-6.347064086314225,-3.7113090624323273,16.71650202161278,-1.9491914323671045,-17.27984343337893,24.121230817698468,-0.8510520176167212,22.845288327956048,-0.8592769985120661,-0.06476852000000002,0.12490594666666668,0.28879568,0.4784701466666667,0.32124663653079544,0.9620444133714255,0.9770386376068957,0.9770386376068957
LBP06_S02,LBP06,-1585,66,2,65,-1585,1716263187.6,2024-05-21 03:46:27.600000+00:00,2024-05-21 12:46:27.600000+09:00,2024,5,21,3,46,27,600,,,,,,,,,0.418945,-1.690674,2.026855,-138.916016,-94.482422,-31.188965,,,,,,,,,,,0.0,1.0,1.0,2.0,0.0,0.0,0.0,7.0,0.0,0.23675777333333334,-0.2705240666666667,1.0165852666666666,19.723307266666666,5.112304666666668,-4.107259146666667,-19.752470524105963,4.777841926521399,-0.9874816742178966,15.92640320064854,-1.7580777553062485,-17.319342700347644,23.594507578574635,-0.8479958428676077,22.861951414388113,-0.8609881672553519,0.18218722666666667,-1.4201499333333334,1.0102697333333333,2.612606893333333,1.7523307201543226,0.9798156899306146,1.0037728473499103,1.0037728473499103
LBP06_S02,LBP06,-1584,67,2,66,-1584,1716263187.64,2024-05-21 03:46:27.640000+00:00,2024-05-21 12:46:27.640000+09:00,2024,5,21,3,46,27,640,,,,,,,,,0.760986,-0.886719,2.072266,205.078125,47.485352,3.356934,,,,,,,,,,,0.0,1.0,1.0,2.0,0.0,0.0,0.0,7.0,0.0,0.24439774666666664,-0.2696516666666667,1.03756184,20.069173146666664,6.590983053333334,-4.1300456,-25.684867318559462,15.424230796947773,1.0201240685090993,14.899008507906162,-1.1411085234283376,-17.27853773760728,22.84360850502433,-0.831658975511803,22.712847864622837,-0.859686001408634,0.5165882533333335,-0.6170673333333334,1.03470416,2.168359746666667,1.310819673361062,1.0005774143920623,1.0140077415502822,1.0140077415502822
LBP06_S02,LBP06,-1583,68,2,67,-1583,1716263187.68,2024-05-21 03:46:27.680000+00:00,2024-05-21 12:46:27.680000+09:00,2024,5,21,3,46,27,680,,,,,,,,,-0.160889,0.980713,0.389404,49.865723,243.774414,76.904297,,,,,,,,,,,0.0,1.0,1.0,2.0,0.0,0.0,0.0,7.0,0.0,0.23384761333333334,-0.2773306933333333,1.0395703066666666,19.03971352,10.823567680000002,-3.809407586666666,-27.7934438698965,23.520758412706076,2.3869762742726213,13.787270753110302,-0.20027818692009447,-17.183058686636375,22.031487739145454,-0.8654771133040422,22.47374705359357,-0.856570511449449,-0.3947366133333333,1.2580436933333332,-0.6501663066666666,2.3029466133333334,1.4701044706299675,1.0338278892612467,1.02872053926253,1.02872053926253
LBP06_S02,LBP06,-1582,69,2,68,-1582,1716263187.72,2024-05-21 03:46:27.720000+00:00,2024-05-21 12:46:27.720000+09:00,2024,5,21,3,46,27,720,,,,,,,,,0.19751,-0.397949,0.270264,-84.594727,-33.02002,-7.385254,,,,,,,,,,,0.0,1.0,1.0,2.0,0.0,0.0,0.0,7.0,0.0,0.21940425333333338,-0.2720702666666666,1.01799152,19.8502604,10.66406248,-3.39274092,-25.421777773013524,27.80529216926484,3.300406929895078,12.770399642189762,0.9119334998504991,-17.051042409440573,21.32258842115401,-0.8863797934664481,22.23290602897327,-0.8547386746553618,-0.02189425333333339,-0.12587873333333338,-0.74772752,0.8955005066666668,0.7585652628482132,1.027670457106356,1.0202781868745827,1.0202781868745827
LBP06_S02,LBP06,-1581,70,2,69,-1581,1716263187.76,2024-05-21 03:46:27.760000+00:00,2024-05-21 12:46:27.760000+09:00,2024,5,21,3,46,27,760,,,,,,,,,0.13501,-0.29541,0.761963,120.117188,-53.405762,-54.992676,,,,,,,,,,,0.0,1.0,1.0,2.0,0.0,0.0,0.0,7.0,0.0,0.22193681333333332,-0.26651688,1.00108072,19.510904933333332,8.830566386666668,-3.15592452,-18.002210939160744,28.002872354453007,3.95814023073946,12.050311204623332,2.032048394028619,-16.892716800210994,20.84953480766599,-0.8713691160771975,22.086255756656406,-0.8538923322869445,-0.08692681333333332,-0.028893119999999994,-0.2391177200000001,0.3549376533333334,0.2560632095354993,0.998033265355902,0.9971201572582468,0.9971201572582468
LBP06_S02,LBP06,-1580,71,2,70,-1580,1716263187.8,2024-05-21 03:46:27.800000+00:00,2024-05-21 12:46:27.800000+09:00,2024,5,21,3,46,27,800,,,,,,,,,0.915527,0.662598,1.528809,-25.512695,23.132324,-22.033691,,,,,,,,,,,0.0,1.0,1.0,2.0,0.0,0.0,0.0,7.0,0.0,0.22390621333333333,-0.26401688,0.9821386666666666,18.6775716,7.99397784,-2.059733106666667,-5.435392276392524,24.6742350433037,4.44256487079312,11.832895513567632,3.0190177957607673,-16.71501420537927,20.70081120565472,-0.8627053837981141,22.125953143615003,-0.8567315808420777,0.6916207866666666,0.92661488,0.5466703333333335,2.164906,1.2789851061422142,0.9912683701833167,1.0054103028136576,1.0054103028136576
LBP06_S02,LBP06,-1579,72,2,71,-1579,1716263187.84,2024-05-21 03:46:27.840000+00:00,2024-05-21 12:46:27.840000+09:00,2024,5,21,3,46,27,840,,,,,,,,,0.09082,-0.674805,1.724854,-337.890625,-3.356934,25.878906,,,,,,,,,,,0.0,1.0,1.0,2.0,0.0,0.0,0.0,7.0,0.0,0.22696610666666667,-0.2621190933333334,0.9791406266666667,20.35400389333333,5.485839826666668,-1.9962565466666673,11.392972593132052,18.877558007077674,4.644268480355683,12.288614417292914,3.7741201160438744,-16.529243466165042,20.93967326657668,-0.8529717685613879,22.42288798983079,-0.8581125442066704,-0.13614610666666666,-0.4126859066666666,0.7457133733333334,1.2945453866666667,0.8630955075134846,0.9839790326869361,1.0013441658050812,1.0013441658050812
LBP06_S02,LBP06,-1578,73,2,72,-1578,1716263187.88,2024-05-21 03:46:27.880000+00:00,2024-05-21 12:46:27.880000+09:00,2024,5,21,3,46,27,880,,,,,,,,,0.167725,-0.786621,1.993896,-62.37793,-87.463379,9.338379,,,,,,,,,,,0.0,1.0,1.0,2.0,0.0,0.0,0.0,7.0,0.0,0.23782222666666664,-0.2623599866666667,1.0075065066666666,20.884602853333334,4.5157877466666685,-2.2558594000000003,30.308829667235614,11.84939257873821,4.296950444857743,13.500967603982339,4.248095819193403,-16.357365448370732,21.63066917005532,-0.8315824285962778,23.011093836384056,-0.8595154122553902,-0.07009722666666662,-0.5242610133333333,0.9863894933333333,1.5807477333333333,1.119253083018332,0.9487974840900841,1.0046194135054494,1.0046194135054494
LBP06_S02,LBP06,-1577,74,2,73,-1577,1716263187.92,2024-05-21 03:46:27.920000+00:00,2024-05-21 12:46:27.920000+09:00,2024,5,21,3,46,27,920,,,,,,,,,0.47998,-1.102783,2.117432,276.672363,88.378906,-5.065918,,,,,,,,,,,0.0,1.0,1.0,2.0,0.0,0.0,0.0,7.0,0.0,0.24139970666666666,-0.2698437066666667,1.0235384133333334,19.65983072,5.296223946666668,-1.517740906666667,48.08867780967039,4.831411025083041,3.1196118018260135,15.424514716369154,4.441352260196725,-16.23258097629769,22.82844605501445,-0.8377308830698454,23.881893388922467,-0.8598505687381047,0.23858029333333336,-0.8329392933333334,1.0938935866666666,2.1654131733333335,1.395461071365345,0.9506408909416453,1.0151827015557167,1.0151827015557167
LBP06_S02,LBP06,-1576,75,2,74,-1576,1716263187.96,2024-05-21 03:46:27.960000+00:00,2024-05-21 12:46:27.960000+09:00,2024,5,21,3,46,27,960,,,,,,,,,-0.105713,-0.636963,0.494385,106.079102,168.395996,57.434082,,,,,,,,,,,0.0,1.0,1.0,2.0,0.0,0.0,0.0,7.0,0.0,0.22860998666666665,-0.2794888933333333,1.0180761733333332,21.248372386666667,7.601725253333334,-0.7202148533333338,61.290674532018315,-0.9770414243877558,0.9951722351327228,17.87614169764989,4.402270603221215,-16.19277408689238,24.518204687284427,-0.8794445031680526,24.989757387515745,-0.8535526992489244,-0.33432298666666665,-0.3574741066666666,-0.5236911733333331,1.2154882666666664,0.7168068368661774,0.953942320275924,1.0073307051165183,1.0073307051165183
LBP06_S02,LBP06,-1575,76,2,75,-1575,1716263188.0,2024-05-21 03:46:28+00:00,2024-05-21 12:46:28+09:00,2024,5,21,3,46,28,0,3.0,46.0,28.0,40.538754,141.6073,-1.676,3.0,13.0,-0.144287,0.41626,-0.104248,249.084473,-5.371094,-3.540039,-577.0,99.0,525.0,825.0,0.0,1025.300049,21.860001,0.121891,-99.786659,3.853125,0.0,1.0,1.0,2.0,0.0,0.0,0.0,5.0,0.0,0.22430986666666664,-0.2639355066666667,0.9921223999999998,24.099934893333334,8.116861973333334,-0.6681315200000005,67.34355189536006,-4.474994441712511,-1.907147481457086,20.56988377346429,4.2232708255527145,-16.269059986150666,26.563856040732546,-0.8618054765135337,26.266254843710236,-0.8476572674907432,-0.36859686666666663,0.6801955066666667,-1.0963703999999999,2.1451627733333334,1.3418485873607973,0.9774436241081207,1.0159080867125256,1.0159080867125256
LBP06_S02,LBP06,-1574,77,2,76,-1574,1716263188.04,2024-05-21 03:46:28.040000+00:00,2024-05-21 12:46:28.040000+09:00,2024,5,21,3,46,28,40,,,,,,,,,0.076904,0.288818,0.340332,28.320312,-131.713867,-14.526367,,,,,,,,,,,0.0,1.0,1.0,2.0,0.0,0.0,0.0,5.0,0.0,0.22226885333333332,-0.2526562133333333,0.9674609333333334,22.731119786666667,8.384602853333334,0.20589191999999945,65.36832443840797,-4.852581797022451,-5.131559813483917,23.18461675100061,4.029167553671816,-16.474322378690022,28.725666970556954,-0.8456876559990026,27.63543902194101,-0.8453102273311913,-0.14536485333333332,0.5414742133333333,-0.6271289333333334,1.313968,0.8411991222733047,0.9677265730947375,1.011540362601545,1.011540362601545
LBP06_S02,LBP06,-1573,78,2,77,-1573,1716263188.08,2024-05-21 03:46:28.080000+00:00,2024-05-21 12:46:28.080000+09:00,2024,5,21,3,46,28,80,,,,,,,,,0.986084,-0.580566,1.036621,-14.587402,-119.07959,-29.541016,,,,,,,,,,,0.0,1.0,1.0,2.0,0.0,0.0,0.0,5.0,0.0,0.21767576,-0.2601692266666667,0.9448209599999999,20.246582026666665,6.088867173333335,0.1041666533333327,56.36335552923528,-1.8993571809762035,-8.065811746081122,25.439150972170022,3.953193266432768,-16.796954848533268,30.73948326452957,-0.8688286781311886,29.02425074598146,-0.8476346164350564,0.76840824,-0.32039677333333333,0.09180004000000008,1.1806050533333334,0.8375754073552485,0.9654506052384706,1.0072973149126108,1.0072973149126108
LBP06_S02,LBP06,-1572,79,2,78,-1572,1716263188.12,2024-05-21 03:46:28.120000+00:00,2024-05-21 12:46:28.120000+09:00,2024,5,21,3,46,28,120,,,,,,,,,0.335449,0.129883,1.100586,-52.612305,68.359375,15.136719,,,,,,,,,,,0.0,1.0,1.0,2.0,0.0,0.0,0.0,5.0,0.0,0.23252276,-0.2521451466666667,0.9509114533333334,19.96988932,2.6139322800000007,-0.23518881333333388,42.74227294865645,3.764762058337017,-10.148030665466562,27.14884189011628,4.103783748766249,-17.20287607515193,32.40122840708675,-0.8234010985746434,30.365948965460216,-0.8491359349570153,0.10292624,0.38202814666666673,0.14967454666666669,0.6346289333333335,0.4230151127867396,0.9467652335926082,0.993385833909614,0.993385833909614
LBP06_S02,LBP06,-1571,80,2,79,-1571,1716263188.16,2024-05-21 03:46:28.160000+00:00,2024-05-21 12:46:28.160000+09:00,2024,5,21,3,46,28,160,,,,,,,,,0.194092,-0.814209,2.096191,62.438965,-1.403809,-64.025879,,,,,,,,,,,0.0,1.0,1.0,2.0,0.0,0.0,0.0,5.0,0.0,0.23795896,-0.25206376,0.9594303333333333,18.10872396,2.3738606666666673,1.198730453333333,27.5117062059236,10.748979601461361,-11.060796329644825,28.249310138353223,4.533742932824703,-17.645307928337722,33.61450936961095,-0.8124147984953857,31.6010353948676,-0.8487054747279481,-0.04386696000000001,-0.56214524,1.136760666666667,1.7427728666666669,1.2689193805418626,0.9269300634194199,0.9997935908080383,0.9997935908080383
LBP06_S02,LBP06,-1570,81,2,80,-1570,1716263188.2,2024-05-21 03:46:28.200000+00:00,2024-05-21 12:46:28.200000+09:00,2024,5,21,3,46,28,200,,,,,,,,,0.421143,-0.311523,2.075684,8.544922,-24.841309,-55.358887,,,,,,,,,,,0.0,1.0,1.0,2.0,0.0,0.0,0.0,5.0,0.0,0.23696286666666666,-0.2658951466666667,0.9648144399999999,14.355468746666666,2.9606119733333336,3.165690079999999,13.455249093615699,17.293825498944692,-10.82654910344722,28.78752010209785,5.225495952782491,-18.07836989247561,34.39265298796245,-0.8392349822025947,32.68217472130357,-0.8433242766295042,0.18418013333333333,-0.0456278533333333,1.1108695599999998,1.3406775466666665,1.1269584738796217,0.9455290382013873,1.002683701786938,1.002683701786938
LBP06_S02,LBP06,-1569,82,2,81,-1569,1716263188.24,2024-05-21 03:46:28.240000+00:00,2024-05-21 12:46:28.240000+09:00,2024,5,21,3,46,28,240,,,,,,,,,0.453857,-0.469238,1.56958,-55.236816,155.273438,22.888184,,,,,,,,,,,0.0,1.0,1.0,2.0,0.0,0.0,0.0,5.0,0.0,0.23348305333333333,-0.28389645333333335,0.97301756,18.28694661333333,2.374674480000001,2.8719075199999997,2.580040118548706,21.86401279689755,-9.756643404524082,28.8907217068398,6.100056464658393,-18.468635628656575,34.827790506981174,-0.8762156596000397,33.58374245519226,-0.839966425439516,0.22037394666666668,-0.18534154666666663,0.59656244,1.0022779333333334,0.662422003038085,0.9287621795720448,0.9951223307036301,0.9951223307036301
LBP06_S02,LBP06,-1568,83,2,82,-1568,1716263188.28,2024-05-21 03:46:28.280000+00:00,2024-05-21 12:46:28.280000+09:00,2024,5,21,3,46,28,280,,,,,,,,,-0.42041,-0.136963,-0.625,-25.32959,172.851562,76.599121,,,,,,,,,,,0.0,1.0,1.0,2.0,0.0,0.0,0.0,5.0,0.0,0.24428382666666668,-0.27864906666666667,0.9688183466666668,22.049153653333335,3.2706705733333337,3.2088215866666663,-4.084837496369197,23.665149755788946,-8.272824923774001,28.72732820698503,7.046662454889951,-18.799548625607535,35.04765136484292,-0.8465956138158666,34.309594717697934,-0.8378193721442996,-0.6646938266666667,0.14168606666666667,-1.5938183466666667,2.40019824,1.7326712749011322,0.9673272949146628,1.0111560034035758,1.0111560034035758
LBP06_S02,LBP06,-1567,84,2,83,-1567,1716263188.32,2024-05-21 03:46:28.320000+00:00,2024-05-21 12:46:28.320000+09:00,2024,5,21,3,46,28,320,,,,,,,,,0.2771,-0.027588,0.281494,61.828613,-50.964355,-14.587402,,,,,,,,,,,0.0,1.0,1.0,2.0,0.0,0.0,0.0,5.0,0.0,0.2448111733333333,-0.2714485466666666,0.9509082000000001,23.492838546666665,7.70507812,4.372558573333333,-6.380990924229572,22.835744965707875,-6.693162302351305,28.47208857001585,7.960092253518266,-19.067275117701588,35.17931034908829,-0.8334262807791735,34.89295201940685,-0.8341966718490251,0.032288826666666715,0.24386054666666662,-0.6694142000000001,0.9455635733333334,0.7131801355265832,0.9669038107399404,1.0048160913210866,1.0048160913210866
LBP06_S02,LBP06,-1566,85,2,84,-1566,1716263188.36,2024-05-21 03:46:28.360000+00:00,2024-05-21 12:46:28.360000+09:00,2024,5,21,3,46,28,360,,,,,,,,,0.480713,0.235596,0.512939,145.385742,-99.79248,-25.024414,,,,,,,,,,,0.0,1.0,1.0,2.0,0.0,0.0,0.0,5.0,0.0,0.23720700000000003,-0.2585709466666667,0.9330696666666667,21.217447933333332,7.147623693333333,5.7267252399999995,-4.737886066845703,20.218024389248253,-5.101568791269175,28.282573127342022,8.768813229088197,-19.271337869352354,35.32959795164411,-0.8256325221836122,35.38810703963452,-0.8371912017980371,0.24350599999999997,0.4941669466666667,-0.42013066666666665,1.1578036133333334,0.6928245956139505,0.9432719484935878,0.9983162684938547,0.9983162684938547
LBP06_S02,LBP06,-1565,86,2,85,-1565,1716263188.4,2024-05-21 03:46:28.400000+00:00,2024-05-21 12:46:28.400000+09:00,2024,5,21,3,46,28,400,,,,,,,,,0.333252,-0.209473,0.976562,-56.213379,-26.916504,-11.59668,,,,,,,,,,,0.0,1.0,1.0,2.0,0.0,0.0,0.0,5.0,0.0,0.24099280000000003,-0.2641894266666667,0.94385092,19.30338544,6.336263026666667,5.710449199999999,0.10826360449846051,16.843819577124915,-3.366158604096057,28.286903671521962,9.442566012173193,-19.405984213516195,35.5795333796194,-0.828226964613653,35.858288393943674,-0.8394788837143355,0.09225919999999996,0.054716426666666734,0.032711080000000003,0.1796867066666667,0.11214125951930053,0.9289903723135815,0.9802310642290678,0.9802310642290678
LBP06_S02,LBP06,-1564,87,2,86,-1564,1716263188.44,2024-05-21 03:46:28.440000+00:00,2024-05-21 12:46:28.440000+09:00,2024,5,21,3,46,28,440,,,,,,,,,0.110107,-0.560303,1.492188,-119.750977,-13.793945,-18.554688,,,,,,,,,,,0.0,1.0,1.0,2.0,0.0,0.0,0.0,5.0,0.0,0.24472652,-0.26598629333333335,0.95200196,19.196777373333333,6.019694013333333,5.773925759999999,7.26896729122032,13.43858281401877,-1.2764762613750071,28.577662363170774,9.980109324733943,-19.457043263971194,35.98418959561373,-0.8242171230468376,36.36484263321561,-0.83995205713144,-0.13461952,-0.29431670666666665,0.54018604,0.9691222666666667,0.6297187442017466,0.9162204035604856,0.9732208178285213,0.9732208178285213
LBP06_S02,LBP06,-1563,88,2,87,-1563,1716263188.48,2024-05-21 03:46:28.480000+00:00,2024-05-21 12:46:28.480000+09:00,2024,5,21,3,46,28,480,,,,,,,,,0.496582,-0.765625,1.637207,-43.334961,-20.690918,-15.808105,,,,,,,,,,,0.0,1.0,1.0,2.0,0.0,0.0,0.0,5.0,0.0,0.24013341333333335,-0.2657063466666667,0.9531901199999999,19.948730493333333,7.125651040000001,5.859374973333333,15.75210785736068,10.2159878739272,1.2908701960027993,29.207746677465202,10.388748839691031,-19.40540845613108,36.57305628161865,-0.8326016751784451,36.96087347660905,-0.8366771539399203,0.2564485866666667,-0.4999186533333333,0.6840168800000002,1.44038412,0.885191295528192,0.9317559990213597,0.9725785347879363,0.971494748763809
LBP06_S02,LBP06,-1562,89,2,88,-1562,1716263188.52,2024-05-21 03:46:28.520000+00:00,2024-05-21 12:46:28.520000+09:00,2024,5,21,3,46,28,520,,,,,,,,,0.44165,-0.592041,1.692627,32.043457,90.759277,19.714355,,,,,,,,,,,0.0,1.0,1.0,2.0,0.0,0.0,0.0,5.0,0.0,0.23917313333333334,-0.2768294,0.9564290533333334,19.812825546666666,6.229654946666668,6.0628254933333325,24.54062505941776,7.033333736309641,4.262792321688702,30.189371679841912,10.670082189143416,-19.23489676326353,37.35277860936348,-0.8533463980647631,37.689309301066224,-0.8356795938996809,0.20247686666666664,-0.31521160000000004,0.7361979466666667,1.2538864133333334,0.826040344647843,0.9334574926055929,0.9663930774676223,0.9686975486846559
LBP06_S02,LBP06,-1561,90,2,89,-1561,1716263188.56,2024-05-21 03:46:28.560000+00:00,2024-05-21 12:46:28.560000+09:00,2024,5,21,3,46,28,560,,,,,,,,,-0.421875,-0.415527,-0.084229,175.78125,179.931641,31.860352,,,,,,,,,,,0.0,1.0,1.0,2.0,0.0,0.0,0.0,5.0,0.0,0.2413736533333333,-0.26866208,0.9525586133333334,22.03694664,5.7039388,6.379394493333333,32.79141227988299,3.750041713340318,7.353932753671443,31.50102817103723,10.820083857677028,-18.940739453116674,38.31632291270255,-0.8352916176583715,38.58287059414174,-0.8356562472381912,-0.6632486533333333,-0.14686491999999995,-1.0367876133333334,1.8469011866666665,1.2395146776204453,0.9701882142491789,0.966116313810302,0.9738073058343877
LBP06_S02,LBP06,-1560,91,2,90,-1560,1716263188.6,2024-05-21 03:46:28.600000+00:00,2024-05-21 12:46:28.600000+09:00,2024,5,21,3,46,28,600,,,,,,,,,-0.085938,0.362305,0.024414,142.51709,-11.535645,-24.108887,,,,,,,,,,,0.0,1.0,1.0,2.0,0.0,0.0,0.0,5.0,0.0,0.23810542666666668,-0.2700390266666667,0.9464257999999999,21.462402373333333,4.9991862,5.785318973333333,40.07141257259176,0.515428283245445,10.13338442736138,33.103884673940904,10.840700989006846,-18.535404076022218,39.458195380681744,-0.8439667163736394,39.6630528717501,-0.8401849862537615,-0.3240434266666667,0.6323440266666667,-0.9220117999999998,1.8783992533333334,1.1640313010250751,0.9466562374840088,0.9632359637073117,0.977329972411993
LBP06_S02,LBP06,-1559,92,2,91,-1559,1716263188.64,2024-05-21 03:46:28.640000+00:00,2024-05-21 12:46:28.640000+09:00,2024,5,21,3,46,28,640,,,,,,,,,0.188721,0.001465,0.469238,-5.371094,-139.221191,19.348145,,,,,,,,,,,0.0,1.0,1.0,2.0,0.0,0.0,0.0,5.0,0.0,0.23473629333333335,-0.26589514666666664,0.9400097733333332,19.95930993333333,3.776855480000001,6.148274706666666,46.427675070444394,-2.223079463605018,12.13866832325171,34.96099167675868,10.751777810462645,-18.04985734309215,40.788098940915646,-0.8434666276848407,40.937133063283426,-0.8434541172240344,-0.046015293333333346,0.26736014666666663,-0.47077177333333325,0.7841472133333331,0.5433460387392048,0.9159572920991346,0.9582673532455985,0.9694393554361243
LBP06_S02,LBP06,-1558,93,2,92,-1558,1716263188.68,2024-05-21 03:46:28.680000+00:00,2024-05-21 12:46:28.680000+09:00,2024,5,21,3,46,28,680,,,,,,,,,0.702881,-0.1604,1.002197,39.123535,-53.161621,8.422852,,,,,,,,,,,0.0,1.0,1.0,2.0,0.0,0.0,0.0,5.0,0.0,0.24229489333333334,-0.2704882533333334,0.9509928533333333,20.133463586666668,3.3732096400000002,6.050618466666666,52.16005179048033,-3.9870512189967995,13.002120635853968,37.04739374837789,10.592295761702774,-17.529772517657992,42.33200960941464,-0.8366200134134736,42.39471947645906,-0.8451386821838103,0.46058610666666666,0.11008825333333339,0.05120414666666673,0.6218785066666668,0.476320112752132,0.8762059177840213,0.9550169035226338,0.96063365467391
LBP06_S02,LBP06,-1557,94,2,93,-1557,1716263188.72,2024-05-21 03:46:28.720000+00:00,2024-05-21 12:46:28.720000+09:00,2024,5,21,3,46,28,720,,,,,,,,,0.293701,0.023926,1.156738,-113.342285,1.098633,68.115234,,,,,,,,,,,0.0,1.0,1.0,2.0,0.0,0.0,0.0,5.0,0.0,0.23974606666666667,-0.2656347466666667,0.9471419333333334,19.882812533333333,3.907063813333334,6.829427066666666,57.38646248699367,-4.597567446082637,12.559726937684392,39.34285224785764,10.408393063859469,-17.027383440150615,44.11492327984341,-0.8331928141642767,44.006434448315574,-0.8469527517263874,0.053954933333333316,0.2895607466666667,0.20959606666666664,0.5531117466666666,0.3615066693759601,0.860323574045131,0.9439970155757434,0.9501226549318408
LBP06_S02,LBP06,-1556,95,2,94,-1556,1716263188.76,2024-05-21 03:46:28.760000+00:00,2024-05-21 12:46:28.760000+09:00,2024,5,21,3,46,28,760,,,,,,,,,0.140137,-1.26123,1.751709,-66.589355,-50.78125,-13.977051,,,,,,,,,,,0.0,1.0,1.0,2.0,0.0,0.0,0.0,5.0,0.0,0.22546546666666667,-0.27093748,0.9441178399999999,18.59537764,3.78987632,8.103841133333333,61.68007846091162,-4.318641554570935,10.911478433048874,41.81005538629411,10.235647401676632,-16.59092430282866,46.131420727727665,-0.8709199123393135,45.726264890671885,-0.8454324233806926,-0.08532846666666666,-0.9902925200000001,0.8075911600000001,1.883212146666667,1.2806887616051688,0.9013085961279179,0.94967093074191,0.9558220705641396
LBP06_S02,LBP06,-1555,96,2,95,-1555,1716263188.8,2024-05-21 03:46:28.800000+00:00,2024-05-21 12:46:28.800000+09:00,2024,5,21,3,46,28,800,,,,,,,,,0.373535,-0.831055,1.808594,252.13623,15.563965,-34.240723,,,,,,,,,,,0.0,1.0,1.0,2.0,0.0,0.0,0.0,5.0,0.0,0.2234114266666667,-0.26268877333333335,0.9295572933333334,18.916015653333332,2.277018253333334,9.076334626666666,64.05337875574158,-3.7073404550782385,8.410581882346296,44.372190536523775,10.087353783473501,-16.254501027534808,48.320335294952756,-0.8609182743163828,47.497033497748426,-0.8460723717002493,0.15012357333333332,-0.5683662266666667,0.8790367066666667,1.5975265066666666,1.0574889061134651,0.8924487481267679,0.9418585591550424,0.9575452372683654
LBP06_S02,LBP06,-1554,97,2,96,-1554,1716263188.84,2024-05-21 03:46:28.840000+00:00,2024-05-21 12:46:28.840000+09:00,2024,5,21,3,46,28,840,,,,,,,,,0.123779,0.023193,0.564209,132.080078,146.54541,52.856445,,,,,,,,,,,0.0,1.0,1.0,2.0,0.0,0.0,0.0,5.0,0.0,0.23136390666666665,-0.2607519333333333,0.9171419333333334,16.210123733333333,1.057128933333334,10.511067693333333,63.34923933448102,-3.2652855323040777,5.586358270827771,46.90616010990301,9.956742362181338,-16.031046696701697,50.560053727370025,-0.8410627726445968,49.257016735782365,-0.8461596090776002,-0.10758490666666665,0.2839449333333333,-0.3529329333333334,0.7444627733333333,0.46557587216201146,0.876547962712709,0.9302634976998226,0.9493457478499262
LBP06_S02,LBP06,-1553,98,2,97,-1553,1716263188.88,2024-05-21 03:46:28.880000+00:00,2024-05-21 12:46:28.880000+09:00,2024,5,21,3,46,28,880,,,,,,,,,-0.1521,-0.003174,-0.23877,101.623535,59.692383,-8.666992,,,,,,,,,,,0.0,1.0,1.0,2.0,0.0,0.0,0.0,5.0,0.0,0.22419594666666667,-0.25799802666666666,0.9007845066666668,16.598307319999996,0.8374023733333339,11.105143213333333,58.82548248025399,-3.1167693953842797,3.0314152497883478,49.25917940911317,9.832071586365966,-15.909790086710164,52.6902060001838,-0.8507423706042151,50.94585227824394,-0.8499694242450746,-0.37629594666666666,0.25482402666666665,-1.1395545066666668,1.77067448,1.2268326689930813,0.8808511461516989,0.9148243151208917,0.9538947137703058
LBP06_S02,LBP06,-1552,99,2,98,-1552,1716263188.92,2024-05-21 03:46:28.920000+00:00,2024-05-21 12:46:28.920000+09:00,2024,5,21,3,46,28,920,,,,,,,,,-0.035156,0.110107,0.209229,40.344238,-46.75293,-18.310547,,,,,,,,,,,0.0,1.0,1.0,2.0,0.0,0.0,0.0,5.0,0.0,0.2318847466666667,-0.25973957333333336,0.9069498800000001,18.507487013333332,-0.3833007599999994,10.419108053333332,50.59791742380511,-2.93278887864034,1.285303282125127,51.28309610606538,9.714760031220353,-15.858377955425158,54.55108303292657,-0.838143114607815,52.50911388378139,-0.8549377026670278,-0.2670407466666667,0.3698465733333334,-0.6977208800000001,1.3346082000000001,0.8336136242736645,0.8583772482680316,0.9045090696048385,0.9519546961977793
LBP06_S02,LBP06,-1551,100,2,99,-1551,1716263188.96,2024-05-21 03:46:28.960000+00:00,2024-05-21 12:46:28.960000+09:00,2024,5,21,3,46,28,960,,,,,,,,,0.579834,-0.137695,0.635742,-34.362793,-151.550293,17.028809,,,,,,,,,,,0.0,1.0,1.0,2.0,0.0,0.0,0.0,5.0,0.0,0.23502277333333335,-0.26528644,0.9213997600000001,18.01757816,1.4778646000000004,10.497233053333332,39.71904416512449,-2.168737532512112,0.7341330828012326,52.87185787267036,9.628010529919868,-15.829012632113109,56.024008983467965,-0.8416911008539396,53.90208790091354,-0.8567798099359958,0.34481122666666664,0.12759144,-0.2856577600000001,0.7580604266666667,0.4655907145174425,0.8483286033740823,0.9011354618250033,0.9442346329965041
LBP06_S02,LBP06,-1550,101,2,100,-1550,1716263189.0,2024-05-21 03:46:29+00:00,2024-05-21 12:46:29+09:00,2024,5,21,3,46,29,0,3.0,46.0,29.0,40.538719,141.607269,0.451,3.0,13.0,0.562256,-0.475098,1.085205,72.20459,-2.075195,15.319824,-586.0,72.0,547.0,973.0,0.0,1024.900024,21.92,0.117926,-96.489326,3.853125,0.0,1.0,1.0,2.0,0.0,0.0,0.0,4.0,0.0,0.22993487999999998,-0.2612272,0.9224446799999998,15.472819040000001,3.6857096400000002,12.31119789333333,27.895005304036463,-0.469034254797725,1.538148109119206,53.98765808483182,9.609249159727959,-15.767486707748342,57.058027761021144,-0.844839090147149,55.09342751005204,-0.8546223176487677,0.33232112,-0.21387080000000003,0.16276032000000018,0.7089522400000002,0.4273979031970055,0.8117505760075308,0.8945971000578257,0.9361590590933869
LBP06_S02,LBP06,-1549,102,2,101,-1549,1716263189.04,2024-05-21 03:46:29.040000+00:00,2024-05-21 12:46:29.040000+09:00,2024,5,21,3,46,29,40,,,,,,,,,0.086426,-0.255615,1.289307,-42.114258,7.751465,-14.404297,,,,,,,,,,,0.0,1.0,1.0,2.0,0.0,0.0,0.0,4.0,0.0,0.2153743333333333,-0.26494465333333334,0.9034733200000001,13.628743519999999,4.3758138,12.596028613333333,17.005066424858796,2.027325436527717,3.598142485850783,54.667860741826175,9.690342177189068,-15.62356100831431,57.67645436553142,-0.8815647793595838,56.06848574824443,-0.8538623915050779,-0.1289483333333333,0.009329653333333354,0.38583367999999985,0.5241116666666665,0.40691810444253634,0.7943793352942999,0.8810529541945187,0.9280168905602969
LBP06_S02,LBP06,-1548,103,2,102,-1548,1716263189.08,2024-05-21 03:46:29.080000+00:00,2024-05-21 12:46:29.080000+09:00,2024,5,21,3,46,29,80,,,,,,,,,0.348145,-0.9104,1.805908,3.601074,-33.38623,-35.03418,,,,,,,,,,,0.0,1.0,1.0,2.0,0.0,0.0,0.0,4.0,0.0,0.21324217333333334,-0.26514648,0.8882617333333334,16.305338573333334,3.049316400000001,12.47884112,8.61801011367015,4.677364704774593,6.572434567895793,55.01258114637298,9.877436765380052,-15.360663625598479,57.96462566478919,-0.8863027976330061,56.831080039343775,-0.8540639608099712,0.13490282666666664,-0.64525352,0.9176462666666667,1.6978026133333333,1.1298785547315775,0.806071461189353,0.8857610332139119,0.9310754006234981
LBP06_S02,LBP06,-1547,104,2,103,-1547,1716263189.12,2024-05-21 03:46:29.120000+00:00,2024-05-21 12:46:29.120000+09:00,2024,5,21,3,46,29,120,,,,,,,,,0.592773,-0.399658,1.792725,37.902832,32.470703,15.075684,,,,,,,,,,,0.0,1.0,1.0,2.0,0.0,0.0,0.0,4.0,0.0,0.21061848,-0.24273762666666665,0.86449872,16.746419306666667,2.530110666666667,13.54166664,3.6430999562071484,6.6263710510998015,9.95593987161663,55.158305144621266,10.142491607424045,-14.962426030733813,58.04466345116492,-0.8516138868539571,57.40224953199405,-0.8531453395741957,0.38215452,-0.15692037333333336,0.9282262799999998,1.4673011733333332,1.0160069426958367,0.829791134385717,0.8882781839891627,0.9323430355798017
LBP06_S02,LBP06,-1546,105,2,104,-1546,1716263189.16,2024-05-21 03:46:29.160000+00:00,2024-05-21 12:46:29.160000+09:00,2024,5,21,3,46,29,160,,,,,,,,,-0.060059,-0.24707,0.784668,15.441895,204.772949,62.62207,,,,,,,,,,,0.0,1.0,1.0,2.0,0.0,0.0,0.0,4.0,0.0,0.20597005333333332,-0.23621418666666666,0.8448958533333333,12.448730506666665,0.3027343600000002,13.997395800000001,2.176083934983652,7.229880042296573,13.217767047521328,55.24534850202061,10.431686809115908,-14.43371534883296,58.04481681911254,-0.8493449894670321,57.81559987159469,-0.8568930743254543,-0.2660290533333333,-0.010855813333333353,-0.06022785333333325,0.3371127199999999,0.27297747199668176,0.7899534580439096,0.8584417607316648,0.9226464831741675
LBP06_S02,LBP06,-1545,106,2,105,-1545,1716263189.2,2024-05-21 03:46:29.200000+00:00,2024-05-21 12:46:29.200000+09:00,2024,5,21,3,46,29,200,,,,,,,,,-0.24292,0.117432,-0.20752,-79.650879,7.324219,44.98291,,,,,,,,,,,0.0,1.0,1.0,2.0,0.0,0.0,0.0,4.0,0.0,0.21266276,-0.24612954666666667,0.8505631733333333,11.72200524,-3.4244791866666664,13.380533813333333,3.542736222999925,6.358194411670866,15.956685415451203,55.38705795094061,10.686014585582742,-13.795447932214913,58.070917676876725,-0.853319012879485,58.11041484393603,-0.8609684389639781,-0.45558276,0.3635615466666667,-1.0580831733333333,1.87722748,1.2080035807542182,0.7931952623188936,0.8693621502601405,0.9267820932840234
LBP06_S02,LBP06,-1544,107,2,106,-1544,1716263189.24,2024-05-21 03:46:29.240000+00:00,2024-05-21 12:46:29.240000+09:00,2024,5,21,3,46,29,240,,,,,,,,,0.014893,-0.311279,0.376221,3.356934,-88.989258,-12.756348,,,,,,,,,,,0.0,1.0,1.0,2.0,0.0,0.0,0.0,4.0,0.0,0.21468424,-0.24295572000000001,0.8641438933333334,8.92415368,-4.141438813333333,14.57682288,6.5159407512877525,4.397904440909601,18.00449051578156,55.64769558099212,10.861930763219126,-13.07526831158365,58.18599663836343,-0.843078465693529,58.32473587245668,-0.8632627452231972,-0.19979124,-0.06832327999999996,-0.4879228933333334,0.7560374133333334,0.5316515400236018,0.7879644437983143,0.8583633116851794,0.9211373710945888
LBP06_S02,LBP06,-1543,108,2,107,-1543,1716263189.28,2024-05-21 03:46:29.280000+00:00,2024-05-21 12:46:29.280000+09:00,2024,5,21,3,46,29,280,,,,,,,,,0.725586,-0.281982,0.782715,68.54248,-95.703125,10.742188,,,,,,,,,,,0.0,1.0,1.0,2.0,0.0,0.0,0.0,4.0,0.0,0.21617512,-0.2438085866666667,0.8762793066666665,5.789388053333333,-3.5221354266666665,15.679524706666667,9.66700902367529,1.9522430332659955,19.425718616366723,56.03437594193913,10.940020484549766,-12.298239566928983,58.401900926686565,-0.8415561582464606,58.49051124633339,-0.8614303681088898,0.5094108799999999,-0.03817341333333332,-0.09356430666666649,0.6411485999999997,0.5193370135373617,0.7394310733437633,0.8533791841292132,0.915478211128994
LBP06_S02,LBP06,-1542,109,2,108,-1542,1716263189.32,2024-05-21 03:46:29.320000+00:00,2024-05-21 12:46:29.320000+09:00,2024,5,21,3,46,29,320,,,,,,,,,0.26001,0.121094,0.771973,54.321289,-10.986328,33.26416,,,,,,,,,,,0.0,1.0,1.0,2.0,0.0,0.0,0.0,4.0,0.0,0.21122394666666666,-0.2564746133333333,0.8828645866666667,4.611002626666666,-3.26497396,16.258951786666668,11.77498654882468,-0.5519953953903337,20.4217943961341,56.50537540389212,10.917940668734152,-11.481367791083619,58.684586428933,-0.8756204621203992,58.63195892550167,-0.8552999046789067,0.04878605333333336,0.3775686133333333,-0.11089158666666665,0.5372462533333333,0.3965287893302955,0.726765019495912,0.8468344151179261,0.9082705802706789
LBP06_S02,LBP06,-1541,110,2,109,-1541,1716263189.36,2024-05-21 03:46:29.360000+00:00,2024-05-21 12:46:29.360000+09:00,2024,5,21,3,46,29,360,,,,,,,,,0.288574,-0.58252,1.548584,1.098633,-21.240234,-5.615234,,,,,,,,,,,0.0,1.0,1.0,2.0,0.0,0.0,0.0,4.0,0.0,0.21138670666666667,-0.26068033333333335,0.8708496,7.058105493333333,-1.2980143199999998,16.3387044,12.171999847124727,-3.077341140805071,21.198713496875445,56.99225539777711,10.79484702310195,-10.6334192512086,58.97215870688134,-0.8824447472391805,58.767024387531066,-0.8529593718307742,0.07718729333333332,-0.3218396666666667,0.6777344,1.07676136,0.7542297834450699,0.7292212270091567,0.8362465877513722,0.9061604323689582
LBP06_S02,LBP06,-1540,111,2,110,-1540,1716263189.4,2024-05-21 03:46:29.400000+00:00,2024-05-21 12:46:29.400000+09:00,2024,5,21,3,46,29,400,,,,,,,,,0.362061,-0.20459,1.555176,17.456055,-17.700195,1.464844,,,,,,,,,,,0.0,1.0,1.0,2.0,0.0,0.0,0.0,4.0,0.0,0.20445961333333335,-0.24410806666666668,0.8414029866666667,9.102376333333334,0.35074870666666697,16.824544239999998,10.90584670798189,-5.861275320419636,21.866678297742677,57.428489266096385,10.560396010285164,-9.758752119298894,59.20123804622768,-0.8677821527393382,58.910721153310625,-0.8518025269837451,0.15760138666666668,0.039518066666666685,0.7137730133333332,0.9108924666666666,0.7320326421924599,0.7540168823160832,0.8415036273148323,0.9038073541233297
LBP06_S02,LBP06,-1539,112,2,111,-1539,1716263189.44,2024-05-21 03:46:29.440000+00:00,2024-05-21 12:46:29.440000+09:00,2024,5,21,3,46,29,440,,,,,,,,,0.156494,-0.61084,1.074219,-41.809082,91.247559,33.447266,,,,,,,,,,,0.0,1.0,1.0,2.0,0.0,0.0,0.0,4.0,0.0,0.19795897333333334,-0.23398437333333333,0.8175781066666666,3.086751333333332,-2.7970377466666663,17.793782519999997,8.673366950228315,-9.045105092530559,22.415529753210706,57.77542394410552,10.198591806583941,-8.862130929170466,59.334208104298504,-0.8632410082165104,59.07864013446569,-0.8498128220937184,-0.04146497333333335,-0.3768556266666667,0.2566408933333334,0.6749614933333334,0.4578253547967735,0.7471411467398842,0.8316807751501849,0.8978609274656424
LBP06_S02,LBP06,-1538,113,2,112,-1538,1716263189.48,2024-05-21 03:46:29.480000+00:00,2024-05-21 12:46:29.480000+09:00,2024,5,21,3,46,29,480,,,,,,,,,-0.335693,0.207275,-0.354004,64.331055,139.953613,45.043945,,,,,,,,,,,0.0,1.0,1.0,2.0,0.0,0.0,0.0,4.0,0.0,0.20979490666666667,-0.22838216000000003,0.8235286266666667,2.3038737199999986,-6.056315093333333,17.04833981333333,6.5678783075241105,-12.286633891634496,22.769601317794166,58.03813907640648,9.707126450918562,-7.9513468764586985,59.37910245647195,-0.8249981633331736,59.28919833842939,-0.8496131403136653,-0.5454879066666667,0.43565716,-1.1775326266666668,2.1586776933333334,1.3689182971395142,0.766490226804337,0.8491231129128484,0.9038824321267366
LBP06_S02,LBP06,-1537,114,2,113,-1537,1716263189.52,2024-05-21 03:46:29.520000+00:00,2024-05-21 12:46:29.520000+09:00,2024,5,21,3,46,29,520,,,,,,,,,-0.006592,0.027832,0.156494,-14.038086,-34.240723,39.855957,,,,,,,,,,,0.0,1.0,1.0,2.0,0.0,0.0,0.0,4.0,0.0,0.21945961333333333,-0.24061523999999995,0.8478222400000001,-1.4803059733333346,-5.9431965999999985,16.770833306666667,5.731995147930359,-14.63480883133332,22.883002759293575,58.267418882323696,9.121734097665229,-7.036026766086955,59.3953180714589,-0.8282085583726339,59.563883607423634,-0.8485442455841457,-0.22605161333333332,0.26844724,-0.69132824,1.1858270933333332,0.7753050934797979,0.7644608167576152,0.8489591546816041,0.8990823238976198
LBP06_S02,LBP06,-1536,115,2,114,-1536,1716263189.56,2024-05-21 03:46:29.560000+00:00,2024-05-21 12:46:29.560000+09:00,2024,5,21,3,46,29,560,,,,,,,,,0.060791,0.00293,0.234863,-32.470703,-89.416504,39.855957,,,,,,,,,,,0.0,1.0,1.0,2.0,0.0,0.0,0.0,4.0,0.0,0.22643553333333336,-0.2535026,0.8704784933333334,0.10823570666666531,-3.7556966,16.504720026666664,7.008852482394746,-14.819209609808206,22.81224022971771,58.54777298161949,8.5289657132729,-6.123537156898247,59.481784476908146,-0.8377765409967413,59.925238233565224,-0.8433027483025051,-0.16564453333333334,0.2564326,-0.6356154933333333,1.0576926266666666,0.7051261200177983,0.7430852744535094,0.856636744351344,0.8917726340247046
LBP06_S02,LBP06,-1535,116,2,115,-1535,1716263189.6,2024-05-21 03:46:29.600000+00:00,2024-05-21 12:46:29.600000+09:00,2024,5,21,3,46,29,600,,,,,,,,,0.528076,-0.261719,0.623047,16.845703,-131.713867,-22.827148,,,,,,,,,,,0.0,1.0,1.0,2.0,0.0,0.0,0.0,4.0,0.0,0.22246417333333335,-0.24658529333333334,0.8851008933333333,-0.03173825333333468,-1.4933267999999997,16.9628906,10.671418478790365,-11.863074484438746,22.717931821507293,58.974629720771105,8.05444273389535,-5.214819884037955,59.7501074884273,-0.8334219639792168,60.392637678170956,-0.836332255578428,0.30561182666666664,-0.015133706666666635,-0.2620538933333333,0.5827994266666665,0.40286456866690007,0.7126386051591824,0.8296474213215957,0.8797035108579354
LBP06_S02,LBP06,-1534,117,2,116,-1534,1716263189.64,2024-05-21 03:46:29.640000+00:00,2024-05-21 12:46:29.640000+09:00,2024,5,21,3,46,29,640,,,,,,,,,0.424072,-0.066162,0.876221,48.76709,-26.428223,30.822754,,,,,,,,,,,0.0,1.0,1.0,2.0,0.0,0.0,0.0,4.0,0.0,0.22624998666666665,-0.2549934933333333,0.8980501066666666,-0.22460934666666796,-0.843912733333333,17.062988253333334,16.294904874022293,-5.709092362333189,22.794132159923482,59.626425915732,7.826079039402022,-4.303054597641016,60.29157867800049,-0.8410816478929984,60.97658945350245,-0.8292716645181957,0.19782201333333335,0.18883149333333332,-0.021829106666666598,0.40848261333333324,0.274349032678475,0.7018787249167532,0.8089180085079439,0.8728044771359833
LBP06_S02,LBP06,-1533,118,2,117,-1533,1716263189.68,2024-05-21 03:46:29.680000+00:00,2024-05-21 12:46:29.680000+09:00,2024,5,21,3,46,29,680,,,,,,,,,0.304688,-0.68335,1.260986,-94.848633,-11.84082,45.471191,,,,,,,,,,,0.0,1.0,1.0,2.0,0.0,0.0,0.0,4.0,0.0,0.22495115999999996,-0.24799805333333333,0.8864550533333333,-1.7358398133333348,1.8644206000000005,18.55794268,22.810517515111037,2.4931343613478867,23.167599015194444,60.53884661633644,7.925804413855937,-3.376350637033238,61.148753616629044,-0.8308672109512639,61.67324695659729,-0.8238110576623233,0.07973684000000006,-0.43535194666666666,0.37453094666666664,0.8896197333333333,0.5797954045442851,0.7060177365884392,0.7911118271862303,0.8720171812112357
LBP06_S02,LBP06,-1532,119,2,118,-1532,1716263189.72,2024-05-21 03:46:29.720000+00:00,2024-05-21 12:46:29.720000+09:00,2024,5,21,3,46,29,720,,,,,,,,,0.230713,-0.733887,1.668457,136.352539,-1.281738,-20.996094,,,,,,,,,,,0.0,1.0,1.0,2.0,0.0,0.0,0.0,4.0,0.0,0.2212857866666667,-0.2399609466666667,0.8684049199999998,-1.8489583066666682,1.2548828400000005,19.04947914666667,28.736683630260472,10.625017895537582,23.821478830701885,61.68831396154686,8.350805129677441,-2.4234914838051624,62.29813269034876,-0.8232054893039926,62.46125878330339,-0.8208905638745019,0.009427213333333295,-0.4939260533333333,0.8000520800000003,1.3034053466666669,0.9402846107562336,0.7291688542436502,0.7947462141443907,0.8723876284650458
LBP06_S02,LBP06,-1531,120,2,119,-1531,1716263189.76,2024-05-21 03:46:29.760000+00:00,2024-05-21 12:46:29.760000+09:00,2024,5,21,3,46,29,760,,,,,,,,,0.462646,-0.016846,1.532471,52.978516,48.156738,17.51709,,,,,,,,,,,0.0,1.0,1.0,2.0,0.0,0.0,0.0,4.0,0.0,0.2300650933333333,-0.24396810666666668,0.88030596,-2.294921853333335,-1.2915038799999994,18.778483053333332,32.536386371380864,16.295845980639342,24.58163101668403,62.9897694164021,9.002638968903016,-1.440226243137801,63.64615315293878,-0.812739819998413,63.30241081537736,-0.8211014465377877,0.2325809066666667,0.22712210666666668,0.6521650399999999,1.1118680533333332,0.7286957999609953,0.7070891357778832,0.8041988659529007,0.8688103324205677
LBP06_S02,LBP06,-1530,121,2,120,-1530,1716263189.8,2024-05-21 03:46:29.800000+00:00,2024-05-21 12:46:29.800000+09:00,2024,5,21,3,46,29,800,,,,,,,,,0.256592,-0.20459,1.053223,-53.222656,138.305664,48.76709,,,,,,,,,,,0.0,1.0,1.0,2.0,0.0,0.0,0.0,4.0,0.0,0.24217446666666664,-0.24836264,0.9202929333333333,-0.003255186666668427,-2.628580693333333,17.730305973333333,33.00985006334222,17.724056346934066,25.17751868112445,64.31016341893579,9.711601222780379,-0.433125495892823,65.04075579954255,-0.7971762421370114,64.14620562556844,-0.8197776066070738,0.014417533333333343,0.04377264,0.13293006666666674,0.19112024000000008,0.1406922595738367,0.6704172699162981,0.781433009021533,0.8513781294087943
LBP06_S02,LBP06,-1529,122,2,121,-1529,1716263189.84,2024-05-21 03:46:29.840000+00:00,2024-05-21 12:46:29.840000+09:00,2024,5,21,3,46,29,840,,,,,,,,,-0.303467,-0.329346,-0.181396,80.688477,122.86377,51.330566,,,,,,,,,,,0.0,1.0,1.0,2.0,0.0,0.0,0.0,4.0,0.0,0.24887042666666664,-0.26159506666666665,0.9471484,0.15543622666666504,-1.6495767866666666,17.544759093333337,29.620102885189137,14.437039102266587,25.359298467659414,65.49496753434335,10.289082786871042,0.5812464428135535,66.30078313524704,-0.8086349396577883,64.93737752417516,-0.8157553916602149,-0.5523374266666666,-0.06775093333333337,-1.1285444,1.74863276,1.2582842622538253,0.7021256055199707,0.7893367841163398,0.854217533639872
LBP06_S02,LBP06,-1528,123,2,122,-1528,1716263189.88,2024-05-21 03:46:29.880000+00:00,2024-05-21 12:46:29.880000+09:00,2024,5,21,3,46,29,880,,,,,,,,,-0.107178,0.202637,0.114502,98.022461,14.343262,4.394531,,,,,,,,,,,0.0,1.0,1.0,2.0,0.0,0.0,0.0,4.0,0.0,0.25274412,-0.25842449333333334,0.97306312,-1.2898762666666683,0.8203125333333336,18.025716120000002,22.669294436636218,7.476183730042339,25.023302371562284,66.4017393118088,10.588130136072735,1.5821785376760449,67.25922072353283,-0.7957932254549599,65.62475840215895,-0.8123666481336838,-0.35992212,0.46106149333333335,-0.85856112,1.6795447333333333,1.0388690147827646,0.6946070593515582,0.7877291027516286,0.8414185631977804
LBP06_S02,LBP06,-1527,124,2,123,-1527,1716263189.92,2024-05-21 03:46:29.920000+00:00,2024-05-21 12:46:29.920000+09:00,2024,5,21,3,46,29,920,,,,,,,,,0.106445,0.115967,0.403076,1.464844,-119.750977,31.616211,,,,,,,,,,,0.0,1.0,1.0,2.0,0.0,0.0,0.0,4.0,0.0,0.23835283999999995,-0.26237630666666667,0.9635188533333333,-2.3909504800000017,3.4554036800000003,18.839518213333335,13.274258969628313,-1.00588391795475,24.28921587222339,66.93270967059392,10.547894779354545,2.5537471725649805,67.80683839219859,-0.8303173850054909,66.16985393472856,-0.8087544571946967,-0.13190783999999994,0.37834330666666666,-0.5604428533333333,1.070694,0.6889408739546095,0.6888201493387959,0.7735986988034138,0.8326127628494909
LBP06_S02,LBP06,-1526,125,2,124,-1526,1716263189.96,2024-05-21 03:46:29.960000+00:00,2024-05-21 12:46:29.960000+09:00,2024,5,21,3,46,29,960,,,,,,,,,0.466064,-0.29126,0.88501,-41.442871,-100.646973,27.832031,,,,,,,,,,,0.0,1.0,1.0,2.0,0.0,0.0,0.0,4.0,0.0,0.24286781333333332,-0.26411784,0.95490556,1.3891601999999985,3.311360706666667,19.0641276,3.1284130919142075,-8.586029804991766,23.493541958715042,67.0578461942705,10.204453587154875,3.4934888509135824,67.91973257881905,-0.8245381416896028,66.55376959539296,-0.8075101112291041,0.22319618666666666,-0.027142160000000026,-0.06989556000000008,0.32023390666666673,0.23545408023587258,0.679614683967533,0.7639716436708077,0.8272952025391799
LBP06_S02,LBP06,-1525,126,2,125,-1525,1716263190.0,2024-05-21 03:46:30+00:00,2024-05-21 12:46:30+09:00,2024,5,21,3,46,30,0,3.0,46.0,30.0,40.538662,141.607254,2.167,3.0,14.0,0.343262,-0.390625,1.071045,-58.105469,-56.030273,52.429199,-584.0,65.0,550.0,1218.0,0.0,1024.800049,21.99,0.116936,-95.665085,3.853125,0.0,1.0,1.0,2.0,0.0,0.0,0.0,5.0,0.0,0.2428515333333333,-0.24692708000000002,0.9490819866666665,2.229817746666665,3.071289093333334,19.468587226666667,-5.896029238829942,-13.464039381472254,23.09640685853421,66.8220050247173,9.665892011895984,4.4173451252549505,67.6618264744944,-0.793199814510627,66.78141974975703,-0.8069976889728686,0.1004104666666667,-0.14369791999999998,0.12196301333333348,0.36607140000000016,0.21355638751835793,0.6710610233403871,0.7414057996739589,0.8200850744853462
LBP06_S02,LBP06,-1524,127,2,126,-1524,1716263190.04,2024-05-21 03:46:30.040000+00:00,2024-05-21 12:46:30.040000+09:00,2024,5,21,3,46,30,40,,,,,,,,,0.246826,-0.497803,1.413086,11.230469,-22.094727,21.240234,,,,,,,,,,,0.0,1.0,1.0,2.0,0.0,0.0,0.0,5.0,0.0,0.23936521333333333,-0.25076172,0.9490657066666666,-1.1466470933333346,2.1020508133333338,19.530436186666666,-12.181892703307724,-15.012206861941236,23.523953621570374,66.33472931658498,9.065403737418334,5.358303270117766,67.16538745783838,-0.8071942126276869,66.88199420716418,-0.8098485323455071,0.007460786666666663,-0.24704127999999997,0.4640202933333335,0.7185223600000001,0.5257374724963751,0.6758137980625406,0.7350965666784204,0.8126399021505261
LBP06_S02,LBP06,-1523,128,2,127,-1523,1716263190.08,2024-05-21 03:46:30.080000+00:00,2024-05-21 12:46:30.080000+09:00,2024,5,21,3,46,30,80,,,,,,,,,0.165283,-0.13208,1.41748,32.104492,-20.324707,-59.692383,,,,,,,,,,,0.0,1.0,1.0,2.0,0.0,0.0,0.0,5.0,0.0,0.24706704000000002,-0.25203775999999994,0.9753450133333333,-3.166503866666668,-0.4956054400000001,19.077962226666667,-14.70517683760787,-13.779193302626076,24.99176039017694,65.74652224308066,8.514236005313291,6.3579736857248434,66.5997089423253,-0.7947453015613939,66.90465844002237,-0.8113520369966917,-0.08178404,0.11995775999999994,0.44213498666666673,0.6438767866666667,0.4653620524040102,0.649233137969438,0.7276522995793955,0.8069184014657539
LBP06_S02,LBP06,-1522,129,2,128,-1522,1716263190.12,2024-05-21 03:46:30.120000+00:00,2024-05-21 12:46:30.120000+09:00,2024,5,21,3,46,30,120,,,,,,,,,0.388672,-0.378174,1.196777,-93.505859,66.650391,37.17041,,,,,,,,,,,0.0,1.0,1.0,2.0,0.0,0.0,0.0,5.0,0.0,0.25110350666666664,-0.26507813333333335,0.9955240533333334,-2.8898111600000007,1.0416667066666665,18.921712226666667,-13.208506395135192,-11.019567932646998,27.378872700862,65.21818198727526,8.073453288007412,7.453128593759324,66.1372892969927,-0.8107620296480667,66.90905237959298,-0.8083653179341678,0.13756849333333337,-0.11309586666666666,0.2012529466666666,0.45191730666666663,0.2687350255495253,0.6193422612835856,0.7245666978346513,0.798632876420637
LBP06_S02,LBP06,-1521,130,2,129,-1521,1716263190.16,2024-05-21 03:46:30.160000+00:00,2024-05-21 12:46:30.160000+09:00,2024,5,21,3,46,30,160,,,,,,,,,-0.106445,-0.246094,0.350098,30.273438,147.399902,62.37793,,,,,,,,,,,0.0,1.0,1.0,2.0,0.0,0.0,0.0,5.0,0.0,0.24320637333333336,-0.25498373333333335,0.9853645466666667,-2.4584960533333344,3.28531904,17.785644506666664,-8.212861891973581,-8.030089599136835,30.22154416812658,64.88966751159631,7.752249704041939,8.661990360484387,65.92265469657954,-0.8076155974360586,66.9516198419611,-0.8023446658878953,-0.34965137333333335,0.008889733333333344,-0.6352665466666667,0.9938076533333334,0.7251887309841597,0.6374307116430846,0.7136920848434972,0.7847714110354714
LBP06_S02,LBP06,-1520,131,2,130,-1520,1716263190.2,2024-05-21 03:46:30.200000+00:00,2024-05-21 12:46:30.200000+09:00,2024,5,21,3,46,30,200,,,,,,,,,-0.016357,0.007324,0.061523,21.66748,-8.300781,31.921387,,,,,,,,,,,0.0,1.0,1.0,2.0,0.0,0.0,0.0,5.0,0.0,0.23730793333333333,-0.25857424000000007,0.97954424,-4.816080680000002,2.65950524,17.10530596,-0.9054695796777761,-5.637082152782046,32.847247439584606,64.8534487284092,7.5267664179306575,9.975880258067772,66.04650037361402,-0.825684675863395,67.07054726662528,-0.7992657451162698,-0.25366493333333334,0.26589824000000006,-0.91802124,1.4375844133333335,0.9888431470810928,0.6286642942961597,0.7109297783075266,0.7891295316054802
LBP06_S02,LBP06,-1519,132,2,131,-1519,1716263190.24,2024-05-21 03:46:30.240000+00:00,2024-05-21 12:46:30.240000+09:00,2024,5,21,3,46,30,240,,,,,,,,,-0.022461,-0.074219,0.377197,38.085938,-69.946289,33.14209,,,,,,,,,,,0.0,1.0,1.0,2.0,0.0,0.0,0.0,5.0,0.0,0.23876952000000004,-0.25908205333333334,0.97141924,-3.076985626666668,1.2329101866666665,15.491536439999999,7.0497726971738865,-4.071364349519503,34.59864116709204,65.13543963629616,7.363911843949877,11.359825904751453,66.52742546382888,-0.8236699861696355,67.27304478426143,-0.798698595363166,-0.26123052,0.18486305333333336,-0.59422224,1.0403158133333335,0.6749191089144023,0.6343949970517917,0.711179720425053,0.7837072068073835
LBP06_S02,LBP06,-1518,133,2,132,-1518,1716263190.28,2024-05-21 03:46:30.280000+00:00,2024-05-21 12:46:30.280000+09:00,2024,5,21,3,46,30,280,,,,,,,,,0.353027,-0.109863,0.468506,-52.978516,-93.139648,55.114746,,,,,,,,,,,0.0,1.0,1.0,2.0,0.0,0.0,0.0,5.0,0.0,0.24279295999999997,-0.23295901333333333,0.9597753600000001,-5.277506466666668,1.8050130533333333,16.061197906666667,13.736029815237005,-3.2320096106199396,35.057541690250765,65.68488082890563,7.23463145952508,12.762127572361484,67.30316011923894,-0.7659260348297194,67.52830294699068,-0.7967761613379507,0.11023404,0.12309601333333332,-0.4912693600000001,0.7245994133333334,0.5183143410596426,0.634354090152683,0.6868925817482231,0.7803708194703698
LBP06_S02,LBP06,-1517,134,2,133,-1517,1716263190.32,2024-05-21 03:46:30.320000+00:00,2024-05-21 12:46:30.320000+09:00,2024,5,21,3,46,30,320,,,,,,,,,0.383301,-0.287842,0.663086,3.479004,-37.841797,45.043945,,,,,,,,,,,0.0,1.0,1.0,2.0,0.0,0.0,0.0,5.0,0.0,0.23833984,-0.23073896,0.9583918933333333,-13.520507760000001,1.2955729466666666,17.227376293333332,17.22132840257418,-3.109796258714886,34.18872912699574,66.3737339650086,7.110239609176484,14.129676737441313,68.23251301587996,-0.7701108645427676,67.76805159799463,-0.7980747331912714,0.14496116,-0.057103039999999994,-0.29530589333333335,0.4973700933333334,0.3338863065823234,0.631848390842764,0.6793067051693379,0.7751724070262054
LBP06_S02,LBP06,-1516,135,2,134,-1516,1716263190.36,2024-05-21 03:46:30.360000+00:00,2024-05-21 12:46:30.360000+09:00,2024,5,21,3,46,30,360,,,,,,,,,0.220215,-0.282471,0.968994,13.366699,-28.137207,38.696289,,,,,,,,,,,0.0,1.0,1.0,2.0,0.0,0.0,0.0,5.0,0.0,0.24717448,-0.25160809333333334,0.9826041333333332,-17.108561146666666,-2.512207,16.258951813333333,15.821348031046236,-4.063306451428991,32.35937079204613,67.00658788625044,6.947707351119325,15.424051569123158,69.10900682546068,-0.7937489339733477,67.89495590108618,-0.7984182981705449,-0.026959480000000008,-0.03086290666666669,-0.013610133333333163,0.07143251999999986,0.043180647275566475,0.6034064253959839,0.6663138262025703,0.7586332002995761
LBP06_S02,LBP06,-1515,136,2,135,-1515,1716263190.4,2024-05-21 03:46:30.400000+00:00,2024-05-21 12:46:30.400000+09:00,2024,5,21,3,46,30,400,,,,,,,,,0.42334,-0.468018,1.218262,31.25,-19.775391,11.047363,,,,,,,,,,,0.0,1.0,1.0,2.0,0.0,0.0,0.0,5.0,0.0,0.2582063866666667,-0.2593815333333333,1.0084928133333333,-15.878092399999998,-2.41943356,15.940755199999996,8.394375009614174,-6.754078442357146,30.23137577089392,67.34236288663502,6.67754421342504,16.633306599958914,69.68680165085581,-0.7875283169795888,67.79756294162107,-0.7961663800120139,0.16513361333333332,-0.2086364666666667,0.20976918666666666,0.5835392666666667,0.3388235486952889,0.587678061656097,0.6708474719860901,0.7568951054285872
LBP06_S02,LBP06,-1514,137,2,136,-1514,1716263190.44,2024-05-21 03:46:30.440000+00:00,2024-05-21 12:46:30.440000+09:00,2024,5,21,3,46,30,440,,,,,,,,,0.270264,-0.447021,1.202393,61.950684,75.073242,5.859375,,,,,,,,,,,0.0,1.0,1.0,2.0,0.0,0.0,0.0,5.0,0.0,0.25777344,-0.2591894666666667,1.0130859066666666,-14.860839786666668,1.0123698266666663,16.398111973333332,-5.374660182451316,-11.762010646625578,28.565030971223237,67.12737647933696,6.207063787560016,17.775907838807843,69.7179690851309,-0.7879698723755336,67.36929417544587,-0.7921758558084515,0.012490559999999984,-0.1878315333333333,0.1893070933333334,0.3896291866666667,0.26697167375918385,0.5800439144145935,0.6635925305772389,0.7478018215716544
LBP06_S02,LBP06,-1513,138,2,137,-1513,1716263190.48,2024-05-21 03:46:30.480000+00:00,2024-05-21 12:46:30.480000+09:00,2024,5,21,3,46,30,480,,,,,,,,,-0.219971,0.222412,0.626709,-30.883789,83.374023,39.489746,,,,,,,,,,,0.0,1.0,1.0,2.0,0.0,0.0,0.0,5.0,0.0,0.24681314666666665,-0.2588216266666667,1.00497068,-15.524902280000003,2.43815108,16.35904946666667,-24.792773403532507,-19.09282713221412,28.000875539130433,66.13566554319566,5.443350702271451,18.89594286037306,68.99719545236486,-0.8077310200946013,66.52814831219908,-0.7901124608834572,-0.4667841466666667,0.4812336266666667,-0.37826168000000004,1.3262794533333335,0.7697760333827648,0.5560782238643235,0.6612842253343303,0.7514414832300068
LBP06_S02,LBP06,-1512,139,2,138,-1512,1716263190.52,2024-05-21 03:46:30.520000+00:00,2024-05-21 12:46:30.520000+09:00,2024,5,21,3,46,30,520,,,,,,,,,-0.266113,-0.069092,-0.244629,-125.915527,3.173828,39.245605,,,,,,,,,,,0.0,1.0,1.0,2.0,0.0,0.0,0.0,5.0,0.0,0.2420638,-0.2573470133333333,0.9998437333333332,-14.966634053333333,2.2143555066666667,15.428059880000001,-48.16241318140164,-27.867310496420924,28.886632776224545,64.2091690159396,4.328658282414614,20.051408171422043,67.40633232790806,-0.8141976794408016,65.23340208894732,-0.7939341661743265,-0.5081768,0.18825501333333333,-1.2444727333333332,1.9409045466666666,1.3573488844484718,0.5793599755030704,0.6719103961303428,0.7590927616220928
LBP06_S02,LBP06,-1511,140,2,139,-1511,1716263190.56,2024-05-21 03:46:30.560000+00:00,2024-05-21 12:46:30.560000+09:00,2024,5,21,3,46,30,560,,,,,,,,,-0.000732,-0.147705,0.13501,-25.939941,-55.114746,2.685547,,,,,,,,,,,0.0,1.0,1.0,2.0,0.0,0.0,0.0,5.0,0.0,0.24877604,-0.24861654666666666,0.9934146933333333,-14.043782493333335,2.00032556,15.555826813333333,-72.98412295663856,-36.40751272802488,31.189188794062957,61.28980409767405,2.8723577732936194,21.29897572318456,64.94872510192843,-0.785096415850749,63.49566492307114,-0.7977495173790994,-0.24950804000000001,0.10091154666666666,-0.8584046933333334,1.20882428,0.8996088148812208,0.5871392832976073,0.6651122788755585,0.7668042573334318
LBP06_S02,LBP06,-1510,141,2,140,-1510,1716263190.6,2024-05-21 03:46:30.600000+00:00,2024-05-21 12:46:30.600000+09:00,2024,5,21,3,46,30,600,,,,,,,,,0.222168,-0.01001,0.244629,-105.834961,-133.422852,48.522949,,,,,,,,,,,0.0,1.0,1.0,2.0,0.0,0.0,0.0,5.0,0.0,0.24884113333333333,-0.24904298666666666,0.9890982933333333,-16.926269466666668,2.7685547199999996,15.948893226666666,-96.30474166462255,-42.733544345788744,34.50025524942236,57.437614431089145,1.1630159994620697,22.678985933161457,61.76381271186228,-0.7857794338277707,61.37742626039343,-0.7987699421324692,-0.02667313333333332,0.23903298666666667,-0.7444692933333333,1.0101754133333334,0.7823571776834654,0.60231898765827,0.6574787964087263,0.7538712767671538
LBP06_S02,LBP06,-1509,142,2,141,-1509,1716263190.64,2024-05-21 03:46:30.640000+00:00,2024-05-21 12:46:30.640000+09:00,2024,5,21,3,46,30,640,,,,,,,,,0.412354,-0.397461,0.602051,-117.248535,-119.567871,37.536621,,,,,,,,,,,0.0,1.0,1.0,2.0,0.0,0.0,0.0,5.0,0.0,0.24125650666666668,-0.2504687733333334,0.9866764133333333,-15.809733013333334,2.4682617466666663,15.262858066666665,-115.14173154406437,-45.260572573766076,38.1245350029284,52.83194516932657,-0.6474069034885734,24.20396733327859,58.11596683136082,-0.8030360369196926,58.98346318126556,-0.8009167633011977,0.17109749333333332,-0.14699222666666661,-0.38462541333333333,0.7027151333333332,0.44588986925833185,0.6091806211214642,0.6555296730191087,0.7423388793791174
LBP06_S02,LBP06,-1508,143,2,142,-1508,1716263190.68,2024-05-21 03:46:30.680000+00:00,2024-05-21 12:46:30.680000+09:00,2024,5,21,3,46,30,680,,,,,,,,,0.341064,0.237061,0.814453,-4.638672,-35.766602,30.639648,,,,,,,,,,,0.0,1.0,1.0,2.0,0.0,0.0,0.0,5.0,0.0,0.24978515999999998,-0.2599577066666667,1.0033756266666665,-16.56575516,-0.07405596000000014,14.066569013333334,-126.93774131191533,-43.371572387597624,41.22724920055309,47.75443551684996,-2.3822697989924784,25.853057301300716,54.35569788672123,-0.8041430877384128,56.44408783478913,-0.8024402800342691,0.09127884,0.4970187066666667,-0.18892262666666648,0.7772201733333332,0.5394915942579498,0.6075684687100108,0.6567931026492251,0.7299307076941571
LBP06_S02,LBP06,-1507,144,2,143,-1507,1716263190.72,2024-05-21 03:46:30.720000+00:00,2024-05-21 12:46:30.720000+09:00,2024,5,21,3,46,30,720,,,,,,,,,0.349121,-0.159912,1.288818,-294.433594,-86.791992,82.336426,,,,,,,,,,,0.0,1.0,1.0,2.0,0.0,0.0,0.0,5.0,0.0,0.25107747999999996,-0.2636100533333333,1.011416,-12.742512973333335,2.6139323199999995,13.6710612,-130.007991114045,-37.6012097094684,43.00710236135953,42.55411587228816,-3.8863181873712147,27.573341395755097,50.85514135711827,-0.8082643765904962,53.89681181253543,-0.7993082847489741,0.09804352000000005,0.10369805333333332,0.2774019999999999,0.4791435733333333,0.31195782997564464,0.5824353974787873,0.6558021258612188,0.7239759419225229
LBP06_S02,LBP06,-1506,145,2,144,-1506,1716263190.76,2024-05-21 03:46:30.760000+00:00,2024-05-21 12:46:30.760000+09:00,2024,5,21,3,46,30,760,,,,,,,,,0.246826,-0.359375,1.672119,-114.990234,-6.958008,27.709961,,,,,,,,,,,0.0,1.0,1.0,2.0,0.0,0.0,0.0,5.0,0.0,0.24710937333333333,-0.25705732,1.0018847466666667,-12.277018186666668,3.780110706666667,13.645833333333332,-123.90890278767918,-29.35396691624364,42.85537453633923,37.59775976078099,-5.06047686402096,29.287556377208666,47.92662019868363,-0.8039531815070453,51.47093512474264,-0.7980492774907998,-0.0002833733333333366,-0.10231768000000002,0.6702342533333332,0.7728353066666666,0.677999219971763,0.580407534279218,0.6437483350285506,0.7296017553950064
LBP06_S02,LBP06,-1505,146,2,145,-1505,1716263190.8,2024-05-21 03:46:30.800000+00:00,2024-05-21 12:46:30.800000+09:00,2024,5,21,3,46,30,800,,,,,,,,,0.544189,-0.287354,2.022705,-113.891602,42.419434,21.42334,,,,,,,,,,,0.0,1.0,1.0,2.0,0.0,0.0,0.0,5.0,0.0,0.23976237333333336,-0.2520833733333333,0.9926204266666667,-12.92399084,3.1958008133333333,13.021647133333333,-109.61258321302037,-20.290454084177984,40.46954471106879,33.213256432260174,-5.872095027388079,30.90633816565142,45.747170859577196,-0.8089965286668731,49.27609314819597,-0.7979670083964183,0.30442662666666664,-0.03527062666666669,1.0300845733333335,1.3697818266666668,1.0747063861113049,0.6177680993407166,0.6440926846285074,0.7268780391279276
LBP06_S02,LBP06,-1504,147,2,146,-1504,1716263190.84,2024-05-21 03:46:30.840000+00:00,2024-05-21 12:46:30.840000+09:00,2024,5,21,3,46,30,840,,,,,,,,,0.103027,-0.990234,0.82373,-154.35791,144.165039,31.860352,,,,,,,,,,,0.0,1.0,1.0,2.0,0.0,0.0,0.0,5.0,0.0,0.24778972000000002,-0.2573665733333333,0.9940006266666668,-13.665364533333335,1.1832682533333332,11.990559893333334,-89.3827724614443,-11.662355632658395,35.90916871940281,29.6379455338024,-6.338589252694415,32.34270491442753,44.324215620366544,-0.8032050397062499,47.39374064078861,-0.799424642387681,-0.14476272,-0.7328674266666666,-0.1702706266666668,1.0479007733333334,0.7661873116126889,0.5980842213150713,0.650104913417521,0.7255859298492503
LBP06_S02,LBP06,-1503,148,2,147,-1503,1716263190.88,2024-05-21 03:46:30.880000+00:00,2024-05-21 12:46:30.880000+09:00,2024,5,21,3,46,30,880,,,,,,,,,-0.351807,0.456299,-0.2146,90.942383,36.193848,45.776367,,,,,,,,,,,0.0,1.0,1.0,2.0,0.0,0.0,0.0,5.0,0.0,0.25281576,-0.24802737333333336,0.9914485466666666,-13.553059853333336,2.1012370000000002,11.674804680000001,-66.33724539577652,-3.90565296656009,29.59740600158375,26.98445571797134,-6.494815371356819,33.526601154490876,43.52443522982783,-0.7764110672416495,45.87119156478984,-0.7988307202900742,-0.60462276,0.7043263733333334,-1.2060485466666666,2.51499768,1.5219058508986956,0.6174056947597085,0.6560063770556332,0.7309546334209884
LBP06_S02,LBP06,-1502,149,2,148,-1502,1716263190.92,2024-05-21 03:46:30.920000+00:00,2024-05-21 12:46:30.920000+09:00,2024,5,21,3,46,30,920,,,,,,,,,-0.007568,-0.343506,0.330566,-174.499512,-147.705078,67.626953,,,,,,,,,,,0.0,1.0,1.0,2.0,0.0,0.0,0.0,5.0,0.0,0.2521582,-0.26102541333333334,0.9995344799999998,-14.139811160000002,2.60498048,11.186523426666666,-43.79718765390112,3.3188414174592777,22.268755790593502,25.232568211815295,-6.362061714658448,34.41735138611462,43.14756544998015,-0.8016076068590589,44.71937549234621,-0.7980566163550473,-0.2597262,-0.08248058666666663,-0.6689684799999998,1.0111752666666665,0.7223431133310732,0.6187417843347671,0.6537809668367813,0.721979727313865
LBP06_S02,LBP06,-1501,150,2,149,-1501,1716263190.96,2024-05-21 03:46:30.960000+00:00,2024-05-21 12:46:30.960000+09:00,2024,5,21,3,46,30,960,,,,,,,,,0.781982,-0.216797,0.940674,47.363281,-76.049805,1.525879,,,,,,,,,,,0.0,1.0,1.0,2.0,0.0,0.0,0.0,5.0,0.0,0.25364909333333335,-0.25304364,1.01197588,-13.444824186666667,2.0987955733333337,10.776367173333334,-24.59274411724365,10.690497064618109,14.852426816680703,24.24885844712555,-5.934441832073723,35.01144845878184,43.00030533646169,-0.7842737249069335,43.91609803187517,-0.7953396431431397,0.5283329066666667,0.036246640000000024,-0.07130188000000004,0.6358814266666667,0.5343532888171203,0.630697752678017,0.655156218322775,0.7195470133398775
LBP06_S02,LBP06,-1500,151,2,150,-1500,1716263191.0,2024-05-21 03:46:31+00:00,2024-05-21 12:46:31+09:00,2024,5,21,3,46,31,0,3.0,46.0,31.0,40.53857,141.607269,3.286,3.0,14.0,0.580566,-0.501221,1.717773,-34.729004,3.112793,-24.353027,-580.0,94.0,533.0,839.0,0.0,1025.800049,22.049999,0.126846,-103.906609,3.853125,0.0,1.0,1.0,2.0,0.0,0.0,0.0,5.0,0.0,0.261875,-0.27036134666666667,1.0364094799999999,-12.438151013333332,2.5667317733333332,10.1611328,-10.494539712182016,18.67833249152675,8.291469280248393,23.829076858638267,-5.187308532412653,35.34310722999178,42.94028763778869,-0.8003557737403979,43.415740299134214,-0.7929287346963704,0.318691,-0.23085965333333336,0.6813635200000001,1.2309141733333335,0.7868394877006221,0.6536290766853076,0.6623450500128473,0.7121468920110751
LBP06_S02,LBP06,-1499,152,2,151,-1499,1716263191.04,2024-05-21 03:46:31.040000+00:00,2024-05-21 12:46:31.040000+09:00,2024,5,21,3,46,31,40,,,,,,,,,0.600098,-0.677734,2.039551,147.460938,32.348633,-34.484863,,,,,,,,,,,0.0,1.0,1.0,2.0,0.0,0.0,0.0,5.0,0.0,0.25623372000000005,-0.26269208,1.0271126133333333,-10.097656226666667,4.805501306666667,9.94222004,-1.9068051293660102,27.19943090954999,3.338567991037492,23.752804653463627,-4.099331296030654,35.47664994963328,42.89047607137317,-0.7970968159436241,43.16400560173992,-0.7907704398837497,0.34386427999999997,-0.41504191999999995,1.0124383866666666,1.7713445866666666,1.146967272947841,0.6784782687033661,0.6771460333829534,0.7162238006867356
LBP06_S02,LBP06,-1498,153,2,152,-1498,1716263191.08,2024-05-21 03:46:31.080000+00:00,2024-05-21 12:46:31.080000+09:00,2024,5,21,3,46,31,80,,,,,,,,,0.688232,-0.061768,2.133301,-25.085449,50.598145,4.821777,,,,,,,,,,,0.0,1.0,1.0,2.0,0.0,0.0,0.0,5.0,0.0,0.25941731999999995,-0.2655696933333333,1.0298795466666666,-9.969075493333333,4.318033866666667,9.291992173333334,2.086316861105225,35.646933458402984,0.40418050950040163,23.836257327907838,-2.673453957694534,35.492817170013296,42.83753716228494,-0.7964020483881444,43.11318908152977,-0.7888702629807504,0.42881468,0.2038016933333333,1.1034214533333333,1.7360378266666667,1.2012310617301243,0.7079130290764106,0.6785730835229243,0.7210725427450674
LBP06_S02,LBP06,-1497,154,2,153,-1497,1716263191.12,2024-05-21 03:46:31.120000+00:00,2024-05-21 12:46:31.120000+09:00,2024,5,21,3,46,31,120,,,,,,,,,0.619385,-0.500732,2.071777,-67.077637,117.06543,22.644043,,,,,,,,,,,0.0,1.0,1.0,2.0,0.0,0.0,0.0,5.0,0.0,0.2627083333333333,-0.2603125333333333,1.0304785066666666,-10.763346319999998,4.5263672,9.461263,3.3078030178440496,43.20967191348348,-0.48278166607377376,23.9685694486216,-0.9450670811551949,35.473505903370345,42.822366752407916,-0.7810946444714194,43.23189595748927,-0.7907177970202353,0.35667666666666664,-0.24041946666666664,1.0412984933333334,1.6383946266666667,1.126642053500134,0.742229310194435,0.6807857857390103,0.7304542352879125
LBP06_S02,LBP06,-1496,155,2,154,-1496,1716263191.16,2024-05-21 03:46:31.160000+00:00,2024-05-21 12:46:31.160000+09:00,2024,5,21,3,46,31,160,,,,,,,,,0.09668,-0.289551,1.226562,-50.90332,201.721191,48.095703,,,,,,,,,,,0.0,1.0,1.0,2.0,0.0,0.0,0.0,5.0,0.0,0.26582357333333334,-0.26269860000000006,1.0400748533333333,-12.906087213333334,5.49560548,9.529622373333334,3.824066527338272,49.249705637135584,0.39429596866214356,24.121532109715133,1.0249211443302284,35.48927774211683,42.923042871273964,-0.7798440970393526,43.50553441345338,-0.7910333267765386,-0.16914357333333335,-0.026852399999999943,0.18648714666666666,0.38248311999999995,0.25319568649091073,0.7233495884147051,0.6803901500288948,0.7169112527005665
LBP06_S02,LBP06,-1495,156,2,155,-1495,1716263191.2,2024-05-21 03:46:31.200000+00:00,2024-05-21 12:46:31.200000+09:00,2024,5,21,3,46,31,200,,,,,,,,,0.14624,0.29126,0.721924,0.061035,-70.556641,-18.493652,,,,,,,,,,,0.0,1.0,1.0,2.0,0.0,0.0,0.0,5.0,0.0,0.26506510666666666,-0.26620445333333337,1.0493326666666665,-13.190917946666668,5.555826826666666,9.015299466666667,5.265300206969275,53.50200463828602,2.5528627296525106,24.332144117993906,3.165001329861669,35.591392251302935,43.2298238856343,-0.7874135805406665,43.92874540283983,-0.7911626470067521,-0.11882510666666665,0.5574644533333334,-0.32740866666666646,1.0036982266666665,0.6573297937207937,0.7100890542802931,0.6693766742882263,0.7106495369651155
LBP06_S02,LBP06,-1494,157,2,156,-1494,1716263191.24,2024-05-21 03:46:31.240000+00:00,2024-05-21 12:46:31.240000+09:00,2024,5,21,3,46,31,240,,,,,,,,,1.112305,-0.769775,2.462158,-88.684082,-35.705566,2.563477,,,,,,,,,,,0.0,1.0,1.0,2.0,0.0,0.0,0.0,5.0,0.0,0.26767904000000003,-0.26699872,1.0497298000000002,-13.8387044,6.398925786666667,9.151204413333334,8.376227356748366,55.99981642381756,5.397400480135913,24.66719321226384,5.404993986814372,35.80728827050837,43.81605041826501,-0.7842032706762562,44.49408621084193,-0.7881218495866305,0.8446259600000001,-0.50277628,1.4124282,2.75983044,1.7207935437442226,0.7519240316734859,0.6931595143626388,0.724761157507864
LBP06_S02,LBP06,-1493,158,2,157,-1493,1716263191.28,2024-05-21 03:46:31.280000+00:00,2024-05-21 12:46:31.280000+09:00,2024,5,21,3,46,31,280,,,,,,,,,0.487793,-0.466553,2.374023,146.54541,72.570801,-2.01416,,,,,,,,,,,0.0,1.0,1.0,2.0,0.0,0.0,0.0,5.0,0.0,0.26155599999999996,-0.2668945466666667,1.03886716,-12.07031248,7.811686213333332,8.714192693333334,12.925755847507139,56.823546935441115,8.256632919654663,25.184223446164125,7.677935864232016,36.13755358729456,44.71150398942278,-0.7948864076364996,45.18117266132526,-0.7857185493783894,0.22623700000000002,-0.19965845333333332,1.3351558400000003,1.7610512933333338,1.3688271604708044,0.7859445444499323,0.7101493173013077,0.719909902648793
LBP06_S02,LBP06,-1492,159,2,158,-1492,1716263191.32,2024-05-21 03:46:31.320000+00:00,2024-05-21 12:46:31.320000+09:00,2024,5,21,3,46,31,320,,,,,,,,,0.779297,-1.02002,2.295654,73.730469,22.460938,-28.503418,,,,,,,,,,,0.0,1.0,1.0,2.0,0.0,0.0,0.0,5.0,0.0,0.2530436266666667,-0.26368816,1.02391924,-12.660319000000001,5.484212253333333,7.903645813333332,17.929380760365223,55.8811122128502,10.407177973333672,25.901398676578733,9.913180352746025,36.55384070622791,45.88395000962133,-0.8047629044220924,45.94883193391985,-0.785610248248635,0.5262533733333333,-0.7563318399999999,1.27173476,2.5543199733333335,1.570442537928324,0.8354067937037725,0.7336275922732682,0.7313400680141494
LBP06_S02,LBP06,-1491,160,2,159,-1491,1716263191.36,2024-05-21 03:46:31.360000+00:00,2024-05-21 12:46:31.360000+09:00,2024,5,21,3,46,31,360,,,,,,,,,0.77124,0.473389,2.456543,36.987305,85.449219,11.047363,,,,,,,,,,,0.0,1.0,1.0,2.0,0.0,0.0,0.0,5.0,0.0,0.26261394666666665,-0.2627083333333333,1.0330533466666667,-13.851725253333335,2.5008138133333335,6.455078106666667,22.011627094571068,52.87327772113229,11.139575704718624,26.781863760361574,12.028111461591317,36.99942373441665,47.23241523032617,-0.7855669272090675,46.731630717005494,-0.7874010834073323,0.5086260533333333,0.7360973333333334,1.4234896533333332,2.66821304,1.6813276121615741,0.9009326722992128,0.7521695488475983,0.7445201082347844
LBP06_S02,LBP06,-1490,161,2,160,-1490,1716263191.4,2024-05-21 03:46:31.400000+00:00,2024-05-21 12:46:31.400000+09:00,2024,5,21,3,46,31,400,,,,,,,,,-0.746094,-0.505859,0.260742,-138.793945,170.715332,49.438477,,,,,,,,,,,0.0,1.0,1.0,2.0,0.0,0.0,0.0,5.0,0.0,0.2708886933333334,-0.26211264,1.0402929333333335,-15.189615880000002,0.6982422000000003,5.936686186666667,23.731935696885746,47.44334984976371,9.89471323650048,27.731141188237004,13.925845455581866,37.39521226387667,48.59369571780971,-0.7699477995391812,47.44188054804871,-0.7899255375882689,-1.0169826933333335,-0.24374635999999994,-0.7795509333333335,2.0402799866666665,1.304364114890333,0.9395542949470145,0.7636161783015558,0.760416412973065
LBP06_S02,LBP06,-1489,162,2,161,-1489,1716263191.44,2024-05-21 03:46:31.440000+00:00,2024-05-21 12:46:31.440000+09:00,2024,5,21,3,46,31,440,,,,,,,,,0.44873,-0.690918,0.846191,163.757324,-24.597168,-1.708984,,,,,,,,,,,0.0,1.0,1.0,2.0,0.0,0.0,0.0,5.0,0.0,0.27481122666666663,-0.26767253333333335,1.0491633733333332,-17.763671866666666,2.0768229333333337,5.8015950400000005,21.8041087747029,39.39253048492645,6.443222687249778,28.60330553922512,15.501546674978924,37.65294117136666,49.7613405762065,-0.7730638138612145,47.97810347516159,-0.7928758925172178,0.1739187733333334,-0.4232454666666667,-0.20297237333333318,0.8001366133333333,0.5005819104884053,0.9488987044161833,0.7644713094153884,0.7586945885235536
LBP06_S02,LBP06,-1488,163,2,162,-1488,1716263191.48,2024-05-21 03:46:31.480000+00:00,2024-05-21 12:46:31.480000+09:00,2024,5,21,3,46,31,480,,,,,,,,,0.495361,0.523682,1.200439,19.714355,-38.696289,14.526367,,,,,,,,,,,0.0,1.0,1.0,2.0,0.0,0.0,0.0,5.0,0.0,0.2685156533333333,-0.27425456,1.0584342,-20.057779946666667,3.2649739733333334,5.66080728,15.252806614494272,28.839055510792186,1.034180885982213,29.21341780380489,16.65510889541061,37.69430840680595,50.5141298882308,-0.795319037090601,48.240001364256,-0.7962243722854596,0.22684534666666667,0.7979365599999999,0.14200480000000004,1.1667867066666666,0.8416216063718859,0.9517725273357481,0.7539253756000359,0.7581136593348029
LBP06_S02,LBP06,-1487,164,2,163,-1487,1716263191.52,2024-05-21 03:46:31.520000+00:00,2024-05-21 12:46:31.520000+09:00,2024,5,21,3,46,31,520,,,,,,,,,0.180176,-0.879639,1.691406,-221.191406,18.066406,24.353027,,,,,,,,,,,0.0,1.0,1.0,2.0,0.0,0.0,0.0,5.0,0.0,0.26910809333333335,-0.2770214933333333,1.0709732666666667,-18.40250650666667,3.679199226666667,4.40755208,3.5849049347783013,16.285459057185847,-5.5679774298775975,29.356814001196025,17.306527257698043,37.47158930961085,50.65035458326433,-0.7990029960583904,48.1478202786284,-0.7959042986957299,-0.08893209333333335,-0.6026175066666666,0.6204327333333333,1.3119823333333331,0.8694788974766838,0.9322577278568767,0.7558088516799737,0.7586928400391874
LBP06_S02,LBP06,-1486,165,2,164,-1486,1716263191.56,2024-05-21 03:46:31.560000+00:00,2024-05-21 12:46:31.560000+09:00,2024,5,21,3,46,31,560,,,,,,,,,0.155762,-0.51123,1.886719,24.291992,-14.892578,-2.075195,,,,,,,,,,,0.0,1.0,1.0,2.0,0.0,0.0,0.0,5.0,0.0,0.27618817333333334,-0.28806316,1.0762694933333332,-19.458007813333335,5.109863293333334,4.32779948,-12.978406342089913,2.635254143249755,-12.206195473413889,28.837677747512426,17.411937423428032,36.98334149067429,50.025541181706146,-0.8050886388487195,47.661096832057105,-0.7934622920656126,-0.12042617333333333,-0.22316683999999998,0.8104495066666668,1.1540425200000002,0.8491962697489546,0.930241226051586,0.7586902546745966,0.753488594600901
LBP06_S02,LBP06,-1485,166,2,165,-1485,1716263191.6,2024-05-21 03:46:31.600000+00:00,2024-05-21 12:46:31.600000+09:00,2024,5,21,3,46,31,600,,,,,,,,,0.216797,-0.615723,1.537842,163.269043,103.759766,-35.827637,,,,,,,,,,,0.0,1.0,1.0,2.0,0.0,0.0,0.0,5.0,0.0,0.26758792,-0.2862532666666667,1.0543847333333332,-16.7976888,8.812662773333333,5.214029946666666,-33.233060879027825,-10.812396426894262,-17.60483640959862,27.508355312351313,16.97944156635226,36.279148034290344,48.59205315676309,-0.8169171298301561,46.78962565464426,-0.7951432158853,-0.05079091999999999,-0.32946973333333335,0.4834572666666668,0.8637179200000001,0.587248628291279,0.9224368840758985,0.7623779358670844,0.7457981589644503
LBP06_S02,LBP06,-1484,167,2,166,-1484,1716263191.64,2024-05-21 03:46:31.640000+00:00,2024-05-21 12:46:31.640000+09:00,2024,5,21,3,46,31,640,,,,,,,,,-0.403564,0.758545,-0.292725,26.977539,29.052734,-65.856934,,,,,,,,,,,0.0,1.0,1.0,2.0,0.0,0.0,0.0,5.0,0.0,0.26268882666666665,-0.28146160000000003,1.0423144266666666,-15.713704426666666,7.217610679999999,4.785970053333334,-54.8247583517037,-22.438034398822165,-20.723910336691493,25.315364978283164,16.081920190399373,35.450191620822686,46.43502930920909,-0.817688068358674,45.59083005736395,-0.7991276306952866,-0.6662528266666666,1.0400066000000001,-1.3350394266666665,3.041298853333333,1.8187459492296734,0.9773511272747523,0.7932658741981083,0.7628034911043232
LBP06_S02,LBP06,-1483,168,2,167,-1483,1716263191.68,2024-05-21 03:46:31.680000+00:00,2024-05-21 12:46:31.680000+09:00,2024,5,21,3,46,31,680,,,,,,,,,0.260498,-0.429688,0.565674,-137.695312,-100.097656,-42.602539,,,,,,,,,,,0.0,1.0,1.0,2.0,0.0,0.0,0.0,5.0,0.0,0.2742317866666667,-0.27794272,1.0520572666666665,-14.584147146666668,3.8460286533333328,3.522135413333333,-74.40763886104165,-30.53045889942903,-21.07302141737781,22.339059423841498,14.860701834422212,34.60727076412758,43.78969313314676,-0.791685671739202,44.154603760796164,-0.8039851661487333,-0.013733786666666692,-0.15174528000000004,-0.48638326666666654,0.6518623333333333,0.5096900322664958,0.9761590647950941,0.7918637667525524,0.7632484233645148
LBP06_S02,LBP06,-1482,169,2,168,-1482,1716263191.72,2024-05-21 03:46:31.720000+00:00,2024-05-21 12:46:31.720000+09:00,2024,5,21,3,46,31,720,,,,,,,,,0.40332,-0.01416,0.547363,17.089844,-105.895996,-52.91748,,,,,,,,,,,0.0,1.0,1.0,2.0,0.0,0.0,0.0,5.0,0.0,0.28316406666666666,-0.28012045333333335,1.0734960800000002,-17.049967453333334,4.0616862,3.4236653599999998,-88.27801959086986,-33.679460441097206,-18.85991728634717,18.807938640206704,13.513523416778323,33.85287407267369,41.01671554390843,-0.7803428381209192,42.584975942807816,-0.806466178146718,0.12015593333333335,0.26596045333333335,-0.5261330800000001,0.9122494666666668,0.6016547422922578,0.9877469412877586,0.785091169383273,0.7664503976700653
LBP06_S02,LBP06,-1481,170,2,169,-1481,1716263191.76,2024-05-21 03:46:31.760000+00:00,2024-05-21 12:46:31.760000+09:00,2024,5,21,3,46,31,760,,,,,,,,,0.441895,0.697998,0.878418,-231.628418,-7.873535,28.747559,,,,,,,,,,,0.0,1.0,1.0,2.0,0.0,0.0,0.0,5.0,0.0,0.28357422666666665,-0.29406901333333335,1.0914159999999997,-19.02913412,4.978027346666666,3.0485025999999995,-93.38216059402671,-31.214051915548925,-14.907635696902076,15.072652216445634,12.264961340156367,33.25656864479761,38.517703456197765,-0.8023761654059433,40.98800869191517,-0.8085303065636744,0.15832077333333333,0.9920670133333334,-0.2129979999999997,1.3633857866666665,1.0269520798055694,1.001705055681111,0.7910562949801644,0.7630672419127374
LBP06_S02,LBP06,-1480,171,2,170,-1480,1716263191.8,2024-05-21 03:46:31.800000+00:00,2024-05-21 12:46:31.800000+09:00,2024,5,21,3,46,31,800,,,,,,,,,0.039551,-0.664551,1.704834,-366.088867,-22.644043,53.222656,,,,,,,,,,,0.0,1.0,1.0,2.0,0.0,0.0,0.0,5.0,0.0,0.28606771999999997,-0.30139649333333335,1.1141829200000002,-16.484375,6.993815106666666,2.3795572933333333,-88.33255606235223,-23.49675911493667,-10.376039916660181,11.539349973951545,11.3250909755589,32.841527048131205,36.60573974500658,-0.8097919476390457,39.46638184038896,-0.8077590492592751,-0.24651671999999997,-0.36315450666666665,0.5906510799999998,1.2003223066666664,0.7358806881941083,0.988152027764423,0.8029600635525698,0.7587791323404793
LBP06_S02,LBP06,-1479,172,2,171,-1479,1716263191.84,2024-05-21 03:46:31.840000+00:00,2024-05-21 12:46:31.840000+09:00,2024,5,21,3,46,31,840,,,,,,,,,0.786377,-1.541992,2.380127,-137.023926,-139.038086,-19.775391,,,,,,,,,,,0.0,1.0,1.0,2.0,0.0,0.0,0.0,5.0,0.0,0.2786393333333333,-0.30108073333333335,1.1132975066666666,-16.366373693333333,9.943847666666667,2.265625,-73.96391823706296,-11.930382584951689,-6.4108548266404215,8.580793244469026,10.847875672160834,32.58509285506559,35.39907761052865,-0.821639168395682,38.11428133330352,-0.8051600443878926,0.5077376666666666,-1.2409112666666666,1.2668294933333333,3.0154784266666663,1.8445908150783934,1.0312881679030512,0.8146861946090612,0.777165998246031
LBP06_S02,LBP06,-1478,173,2,172,-1478,1716263191.88,2024-05-21 03:46:31.880000+00:00,2024-05-21 12:46:31.880000+09:00,2024,5,21,3,46,31,880,,,,,,,,,0.675293,-0.586182,1.702881,193.908691,66.650391,-32.531738,,,,,,,,,,,0.0,1.0,1.0,2.0,0.0,0.0,0.0,5.0,0.0,0.27435548,-0.2954850266666667,1.09831704,-16.05224608,10.096028653333333,1.2760416666666667,-53.11197002327439,1.34867549766861,-3.860298975418501,6.456314443538051,10.901822692067578,32.43068089604885,34.817851708347334,-0.8201291570704474,37.00766744672981,-0.8038515319067653,0.40093752000000005,-0.2906969733333333,0.6045639600000001,1.2961984533333335,0.7815070101923545,1.0016722142747976,0.809538954517253,0.7712283227953547
LBP06_S02,LBP06,-1477,174,2,173,-1477,1716263191.92,2024-05-21 03:46:31.920000+00:00,2024-05-21 12:46:31.920000+09:00,2024,5,21,3,46,31,920,,,,,,,,,-0.067627,0.124512,0.553711,116.638184,210.632324,15.991211,,,,,,,,,,,0.0,1.0,1.0,2.0,0.0,0.0,0.0,5.0,0.0,0.27138021333333334,-0.29197265333333333,1.08780272,-14.62809244,8.894856786666667,-0.06347656000000029,-29.673931239008343,13.991318542107491,-3.1400336306189747,5.269357193977717,11.461475433751877,32.30507955082409,34.6806820743378,-0.8196442802279554,36.19078795333301,-0.8043254621727982,-0.33900721333333333,0.41648465333333334,-0.53409172,1.2895835866666667,0.7573898088347754,1.0030740820949458,0.8109079332148563,0.7702120052561695
LBP06_S02,LBP06,-1476,175,2,174,-1476,1716263191.96,2024-05-21 03:46:31.960000+00:00,2024-05-21 12:46:31.960000+09:00,2024,5,21,3,46,31,960,,,,,,,,,-0.242188,-0.110107,0.0271,-84.16748,-44.616699,14.099121,,,,,,,,,,,0.0,1.0,1.0,2.0,0.0,0.0,0.0,5.0,0.0,0.27546874666666665,-0.28260092,1.0785546666666666,-14.436035160000001,6.670735693333333,-0.775553386666667,-7.390728838798479,23.978290742298782,-4.245069505914922,4.973728040425778,12.420607063443828,32.135276770587495,34.809272666444045,-0.7973760658047258,35.66477744061978,-0.8067021923287477,-0.5176567466666666,0.17249391999999997,-1.0514546666666666,1.7416053333333332,1.184601019694646,1.0290839913300467,0.8298908720040318,0.7797988093251988
LBP06_S02,LBP06,-1475,176,2,175,-1475,1716263192.0,2024-05-21 03:46:32+00:00,2024-05-21 12:46:32+09:00,2024,5,21,3,46,32,0,3.0,46.0,32.0,40.53846,141.607285,3.763,3.0,13.0,0.206055,-0.364502,0.700684,114.074707,-18.859863,-54.504395,-589.0,102.0,513.0,634.0,0.0,1025.300049,22.110001,0.121891,-99.786659,3.853125,0.0,1.0,1.0,2.0,0.0,0.0,0.0,4.0,0.0,0.28500650666666666,-0.28839844,1.0844238133333333,-14.260253906666668,5.2685547066666665,-1.4851888000000002,11.102492701573025,29.986477543888867,-6.858475640998721,5.4178277484886985,13.620066165199383,31.860937744947545,35.071048085908785,-0.7909270811163298,35.3860934634598,-0.8073590309262396,-0.07895150666666667,-0.07610356000000001,-0.3837398133333333,0.53879488,0.3991006597172094,1.0135744382107101,0.8336017574480088,0.7794215127454682
LBP06_S02,LBP06,-1474,177,2,176,-1474,1716263192.04,2024-05-21 03:46:32.040000+00:00,2024-05-21 12:46:32.040000+09:00,2024,5,21,3,46,32,40,,,,,,,,,0.589844,0.39917,0.807129,27.099609,-8.300781,-4.821777,,,,,,,,,,,0.0,1.0,1.0,2.0,0.0,0.0,0.0,4.0,0.0,0.2904785066666667,-0.3026855466666667,1.10927408,-12.17122396,5.621744813333333,-2.5887044133333337,24.63484209946942,31.49919462376442,-10.496346392183735,6.403221432467475,14.88003395014996,31.441083889260195,35.368890443471976,-0.8046029435474022,35.279915638420455,-0.8088204470365215,0.29936549333333334,0.7018555466666667,-0.30214508000000007,1.3033661200000002,0.8206781076364119,1.000522871598253,0.8395005701508096,0.7849383127880534
LBP06_S02,LBP06,-1473,178,2,177,-1473,1716263192.08,2024-05-21 03:46:32.080000+00:00,2024-05-21 12:46:32.080000+09:00,2024,5,21,3,46,32,80,,,,,,,,,0.353027,-0.942383,1.482178,-212.585449,24.230957,-5.554199,,,,,,,,,,,0.0,1.0,1.0,2.0,0.0,0.0,0.0,4.0,0.0,0.2941699066666667,-0.3011914133333333,1.1290559733333334,-9.979654960000001,6.964518253333332,-2.670084626666667,33.29017632939682,28.738605056270586,-14.634913793822966,7.734828485643348,16.029578152400784,30.855687337507277,35.62089819917868,-0.7964249743995315,35.2655131342268,-0.8092847223848922,0.05885709333333328,-0.6411915866666666,0.3531220266666666,1.0531707066666665,0.7343609289477077,0.9818480662869562,0.8448805476816835,0.7796647444442683
LBP06_S02,LBP06,-1472,179,2,178,-1472,1716263192.12,2024-05-21 03:46:32.120000+00:00,2024-05-21 12:46:32.120000+09:00,2024,5,21,3,46,32,120,,,,,,,,,0.023926,-0.506592,1.611084,121.643066,9.94873,-36.376953,,,,,,,,,,,0.0,1.0,1.0,2.0,0.0,0.0,0.0,4.0,0.0,0.291416,-0.3033072933333334,1.1365462,-9.909667986666667,10.301920599999999,-2.7058919200000005,37.896416007987305,22.55741243020879,-18.783539267569893,9.25068512596284,16.931874649609135,30.10434576680448,35.75661041677616,-0.8041101396804131,35.28155610204561,-0.8083929950398066,-0.26749,-0.20328470666666665,0.4745378,0.9453125066666667,0.5814307316382518,0.960039613412481,0.8511344618034581,0.7738703949635006
LBP06_S02,LBP06,-1471,180,2,179,-1471,1716263192.16,2024-05-21 03:46:32.160000+00:00,2024-05-21 12:46:32.160000+09:00,2024,5,21,3,46,32,160,,,,,,,,,0.57959,-0.95874,2.037109,-41.259766,14.099121,-27.099609,,,,,,,,,,,0.0,1.0,1.0,2.0,0.0,0.0,0.0,4.0,0.0,0.28275388,-0.29732421333333336,1.1239810933333332,-8.592122413333335,12.533365906666667,-3.0151367066666666,39.53262661524957,14.35491421821156,-22.497317617292342,10.831990190572824,17.5060712183376,29.204453062112787,35.730863684597985,-0.8089445513808644,35.299257091066856,-0.8079058577188423,0.29683612000000004,-0.6614157866666667,0.9131279066666669,1.8713798133333337,1.1659267125003994,0.9965488544528607,0.8599492214337829,0.7857763848368835
LBP06_S02,LBP06,-1470,181,2,180,-1470,1716263192.2,2024-05-21 03:46:32.200000+00:00,2024-05-21 12:46:32.200000+09:00,2024,5,21,3,46,32,200,,,,,,,,,-0.145996,-0.156494,0.395508,207.092285,208.92334,15.319824,,,,,,,,,,,0.0,1.0,1.0,2.0,0.0,0.0,0.0,4.0,0.0,0.27806964,-0.30224934666666664,1.1149218533333334,-8.96321616,11.696777373333331,-3.54085284,39.246344108755245,5.96524393795214,-25.35349477947602,12.401843954923034,17.744680975855683,28.190313270933746,35.5439614946131,-0.8244061087418628,35.32099323036688,-0.8099726174497421,-0.42406564,0.14575534666666665,-0.7194138533333334,1.2892348400000002,0.8477219948063426,1.0041645424962826,0.8571267983882878,0.7809726303575785
LBP06_S02,LBP06,-1469,182,2,181,-1469,1716263192.24,2024-05-21 03:46:32.240000+00:00,2024-05-21 12:46:32.240000+09:00,2024,5,21,3,46,32,240,,,,,,,,,-0.282715,0.180176,-0.338623,38.269043,-1.525879,-14.648438,,,,,,,,,,,0.0,1.0,1.0,2.0,0.0,0.0,0.0,4.0,0.0,0.27851234666666663,-0.30400065333333337,1.1024674266666667,-5.0032552133333335,10.875651066666666,-4.779459613333334,37.96799277001816,-0.5977298396310569,-26.93462183794108,13.92056366572376,17.72077178227044,27.112928397416102,35.25505256859211,-0.8262819218793896,35.37042014234838,-0.8117396230597995,-0.5612273466666666,0.4841766533333334,-1.4410904266666669,2.486494426666667,1.6205384241386842,1.000154337712061,0.8760391846927734,0.7954911221457796
LBP06_S02,LBP06,-1468,183,2,182,-1468,1716263192.28,2024-05-21 03:46:32.280000+00:00,2024-05-21 12:46:32.280000+09:00,2024,5,21,3,46,32,280,,,,,,,,,0.174561,0.091064,0.087891,20.019531,-139.526367,-36.071777,,,,,,,,,,,0.0,1.0,1.0,2.0,0.0,0.0,0.0,4.0,0.0,0.28482745333333337,-0.30104166666666665,1.0921288933333333,-1.8920898533333335,10.524088573333332,-5.4069010266666675,36.478363764305904,-3.6011863409905938,-26.86055096090744,15.379698216295996,17.576724328630817,26.038506358979806,34.97828138653545,-0.81121188361959,35.480683048342634,-0.811961243716441,-0.11026645333333338,0.3921056666666667,-1.0042378933333334,1.5066100133333333,1.083697047596511,0.9887491331970893,0.8873468388235107,0.8030159225999015
LBP06_S02,LBP06,-1467,184,2,183,-1467,1716263192.32,2024-05-21 03:46:32.320000+00:00,2024-05-21 12:46:32.320000+09:00,2024,5,21,3,46,32,320,,,,,,,,,0.862061,-0.275146,0.875488,-1.281738,-161.92627,-44.067383,,,,,,,,,,,0.0,1.0,1.0,2.0,0.0,0.0,0.0,4.0,0.0,0.2803906133333333,-0.2986262933333333,1.0795312400000001,-1.2101237066666668,10.516764346666667,-5.3767903466666676,35.31368149565511,-2.154530537024958,-24.883549165848077,16.7922454761222,17.49054310714982,25.043164392345883,34.857691964550284,-0.8147729070183143,35.68410542552544,-0.8147591294684352,0.5816703866666666,0.02348029333333329,-0.20404324000000007,0.80919392,0.6168674141901698,0.9506061282475631,0.8930064609756677,0.8059537709313666
