file_name,test_id,_program_index,program_index,session_id,index,_index,unixtime,datetime_utc,datetime_jst,rtc_year,rtc_month,rtc_day,rtc_hour,rtc_min,rtc_sec,rtc_msec,gps_hour,gps_min,gps_sec,latitude,longitude,altitude,fix_type,SIV,acc_x,acc_y,acc_z,gyro_x,gyro_y,gyro_z,mag_x,mag_y,mag_z,illuminance,atmopress,water_pressure,water_temp,depth,alt_wps,battery_level,behavior_class,camera_command,camera_recording,camera_count,play_audio,speaker_on,audio_file,prev_sd_write_time_ms,delay_occurred_counter,acc_x_ma,acc_y_ma,acc_z_ma,gyro_x_ma,gyro_y_ma,gyro_z_ma,gyro_x_lowpass,gyro_y_lowpass,gyro_z_lowpass,angle_x,angle_y,angle_z,combined_angle_change,gravity_adjusted_angle,smoothed_angle_change,smoothed_gravity_angle,acc_x_dy,acc_y_dy,acc_z_dy,ODBA,VeDBA,smoothed_VeDBA_1s,smoothed_VeDBA_2s,smoothed_VeDBA_3s
LBP01_S01,LBP01,0,1,1,0,0,1715400501.0,2024-05-11 04:08:21+00:00,2024-05-11 13:08:21+09:00,2024,5,11,4,8,21,0,4.0,8.0,20.0,40.545498,141.52359,-10.052,3.0,17.0,-0.079834,0.158447,0.273682,66.894531,-101.013184,-66.467285,-493.0,15.0,582.0,615.0,0.0,1028.599976,26.370001,0.154593,-126.947708,4.014844,0.0,1.0,1.0,1.0,0.0,0.0,0.0,6.0,0.0,,,,,,,67.47566337482414,-97.48662389716979,-67.402789857286,2.6990265349929654,-3.899464955886792,-2.6961115942914398,5.455235000223,,10.608607912055577,,,,,,,,,
LBP01_S01,LBP01,1,2,1,1,1,1715400501.04,2024-05-11 04:08:21.040000+00:00,2024-05-11 13:08:21.040000+09:00,2024,5,11,4,8,21,40,,,,,,,,,0.878418,0.072754,1.308105,-42.96875,134.216309,-41.137695,,,,,,,,,,,0.0,1.0,1.0,1.0,0.0,0.0,0.0,6.0,0.0,,,,,,,45.61949608644783,-66.34683282136498,-52.522299293009354,4.523806378450878,-6.553338268741392,-4.7970035660118135,9.296360031033293,,11.142177152750797,,,,,,,,,
LBP01_S01,LBP01,2,3,1,2,2,1715400501.08,2024-05-11 04:08:21.080000+00:00,2024-05-11 13:08:21.080000+09:00,2024,5,11,4,8,21,80,,,,,,,,,-1.488037,0.835205,1.372559,-51.086426,159.912109,-7.507324,,,,,,,,,,,0.0,1.0,1.0,1.0,0.0,0.0,0.0,6.0,0.0,,,,,,,27.260893472917445,-38.152164523214694,-38.729731193573464,5.614242117367576,-8.07942484966998,-6.346192813754752,11.707731790711692,,11.558601253159756,,,,,,,,,
LBP01_S01,LBP01,3,4,1,3,3,1715400501.12,2024-05-11 04:08:21.120000+00:00,2024-05-11 13:08:21.120000+09:00,2024,5,11,4,8,21,120,,,,,,,,,-1.013428,0.143066,1.999756,-95.153809,-331.787109,31.677246,,,,,,,,,,,0.0,1.0,1.0,1.0,0.0,0.0,0.0,6.0,0.0,,,,,,,15.06712873900336,-15.184437365852748,-26.84697928963994,6.21692726692771,-8.68680234430409,-7.42007198534035,13.006467155953954,,11.93935653032455,,,,,,,,,
LBP01_S01,LBP01,4,5,1,4,4,1715400501.16,2024-05-11 04:08:21.160000+00:00,2024-05-11 13:08:21.160000+09:00,2024,5,11,4,8,21,160,,,,,,,,,0.700195,-0.329102,1.362305,59.265137,78.186035,-28.320312,,,,,,,,,,,0.0,1.0,1.0,1.0,0.0,0.0,0.0,6.0,0.0,,,,,,,10.262042088268753,1.2321055985570084,-17.310196016724554,6.62740895045846,-8.63751812036181,-8.112479826009332,13.57724558235594,,12.350440395407574,,,,,,,,,
LBP01_S01,LBP01,5,6,1,5,5,1715400501.2,2024-05-11 04:08:21.200000+00:00,2024-05-11 13:08:21.200000+09:00,2024,5,11,4,8,21,200,,,,,,,,,-0.759766,0.071533,-0.413086,160.888672,81.970215,-117.1875,,,,,,,,,,,0.0,1.0,1.0,1.0,0.0,0.0,0.0,6.0,0.0,,,,,,,12.57107833762888,10.890982793207154,-10.210060612659095,7.130252083963615,-8.201878808633523,-8.520882250515696,13.810023356226903,,12.836528375669905,,,,,,,,,
LBP01_S01,LBP01,6,7,1,6,6,1715400501.24,2024-05-11 04:08:21.240000+00:00,2024-05-11 13:08:21.240000+09:00,2024,5,11,4,8,21,240,,,,,,,,,0.241211,0.287598,0.842285,26.306152,-39.855957,5.187988,,,,,,,,,,,0.0,1.0,1.0,1.0,0.0,0.0,0.0,6.0,0.0,,,,,,,20.550683561970736,14.619207247067607,-5.415905288705965,7.952279426442445,-7.6171105187508195,-8.737518462063933,14.057145855613516,,14.213929700853939,,,,,,,,,
LBP01_S01,LBP01,7,8,1,7,7,1715400501.28,2024-05-11 04:08:21.280000+00:00,2024-05-11 13:08:21.280000+09:00,2024,5,11,4,8,21,280,,,,,,,,,0.47168,0.008545,1.42041,52.734375,136.59668,-27.648926,,,,,,,,,,,0.0,1.0,1.0,1.0,0.0,0.0,0.0,6.0,0.0,,,,,,,32.05468880632563,14.010362841335537,-2.6718415027950773,9.23446697869547,-7.056696005097398,-8.844392122175737,14.60464347047811,,15.434245330516735,,,,,,,,,
LBP01_S01,LBP01,8,9,1,8,8,1715400501.32,2024-05-11 04:08:21.320000+00:00,2024-05-11 13:08:21.320000+09:00,2024,5,11,4,8,21,320,,,,,,,,,-1.12207,0.5354,1.38208,-92.102051,20.446777,70.43457,,,,,,,,,,,0.0,1.0,1.0,1.0,0.0,0.0,0.0,6.0,0.0,,,,,,,44.64414640518611,11.003749489760658,-1.5973893998457143,11.020232834902915,-6.616546025506971,-8.908287698169566,15.639111316071755,,16.642975428976648,,,,,,,,,
LBP01_S01,LBP01,9,10,1,9,9,1715400501.36,2024-05-11 04:08:21.360000+00:00,2024-05-11 13:08:21.360000+09:00,2024,5,11,4,8,21,360,,,,,,,,,-0.006592,0.111084,1.98291,-46.75293,-310.852051,64.697266,,,,,,,,,,,0.0,1.0,1.0,1.0,0.0,0.0,0.0,6.0,0.0,,,,,,,55.91762817603912,7.3826002854690165,-1.6321685477196215,13.25693796194448,-6.32124201408821,-8.973574440078352,17.211320198030894,,17.933893846273286,,,,,,,,,
LBP01_S01,LBP01,10,11,1,10,10,1715400501.4,2024-05-11 04:08:21.400000+00:00,2024-05-11 13:08:21.400000+09:00,2024,5,11,4,8,21,400,,,,,,,,,0.035645,-0.502197,0.800781,169.006348,147.827148,-1.708984,,,,,,,,,,,0.0,1.0,1.0,1.0,0.0,0.0,0.0,6.0,0.0,,,,,,,63.84728699303042,4.353407650067411,-2.0380231926375716,15.810829441665698,-6.147105708085514,-9.055095367783855,19.22924825206334,,19.34849054109775,,,,,,,,,
LBP01_S01,LBP01,11,12,1,11,11,1715400501.44,2024-05-11 04:08:21.440000+00:00,2024-05-11 13:08:21.440000+09:00,2024,5,11,4,8,21,440,,,,,,,,,-0.58374,0.1875,-0.608887,276.672363,56.213379,-76.35498,,,,,,,,,,,0.0,1.0,1.0,1.0,0.0,0.0,0.0,6.0,0.0,,,,,,,67.14408616948809,2.380474744629726,-2.04098332341608,18.49659288844522,-6.051886718300325,-9.136734700720497,21.49951632766124,,20.882221349522347,,,,,,,,,
LBP01_S01,LBP01,12,13,1,12,12,1715400501.48,2024-05-11 04:08:21.480000+00:00,2024-05-11 13:08:21.480000+09:00,2024,5,11,4,8,21,480,,,,,,,,,-0.091797,0.174805,0.759766,0.366211,-18.066406,-43.457031,,,,,,,,,,,0.0,1.0,1.0,1.0,0.0,0.0,0.0,6.0,0.0,,,,,,,65.52050808167776,1.322385810044688,-1.0791101037835156,21.117413211712332,-5.998991285898537,-9.179899104871838,23.795032775310816,,22.493357929863883,,,,,,,,,
LBP01_S01,LBP01,13,14,1,13,13,1715400501.52,2024-05-11 04:08:21.520000+00:00,2024-05-11 13:08:21.520000+09:00,2024,5,11,4,8,21,520,,,,,,,,,0.488281,0.19165,1.235107,15.075684,91.796875,-36.499023,,,,,,,,,,,0.0,1.0,1.0,1.0,0.0,0.0,0.0,6.0,0.0,,,,,,,59.66463053375466,0.7432858438988635,0.9819170488295661,23.50399843306252,-5.969259852142582,-9.140622422918655,25.91565132892033,,24.11198678701456,,,,,,,,,
LBP01_S01,LBP01,14,15,1,14,14,1715400501.56,2024-05-11 04:08:21.560000+00:00,2024-05-11 13:08:21.560000+09:00,2024,5,11,4,8,21,560,,,,,,,,,-1.417969,0.292969,1.443115,-13.977051,28.137207,50.292969,,,,,,,,,,,0.0,1.0,1.0,1.0,0.0,0.0,0.0,6.0,0.0,,,,,,,50.88001059869141,0.20841299001062852,3.802927719229399,25.539198857010177,-5.960923332542158,-8.98850531414948,27.723212530600577,,25.649866499256557,,,,,,,,,
LBP01_S01,LBP01,15,16,1,15,15,1715400501.6,2024-05-11 04:08:21.600000+00:00,2024-05-11 13:08:21.600000+09:00,2024,5,11,4,8,21,600,,,,,,,,,-0.043457,0.069824,1.963135,10.925293,-288.574219,98.083496,,,,,,,,,,,0.0,1.0,1.0,1.0,0.0,0.0,0.0,6.0,0.0,,,,,,,40.55663943983888,-0.541878124420598,6.72425075989361,27.161464434603733,-5.982598457518981,-8.719535283753736,29.147331440472872,,27.012685274504342,,,,,,,,,
LBP01_S01,LBP01,16,17,1,16,16,1715400501.64,2024-05-11 04:08:21.640000+00:00,2024-05-11 13:08:21.640000+09:00,2024,5,11,4,8,21,640,,,,,,,,,0.248291,-0.02002,1.016602,82.336426,164.794922,3.723145,,,,,,,,,,,0.0,1.0,1.0,1.0,0.0,0.0,0.0,6.0,0.0,,,,,,,29.72627862596554,-1.5153944362194751,9.022290646417058,28.350515579642355,-6.043214234967761,-8.358643657897053,30.168511659028912,,28.113377120668197,,,,,,,,,
LBP01_S01,LBP01,17,18,1,17,17,1715400501.68,2024-05-11 04:08:21.680000+00:00,2024-05-11 13:08:21.680000+09:00,2024,5,11,4,8,21,680,,,,,,,,,-0.370361,0.037109,-0.083984,-56.152344,47.119141,-87.95166,,,,,,,,,,,0.0,1.0,1.0,1.0,0.0,0.0,0.0,6.0,0.0,,,,,,,18.87464532611809,-2.417182785982806,10.136871866198653,29.105501392687078,-6.1399015464070725,-7.953168783249107,30.790932041984853,,28.88303075405613,,,,,,,,,
LBP01_S01,LBP01,18,19,1,18,18,1715400501.72,2024-05-11 04:08:21.720000+00:00,2024-05-11 13:08:21.720000+09:00,2024,5,11,4,8,21,720,,,,,,,,,-0.049561,-0.244629,1.294434,17.822266,19.287109,11.108398,,,,,,,,,,,0.0,1.0,1.0,1.0,0.0,0.0,0.0,6.0,0.0,,,,,,,8.034523690054728,-2.627883381343847,9.803752088749691,29.426882340289268,-6.245016881660827,-7.56101869969912,31.017908438491737,,29.277369257980972,,,,,,,,,
LBP01_S01,LBP01,19,20,1,19,19,1715400501.76,2024-05-11 04:08:21.760000+00:00,2024-05-11 13:08:21.760000+09:00,2024,5,11,4,8,21,760,,,,,,,,,0.321045,0.391602,1.363525,121.032715,94.970703,32.470703,,,,,,,,,,,0.0,1.0,1.0,1.0,0.0,0.0,0.0,6.0,0.0,,,,,,,-2.933574784728194,-1.312632182666988,8.112214253305764,29.30953934890014,-6.2975221689675065,-7.236530129566889,30.83950795050875,,29.278997434501797,,,,,,,,,
LBP01_S01,LBP01,20,21,1,20,20,1715400501.8,2024-05-11 04:08:21.800000+00:00,2024-05-11 13:08:21.800000+09:00,2024,5,11,4,8,21,800,,,,,,,,,-1.051514,0.048828,1.405518,-42.663574,-50.598145,53.588867,,,,,,,,,,,0.0,1.0,1.0,1.0,0.0,0.0,0.0,6.0,0.0,,,,,,,-14.026619341802823,2.2591414967663153,5.516924871426119,28.74847457522803,-6.207156509096854,-7.015853134709844,30.236166713701884,,28.89652006435033,,,,,,,,,
LBP01_S01,LBP01,21,22,1,21,21,1715400501.84,2024-05-11 04:08:21.840000+00:00,2024-05-11 13:08:21.840000+09:00,2024,5,11,4,8,21,840,,,,,,,,,-0.023926,0.407471,1.412109,-19.897461,-247.375488,73.303223,,,,,,,,,,,0.0,1.0,1.0,1.0,0.0,0.0,0.0,6.0,0.0,,,,,,,-24.90173634981895,8.25897160281868,2.77544600883131,27.752405121235274,-5.876797644984107,-6.904835294356592,29.19605266154055,,28.161741307540403,,,,,,,,,
LBP01_S01,LBP01,22,23,1,22,22,1715400501.88,2024-05-11 04:08:21.880000+00:00,2024-05-11 13:08:21.880000+09:00,2024,5,11,4,8,21,880,,,,,,,,,0.372803,0.626465,0.655762,-11.230469,62.62207,-44.921875,,,,,,,,,,,0.0,1.0,1.0,1.0,0.0,0.0,0.0,6.0,0.0,,,,,,,-34.87507223604681,15.948082253069733,0.753626277936661,26.3574022317934,-5.238874354861317,-6.874690243239125,27.73841781455926,,27.126179037114156,,,,,,,,,
LBP01_S01,LBP01,23,24,1,23,23,1715400501.92,2024-05-11 04:08:21.920000+00:00,2024-05-11 13:08:21.920000+09:00,2024,5,11,4,8,21,920,,,,,,,,,-0.520508,-0.405518,0.174805,-199.157715,100.830078,-90.576172,,,,,,,,,,,0.0,1.0,1.0,1.0,0.0,0.0,0.0,6.0,0.0,,,,,,,-43.08061736064642,23.68177568319428,0.10326113638361661,24.634177537367545,-4.291603327533546,-6.8705597977837805,25.931933094128627,,25.858232344257726,,,,,,,,,
LBP01_S01,LBP01,24,25,1,24,24,1715400501.96,2024-05-11 04:08:21.960000+00:00,2024-05-11 13:08:21.960000+09:00,2024,5,11,4,8,21,960,,,,,,,,,0.217041,0.143555,0.806641,2.197266,18.676758,-4.760742,,,,,,,,,,,0.0,1.0,1.0,1.0,0.0,0.0,0.0,6.0,0.0,,,,,,,-48.66950031981515,29.3415994059632,0.9281339714166246,22.68739752457494,-3.117939351295018,-6.8334344389271156,23.898438829085848,,24.44234076682502,,,,,,,,,
LBP01_S01,LBP01,25,26,1,25,25,1715400502.0,2024-05-11 04:08:22+00:00,2024-05-11 13:08:22+09:00,2024,5,11,4,8,22,0,4.0,8.0,21.0,40.545551,141.523605,-9.713,3.0,17.0,0.06543,-0.04126,0.869629,-32.958984,122.314453,-11.108398,-495.0,5.0,577.0,777.0,0.0,1027.5,26.389999,0.143692,-117.901878,4.014844,0.0,1.0,1.0,1.0,0.0,0.0,0.0,4.0,0.0,,,,,,,-50.93782061659181,31.018971897653497,2.6124819745771313,20.64988469991127,-1.8771804753888783,-6.72893515994403,21.799543872373608,,22.980576754984487,,,,,,,,,
LBP01_S01,LBP01,26,27,1,26,26,1715400502.04,2024-05-11 04:08:22.040000+00:00,2024-05-11 13:08:22.040000+09:00,2024,5,11,4,8,22,40,,,,,,,,,-0.235107,-0.032471,0.916748,41.381836,65.429688,23.620605,,,,,,,,,,,0.0,1.0,1.0,1.0,0.0,0.0,0.0,4.0,0.0,,,,,,,-49.364512228325175,27.64274871363183,3.9286465149404406,18.67530421077826,-0.7714705268436051,-6.571789299346412,19.812888954766404,,21.593978518078586,,,,,,,,,
LBP01_S01,LBP01,27,28,1,27,27,1715400502.08,2024-05-11 04:08:22.080000+00:00,2024-05-11 13:08:22.080000+09:00,2024,5,11,4,8,22,80,,,,,,,,,-0.317871,0.306396,0.804199,-13.427734,11.413574,26.245117,,,,,,,,,,,0.0,1.0,1.0,1.0,0.0,0.0,0.0,4.0,0.0,,,,,,,-43.64382075182519,19.295778806304682,3.4076244065575096,16.929551380705252,0.0003606254085822824,-6.435484323084112,18.111465113420593,,20.41683685188646,,,,,,,,,
LBP01_S01,LBP01,28,29,1,28,28,1715400502.12,2024-05-11 04:08:22.120000+00:00,2024-05-11 13:08:22.120000+09:00,2024,5,11,4,8,22,120,,,,,,,,,-0.245361,0.162354,0.866455,-73.181152,-39.978027,14.587402,,,,,,,,,,,0.0,1.0,1.0,1.0,0.0,0.0,0.0,4.0,0.0,,,,,,,-33.81125798487789,7.132523362955478,-0.16015526752456968,15.577101061310136,0.2856615599268014,-6.441890533785095,16.858992664164703,,19.57927534629802,,,,,,,,,
LBP01_S01,LBP01,29,30,1,29,29,1715400502.16,2024-05-11 04:08:22.160000+00:00,2024-05-11 13:08:22.160000+09:00,2024,5,11,4,8,22,160,,,,,,,,,-0.225098,0.088379,0.714844,-115.478516,-53.161621,2.746582,,,,,,,,,,,0.0,1.0,1.0,1.0,0.0,0.0,0.0,4.0,0.0,,,,,,,-20.45898232785278,-7.00993600156534,-7.268863465497214,14.758741768196025,0.005264119864187844,-6.732645072404984,16.221867832103396,,19.18366949403731,,,,,,,,,
LBP01_S01,LBP01,30,31,1,30,30,1715400502.2,2024-05-11 04:08:22.200000+00:00,2024-05-11 13:08:22.200000+09:00,2024,5,11,4,8,22,200,,,,,,,,,-0.194824,0.111572,1.008545,-108.154297,-83.557129,2.380371,,,,,,,,,,,0.0,1.0,1.0,1.0,0.0,0.0,0.0,4.0,0.0,,,,,,,-4.898965348700363,-21.103157790210247,-17.43335586614625,14.56278315424801,-0.838862191744222,-7.429979307050834,16.37018434464289,,19.285584330868478,,,,,,,,,
LBP01_S01,LBP01,31,32,1,31,31,1715400502.24,2024-05-11 04:08:22.240000+00:00,2024-05-11 13:08:22.240000+09:00,2024,5,11,4,8,22,240,,,,,,,,,-0.210205,-0.277588,1.042725,54.748535,8.605957,-5.67627,,,,,,,,,,,0.0,1.0,1.0,1.0,0.0,0.0,0.0,4.0,0.0,,,,,,,10.911206171145542,-33.32173569424917,-29.199026955207792,14.999231401093832,-2.1717316195141887,-8.597940385259145,17.42463599961925,,19.884908716937225,,,,,,,,,
LBP01_S01,LBP01,32,33,1,32,32,1715400502.28,2024-05-11 04:08:22.280000+00:00,2024-05-11 13:08:22.280000+09:00,2024,5,11,4,8,22,280,,,,,,,,,-0.577637,-0.480469,0.333496,85.144043,85.266113,-65.124512,,,,,,,,,,,0.0,1.0,1.0,1.0,0.0,0.0,0.0,4.0,0.0,,,,,,,24.749276641642457,-42.25183851762635,-40.4311049289119,15.98920246675953,-3.8618051602192427,-10.21518458241562,19.36280275867486,,20.92727271142998,,,,,,,,,
LBP01_S01,LBP01,33,34,1,33,33,1715400502.32,2024-05-11 04:08:22.320000+00:00,2024-05-11 13:08:22.320000+09:00,2024,5,11,4,8,22,320,,,,,,,,,-0.289795,0.412109,-0.335449,293.884277,-129.882812,-47.668457,,,,,,,,,,,0.0,1.0,1.0,1.0,0.0,0.0,0.0,4.0,0.0,,,,,,,34.67615629774748,-46.958667860200116,-48.815738077516755,17.37624871866943,-5.740151874627247,-12.16781410551629,21.975874571521583,,22.31351605686968,2.5974385037935415,,,,,,,,
LBP01_S01,LBP01,34,35,1,34,34,1715400502.36,2024-05-11 04:08:22.360000+00:00,2024-05-11 13:08:22.360000+09:00,2024,5,11,4,8,22,360,,,,,,,,,0.655273,1.067139,0.329834,-22.705078,-86.975098,-50.90332,,,,,,,,,,,0.0,1.0,1.0,1.0,0.0,0.0,0.0,4.0,0.0,,,,,,,39.47552399558575,-47.01588390936265,-52.444789115055535,18.95526967849286,-7.620787231001753,-14.265605670118513,24.917587197397495,,23.913878000849667,2.583051769012307,,,,,,,,
LBP01_S01,LBP01,35,36,1,35,35,1715400502.4,2024-05-11 04:08:22.400000+00:00,2024-05-11 13:08:22.400000+09:00,2024,5,11,4,8,22,400,,,,,,,,,0.216797,-0.480957,1.460693,-266.052246,68.908691,-140.930176,,,,,,,,,,,0.0,1.0,1.0,1.0,0.0,0.0,0.0,4.0,0.0,,,,,,,38.78900191430623,-42.55525995442969,-50.32323081428126,20.506829755065112,-9.322997629178941,-16.278534902689763,27.79278773306105,,25.583255805774694,2.5886697638914433,,,,,,,,
LBP01_S01,LBP01,36,37,1,36,36,1715400502.44,2024-05-11 04:08:22.440000+00:00,2024-05-11 13:08:22.440000+09:00,2024,5,11,4,8,22,440,,,,,,,,,-0.830078,-0.220215,1.144287,5.004883,-83.92334,-74.279785,,,,,,,,,,,0.0,1.0,1.0,1.0,0.0,0.0,0.0,4.0,0.0,,,,,,,33.001901587668875,-34.31571368027796,-42.645793114560135,21.826905818571866,-10.695626176390059,-17.98436662727217,30.23652889969395,,27.175941493926143,2.594626324659763,,,,,,,,
LBP01_S01,LBP01,37,38,1,37,37,1715400502.48,2024-05-11 04:08:22.480000+00:00,2024-05-11 13:08:22.480000+09:00,2024,5,11,4,8,22,480,,,,,,,,,-0.039307,-0.547363,1.564941,99.182129,-159.667969,41.07666,,,,,,,,,,,0.0,1.0,1.0,1.0,0.0,0.0,0.0,4.0,0.0,-0.21278318666666665,0.12635082666666667,0.86465824,17.283528639999997,0.30110675999999786,-9.626464813333333,23.11713317659417,-23.627141484292906,-30.748199934982356,22.751591145635633,-11.640711835761776,-19.214294624671464,31.973898567817606,2.5974385037935415,28.56220396437022,2.595781746289459,0.17347618666666664,-0.6737138266666667,0.7002827599999999,1.5474727733333333,0.9871070111874746,0.9871070111874746,0.9871070111874746,0.9871070111874746
LBP01_S01,LBP01,38,39,1,38,38,1715400502.52,2024-05-11 04:08:22.520000+00:00,2024-05-11 13:08:22.520000+09:00,2024,5,11,4,8,22,520,,,,,,,,,-0.511719,-0.225342,0.233643,238.098145,53.283691,-24.291992,,,,,,,,,,,0.0,1.0,1.0,1.0,0.0,0.0,0.0,4.0,0.0,-0.21678709333333335,0.13735343999999997,0.8647233333333334,16.043294266666667,2.259114573333331,-8.755696586666666,10.761988598308674,-12.260085891938415,-16.746066220192425,23.18207068956798,-12.131115271439313,-19.884137273479162,32.862612103964565,2.5686650342310724,29.648356844529747,2.5974046124048304,-0.2949319066666667,-0.36269544,-0.6310803333333335,1.2887076800000001,0.7853631000288595,0.8862350556081671,0.8862350556081671,0.8862350556081671
LBP01_S01,LBP01,39,40,1,39,39,1715400502.56,2024-05-11 04:08:22.560000+00:00,2024-05-11 13:08:22.560000+09:00,2024,5,11,4,8,22,560,,,,,,,,,0.224121,1.240479,0.12085,193.481445,-23.986816,62.194824,,,,,,,,,,,0.0,1.0,1.0,1.0,0.0,0.0,0.0,4.0,0.0,-0.22918944000000002,0.13488924,0.8602995066666667,15.657552079999999,1.2190755066666645,-8.841959613333335,-1.8006052659163174,-2.105880711315671,-2.9907516006875974,23.110046478931327,-12.21535049989194,-20.003767337506666,32.915645881353676,2.599905753649715,30.394382067714673,2.5893175724862223,0.45331044,1.1055897600000002,-0.7394495066666666,2.2983497066666665,1.4052062643396621,1.0592254585186653,1.0592254585186653,1.0592254585186653
LBP01_S01,LBP01,40,41,1,40,40,1715400502.6,2024-05-11 04:08:22.600000+00:00,2024-05-11 13:08:22.600000+09:00,2024,5,11,4,8,22,600,,,,,,,,,0.11377,-0.131836,0.328613,-479.064941,155.883789,-42.236328,,,,,,,,,,,0.0,1.0,1.0,1.0,0.0,0.0,0.0,4.0,0.0,-0.21814777333333335,0.12491202666666666,0.8562793200000001,17.261555986666664,-1.2280273466666687,-8.863118466666666,-11.915424421539086,5.259447726590986,8.47226695076284,22.633429502069763,-12.0049725908283,-19.664876659476153,32.2970412261574,2.612496006964723,30.820603793318714,2.5788788068316517,0.33191777333333333,-0.2567480266666667,-0.52766632,1.11633212,0.6741815057639359,0.962964470329983,0.962964470329983,0.962964470329983
LBP01_S01,LBP01,41,42,1,41,41,1715400502.64,2024-05-11 04:08:22.640000+00:00,2024-05-11 13:08:22.640000+09:00,2024,5,11,4,8,22,640,,,,,,,,,-0.289307,-0.484863,1.112061,105.529785,-2.502441,28.198242,,,,,,,,,,,0.0,1.0,1.0,1.0,0.0,0.0,0.0,4.0,0.0,-0.20995116,0.12372062666666667,0.8355761866666667,18.089192706666665,2.8385416533333316,-10.21158852,-17.1112413488614,8.973553189500594,16.28983491133691,21.948979848115307,-11.646030463248277,-19.013283263022675,31.287260704059996,2.6004034328082417,31.00098885681739,2.5842123472111522,-0.07935583999999998,-0.6085836266666667,0.2764848133333333,0.9644242799999999,0.6731383453591293,0.9049992453358122,0.9049992453358122,0.9049992453358122
LBP01_S01,LBP01,42,43,1,42,42,1715400502.68,2024-05-11 04:08:22.680000+00:00,2024-05-11 13:08:22.680000+09:00,2024,5,11,4,8,22,680,,,,,,,,,-0.226562,0.066162,1.368652,-84.533691,-79.772949,56.518555,,,,,,,,,,,0.0,1.0,1.0,1.0,0.0,0.0,0.0,4.0,0.0,-0.21745116,0.12636386666666666,0.82262696,20.33203124,0.9082031199999979,-10.901692693333334,-15.792733162860378,9.080167276891448,19.95992367877691,21.317270521600893,-11.28282377217262,-18.2148863158716,30.224331560270187,2.605518942981688,31.04571785217221,2.582512122741959,-0.009110840000000009,-0.06020186666666666,0.54602504,0.6153377466666666,0.5494093341604767,0.845734260139923,0.845734260139923,0.845734260139923
LBP01_S01,LBP01,43,44,1,43,43,1715400502.72,2024-05-11 04:08:22.720000+00:00,2024-05-11 13:08:22.720000+09:00,2024,5,11,4,8,22,720,,,,,,,,,0.595215,0.753662,0.807129,166.442871,30.456543,65.368652,,,,,,,,,,,0.0,1.0,1.0,1.0,0.0,0.0,0.0,4.0,0.0,-0.21320636,0.14366204000000002,0.8371712266666668,21.987304679999998,0.28076170666666467,-6.665852853333334,-7.738126784276068,6.450607059258541,19.759092427467664,21.00774545022985,-11.024799489802279,-17.424522618772894,29.436126803370815,2.5407953329745743,31.07720635742236,2.5847136867371865,0.8084213600000001,0.60999996,-0.030042226666666783,1.4484635466666669,1.013186844509611,0.8696560579070213,0.8696560579070213,0.8696560579070213
LBP01_S01,LBP01,44,45,1,44,44,1715400502.76,2024-05-11 04:08:22.760000+00:00,2024-05-11 13:08:22.760000+09:00,2024,5,11,4,8,22,760,,,,,,,,,-0.835449,0.231689,-0.162354,-9.094238,-21.362305,-69.580078,,,,,,,,,,,0.0,1.0,1.0,1.0,0.0,0.0,0.0,4.0,0.0,-0.20432614666666662,0.14877270666666664,0.8333072933333333,16.636555986666664,3.3829752533333313,-8.189290346666667,5.746811528994454,2.502695200971892,16.480266519285973,21.23761791138963,-10.924691681763402,-16.765311958001455,29.179804453437907,2.5058074472496568,31.204858042104593,2.5942017959165367,-0.6311228533333334,0.08291629333333336,-0.9956612933333333,1.7097004400000002,1.181749795321308,0.9086677750838071,0.9086677750838071,0.9086677750838071
LBP01_S01,LBP01,45,46,1,45,45,1715400502.8,2024-05-11 04:08:22.800000+00:00,2024-05-11 13:08:22.800000+09:00,2024,5,11,4,8,22,800,,,,,,,,,0.19873,0.425293,0.918457,-99.365234,-2.441406,15.869141,,,,,,,,,,,0.0,1.0,1.0,1.0,0.0,0.0,0.0,4.0,0.0,-0.25013344,0.13687166666666664,0.78958008,16.306966146666667,-4.018554693333336,-8.656412733333333,21.989815445067606,-1.1596149478938338,11.069165461149153,22.117210529192334,-10.971076279679156,-16.32254533955549,29.596638368047806,2.6268806702471568,31.504678804285316,2.59789392812803,0.44886344,0.2884213333333333,0.12887691999999995,0.8661616933333333,0.5488847910072729,0.8686918879641922,0.8686918879641922,0.8686918879641922
LBP01_S01,LBP01,46,47,1,46,46,1715400502.84,2024-05-11 04:08:22.840000+00:00,2024-05-11 13:08:22.840000+09:00,2024,5,11,4,8,22,840,,,,,,,,,-0.254395,-0.433838,1.933105,-67.749023,150.695801,-76.599121,,,,,,,,,,,0.0,1.0,1.0,1.0,0.0,0.0,0.0,4.0,0.0,-0.19344723999999996,0.12312818666666668,0.8018945333333333,17.073567706666662,-10.531412760000002,-7.069498666666668,37.38120231271765,-3.0991588592330754,4.2934589111316415,23.61245862170104,-11.095042634048479,-16.150806983110225,30.683818853242165,2.5672101025192196,32.00888335404079,2.593614415387454,-0.06094776000000002,-0.5569661866666666,1.131210466666667,1.7491244133333335,1.2623640847375388,0.9080591076415269,0.9080591076415269,0.9080591076415269
LBP01_S01,LBP01,47,48,1,47,47,1715400502.88,2024-05-11 04:08:22.880000+00:00,2024-05-11 13:08:22.880000+09:00,2024,5,11,4,8,22,880,,,,,,,,,-1.333252,-0.1604,1.407715,9.82666,-169.616699,35.217285,,,,,,,,,,,0.0,1.0,1.0,1.0,0.0,0.0,0.0,4.0,0.0,-0.2400195066666667,0.13411452,0.7984472666666668,17.394205733333333,0.16113281333333135,-9.19921872,48.083075256907335,-2.3560786442230204,-3.4224148849368867,25.535781631977336,-11.1892857798174,-16.287703578507703,32.28878362031911,2.619454143745817,32.70741403446254,2.5969141777158127,-1.0932324933333335,-0.29451452,0.6092677333333333,1.9970147466666668,1.2857306319178154,0.942392882575735,0.942392882575735,0.942392882575735
LBP01_S01,LBP01,48,49,1,48,48,1715400502.92,2024-05-11 04:08:22.920000+00:00,2024-05-11 13:08:22.920000+09:00,2024,5,11,4,8,22,920,,,,,,,,,1.134521,0.427246,1.220459,223.937988,-19.714355,42.419434,,,,,,,,,,,0.0,1.0,1.0,1.0,0.0,0.0,0.0,4.0,0.0,-0.24019529333333334,0.12069329333333334,0.8167838533333334,11.158040359999998,-8.697102853333336,-9.122721333333333,50.982212437950245,1.321274897531447,-11.940036605304034,27.575070129495344,-11.136434783916142,-16.765305042719863,34.139128950786834,2.663546126024573,33.55894598576301,2.6011980184980446,1.3747162933333332,0.3065527066666667,0.4036751466666666,2.0849441466666665,1.4651870437446386,0.9859590626731435,0.9859590626731435,0.9859590626731435
LBP01_S01,LBP01,49,50,1,49,49,1715400502.96,2024-05-11 04:08:22.960000+00:00,2024-05-11 13:08:22.960000+09:00,2024,5,11,4,8,22,960,,,,,,,,,-0.76123,0.825439,-0.813721,287.902832,-42.907715,-27.46582,,,,,,,,,,,0.0,1.0,1.0,1.0,0.0,0.0,0.0,4.0,0.0,-0.24989581333333333,0.13368808,0.8070214933333333,17.78808593333333,-7.035319000000002,-7.229003893333333,44.65741551657936,7.404470385942821,-21.182507208060294,29.36136675015852,-10.840255968478429,-17.612605331042275,35.91385350316094,2.636827075764651,34.50539815266024,2.613507081805578,-0.5113341866666666,0.69175092,-1.6207424933333332,2.8238276,1.8348809812822349,1.0512607487199968,1.0512607487199968,1.0512607487199968
LBP01_S01,LBP01,50,51,1,50,50,1715400503.0,2024-05-11 04:08:23+00:00,2024-05-11 13:08:23+09:00,2024,5,11,4,8,23,0,4.0,8.0,22.0,40.545582,141.523621,-9.033,3.0,17.0,0.382324,-0.019775,0.92749,-146.850586,96.313477,-58.71582,-499.0,3.0,571.0,774.0,0.0,1027.599976,26.450001,0.144683,-118.724365,4.014844,0.0,1.0,1.0,1.0,0.0,0.0,0.0,3.0,0.0,-0.23243813333333335,0.14616204000000002,0.81459636,16.236165359999998,-11.271158853333336,-6.9295247333333325,29.96632898035268,14.748779165407015,-30.86943245202034,30.560019909372627,-10.250304801862148,-18.84738262912309,37.33908672371219,2.569700879558957,35.48352660770945,2.626365794429249,0.6147621333333333,-0.16593704000000004,0.11289364000000002,0.8935928133333333,0.6466935563131601,1.0223630921195084,1.0223630921195084,1.0223630921195084
LBP01_S01,LBP01,51,52,1,51,51,1715400503.04,2024-05-11 04:08:23.040000+00:00,2024-05-11 13:08:23.040000+09:00,2024,5,11,4,8,23,40,,,,,,,,,0.386719,0.357666,1.302246,227.966309,77.819824,-25.756836,,,,,,,,,,,0.0,1.0,1.0,1.0,0.0,0.0,0.0,3.0,0.0,-0.27648436000000004,0.14814772,0.8091211066666667,14.227701813333333,-3.716634120000002,-7.64241536,9.920810981562573,21.971461219020984,-40.3319965596232,30.95685234863513,-9.371446353101309,-20.460662491508018,38.272567508277454,2.633401056091837,36.431039678312146,2.6269395705051646,0.66320336,0.20951827999999997,0.4931248933333333,1.3658465333333334,0.8525894479727387,1.0110448491763904,1.0110448491763904,1.0110448491763904
LBP01_S01,LBP01,52,53,1,52,52,1715400503.08,2024-05-11 04:08:23.080000+00:00,2024-05-11 13:08:23.080000+09:00,2024,5,11,4,8,23,80,,,,,,,,,-0.708496,0.725098,1.296875,-186.584473,4.150391,15.441895,,,,,,,,,,,0.0,1.0,1.0,1.0,0.0,0.0,0.0,3.0,0.0,-0.26985674666666665,0.13980786666666667,0.8223307466666667,11.55517577333333,-8.435058600000001,-4.981282546666666,-11.172672252239009,27.897279701333094,-48.47763540127511,30.50994545854557,-8.255555165047985,-22.39976790755902,38.73965107327487,2.648357350804004,37.29042948190397,2.6345075112016287,-0.43863925333333337,0.5852901333333334,0.4745442533333333,1.49847364,0.8718722286630457,1.0023465603943065,1.0023465603943065,1.0023465603943065
LBP01_S01,LBP01,53,54,1,53,53,1715400503.12,2024-05-11 04:08:23.120000+00:00,2024-05-11 13:08:23.120000+09:00,2024,5,11,4,8,23,120,,,,,,,,,0.306885,0.248047,1.020752,-248.413086,87.219238,-39.428711,,,,,,,,,,,0.0,1.0,1.0,1.0,0.0,0.0,0.0,3.0,0.0,-0.25443682666666667,0.12725904000000002,0.8148632933333334,13.84765624,-10.12207032,-4.609375,-28.967388786026206,31.883223985768506,-53.92814195277454,29.35124990710452,-6.980226205617245,-24.556893585670004,38.9006484723431,2.663885966049907,38.01596245576868,2.641497707372124,0.5613218266666666,0.12078795999999997,0.2058887066666667,0.8879984933333332,0.6099689204428679,0.9792655227501041,0.9792655227501041,0.9792655227501041
LBP01_S01,LBP01,54,55,1,54,54,1715400503.16,2024-05-11 04:08:23.160000+00:00,2024-05-11 13:08:23.160000+09:00,2024,5,11,4,8,23,160,,,,,,,,,-1.015137,-0.834473,0.055664,-395.996094,6.04248,-128.479004,,,,,,,,,,,0.0,1.0,1.0,1.0,0.0,0.0,0.0,3.0,0.0,-0.2646354,0.14153638666666665,0.78036784,13.688151026666665,-16.49088542666667,-4.4767252666666675,-40.17999318338134,33.90989804458321,-55.31541189597644,27.744050179769268,-5.623830283833916,-26.76951006150906,38.96108900393003,2.634394573486367,38.58562440641511,2.6388274217005745,-0.7505016,-0.9760093866666667,-0.72470384,2.451214826666667,1.4286506326512263,1.0042313621890555,1.0042313621890555,1.0042313621890555
LBP01_S01,LBP01,55,56,1,55,55,1715400503.2,2024-05-11 04:08:23.200000+00:00,2024-05-11 13:08:23.200000+09:00,2024,5,11,4,8,23,200,,,,,,,,,-0.054688,-1.702393,1.312256,406.37207,-73.547363,-140.014648,,,,,,,,,,,0.0,1.0,1.0,1.0,0.0,0.0,0.0,3.0,0.0,-0.2435742,0.13162428,0.785,9.606119773333333,-14.628092466666667,-1.1059570400000003,-43.08960658366989,34.45209063940079,-51.661048305225364,26.020465916422474,-4.245746658257884,-28.835951993718073,39.07176907407476,2.6326184310063145,39.01402915241487,2.642145631330365,0.1888862,-1.83401728,0.5272560000000001,2.55015948,1.91762777134277,1.0523048574076719,1.0523048574076719,1.0523048574076719
LBP01_S01,LBP01,56,57,1,56,56,1715400503.24,2024-05-11 04:08:23.240000+00:00,2024-05-11 13:08:23.240000+09:00,2024,5,11,4,8,23,240,,,,,,,,,0.240479,2.519043,0.038574,472.717285,120.910645,111.450195,,,,,,,,,,,0.0,1.0,1.0,1.0,0.0,0.0,0.0,3.0,0.0,-0.25113604,0.13211906666666667,0.7865787733333334,9.305826799999998,-12.05159506666667,0.003255199999999642,-37.37594945576774,34.23296287840817,-42.71456338932527,24.525427938191765,-2.876428143121557,-30.544534529291084,39.277716889160374,2.642889509483858,39.35888782844737,2.653252735172559,0.49161504,2.386923933333333,-0.7480047733333334,3.6265437466666666,2.549235640736871,1.1271513965741318,1.1271513965741318,1.1271513965741318
LBP01_S01,LBP01,57,58,1,57,57,1715400503.28,2024-05-11 04:08:23.280000+00:00,2024-05-11 13:08:23.280000+09:00,2024,5,11,4,8,23,280,,,,,,,,,0.172119,0.388916,1.293457,-418.029785,-6.469727,-87.036133,,,,,,,,,,,0.0,1.0,1.0,1.0,0.0,0.0,0.0,3.0,0.0,-0.2615266666666667,0.12201163999999999,0.7870214933333334,8.752441386666664,-14.458821626666667,1.7390950399999996,-23.69164578917646,33.980984244439966,-29.136665787048578,23.577762106624707,-1.5171887733439584,-31.71000116077303,39.54411335896628,2.6893561054507735,39.71389155562562,2.654130780191367,0.4336456666666667,0.26690436,0.5064355066666667,1.2069855333333335,0.7181667104638803,1.1076759353307866,1.1076759353307866,1.1076759353307866
LBP01_S01,LBP01,58,59,1,58,58,1715400503.32,2024-05-11 04:08:23.320000+00:00,2024-05-11 13:08:23.320000+09:00,2024,5,11,4,8,23,320,,,,,,,,,-1.797607,-0.353516,0.642578,-185.668945,135.681152,-83.190918,,,,,,,,,,,0.0,1.0,1.0,1.0,0.0,0.0,0.0,3.0,0.0,-0.25460284,0.13534171999999997,0.7493587333333334,12.642415346666665,-10.505371093333336,1.4160156133333333,-3.44738490337048,34.25526622795068,-12.48204202248506,23.439866710489888,-0.14697812422593137,-32.20928284167243,39.83574845725115,2.6368432693090744,40.185628431499865,2.660313737147127,-1.54300416,-0.48885771999999994,-0.10678073333333338,2.1386426133333334,1.6221115353736033,1.1310593716963693,1.1310593716963693,1.1310593716963693
LBP01_S01,LBP01,59,60,1,59,59,1715400503.36,2024-05-11 04:08:23.360000+00:00,2024-05-11 13:08:23.360000+09:00,2024,5,11,4,8,23,360,,,,,,,,,0.791016,0.415527,0.577393,91.73584,-166.259766,40.161133,,,,,,,,,,,0.0,1.0,1.0,1.0,0.0,0.0,0.0,3.0,0.0,-0.24917314666666665,0.12208000000000001,0.7422363466666667,11.027832013333331,-11.348470053333335,-0.5297851733333336,21.095606717098097,35.341214726889824,5.009781531979648,24.283690979173812,1.2666704648496616,-32.00889158039325,40.1979009631585,2.6700091720625596,40.86181976019915,2.659833935267784,1.0401891466666666,0.29344699999999996,-0.16484334666666667,1.4984794933333334,1.093287671014539,1.1294171238406374,1.1294171238406374,1.1294171238406374
LBP01_S01,LBP01,60,61,1,60,60,1715400503.4,2024-05-11 04:08:23.400000+00:00,2024-05-11 13:08:23.400000+09:00,2024,5,11,4,8,23,400,,,,,,,,,0.381104,-0.197998,1.254395,-31.37207,178.955078,17.578125,,,,,,,,,,,0.0,1.0,1.0,1.0,0.0,0.0,0.0,3.0,0.0,-0.24263343999999998,0.11582674666666667,0.7372526133333334,10.607910146666665,-9.740397133333335,-0.2783203333333336,46.752223308186984,37.19503535722559,20.7886051721975,26.153779911501292,2.754471879138685,-31.177347373505345,40.78767348403725,2.680771917980897,41.786399612520384,2.662740723200576,0.62373744,-0.3138247466666667,0.5171423866666666,1.4547045733333333,0.8688904498067908,1.1185618457558937,1.1185618457558937,1.1185618457558937
LBP01_S01,LBP01,61,62,1,61,61,1715400503.44,2024-05-11 04:08:23.440000+00:00,2024-05-11 13:08:23.440000+09:00,2024,5,11,4,8,23,440,,,,,,,,,-0.862793,0.638916,1.266602,45.898438,133.544922,43.945312,,,,,,,,,,,0.0,1.0,1.0,1.0,0.0,0.0,0.0,3.0,0.0,-0.24232093333333335,0.12759758666666665,0.7497851600000001,11.687825519999999,-9.069824213333334,-0.2734375200000003,69.7160252684652,39.41740202378401,32.478395410282275,28.9424209222399,4.3311679600900455,-29.878211557094055,41.822604780059905,2.642181506279913,42.95378257921378,2.664841915524554,-0.6204720666666667,0.5113184133333334,0.5168168399999999,1.64860732,0.9557885495416377,1.1120509139073236,1.1120509139073236,1.1120509139073236
LBP01_S01,LBP01,62,63,1,62,62,1715400503.48,2024-05-11 04:08:23.480000+00:00,2024-05-11 13:08:23.480000+09:00,2024,5,11,4,8,23,480,,,,,,,,,-0.595703,-1.36792,1.930664,163.024902,59.387207,104.797363,,,,,,,,,,,0.0,1.0,1.0,1.0,0.0,0.0,0.0,3.0,0.0,-0.26568030666666664,0.11685865333333334,0.76411784,9.999999999999998,-13.48551432,0.3637695066666663,86.29862858908858,41.233208542458314,38.36898337798152,32.394366065803446,5.980496301788378,-28.343452221974793,43.45701983201736,2.7101869203616067,44.32163263183886,2.6682057028434474,-0.33002269333333334,-1.4847786533333334,1.1665461599999998,2.9813475066666664,1.9168496474476238,1.1492406193577294,1.1430047113511812,1.1430047113511812
LBP01_S01,LBP01,63,64,1,63,63,1715400503.52,2024-05-11 04:08:23.520000+00:00,2024-05-11 13:08:23.520000+09:00,2024,5,11,4,8,23,520,,,,,,,,,-1.104248,0.40332,-0.763184,246.887207,-251.77002,-30.578613,,,,,,,,,,,0.0,1.0,1.0,1.0,0.0,0.0,0.0,3.0,0.0,-0.24736650666666668,0.12487297333333333,0.7611165333333333,11.779785146666665,-16.672363280000003,2.063802053333333,93.86383166399,41.48164727991292,37.78491394651925,36.14891933236304,7.639762192984895,-26.832055664114023,45.6625617593359,2.659087947256478,45.83131854319464,2.6673882637108974,-0.8568814933333332,0.27844702666666665,-1.5243005333333333,2.659629053333333,1.7706695784919768,1.1886528784962542,1.1662515582823219,1.1662515582823219
LBP01_S01,LBP01,64,65,1,64,64,1715400503.56,2024-05-11 04:08:23.560000+00:00,2024-05-11 13:08:23.560000+09:00,2024,5,11,4,8,23,560,,,,,,,,,1.794922,0.519775,0.550537,123.352051,-16.113281,110.412598,,,,,,,,,,,0.0,1.0,1.0,1.0,0.0,0.0,0.0,3.0,0.0,-0.2550520533333333,0.12678378666666668,0.7399902266666666,11.245930973333332,-17.29003906666667,0.21402991999999926,91.5785892661172,38.70802671180707,31.22986587154018,39.81206290300773,9.188083261457178,-25.582861029252417,48.20688752714238,2.663462452814287,47.42487580531339,2.672915811797454,2.049974053333333,0.3929912133333333,-0.18945322666666653,2.632418493333333,2.0958836413769517,1.2162799735777456,1.1994527041071301,1.1994527041071301
LBP01_S01,LBP01,65,66,1,65,65,1715400503.6,2024-05-11 04:08:23.600000+00:00,2024-05-11 13:08:23.600000+09:00,2024,5,11,4,8,23,600,,,,,,,,,-1.208496,0.592529,1.206787,69.702148,296.569824,-48.400879,,,,,,,,,,,0.0,1.0,1.0,1.0,0.0,0.0,0.0,3.0,0.0,-0.24516598666666667,0.12529941333333333,0.7413606666666667,9.864095026666664,-18.09082032,0.07731117333333277,80.65787116027022,31.491910528024675,20.268414415395455,43.03837774941854,10.447759682578166,-24.7721244526366,50.74559874100873,2.6536303542460953,49.052885211093006,2.673359921236323,-0.9633300133333333,0.46722958666666664,0.4654263333333334,1.8959859333333333,1.1674458758356276,1.2360105483806134,1.1983490203736298,1.1983490203736298
LBP01_S01,LBP01,66,67,1,66,66,1715400503.64,2024-05-11 04:08:23.640000+00:00,2024-05-11 13:08:23.640000+09:00,2024,5,11,4,8,23,640,,,,,,,,,-0.893066,0.790039,1.710938,-53.894043,-51.025391,112.060547,,,,,,,,,,,0.0,1.0,1.0,1.0,0.0,0.0,0.0,3.0,0.0,-0.2361978933333333,0.11426750666666668,0.74221028,9.992675746666665,-15.703938813333334,-0.4427083466666672,63.997380424190325,19.015712291783803,7.170313240927716,45.59827296638615,11.208388174249517,-24.485311922999493,52.95621741541119,2.6765273826727918,50.67384337480365,2.671821700827236,-0.6568681066666667,0.6757714933333334,0.9687277200000001,2.30136732,1.3515088665096553,1.2631453692266346,1.203454348578164,1.203454348578164
LBP01_S01,LBP01,67,68,1,67,67,1715400503.68,2024-05-11 04:08:23.680000+00:00,2024-05-11 13:08:23.680000+09:00,2024,5,11,4,8,23,680,,,,,,,,,-1.115723,0.057617,0.383789,11.108398,184.753418,-80.444336,,,,,,,,,,,0.0,1.0,1.0,1.0,0.0,0.0,0.0,3.0,0.0,-0.24672522666666666,0.11754876,0.740791,11.48518877333333,-13.791503920000002,-0.7706705866666673,45.3578592641312,1.6518368975551891,-5.609537601030562,47.4125873369514,11.274461650151725,-24.709693427040715,54.640972472524,2.6811817141252727,52.25033537779732,2.6735095360385825,-0.8689977733333334,-0.05993176,-0.357002,1.2859315333333334,0.9413816303279924,1.2788242610733351,1.1950003899249328,1.1950003899249328
LBP01_S01,LBP01,68,69,1,68,68,1715400503.72,2024-05-11 04:08:23.720000+00:00,2024-05-11 13:08:23.720000+09:00,2024,5,11,4,8,23,720,,,,,,,,,-0.498047,0.412109,-0.231689,24.963379,-368.530273,-12.451172,,,,,,,,,,,0.0,1.0,1.0,1.0,0.0,0.0,0.0,3.0,0.0,-0.25477861333333335,0.11777662666666666,0.7480143066666667,12.727050759999997,-17.700195320000002,0.5867512933333326,28.424896715036628,-18.74529916490076,-16.00148798216164,48.549583205552864,10.524649683555694,-25.349752946327182,55.77132107843863,2.692118750174638,53.74900680600124,2.673610699840723,-0.24326838666666667,0.29433237333333334,-0.9797033066666667,1.5173040666666666,1.0514892405712177,1.2803563569157992,1.190515666507629,1.190515666507629
LBP01_S01,LBP01,69,70,1,69,69,1715400503.76,2024-05-11 04:08:23.760000+00:00,2024-05-11 13:08:23.760000+09:00,2024,5,11,4,8,23,760,,,,,,,,,0.218506,-0.454102,-0.168213,138.061523,393.493652,-83.618164,,,,,,,,,,,0.0,1.0,1.0,1.0,0.0,0.0,0.0,3.0,0.0,-0.2448014,0.11882480000000001,0.7485253733333334,12.920735653333331,-17.516276053333335,0.7104492133333327,16.038319888632135,-39.03605396766606,-22.790133489118027,49.19111600109815,8.963207524849052,-26.261358285891905,56.477995020954744,2.6744502664512457,55.14744428182452,2.6785616332322912,0.46330740000000004,-0.5729268000000001,-0.9167383733333334,1.9529725733333334,1.1761411948379523,1.280132012896465,1.1900800764570327,1.1900800764570327
LBP01_S01,LBP01,70,71,1,70,70,1715400503.8,2024-05-11 04:08:23.800000+00:00,2024-05-11 13:08:23.800000+09:00,2024,5,11,4,8,23,800,,,,,,,,,-1.453613,-0.01709,1.352051,-137.817383,-54.260254,-217.529297,,,,,,,,,,,0.0,1.0,1.0,1.0,0.0,0.0,0.0,3.0,0.0,-0.24731441333333337,0.12259758666666665,0.7369954266666667,12.254231746666665,-18.476562506666667,-0.3320312533333343,9.736765897255813,-55.48596876227774,-25.821385945114244,49.580586636988386,6.743768774357942,-27.294213723696476,56.99725512114366,2.6653897138900295,56.44365717254702,2.6806973258178446,-1.2062985866666667,-0.13968758666666664,0.6150555733333332,1.9610417466666665,1.3612355638724511,1.3126260438110722,1.1951140613810158,1.1951140613810158
LBP01_S01,LBP01,71,72,1,71,71,1715400503.84,2024-05-11 04:08:23.840000+00:00,2024-05-11 13:08:23.840000+09:00,2024,5,11,4,8,23,840,,,,,,,,,-0.306152,-0.118164,1.179688,-6.103516,-313.354492,231.628418,,,,,,,,,,,0.0,1.0,1.0,1.0,0.0,0.0,0.0,3.0,0.0,-0.24102209333333335,0.12182610666666667,0.75451496,7.836914039999998,-15.965169280000003,-0.11311849333333432,9.633232514570672,-64.80598535611401,-25.85325181168548,49.96591593757121,4.151529360113383,-28.328343796163896,57.587524809996594,2.659059858393381,57.66045228709447,2.680311433410327,-0.06512990666666663,-0.23999010666666667,0.4251730400000001,0.7302930533333334,0.49255382445284945,1.2818336333996847,1.1750409117544969,1.1750409117544969
LBP01_S01,LBP01,72,73,1,72,72,1715400503.88,2024-05-11 04:08:23.880000+00:00,2024-05-11 13:08:23.880000+09:00,2024,5,11,4,8,23,880,,,,,,,,,-0.481445,1.045166,0.254883,141.601562,-269.042969,44.98291,,,,,,,,,,,0.0,1.0,1.0,1.0,0.0,0.0,0.0,3.0,0.0,-0.24790034666666672,0.10940097333333332,0.76796548,7.5366210666666635,-12.032877613333333,-0.22298177333333427,14.584252985648831,-65.24874647165205,-24.10932997712238,50.54928605699716,1.5415795012473006,-29.292716995248792,58.4437341140565,2.7111985583830105,58.84044882097377,2.6775591168103636,-0.2335446533333333,0.9357650266666667,-0.51308248,1.68239216,1.0924527090524352,1.2741025164850694,1.172746795012773,1.172746795012773
LBP01_S01,LBP01,73,74,1,73,73,1715400503.92,2024-05-11 04:08:23.920000+00:00,2024-05-11 13:08:23.920000+09:00,2024,5,11,4,8,23,920,,,,,,,,,0.197021,-0.223145,1.202393,-135.925293,2.197266,-103.820801,,,,,,,,,,,0.0,1.0,1.0,1.0,0.0,0.0,0.0,3.0,0.0,-0.2660676666666667,0.11748365333333333,0.7617252533333333,10.255533826666666,-12.891438800000003,2.060546879999999,22.588684205149786,-57.33392464433409,-21.753440716449013,51.45283342520315,-0.751777484526063,-30.162854623906753,59.64693651756875,2.7085972811721635,60.03316194404984,2.681885785463727,0.4630886666666667,-0.34062865333333336,0.44066774666666675,1.2443850666666667,0.724339047421212,1.2444685966321325,1.1606276666994875,1.1606276666994875
LBP01_S01,LBP01,74,75,1,74,74,1715400503.96,2024-05-11 04:08:23.960000+00:00,2024-05-11 13:08:23.960000+09:00,2024,5,11,4,8,23,960,,,,,,,,,0.08667,-0.244141,0.887451,256.347656,7.629395,-15.625,,,,,,,,,,,0.0,1.0,1.0,1.0,0.0,0.0,0.0,3.0,0.0,-0.2567187066666667,0.12112297333333336,0.7672460933333334,10.063476533333333,-14.513346346666667,3.7093098933333324,31.30767181948139,-43.8357564870874,-19.53249454218747,52.70514029798241,-2.5052077440095593,-30.94415440559425,61.169016434367435,2.684819378669817,61.279405009201255,2.6815992675350158,0.34338870666666665,-0.3652639733333334,0.12020490666666661,0.8288575866666666,0.5155412628182173,1.1916950078935717,1.143651708702612,1.143651708702612
LBP01_S01,LBP01,75,76,1,75,75,1715400504.0,2024-05-11 04:08:24+00:00,2024-05-11 13:08:24+09:00,2024,5,11,4,8,24,0,4.0,8.0,23.0,40.545601,141.523636,-9.873,3.0,17.0,-0.380127,0.983643,0.278564,-26.123047,45.837402,-1.159668,-502.0,3.0,551.0,726.0,0.0,1027.699951,26.530001,0.145673,-119.546791,4.014844,0.0,1.0,1.0,1.0,0.0,0.0,0.0,6.0,0.0,-0.2527506,0.13030590666666667,0.7554459733333333,9.284667933333331,-11.094563786666667,2.941894533333332,38.567142015755344,-28.988802601666446,-17.69952319720816,54.247825978612624,-3.6647598480762174,-31.652135333482576,62.913549886483175,2.649771430170918,62.59932453167337,2.6796582052615743,-0.1273764,0.8533370933333334,-0.4768819733333333,1.4575954666666668,0.9858120300675156,1.205259746843746,1.1396045374555581,1.1396045374555581
LBP01_S01,LBP01,76,77,1,76,76,1715400504.04,2024-05-11 04:08:24.040000+00:00,2024-05-11 13:08:24.040000+09:00,2024,5,11,4,8,24,40,,,,,,,,,-0.051758,-0.112061,0.976318,-71.899414,56.213379,-47.607422,,,,,,,,,,,0.0,1.0,1.0,1.0,0.0,0.0,0.0,6.0,0.0,-0.25052729333333335,0.12944002666666668,0.75156576,3.859049439999998,-11.401367160000001,2.3380533866666657,42.73520804658089,-17.23800659385368,-16.158449756790898,55.95723430047586,-4.354280111830365,-32.29847332375421,64.75618275420422,2.649004216673162,63.98881574241612,2.679901425938046,0.19876929333333335,-0.24150102666666667,0.22475224000000005,0.66502256,0.3851565230374586,1.1865624298463349,1.1207433370951057,1.1207433370951057
LBP01_S01,LBP01,77,78,1,77,77,1715400504.08,2024-05-11 04:08:24.080000+00:00,2024-05-11 13:08:24.080000+09:00,2024,5,11,4,8,24,80,,,,,,,,,-0.659912,0.086914,1.071045,69.213867,-23.620605,-9.094238,,,,,,,,,,,0.0,1.0,1.0,1.0,0.0,0.0,0.0,6.0,0.0,-0.25219721333333334,0.10717113333333335,0.76429036,2.3437499599999985,-11.402180973333333,1.6959635466666656,42.95032458272341,-12.014174863171123,-14.693313025052507,57.6752472837848,-4.834847106357209,-32.88620584475631,66.56810370328465,2.7244484006589045,65.42531088744752,2.6845383604202784,-0.4077147866666667,-0.020257133333333344,0.3067546400000001,0.7347265600000001,0.5106271711131907,1.1721126275443405,1.1058624549979859,1.1058624549979859
LBP01_S01,LBP01,78,79,1,78,78,1715400504.12,2024-05-11 04:08:24.120000+00:00,2024-05-11 13:08:24.120000+09:00,2024,5,11,4,8,24,120,,,,,,,,,-0.398682,0.053711,0.447021,-33.081055,-26.794434,-69.458008,,,,,,,,,,,0.0,1.0,1.0,1.0,0.0,0.0,0.0,6.0,0.0,-0.24913406666666665,0.11652334666666665,0.7723828133333334,9.866536413333332,-12.687174466666667,2.451985679999999,39.2414564683616,-14.914289235327164,-13.15382874133479,59.24490554251926,-5.431418675770296,-33.4123589944097,68.23375172995287,2.6892535708875283,66.87916331514144,2.682751336554003,-0.14954793333333333,-0.06281234666666666,-0.32536181333333336,0.5377220933333333,0.3635523137508542,1.16225596327666,1.088188404015911,1.088188404015911
LBP01_S01,LBP01,79,80,1,79,79,1715400504.16,2024-05-11 04:08:24.160000+00:00,2024-05-11 13:08:24.160000+09:00,2024,5,11,4,8,24,160,,,,,,,,,0.137695,-0.130859,0.391113,227.478027,-66.589355,-80.078125,,,,,,,,,,,0.0,1.0,1.0,1.0,0.0,0.0,0.0,6.0,0.0,-0.25174147999999996,0.12835928,0.7736556,7.17692053333333,-12.199707026666669,2.3950195333333326,32.5544841194742,-25.447728007127424,-11.511372357642063,60.54708490729823,-6.4493277960553925,-33.872813888715385,69.67719024567583,2.655039643716831,68.32364480198615,2.684527157641914,0.38943648,-0.25921828,-0.3825426,1.03119736,0.6043126090490821,1.1292824423325742,1.0769354785515663,1.0769354785515663
LBP01_S01,LBP01,80,81,1,80,80,1715400504.2,2024-05-11 04:08:24.200000+00:00,2024-05-11 13:08:24.200000+09:00,2024,5,11,4,8,24,200,,,,,,,,,-0.441406,1.368896,0.677734,285.03418,34.912109,200.500488,,,,,,,,,,,0.0,1.0,1.0,1.0,0.0,0.0,0.0,6.0,0.0,-0.25273432,0.12482086666666667,0.7782552133333334,7.054850213333332,-12.068684893333334,2.092285159999999,24.600447832504937,-41.32418960550914,-9.762825048321316,61.53110282059843,-8.10229538027576,-34.26332689064824,70.89216722857125,2.6678219206547396,69.73800908202429,2.6860059811730137,-0.18867168,1.2440751333333333,-0.10052121333333341,1.5332680266666667,1.2623091754963913,1.103069698498719,1.0811485171184942,1.0811485171184942
LBP01_S01,LBP01,81,82,1,81,81,1715400504.24,2024-05-11 04:08:24.240000+00:00,2024-05-11 13:08:24.240000+09:00,2024,5,11,4,8,24,240,,,,,,,,,0.907227,0.670898,0.55249,-375.0,192.810059,-109.069824,,,,,,,,,,,0.0,1.0,1.0,1.0,0.0,0.0,0.0,6.0,0.0,-0.25930333333333333,0.11605458666666667,0.7889257866666666,4.929199173333331,-13.095703120000001,1.3688151066666658,17.410036150969958,-59.1663419582761,-7.743754576470966,62.227504266637226,-10.468949058606803,-34.573077073707076,71.95247626031052,2.705429203215708,71.10388005518743,2.686389468410767,1.1665303333333332,0.5548434133333333,-0.23643578666666654,1.9578095333333332,1.3132197505074492,1.0536290628895422,1.0863056556382487,1.0863056556382487
LBP01_S01,LBP01,82,83,1,82,82,1715400504.28,2024-05-11 04:08:24.280000+00:00,2024-05-11 13:08:24.280000+09:00,2024,5,11,4,8,24,280,,,,,,,,,-2.963867,-0.884033,-1.859131,28.015137,-418.518066,-62.683105,,,,,,,,,,,0.0,1.0,1.0,1.0,0.0,0.0,0.0,6.0,0.0,-0.24785477333333333,0.11503245333333334,0.8003450666666667,6.092936146666665,-10.763346346666667,1.6023763066666659,12.629631004216131,-75.47868480188633,-4.972705487084501,62.73268950680587,-13.488096450682256,-34.771985293190454,72.98225839099577,2.6933283197202544,72.4003311244011,2.691005347265757,-2.716012226666667,-0.9990654533333333,-2.6594760666666666,6.374553746666667,3.930352038255577,1.1821164760012102,1.1481327509125385,1.1481327509125385
LBP01_S01,LBP01,83,84,1,83,83,1715400504.32,2024-05-11 04:08:24.320000+00:00,2024-05-11 13:08:24.320000+09:00,2024,5,11,4,8,24,320,,,,,,,,,3.129395,-0.495361,2.305664,-34.606934,-468.017578,189.453125,,,,,,,,,,,0.0,1.0,1.0,1.0,0.0,0.0,0.0,6.0,0.0,-0.25373368,0.10749338666666669,0.79063804,5.4280598399999995,-10.349121093333334,0.2115885466666659,10.840184813135707,-87.6098248201204,-0.6363789613291692,63.1662968993313,-16.992489443487074,-34.797440451643624,74.0917513860158,2.7263554920512743,73.60282970958829,2.6918019291804667,3.38312868,-0.6028543866666667,1.51502596,5.501009026666667,3.7555687633746913,1.2674547651212535,1.2036101128798182,1.2036101128798182
LBP01_S01,LBP01,84,85,1,84,84,1715400504.36,2024-05-11 04:08:24.360000+00:00,2024-05-11 13:08:24.360000+09:00,2024,5,11,4,8,24,360,,,,,,,,,-3.499512,0.935059,1.724365,-22.705078,491.088867,-95.031738,,,,,,,,,,,0.0,1.0,1.0,1.0,0.0,0.0,0.0,6.0,0.0,-0.24781245333333332,0.11292308000000001,0.7796224266666666,7.528483013333331,-12.578125000000002,0.5932617199999992,11.279831317571194,-94.3560582663483,6.239580540494416,63.61749015203415,-20.766731774141007,-34.547857230023844,75.31265923474878,2.6996076139808163,74.68657025928194,2.696790337455603,-3.251699546666667,0.82213592,0.9447425733333333,5.01857804,3.484536689807548,1.363104725872974,1.2511294165658127,1.2511294165658127
LBP01_S01,LBP01,85,86,1,85,85,1715400504.4,2024-05-11 04:08:24.400000+00:00,2024-05-11 13:08:24.400000+09:00,2024,5,11,4,8,24,400,,,,,,,,,0.022461,-1.508789,2.176025,-298.706055,-516.540527,4.02832,,,,,,,,,,,0.0,1.0,1.0,1.0,0.0,0.0,0.0,6.0,0.0,-0.23145177333333336,0.11913075999999999,0.7783431333333333,6.136881453333332,-8.840332040000002,-0.4353841066666674,12.181664355425411,-95.94764192798975,16.457192111298255,64.10475672625117,-24.604637451260597,-33.889569545571916,76.5722596181148,2.653606302548454,75.63031882187774,2.7085853113801885,0.25391277333333334,-1.62791976,1.3976818666666668,3.2795144,2.1605807186654937,1.414772336627322,1.2696896472209083,1.2696896472209083
LBP01_S01,LBP01,86,87,1,86,86,1715400504.44,2024-05-11 04:08:24.440000+00:00,2024-05-11 13:08:24.440000+09:00,2024,5,11,4,8,24,440,,,,,,,,,-1.311279,1.162109,-1.341064,773.925781,180.847168,65.673828,,,,,,,,,,,0.0,1.0,1.0,1.0,0.0,0.0,0.0,6.0,0.0,-0.25326166666666666,0.11661774666666666,0.7832747733333334,3.108723906666665,-9.639485693333336,-1.035156253333334,11.610609995348396,-93.46339403309248,30.235730870313805,64.5691811260651,-28.343173212584297,-32.68014031075936,77.72069344634077,2.6951630052230597,76.41662828281139,2.719008165350173,-1.0580173333333334,1.0454912533333334,-2.124338773333333,4.22784736,2.5933121413199864,1.4802732802984562,1.2961620971028898,1.2961620971028898
LBP01_S01,LBP01,87,88,1,87,87,1715400504.48,2024-05-11 04:08:24.480000+00:00,2024-05-11 13:08:24.480000+09:00,2024,5,11,4,8,24,480,,,,,,,,,1.217529,1.110352,1.327881,-116.027832,-335.754395,-20.996094,,,,,,,,,,,0.0,1.0,1.0,1.0,0.0,0.0,0.0,6.0,0.0,-0.24723953333333332,0.10347322666666667,0.8208333733333333,-1.8619792133333348,-10.415852880000003,-0.5973307333333341,8.387491393030345,-88.00747935524483,46.86745408460324,64.90468078178631,-31.86347238679409,-30.805442147375235,78.59308955515652,2.7324142198060004,77.02813999300409,2.7267772574379583,1.4647685333333333,1.0068787733333333,0.5070476266666668,2.9786949333333332,1.8483638754696061,1.477533849419335,1.3133872343885324,1.3069895829532174
LBP01_S01,LBP01,88,89,1,88,88,1715400504.52,2024-05-11 04:08:24.520000+00:00,2024-05-11 13:08:24.520000+09:00,2024,5,11,4,8,24,520,,,,,,,,,-2.815186,0.340576,0.824463,-135.559082,658.38623,-89.96582,,,,,,,,,,,0.0,1.0,1.0,1.0,0.0,0.0,0.0,6.0,0.0,-0.24777338666666665,0.10180656,0.8277799866666666,0.7885741733333319,-10.777994813333335,-0.06266277333333406,2.6020631516264667,-80.07573929192448,64.60033578106409,65.00876330785137,-35.06650195847107,-28.22142871613267,79.07115722688935,2.739137653638892,77.44394985035696,2.730678061955748,-2.5674126133333335,0.23876944,-0.003316986666666688,2.8094990400000004,2.578493625158216,1.5098468112859849,1.3492498448911194,1.331441583764852
LBP01_S01,LBP01,89,90,1,89,89,1715400504.56,2024-05-11 04:08:24.560000+00:00,2024-05-11 13:08:24.560000+09:00,2024,5,11,4,8,24,560,,,,,,,,,-0.920898,-0.33252,2.433838,-214.416504,-325.744629,249.87793,,,,,,,,,,,0.0,1.0,1.0,1.0,0.0,0.0,0.0,6.0,0.0,-0.26222651999999996,0.09705070666666668,0.8098437866666667,0.04801426666666544,-11.206868506666668,-0.6030273600000008,-4.543646954103783,-69.45817422125812,80.85646375239348,64.82701742968722,-37.844828927321394,-24.987170166036933,79.11467587163382,2.7729893829626864,77.6406613069945,2.7234173685504715,-0.65867148,-0.42957070666666664,1.6239942133333334,2.7122364,1.804365904003853,1.498186101791061,1.3572330376844035,1.3403646841467203
LBP01_S01,LBP01,90,91,1,90,90,1715400504.6,2024-05-11 04:08:24.600000+00:00,2024-05-11 13:08:24.600000+09:00,2024,5,11,4,8,24,600,,,,,,,,,1.113037,-0.871338,1.403076,182.861328,-415.100098,125.976562,,,,,,,,,,,0.0,1.0,1.0,1.0,0.0,0.0,0.0,6.0,0.0,-0.24911779999999997,0.09276358666666668,0.80199548,2.707519479999999,-11.612955746666668,-0.9814453333333342,-11.398558378613545,-55.777740507473396,92.7751815861984,64.37107509454268,-40.07593854762033,-21.276162902588997,78.75526183790768,2.772050460354589,77.59929848678772,2.7294941355662488,1.3621548,-0.9641015866666667,0.60108052,2.9273369066666666,1.7737686884426884,1.5224390142953432,1.3792247813379785,1.3483906842262752
LBP01_S01,LBP01,91,92,1,91,91,1715400504.64,2024-05-11 04:08:24.640000+00:00,2024-05-11 13:08:24.640000+09:00,2024,5,11,4,8,24,640,,,,,,,,,-0.516602,1.050781,-1.570557,70.373535,-312.866211,13.671875,,,,,,,,,,,0.0,1.0,1.0,1.0,0.0,0.0,0.0,6.0,0.0,-0.25096350666666667,0.09036124,0.8088379333333333,5.847167919999999,-12.024739600000002,-0.39306642666666747,-16.623919322126866,-39.35812325994479,97.92886160049618,63.7061183216576,-41.650263478018125,-17.35900843856915,78.06759336223759,2.783120124093558,77.31499424797725,2.741334972866442,-0.26563849333333334,0.96041976,-2.3793949333333333,3.605453186666667,2.5796298519964447,1.5715638537148149,1.4173546114707247,1.3707768509130054
LBP01_S01,LBP01,92,93,1,92,92,1715400504.68,2024-05-11 04:08:24.680000+00:00,2024-05-11 13:08:24.680000+09:00,2024,5,11,4,8,24,680,,,,,,,,,1.209229,-0.706299,0.263428,-362.304688,186.828613,164.855957,,,,,,,,,,,0.0,1.0,1.0,1.0,0.0,0.0,0.0,6.0,0.0,-0.2447037333333333,0.10260082666666667,0.8323470533333334,10.665690053333332,-11.984863293333335,1.8912760266666657,-19.71574811810819,-21.80476540879755,94.98293208073297,62.91748839693327,-42.522454094370026,-13.55969115533983,77.14035696452436,2.732336364898147,76.80463578006439,2.746151207105361,1.4539327333333334,-0.8088998266666667,-0.5689190533333334,2.8317516133333336,1.7583822712610582,1.6042438793521376,1.4415340702127364,1.3776983762763635
LBP01_S01,LBP01,93,94,1,93,93,1715400504.72,2024-05-11 04:08:24.720000+00:00,2024-05-11 13:08:24.720000+09:00,2024,5,11,4,8,24,720,,,,,,,,,-0.616699,-0.20752,1.412842,-4.699707,212.524414,94.299316,,,,,,,,,,,0.0,1.0,1.0,1.0,0.0,0.0,0.0,6.0,0.0,-0.24689773333333334,0.12713858666666666,0.8416960133333333,4.68831376,-12.027181000000002,4.072265599999999,-21.131303119253257,-5.8277715295800805,84.10230327140542,62.072236272163146,-42.75556495555323,-10.195599024483613,76.0588659523913,2.653748557998513,76.10891675162335,2.7500431037162882,-0.3698012666666667,-0.3346585866666667,0.5711459866666666,1.2756058399999999,0.758259246263072,1.592514679579812,1.4364355182478057,1.3668310231182355
LBP01_S01,LBP01,94,95,1,94,94,1715400504.76,2024-05-11 04:08:24.760000+00:00,2024-05-11 13:08:24.760000+09:00,2024,5,11,4,8,24,760,,,,,,,,,-0.458252,-0.366455,1.396729,79.528809,-85.571289,162.658691,,,,,,,,,,,0.0,1.0,1.0,1.0,0.0,0.0,0.0,6.0,0.0,-0.24669266666666664,0.09566397333333335,0.8643001866666666,-1.1197917066666676,-13.355306,2.613118466666666,-21.989923126342905,5.62915662260931,66.98886035535389,61.19263934710943,-42.53039869064886,-7.516044610269457,74.899031032681,2.7603752841385893,75.28797908228475,2.750600221998371,-0.21155933333333335,-0.4621189733333333,0.5324288133333335,1.20610712,0.7360650367342821,1.574911633255665,1.4275218230760651,1.355955747490926
LBP01_S01,LBP01,95,96,1,95,95,1715400504.8,2024-05-11 04:08:24.800000+00:00,2024-05-11 13:08:24.800000+09:00,2024,5,11,4,8,24,800,,,,,,,,,-0.532227,1.048584,-1.419189,249.084473,245.910645,29.35791,,,,,,,,,,,0.0,1.0,1.0,1.0,0.0,0.0,0.0,6.0,0.0,-0.25676428,0.09581370666666666,0.84941412,5.669759066666666,-10.94807942666667,2.815755186666666,-23.465485100683505,10.446112882685323,46.51658888093023,60.254019943082085,-42.112554175341444,-5.655381055032247,73.72921723001011,2.7720146755503823,74.4124489691283,2.7502950371585975,-0.27546272,0.9527702933333333,-2.26860312,3.496836133333333,2.475926303031255,1.619499262822017,1.4660626533165446,1.3749382992797452
LBP01_S01,LBP01,96,97,1,96,96,1715400504.84,2024-05-11 04:08:24.840000+00:00,2024-05-11 13:08:24.840000+09:00,2024,5,11,4,8,24,840,,,,,,,,,0.383301,-0.587158,0.87793,-140.991211,-310.60791,-72.631836,,,,,,,,,,,0.0,1.0,1.0,1.0,0.0,0.0,0.0,6.0,0.0,-0.2347493066666667,0.09581045333333335,0.8500586533333333,6.516927026666664,-12.744954426666666,3.695475239999999,-26.17015755255216,8.047092873015025,26.03126176828549,59.20721364098,-41.79067046042084,-4.614130584300828,72.61710876721216,2.7433253476122554,73.55304567167882,2.7427620346446075,0.6180503066666667,-0.6829684533333333,0.027871346666666685,1.3288901066666667,0.9215253126118131,1.6366581223483758,1.45924587787403,1.3673814161686129
LBP01_S01,LBP01,97,98,1,97,97,1715400504.88,2024-05-11 04:08:24.880000+00:00,2024-05-11 13:08:24.880000+09:00,2024,5,11,4,8,24,880,,,,,,,,,0.863281,0.157471,0.281982,-42.724609,183.227539,-26.062012,,,,,,,,,,,0.0,1.0,1.0,1.0,0.0,0.0,0.0,6.0,0.0,-0.24232418666666666,0.09102530666666668,0.8575977066666667,7.283528586666665,-11.08886718666667,2.902018199999999,-29.864439956518556,-0.45183981847940147,8.509206511028005,58.01263604271926,-41.80874405316002,-4.273762323859708,71.6358992707462,2.771333185915271,72.7715694472873,2.733142084978119,1.1056051866666667,0.06644569333333332,-0.5756157066666667,1.7476665866666667,1.248243285865439,1.6428897454208957,1.4584961309529825,1.3654283320652822
LBP01_S01,LBP01,98,99,1,98,98,1715400504.92,2024-05-11 04:08:24.920000+00:00,2024-05-11 13:08:24.920000+09:00,2024,5,11,4,8,24,920,,,,,,,,,-0.49707,0.477295,1.114746,-118.164062,151.123047,-90.209961,,,,,,,,,,,0.0,1.0,1.0,1.0,0.0,0.0,0.0,6.0,0.0,-0.24833656,0.10069328,0.8615983466666666,5.936686133333332,-11.647135413333336,2.5585937199999993,-33.61723155734216,-12.617012621272407,-4.145384652537501,56.667946780425574,-42.313424558010915,-4.439577709961208,70.86178053350346,2.744708836459723,72.11460243693793,2.7351525064885935,-0.24873344,0.37660172000000003,0.25314765333333344,0.8784828133333334,0.5174755202609739,1.6346152043344861,1.4395419004833092,1.351751673810374
LBP01_S01,LBP01,99,100,1,99,99,1715400504.96,2024-05-11 04:08:24.960000+00:00,2024-05-11 13:08:24.960000+09:00,2024,5,11,4,8,24,960,,,,,,,,,-1.534912,-0.661865,1.881592,-124.389648,-312.5,43.029785,,,,,,,,,,,0.0,1.0,1.0,1.0,0.0,0.0,0.0,6.0,0.0,-0.24756833333333333,0.09333976000000001,0.86960616,5.209147066666666,-14.29199218666667,2.266438773333333,-36.256073735055196,-25.40881363234564,-11.426889956240313,55.217703831023364,-43.32977710330474,-4.89665330821082,70.35937474006926,2.7699375345649466,71.60997430453197,2.7458668725813054,-1.2873436666666667,-0.75520476,1.01198584,3.0545342666666664,1.8032479823900929,1.6861234731173613,1.4389092405054662,1.3589182818830678
LBP01_S01,LBP01,100,101,1,100,100,1715400505.0,2024-05-11 04:08:25+00:00,2024-05-11 13:08:25+09:00,2024,5,11,4,8,25,0,4.0,8.0,24.0,40.545609,141.523651,-10.212,3.0,17.0,1.438965,0.559814,0.644531,100.524902,-116.699219,116.394043,-474.0,4.0,542.0,550.0,0.0,1027.400024,26.620001,0.142701,-117.079323,4.014844,0.0,1.0,1.0,1.0,0.0,0.0,0.0,4.0,0.0,-0.24214841333333334,0.11214509333333332,0.8712695733333333,2.4886067066666655,-16.42333984,0.9667968533333327,-36.83058021112294,-35.99273891782502,-14.107251411096419,53.74448062257844,-44.76948666001774,-5.460943364654677,70.16122886341275,2.6967204352146914,71.26558166994405,2.745105303984013,1.6811134133333334,0.4476689066666667,-0.22673857333333336,2.3555208933333334,1.754411621918475,1.7168674567913995,1.4610636018175729,1.3650978653211212
LBP01_S01,LBP01,101,102,1,101,101,1715400505.04,2024-05-11 04:08:25.040000+00:00,2024-05-11 13:08:25.040000+09:00,2024,5,11,4,8,25,40,,,,,,,,,-0.811523,0.11084,-0.667725,1.342773,19.104004,-115.112305,,,,,,,,,,,0.0,1.0,1.0,1.0,0.0,0.0,0.0,4.0,0.0,-0.22547524,0.10765942666666667,0.8967122933333334,0.26936842666666544,-11.294759106666667,0.9952799199999993,-34.90532502440166,-42.380983697254585,-13.785252464110814,52.348267621602375,-46.46472600790793,-6.012353463219109,70.25283111832249,2.6869206274286728,71.0701850855739,2.7437747496891083,-0.58604776,0.0031805733333333253,-1.5644372933333335,2.1536656266666667,1.670606517950853,1.7682854565879353,1.477423943217135,1.3697979984385018
LBP01_S01,LBP01,102,103,1,102,102,1715400505.08,2024-05-11 04:08:25.080000+00:00,2024-05-11 13:08:25.080000+09:00,2024,5,11,4,8,25,80,,,,,,,,,0.423584,0.195068,0.906982,-117.06543,-48.64502,15.991211,,,,,,,,,,,0.0,1.0,1.0,1.0,0.0,0.0,0.0,4.0,0.0,-0.25374672,0.10066398666666666,0.8845475866666668,-1.294759186666668,-10.983072906666667,-1.6927083600000008,-30.658196866400118,-43.69678606667734,-12.315284508692615,51.12193974694637,-48.21259745057502,-6.504964843566814,70.57068686103068,2.75244058000289,70.9959036820509,2.7465907598928183,0.67733072,0.09440401333333333,0.02243441333333318,0.7941691466666666,0.6842458073607536,1.7752302020378377,1.4736714147910894,1.3594108440282329
LBP01_S01,LBP01,103,104,1,103,103,1715400505.12,2024-05-11 04:08:25.120000+00:00,2024-05-11 13:08:25.120000+09:00,2024,5,11,4,8,25,120,,,,,,,,,0.427246,-0.665039,0.930176,-63.537598,139.038086,-24.414062,,,,,,,,,,,0.0,1.0,1.0,1.0,0.0,0.0,0.0,4.0,0.0,-0.2351074,0.09139641333333334,0.8800065733333332,-1.818847720000001,-15.870768213333333,-1.1425781466666673,-24.83451554166239,-40.05688677425485,-11.288880562491265,50.12855912527987,-49.81487292154521,-6.956520066066465,71.01258462833164,2.7608922189256315,71.00216792777418,2.7442271807405287,0.6623534,-0.7564354133333334,0.050169426666666794,1.46895824,1.0066893922200597,1.8009556851766062,1.481605824226633,1.3541463447475137
LBP01_S01,LBP01,104,105,1,104,104,1715400505.16,2024-05-11 04:08:25.160000+00:00,2024-05-11 13:08:25.160000+09:00,2024,5,11,4,8,25,160,,,,,,,,,-1.014648,0.334473,0.608398,-3.540039,90.270996,-21.850586,,,,,,,,,,,0.0,1.0,1.0,1.0,0.0,0.0,0.0,4.0,0.0,-0.21631509333333335,0.08645501333333334,0.8757715466666667,-1.6333008400000009,-13.916829400000003,-2.322591173333334,-18.58056963271327,-32.27770567021936,-11.659139397666147,49.38533633997134,-51.10598114835398,-7.42288564197311,71.45510468680187,2.7527595981656687,71.04084169813332,2.73980665973146,-0.7983329066666667,0.2480179866666667,-0.2673735466666667,1.31372444,0.8776884213854868,1.8118907176700623,1.4705865800013183,1.3471396105804252
LBP01_S01,LBP01,105,106,1,105,105,1715400505.2,2024-05-11 04:08:25.200000+00:00,2024-05-11 13:08:25.200000+09:00,2024,5,11,4,8,25,200,,,,,,,,,-0.798828,0.128662,1.550293,-15.014648,-376.708984,104.187012,,,,,,,,,,,0.0,1.0,1.0,1.0,0.0,0.0,0.0,4.0,0.0,-0.215638,0.08481438666666667,0.8954297466666667,-2.3779297466666676,-15.983072893333338,-0.6266276266666673,-13.156280197810691,-21.63723405249819,-13.555275142870792,48.85908513205891,-51.97147051045391,-7.9650966476879415,71.77525138630843,2.758709132601335,71.06202864145078,2.7328753221308455,-0.58319,0.04384761333333333,0.6548632533333332,1.2819008666666665,0.877997192399467,1.7965182383461853,1.4497939684224526,1.3403404450995418
LBP01_S01,LBP01,106,107,1,106,106,1715400505.24,2024-05-11 04:08:25.240000+00:00,2024-05-11 13:08:25.240000+09:00,2024,5,11,4,8,25,240,,,,,,,,,0.538086,-0.198975,1.081055,69.274902,22.399902,3.601074,,,,,,,,,,,0.0,1.0,1.0,1.0,0.0,0.0,0.0,4.0,0.0,-0.21267250666666668,0.0807226,0.9252669866666665,-3.400065160000001,-13.156738266666668,-0.02278648000000061,-9.576643299585559,-9.747927566862373,-16.329762806116612,48.47601940007549,-52.36138761312841,-8.618287159932606,71.8742947319821,2.7714854496493557,71.0197883162709,2.7342262658846606,0.7507585066666667,-0.2796976,0.15578801333333359,1.1862441200000002,0.816173381014396,1.7766363835664631,1.4151327232280027,1.3328523441840396
LBP01_S01,LBP01,107,108,1,107,107,1715400505.28,2024-05-11 04:08:25.280000+00:00,2024-05-11 13:08:25.280000+09:00,2024,5,11,4,8,25,280,,,,,,,,,-0.766113,-0.19751,-0.53125,35.15625,13.244629,-143.310547,,,,,,,,,,,0.0,1.0,1.0,1.0,0.0,0.0,0.0,4.0,0.0,-0.21176756,0.08625320000000002,0.9484278,-4.793294320000001,-17.425943986666667,0.4516601333333325,-8.308245987748029,1.5974824811921837,-18.848654094564555,48.14368956056556,-52.29748831388072,-9.37223332371519,71.69854172797908,2.7476973943923717,70.8768319299056,2.736978077839305,-0.5543454400000001,-0.2837632,-1.4796778000000002,2.3177864400000003,1.6053868108141023,1.6836377744688042,1.4328771252350072,1.3366908577985475
LBP01_S01,LBP01,108,109,1,108,108,1715400505.32,2024-05-11 04:08:25.320000+00:00,2024-05-11 13:08:25.320000+09:00,2024,5,11,4,8,25,320,,,,,,,,,0.182129,0.354248,0.978516,-37.414551,58.47168,-31.25,,,,,,,,,,,0.0,1.0,1.0,1.0,0.0,0.0,0.0,4.0,0.0,-0.19918293333333334,0.09238601333333334,0.9247722,-2.329101613333334,-15.410156226666665,1.9946288799999994,-9.160057208657324,10.746047448687479,-19.94481484289499,47.77728727221927,-51.86764641593322,-10.170025917430989,71.24851823709497,2.700503626369037,70.60749034102761,2.7327889151008216,0.38131193333333335,0.26186198666666666,0.05374380000000001,0.69691772,0.4656810996828816,1.5520422679211319,1.4097485165211927,1.324593500046941
LBP01_S01,LBP01,109,110,1,109,109,1715400505.36,2024-05-11 04:08:25.360000+00:00,2024-05-11 13:08:25.360000+09:00,2024,5,11,4,8,25,360,,,,,,,,,0.139404,0.135254,1.338623,-45.227051,207.946777,-59.143066,,,,,,,,,,,0.0,1.0,1.0,1.0,0.0,0.0,0.0,4.0,0.0,-0.19569661333333332,0.0907812,0.9205632133333334,-3.3243815600000004,-11.625162733333333,-1.1686198133333339,-11.425604468309976,16.615605478159548,-18.86073368818593,47.32026309348687,-51.20302219680684,-10.924455264958427,70.57124417324374,2.7006241585588033,70.1987986122081,2.7321457631454185,0.3351006133333333,0.04447280000000001,0.41805978666666654,0.7976331999999998,0.5376283439551852,1.4341659340870374,1.3986353299800058,1.3138131554429444
LBP01_S01,LBP01,110,111,1,110,110,1715400505.4,2024-05-11 04:08:25.400000+00:00,2024-05-11 13:08:25.400000+09:00,2024,5,11,4,8,25,400,,,,,,,,,-1.145752,0.125244,0.992676,-62.133789,4.516602,30.334473,,,,,,,,,,,0.0,1.0,1.0,1.0,0.0,0.0,0.0,4.0,0.0,-0.18189453333333333,0.08249994666666667,0.9351725866666666,-5.035807333333334,-7.9012044,-1.543782573333334,-14.20587097781414,19.006726595824414,-15.506345823569715,46.75202825437431,-50.44275313297386,-11.544709097901215,69.73882561161409,2.710229872752839,69.65002481256846,2.731177432992406,-0.9638574666666668,0.04274405333333332,0.05750341333333342,1.0641049333333337,0.966516897260173,1.3864033812308247,1.400587858929073,1.309119962764799
LBP01_S01,LBP01,111,112,1,111,111,1715400505.44,2024-05-11 04:08:25.440000+00:00,2024-05-11 13:08:25.440000+09:00,2024,5,11,4,8,25,440,,,,,,,,,-0.128906,0.052734,1.55835,-9.399414,-205.566406,49.377441,,,,,,,,,,,0.0,1.0,1.0,1.0,0.0,0.0,0.0,4.0,0.0,-0.19461913333333336,0.08712885333333334,0.9432845599999999,-5.261230506666667,-6.61865232,0.3613281066666663,-16.755687007185777,18.594357052452374,-10.465511598500536,46.08180077408688,-49.69897885087577,-11.963329561841237,68.82326725466945,2.7144387469751177,68.9710913802194,2.7278734640096287,0.06571313333333337,-0.034394853333333336,0.61506544,0.7151734266666667,0.6195213614643966,1.3074517500366007,1.3938625151675286,1.2999253147474603
LBP01_S01,LBP01,112,113,1,112,112,1715400505.48,2024-05-11 04:08:25.480000+00:00,2024-05-11 13:08:25.480000+09:00,2024,5,11,4,8,25,480,,,,,,,,,0.258301,0.141357,0.679932,40.771484,96.740723,-16.479492,,,,,,,,,,,0.0,1.0,1.0,1.0,0.0,0.0,0.0,4.0,0.0,-0.20311197333333333,0.09179682666666666,0.9584115199999999,-9.163411493333333,-8.23974608,0.7682291466666663,-18.704932311645596,16.601352864541905,-4.812781532451026,45.333603481621054,-49.034924736294094,-12.155840823139277,67.87727097225087,2.710548952618056,68.18027966289677,2.7231679602853056,0.4614129733333333,0.049560173333333346,-0.27847951999999987,0.7894526666666666,0.5412106667468479,1.2551656216876907,1.3663497355535128,1.2939800301549185
LBP01_S01,LBP01,113,114,1,113,113,1715400505.52,2024-05-11 04:08:25.520000+00:00,2024-05-11 13:08:25.520000+09:00,2024,5,11,4,8,25,520,,,,,,,,,-0.344971,-0.290283,-0.057373,-168.823242,30.273438,-69.580078,,,,,,,,,,,0.0,1.0,1.0,1.0,0.0,0.0,0.0,4.0,0.0,-0.19392577333333336,0.07780593333333333,0.9804427733333334,-8.61002608,-8.84847004,0.6160481599999996,-20.086199934896946,14.34238062998504,0.14917311920666695,44.530155484225176,-48.46122951109469,-12.14987389837101,66.92566734013627,2.7544606993715997,67.30172881172733,2.7193673994015044,-0.15104522666666667,-0.36808893333333337,-1.0378157733333333,1.5569499333333332,1.1114700637987154,1.1964846792333106,1.3531657452596477,1.298328123005183
LBP01_S01,LBP01,114,115,1,114,114,1715400505.56,2024-05-11 04:08:25.560000+00:00,2024-05-11 13:08:25.560000+09:00,2024,5,11,4,8,25,560,,,,,,,,,0.098877,-0.429688,1.075195,79.833984,-24.047852,14.038086,,,,,,,,,,,0.0,1.0,1.0,1.0,0.0,0.0,0.0,4.0,0.0,-0.2027115733333333,0.08385412,0.9688574933333333,-6.087239626666667,-7.230631493333334,-0.01871746666666695,-21.18790609746283,12.844480742378247,3.161472130329527,43.682639240326665,-47.94745028139956,-12.02341501315783,65.96736669040563,2.743076296635547,66.36345136345841,2.72817246696719,0.30158857333333333,-0.51354212,0.10633750666666664,0.9214682,0.604970116537514,1.148508847734657,1.3233474747628589,1.2876583077011547
LBP01_S01,LBP01,115,116,1,115,115,1715400505.6,2024-05-11 04:08:25.600000+00:00,2024-05-11 13:08:25.600000+09:00,2024,5,11,4,8,25,600,,,,,,,,,0.343506,0.56958,0.935547,85.144043,59.509277,14.465332,,,,,,,,,,,0.0,1.0,1.0,1.0,0.0,0.0,0.0,4.0,0.0,-0.19495441333333335,0.08472326666666667,0.9628744133333333,-8.1860352,-7.030436186666666,-0.012207053333333703,-22.312579252345817,12.636010896024509,3.2751696931303913,42.79013607023283,-47.44200984555858,-11.892408225432614,64.98591706281798,2.725669442773564,65.39637159986907,2.742238235446766,0.5384604133333333,0.4848567333333333,-0.027327413333333328,1.0506445599999998,0.7251016867345338,1.1065621676663309,1.314500590980837,1.2883372434474292
LBP01_S01,LBP01,116,117,1,116,116,1715400505.64,2024-05-11 04:08:25.640000+00:00,2024-05-11 13:08:25.640000+09:00,2024,5,11,4,8,25,640,,,,,,,,,-0.484863,0.402832,1.20752,-96.191406,34.057617,23.925781,,,,,,,,,,,0.0,1.0,1.0,1.0,0.0,0.0,0.0,4.0,0.0,-0.18650389333333334,0.08145829333333333,0.9724056666666666,-8.168945346666666,-6.778971333333333,0.854492173333333,-23.553661760052258,13.691503788948213,0.09647287403932603,41.84798959983074,-46.89434969400065,-11.888549310471042,63.96617755875571,2.7244304124061207,64.43408056933785,2.745028855969744,-0.29835910666666665,0.3213737066666667,0.23511433333333331,0.8548471466666666,0.49757207076601667,1.0232798564171137,1.2974218550659642,1.2859963597861876
LBP01_S01,LBP01,117,118,1,117,117,1715400505.68,2024-05-11 04:08:25.680000+00:00,2024-05-11 13:08:25.680000+09:00,2024,5,11,4,8,25,680,,,,,,,,,-0.301025,-0.199219,1.713623,-93.688965,-69.946289,33.813477,,,,,,,,,,,0.0,1.0,1.0,1.0,0.0,0.0,0.0,4.0,0.0,-0.19009764,0.08637690666666667,0.9906055466666667,-11.742350293333335,-4.044596333333333,2.0833333199999995,-24.690487994351713,15.495907784551795,-6.049062306294666,40.86037008005667,-46.27451338261858,-12.130511802722829,62.91303321628463,2.7096917855543574,63.51224442931148,2.7518117713255754,-0.11092735999999997,-0.2855959066666667,0.7230174533333332,1.1195407199999998,0.7852541874615784,0.9843547330651345,1.294299306208636,1.2891409578302024
LBP01_S01,LBP01,118,119,1,118,118,1715400505.72,2024-05-11 04:08:25.720000+00:00,2024-05-11 13:08:25.720000+09:00,2024,5,11,4,8,25,720,,,,,,,,,0.102539,0.096191,1.607422,7.019043,-46.569824,11.108398,,,,,,,,,,,0.0,1.0,1.0,1.0,0.0,0.0,0.0,4.0,0.0,-0.19526365333333334,0.07080725333333333,1.0063802933333332,-16.25162764,-5.312499973333334,-0.24576824000000005,-25.22777291487049,17.214223815533593,-14.118150915607877,39.85125916346185,-45.585944429997234,-12.695237839347143,61.86574375440571,2.788554302025895,62.66672073976745,2.7550223597296886,0.29780265333333333,0.025383746666666665,0.6010417066666667,0.9242281066666667,0.671253966900748,0.9808745218906415,1.286694600735227,1.2845818527954178
LBP01_S01,LBP01,119,120,1,119,119,1715400505.76,2024-05-11 04:08:25.760000+00:00,2024-05-11 13:08:25.760000+09:00,2024,5,11,4,8,25,760,,,,,,,,,0.023193,0.155029,0.694092,78.186035,153.564453,-52.062988,,,,,,,,,,,0.0,1.0,1.0,1.0,0.0,0.0,0.0,4.0,0.0,-0.20672525333333336,0.06287106666666667,1.0243946133333333,-10.925293,-8.999023413333333,1.3273111866666667,-24.533063949205662,17.961081949507534,-22.563679201203747,38.86993660549362,-44.867501152016935,-13.597785007395293,60.90044653735043,2.841281843354563,61.93039365040507,2.7412447232879242,0.22991825333333335,0.09215793333333333,-0.3303026133333332,0.6523787999999999,0.4128623308888223,0.9679464136568232,1.271429023456244,1.274330019936318
LBP01_S01,LBP01,120,121,1,120,120,1715400505.8,2024-05-11 04:08:25.800000+00:00,2024-05-11 13:08:25.800000+09:00,2024,5,11,4,8,25,800,,,,,,,,,-0.242188,-0.140137,0.19043,-149.230957,28.625488,-88.439941,,,,,,,,,,,0.0,1.0,1.0,1.0,0.0,0.0,0.0,4.0,0.0,-0.17077473333333335,0.07213213333333333,1.05611988,-10.275065133333333,-1.1100260266666668,1.5706380000000002,-22.018721616921013,17.1223187406451,-29.719075586172057,37.98918774081678,-44.18260840239113,-14.786548030842175,60.11591530630196,2.7381360779826203,61.32960993828044,2.7363389773354134,-0.07141326666666664,-0.21226913333333336,-0.86568988,1.1493722800000001,0.8941906999944158,0.9046769895353496,1.2620881261786834,1.278934098722813
LBP01_S01,LBP01,121,122,1,121,121,1715400505.84,2024-05-11 04:08:25.840000+00:00,2024-05-11 13:08:25.840000+09:00,2024,5,11,4,8,25,840,,,,,,,,,0.189697,-0.026611,1.106934,89.782715,-16.479492,-47.973633,,,,,,,,,,,0.0,1.0,1.0,1.0,0.0,0.0,0.0,4.0,0.0,-0.21395833333333333,0.07891924,1.0295541199999998,-9.628906279999999,4.482421893333333,-1.38020836,-17.342531994068068,14.614108895976472,-34.22524347971116,37.29548646105406,-43.598044046552076,-16.155557770030622,59.60490585440563,2.782267900533432,60.881143551504486,2.744226707601494,0.40365533333333337,-0.10553024,0.07737988000000029,0.5865654533333337,0.42433701878544194,0.8847894577822949,1.2607237900653352,1.2677604045101183
LBP01_S01,LBP01,122,123,1,122,122,1715400505.88,2024-05-11 04:08:25.880000+00:00,2024-05-11 13:08:25.880000+09:00,2024,5,11,4,8,25,880,,,,,,,,,-0.106201,0.305176,1.311768,-94.543457,110.717773,-41.931152,,,,,,,,,,,0.0,1.0,1.0,1.0,0.0,0.0,0.0,4.0,0.0,-0.16227864,0.06770178666666667,1.0167318533333334,-9.866536493333333,-2.94596352,-1.0563151333333332,-10.595698406263532,10.954355749540449,-35.346591134725536,36.87165852480352,-43.159869816570456,-17.569421415419644,59.422034076810526,2.742654836659183,60.590059647112355,2.749337784253698,0.05607764,0.23747421333333335,0.29503614666666667,0.588588,0.38286424688937715,0.8501742962232524,1.246532020822074,1.2557221860430723
LBP01_S01,LBP01,123,124,1,123,123,1715400505.92,2024-05-11 04:08:25.920000+00:00,2024-05-11 13:08:25.920000+09:00,2024,5,11,4,8,25,920,,,,,,,,,-0.501221,0.23877,1.590332,-3.173828,-79.650879,-2.563477,,,,,,,,,,,0.0,1.0,1.0,1.0,0.0,0.0,0.0,4.0,0.0,-0.16110350666666667,0.09251298666666667,1.0082259999999998,-5.573730493333334,5.776367199999999,-1.6202799733333333,-2.4130790564843783,7.100799691300041,-33.07991798384686,36.77513536254415,-42.875837828918456,-18.892618134773517,59.56239644651257,2.6166843349539586,60.448423899797014,2.750554355005059,-0.34011749333333335,0.14625701333333335,0.5821060000000002,1.068480506666667,0.6898684066229857,0.8570700116777327,1.2458426080061096,1.2453846042147838
LBP01_S01,LBP01,124,125,1,124,124,1715400505.96,2024-05-11 04:08:25.960000+00:00,2024-05-11 13:08:25.960000+09:00,2024,5,11,4,8,25,960,,,,,,,,,-0.30957,-0.1604,2.003174,-84.899902,-101.135254,5.371094,,,,,,,,,,,0.0,1.0,1.0,1.0,0.0,0.0,0.0,4.0,0.0,-0.15822916,0.07530596,1.05050464,-17.858886746666666,3.0590820399999994,-2.7571614799999997,6.072251608638818,4.127456727236922,-28.06172055891494,37.0180254268897,-42.71073955982898,-20.015086957130116,59.959529569159166,2.6940188371104403,60.43487959870534,2.7393737992083453,-0.15134084,-0.23570596,0.95266936,1.33971616,0.9929955986378978,0.824659916327645,1.255391694722503,1.234159465779526
LBP01_S01,LBP01,125,126,1,125,125,1715400506.0,2024-05-11 04:08:26+00:00,2024-05-11 13:08:26+09:00,2024,5,11,4,8,26,0,4.0,8.0,25.0,40.545643,141.523651,-11.19,3.0,17.0,0.342285,-0.144775,1.448486,51.940918,69.152832,-18.615723,-474.0,18.0,572.0,496.0,0.0,1027.199951,26.700001,0.140718,-115.433014,4.014844,0.0,1.0,1.0,1.0,0.0,0.0,0.0,4.0,0.0,-0.1737499866666667,0.060178999999999996,1.0593718266666667,-16.624348986666664,5.922037773333332,-2.6025390799999997,13.470800113149208,2.8875055935868383,-21.356524877043682,37.55685743141567,-42.595239336085505,-20.869347952211864,60.50125319505852,2.80454674543437,60.515512240836316,2.7257132803529496,0.5160349866666667,-0.20495399999999997,0.3891141733333332,1.11010316,0.6780177648623598,0.7816041620454004,1.2492358094184,1.2345771218935155
LBP01_S01,LBP01,126,127,1,126,126,1715400506.04,2024-05-11 04:08:26.040000+00:00,2024-05-11 13:08:26.040000+09:00,2024,5,11,4,8,26,40,,,,,,,,,-0.697266,0.000977,-0.042969,172.424316,45.654297,-66.28418,,,,,,,,,,,0.0,1.0,1.0,1.0,0.0,0.0,0.0,4.0,0.0,-0.13961261333333336,0.053121706666666664,1.0545573733333333,-13.542480493333334,-0.7543945066666655,-1.9954427333333336,18.526468031144066,3.798500195888264,-14.217745857200175,38.297916152661436,-42.44329932824998,-21.438057786499872,61.05533851483438,2.775541178928163,60.64670971844855,2.7245829978370586,-0.5576533866666666,-0.052144706666666665,-1.0975263733333334,1.7073244666666667,1.2321771424013575,0.7640669870234206,1.266176221805678,1.2396382911525636
LBP01_S01,LBP01,127,128,1,127,127,1715400506.08,2024-05-11 04:08:26.080000+00:00,2024-05-11 13:08:26.080000+09:00,2024,5,11,4,8,26,80,,,,,,,,,0.274658,0.403564,0.708252,12.878418,-26.306152,-12.939453,,,,,,,,,,,0.0,1.0,1.0,1.0,0.0,0.0,0.0,4.0,0.0,-0.13061197333333333,0.05790686666666667,1.0194564666666668,-10.66487632,2.6871745066666675,-6.245117213333333,20.502850163076452,6.793871130453228,-7.867045183050345,39.11803015918449,-42.17154448303185,-21.752739593821886,61.496675743131256,2.7218574930679633,60.78046246170155,2.715757797396512,0.40526997333333337,0.3456571333333333,-0.3112044666666668,1.0621315733333336,0.6169042269129812,0.7613733238055096,1.2683017629216737,1.236238717795896
LBP01_S01,LBP01,128,129,1,128,128,1715400506.12,2024-05-11 04:08:26.120000+00:00,2024-05-11 13:08:26.120000+09:00,2024,5,11,4,8,26,120,,,,,,,,,0.168457,0.067871,1.533936,-12.939453,56.335449,4.699707,,,,,,,,,,,0.0,1.0,1.0,1.0,0.0,0.0,0.0,4.0,0.0,-0.14033202666666666,0.06987301333333332,1.0100424,-12.919921893333331,7.091471386666667,-8.47819012,19.383107492384347,11.390104049136038,-3.2936004916389963,39.89335445887987,-41.71594032106641,-21.884483613487447,61.73030074348905,2.6767487440587616,60.871589841247705,2.7059106650284326,0.30878902666666663,-0.002002013333333316,0.5238936000000001,0.8346846400000001,0.6081275977688353,0.7454308520274605,1.2731932686020335,1.2362141668269089
LBP01_S01,LBP01,129,130,1,129,129,1715400506.16,2024-05-11 04:08:26.160000+00:00,2024-05-11 13:08:26.160000+09:00,2024,5,11,4,8,26,160,,,,,,,,,-0.545654,0.083496,1.818848,-34.606934,9.033203,42.84668,,,,,,,,,,,0.0,1.0,1.0,1.0,0.0,0.0,0.0,4.0,0.0,-0.12786132,0.05936845333333333,1.0469987866666666,-14.327799493333332,13.299153680000002,-8.841959653333332,15.796991728604672,16.797276416707977,-1.0765449780952758,40.52523412802406,-41.04404926439809,-21.92754541261126,61.70677295866016,2.704676654800606,60.88523238091003,2.717134682087032,-0.41779267999999997,0.024127546666666673,0.7718492133333335,1.21376944,0.8780000399162977,0.745443316768693,1.2786670172193777,1.2288721589237765
LBP01_S01,LBP01,130,131,1,130,130,1715400506.2,2024-05-11 04:08:26.200000+00:00,2024-05-11 13:08:26.200000+09:00,2024,5,11,4,8,26,200,,,,,,,,,-0.219238,0.137939,2.013428,-41.931152,-76.721191,23.55957,,,,,,,,,,,0.0,1.0,1.0,1.0,0.0,0.0,0.0,4.0,0.0,-0.15809895999999998,0.06900061333333332,1.0646615466666667,-11.70003256,11.21988936,-11.061197933333334,10.749178190620144,22.044889926668095,-1.271639891569897,40.955201255648866,-40.16225366733136,-21.978411008274055,61.427890082424256,2.72683325282371,60.80247794010347,2.715464286589783,-0.061139040000000006,0.06893838666666668,0.9487664533333335,1.0788438800000002,0.9532304371656609,0.7484526465593409,1.2724854424527632,1.2160135278014153
LBP01_S01,LBP01,131,132,1,131,131,1715400506.24,2024-05-11 04:08:26.240000+00:00,2024-05-11 13:08:26.240000+09:00,2024,5,11,4,8,26,240,,,,,,,,,0.255859,0.158447,1.733887,37.109375,21.30127,2.01416,,,,,,,,,,,0.0,1.0,1.0,1.0,0.0,0.0,0.0,4.0,0.0,-0.15052409333333333,0.07172197333333333,1.0739258666666667,-11.835937506666665,5.919596386666667,-12.073567720000002,5.314141587293536,26.14136222631833,-3.4224036623826537,41.16776691914061,-39.11659917827863,-22.11530715476936,60.94243328693555,2.6940158961279623,60.622562817926124,2.701751430555926,0.40638309333333333,0.08672502666666668,0.6599611333333333,1.1530692533333333,0.7798827772865102,0.7470010224102254,1.2618187029883443,1.1924221562887436
LBP01_S01,LBP01,132,133,1,132,132,1715400506.28,2024-05-11 04:08:26.280000+00:00,2024-05-11 13:08:26.280000+09:00,2024,5,11,4,8,26,280,,,,,,,,,-0.583252,0.400146,0.177002,91.186523,174.072266,-71.838379,,,,,,,,,,,0.0,1.0,1.0,1.0,0.0,0.0,0.0,4.0,0.0,-0.14160482666666666,0.07640946666666668,1.06605476,-11.424967466666665,9.246419306666667,-14.786783866666665,0.42284067562732275,28.281692872795592,-6.718027404219442,41.1846805461657,-37.98533146336681,-22.38402825093814,60.33330787227202,2.644183512978395,60.361249809871666,2.6934288592796554,-0.44164717333333336,0.3237365333333333,-0.8890527600000001,1.6544364666666667,1.044161088525916,0.7245519935186979,1.204094883993751,1.1967687479962374
LBP01_S01,LBP01,133,134,1,133,133,1715400506.32,2024-05-11 04:08:26.320000+00:00,2024-05-11 13:08:26.320000+09:00,2024,5,11,4,8,26,320,,,,,,,,,-0.146484,-0.35376,0.690918,-122.131348,0.915527,-17.211914,,,,,,,,,,,0.0,1.0,1.0,1.0,0.0,0.0,0.0,4.0,0.0,-0.14574218666666666,0.06334306666666667,1.08071296,-12.933756533333332,7.533365920000001,-16.599934906666668,-3.2418367120209655,28.05965545355444,-10.245211035176649,41.05500707768486,-36.86294524522464,-22.793836692345206,59.69882184313595,2.7289245055399474,60.04604876335179,2.6825096958612535,-0.000741813333333341,-0.4171030666666667,-0.38979496,0.80763984,0.5708902077905706,0.7287603578430055,1.1404013128820687,1.1827524636284636
LBP01_S01,LBP01,134,135,1,134,134,1715400506.36,2024-05-11 04:08:26.360000+00:00,2024-05-11 13:08:26.360000+09:00,2024,5,11,4,8,26,360,,,,,,,,,0.2229,0.056641,1.142822,149.230957,-42.053223,-19.348145,,,,,,,,,,,0.0,1.0,1.0,1.0,0.0,0.0,0.0,4.0,0.0,-0.15090820000000002,0.07501949333333334,1.0733041066666666,-10.004069026666667,10.712890653333334,-15.907389333333334,-5.29563268734475,25.588236626974552,-13.22914674657348,40.84318177019107,-35.83941578014566,-23.323002562208146,59.13198516109357,2.677314882137946,59.70959501032371,2.6839694949277817,0.37380820000000003,-0.018378493333333343,0.06951789333333336,0.46170458666666675,0.3806613677508503,0.722481678794832,1.0783238064409348,1.1732507795849478
LBP01_S01,LBP01,135,136,1,135,135,1715400506.4,2024-05-11 04:08:26.400000+00:00,2024-05-11 13:08:26.400000+09:00,2024,5,11,4,8,26,400,,,,,,,,,-0.069824,0.5271,1.554443,-132.385254,137.084961,-8.178711,,,,,,,,,,,0.0,1.0,1.0,1.0,0.0,0.0,0.0,4.0,0.0,-0.15370116,0.07831050666666667,1.0881478666666666,-9.984537786666666,9.100748733333333,-15.800781253333332,-5.695531513368581,21.455049381191753,-15.174438393721667,40.61536050965633,-34.98121380489799,-23.929980097957014,58.70210197328504,2.6674181850958076,59.38272490155854,2.6794585978803047,0.08387716,0.44878949333333334,0.4662951333333334,0.9989617866666667,0.6525937010624656,0.709924750946924,1.0481640660888742,1.1703668229350235
LBP01_S01,LBP01,136,137,1,136,136,1715400506.44,2024-05-11 04:08:26.440000+00:00,2024-05-11 13:08:26.440000+09:00,2024,5,11,4,8,26,440,,,,,,,,,-0.805176,0.087402,1.867188,-8.666992,-64.819336,22.033691,,,,,,,,,,,0.0,1.0,1.0,1.0,0.0,0.0,0.0,4.0,0.0,-0.16044921333333334,0.07673498666666667,1.0966179200000001,-9.703776079999999,8.404134146666665,-13.914388026666666,-4.7661750490859225,16.52597690182446,-15.886003303287369,40.42471350769289,-34.32017472882501,-24.56542023008851,58.44220843428976,2.6923154661654576,59.08860615295193,2.6728718353340297,-0.6447267866666666,0.010667013333333322,0.7705700799999999,1.4259638799999999,1.0047709504211322,0.7253347345051934,1.016393242270897,1.1710199216134167
LBP01_S01,LBP01,137,138,1,137,137,1715400506.48,2024-05-11 04:08:26.480000+00:00,2024-05-11 13:08:26.480000+09:00,2024,5,11,4,8,26,480,,,,,,,,,-0.189209,0.04248,2.05542,-41.015625,-100.463867,7.324219,,,,,,,,,,,0.0,1.0,1.0,1.0,0.0,0.0,0.0,4.0,0.0,-0.14784505333333334,0.08590165333333333,1.0989746933333333,-8.762207079999998,9.95849612,-13.929036466666666,-3.159976581699993,11.68618447496009,-15.41724735438282,40.298314444424896,-33.85272734982661,-25.182110124263822,58.34466527793259,2.612665858883944,58.838783726622026,2.66460369051768,-0.04136394666666665,-0.04342165333333333,0.9564453066666665,1.0412309066666665,0.9583235574203197,0.7420192501321321,0.9985924359099114,1.1582395737463862
LBP01_S01,LBP01,138,139,1,138,138,1715400506.52,2024-05-11 04:08:26.520000+00:00,2024-05-11 13:08:26.520000+09:00,2024,5,11,4,8,26,520,,,,,,,,,0.14624,0.066895,1.14502,80.444336,132.873535,-28.442383,,,,,,,,,,,0.0,1.0,1.0,1.0,0.0,0.0,0.0,4.0,0.0,-0.16262370666666667,0.07796546666666665,1.1087533466666668,-8.784993533333333,12.483723986666668,-15.633951826666667,-1.7106953749609362,7.628702349982105,-14.010794317901738,40.22988662942646,-33.54757925582732,-25.74254189697989,58.36576321320819,2.6913467347240387,58.631452602127084,2.661493619332155,0.3088637066666667,-0.011070466666666653,0.03626665333333312,0.35620082666666647,0.3111826066348996,0.7100077518455795,0.9532462155394451,1.1387797474549581
LBP01_S01,LBP01,139,140,1,139,139,1715400506.56,2024-05-11 04:08:26.560000+00:00,2024-05-11 13:08:26.560000+09:00,2024,5,11,4,8,26,560,,,,,,,,,-0.325439,-0.004883,-0.361816,6.04248,7.263184,-91.186523,,,,,,,,,,,0.0,1.0,1.0,1.0,0.0,0.0,0.0,4.0,0.0,-0.15643881333333332,0.08125973333333333,1.1070997066666666,-6.65690108,12.548014346666667,-15.120442706666665,-1.2044455744835008,4.7633203094124275,-12.059235681617785,40.18170880644712,-33.35704644345083,-26.2249113242446,58.43807187100836,2.6595676843258373,58.45192558812689,2.648977952616859,-0.16900018666666666,-0.08614273333333333,-1.4689157066666665,1.7240586266666664,1.4811127529298835,0.7450534573012743,0.9467811525179657,1.130582802275664
LBP01_S01,LBP01,140,141,1,140,140,1715400506.6,2024-05-11 04:08:26.600000+00:00,2024-05-11 13:08:26.600000+09:00,2024,5,11,4,8,26,600,,,,,,,,,0.189453,-0.102539,0.866211,30.395508,-70.007324,-7.141113,,,,,,,,,,,0.0,1.0,1.0,1.0,0.0,0.0,0.0,4.0,0.0,-0.15696290666666668,0.08124672000000001,1.10467784,-5.10986332,11.81396488,-15.57779948,-2.1606802762154884,3.2427774085786982,-10.056832076468949,40.0952815953985,-33.227335347107676,-26.62718460730336,58.486702596358306,2.6609656273609623,58.27512739275867,2.6417643833823257,0.34641590666666666,-0.18378572,-0.23846683999999996,0.7686684666666667,0.4589636206140882,0.7344079346564566,0.9204850511613937,1.1211363722060435
LBP01_S01,LBP01,141,142,1,141,141,1715400506.64,2024-05-11 04:08:26.640000+00:00,2024-05-11 13:08:26.640000+09:00,2024,5,11,4,8,26,640,,,,,,,,,0.516357,0.419434,1.393311,-39.978027,95.52002,23.55957,,,,,,,,,,,0.0,1.0,1.0,1.0,0.0,0.0,0.0,4.0,0.0,-0.15661134666666668,0.09122718666666667,1.11528656,-3.8435872799999995,11.835937533333334,-15.003255213333333,-4.720782486876463,3.043805315341721,-8.496344092239713,39.906450295923435,-33.105583134494005,-26.96703837099295,58.444209023636446,2.611334447964462,58.06980542275593,2.6337052328465,0.6729683466666666,0.3282068133333333,0.27802444000000004,1.2791995999999999,0.7986887360987395,0.7464526012697654,0.8848662288434396,1.113765437133898
LBP01_S01,LBP01,142,143,1,142,142,1715400506.68,2024-05-11 04:08:26.680000+00:00,2024-05-11 13:08:26.680000+09:00,2024,5,11,4,8,26,680,,,,,,,,,-1.064941,-0.06543,1.858154,-44.73877,29.785156,46.75293,,,,,,,,,,,0.0,1.0,1.0,1.0,0.0,0.0,0.0,4.0,0.0,-0.15822593333333335,0.09180009333333333,1.1304460666666667,-5.5086263466666665,11.394856800000001,-14.66878256,-8.672729463523892,4.039091768871851,-7.715479651924632,39.55954111738248,-32.94401946373913,-27.275657557069934,58.25999662732263,2.6130828011231455,57.803855090388865,2.624656330726617,-0.9067150666666666,-0.15723009333333332,0.7277079333333334,1.7916530933333332,1.1732060137103872,0.7619706743197178,0.8731627036924262,1.11685642891233
LBP01_S01,LBP01,143,144,1,143,143,1715400506.72,2024-05-11 04:08:26.720000+00:00,2024-05-11 13:08:26.720000+09:00,2024,5,11,4,8,26,720,,,,,,,,,-0.275635,0.105225,2.006104,-51.696777,-156.555176,32.836914,,,,,,,,,,,0.0,1.0,1.0,1.0,0.0,0.0,0.0,4.0,0.0,-0.14988609333333333,0.08890946666666667,1.1395346133333333,-6.247558639999999,13.69466148,-15.892740893333333,-13.557204396538912,6.034837696052523,-7.770402269529439,39.01725294152092,-32.702625955897034,-27.58647364785111,57.90355170313404,2.6037678383869864,57.449788899982174,2.625170751446043,-0.1257489066666667,0.016315533333333326,0.8665693866666668,1.0086338266666668,0.875797628487116,0.7701524207831726,0.8755134713369069,1.114513874084542
LBP01_S01,LBP01,144,145,1,144,144,1715400506.76,2024-05-11 04:08:26.760000+00:00,2024-05-11 13:08:26.760000+09:00,2024,5,11,4,8,26,760,,,,,,,,,0.286377,-0.039307,1.568848,33.569336,73.303223,-48.034668,,,,,,,,,,,0.0,1.0,1.0,1.0,0.0,0.0,0.0,4.0,0.0,-0.15431317333333336,0.09121090666666666,1.1403809599999999,-6.511230506666666,15.883789093333334,-17.02555338666667,-18.77330663468886,8.790211864437268,-8.428963165240663,38.26632067613337,-32.351017481319545,-27.92363217446074,57.3640032074113,2.605179189792614,56.98919751400113,2.618451756910832,0.4406901733333334,-0.13051790666666666,0.42846704000000013,0.9996751200000001,0.6283524148116039,0.7787720241400836,0.8733592188984535,1.1072100236841906
LBP01_S01,LBP01,145,146,1,145,145,1715400506.8,2024-05-11 04:08:26.800000+00:00,2024-05-11 13:08:26.800000+09:00,2024,5,11,4,8,26,800,,,,,,,,,-0.509766,0.442871,-0.422119,46.99707,96.923828,-101.806641,,,,,,,,,,,0.0,1.0,1.0,1.0,0.0,0.0,0.0,4.0,0.0,-0.14911461333333334,0.0919238,1.1439161199999999,-7.45198572,16.18326825333333,-16.67236328,-23.647733674294493,12.050520419614488,-9.303097854321393,37.32041132916159,-31.868996664534965,-28.295756088633595,56.64888227325759,2.5868266797375514,56.41531947574002,2.6120162126322364,-0.36065138666666674,0.3509472,-1.56603512,2.2776337066666668,1.6449010173763783,0.8088004368353623,0.8567387131853559,1.1109922297309096
LBP01_S01,LBP01,146,147,1,146,146,1715400506.84,2024-05-11 04:08:26.840000+00:00,2024-05-11 13:08:26.840000+09:00,2024,5,11,4,8,26,840,,,,,,,,,-0.044678,-0.238525,0.864014,-80.749512,-29.47998,-5.615234,,,,,,,,,,,0.0,1.0,1.0,1.0,0.0,0.0,0.0,4.0,0.0,-0.148265,0.08835284,1.1439128533333334,-7.355957066666667,15.126953146666668,-16.869303386666665,-27.49940888165717,15.59588480340263,-10.036485009075928,36.2204349738953,-31.24516127239886,-28.697215488996633,55.78270511061918,2.60182644496663,55.733537017789615,2.6072414331791594,0.10358700000000001,-0.32687784,-0.2798988533333334,0.7103636933333334,0.4426316266935526,0.8095322211516865,0.8471608394669907,1.1103266004274526
LBP01_S01,LBP01,147,148,1,147,147,1715400506.88,2024-05-11 04:08:26.880000+00:00,2024-05-11 13:08:26.880000+09:00,2024,5,11,4,8,26,880,,,,,,,,,0.553711,0.424072,1.350586,13.244629,10.253906,16.845703,,,,,,,,,,,0.0,1.0,1.0,1.0,0.0,0.0,0.0,4.0,0.0,-0.15130210666666669,0.08689125333333333,1.1494987866666666,-7.104492226666665,15.295410186666668,-16.402181,-29.74820149082525,19.263514022225085,-10.425996111674266,35.03050691426229,-30.474620711509857,-29.114255333463603,54.80400337386565,2.6178100660781998,54.96035287030031,2.6056691255406785,0.7050131066666666,0.33718074666666664,0.20108721333333346,1.2432810666666667,0.806951302037887,0.826495703357627,0.8383349997904397,1.1065199150005918
LBP01_S01,LBP01,148,149,1,148,148,1715400506.92,2024-05-11 04:08:26.920000+00:00,2024-05-11 13:08:26.920000+09:00,2024,5,11,4,8,26,920,,,,,,,,,-0.757324,0.124023,1.810791,-152.832031,98.388672,39.0625,,,,,,,,,,,0.0,1.0,1.0,1.0,0.0,0.0,0.0,4.0,0.0,-0.15471356,0.08753253333333333,1.1602246933333333,-7.805175826666665,14.015299506666667,-16.924641946666664,-30.060571671718137,22.907181863440503,-10.421620116067471,33.82808404739357,-29.558333436972237,-29.531120138106303,53.75984935339776,2.624156789371933,54.12168880744599,2.597487043084951,-0.60261044,0.036490466666666665,0.6505663066666667,1.2896672133333333,0.8875288254048159,0.8344021201089002,0.8457360658933166,1.10869577870704
LBP01_S01,LBP01,149,150,1,149,149,1715400506.96,2024-05-11 04:08:26.960000+00:00,2024-05-11 13:08:26.960000+09:00,2024,5,11,4,8,26,960,,,,,,,,,-0.550293,0.105957,2.021973,-36.315918,-113.952637,14.892578,,,,,,,,,,,0.0,1.0,1.0,1.0,0.0,0.0,0.0,4.0,0.0,-0.14986981333333332,0.09067056,1.1661068533333334,-7.813313853333333,14.32047528,-17.459309906666668,-28.454780897161367,26.31393320965252,-10.056380278307794,32.689892811507114,-28.505776108586137,-29.933375349238613,52.69929148839736,2.595212241539878,53.251018054685254,2.596099460169875,-0.4004231866666667,0.015286439999999998,0.8558661466666666,1.2715757733333333,0.9450287110338024,0.8324834446047364,0.8285716804661907,1.114422278016581
LBP01_S01,LBP01,150,151,1,150,150,1715400507.0,2024-05-11 04:08:27+00:00,2024-05-11 13:08:27+09:00,2024,5,11,4,8,27,0,4.0,8.0,26.0,40.545692,141.523666,-12.58,3.0,16.0,0.308838,-0.065674,1.930908,15.380859,0.183105,-12.573242,-486.0,22.0,579.0,577.0,0.0,1028.400024,26.77,0.152611,-125.303963,4.014844,0.0,1.0,1.0,1.0,0.0,0.0,0.0,5.0,0.0,-0.1504232,0.08733071999999999,1.1673145333333332,-7.201334679999999,15.2278646,-17.863769546666667,-25.282626819688623,29.146901856500758,-9.40481138907368,31.67858773871957,-27.339900034326106,-30.30956780480156,51.66887801685423,2.613217832830194,52.38722582312155,2.6013471101339234,0.45926120000000004,-0.15300471999999998,0.7635934666666668,1.3758593866666669,0.9041052353037983,0.841526943422394,0.8115655527338972,1.113332854086398
LBP01_S01,LBP01,151,152,1,151,151,1715400507.04,2024-05-11 04:08:27.040000+00:00,2024-05-11 13:08:27.040000+09:00,2024,5,11,4,8,27,40,,,,,,,,,-0.710693,0.341553,0.107422,117.30957,177.55127,-95.214844,,,,,,,,,,,0.0,1.0,1.0,1.0,0.0,0.0,0.0,5.0,0.0,-0.14986656,0.09058592,1.1652279466666666,-3.652343799999999,14.065755213333334,-18.286946626666666,-21.084847163444806,30.97914470669504,-8.618551918610525,30.835193852181778,-26.100734246058305,-30.65430988154598,50.712367548743345,2.5956113715796554,51.57176603686223,2.6031552381543652,-0.56082644,0.25096708,-1.0578059466666667,1.8695994666666667,1.2233005321057302,0.8411718790105689,0.8026194330169948,1.1245081075406418
LBP01_S01,LBP01,152,153,1,152,152,1715400507.08,2024-05-11 04:08:27.080000+00:00,2024-05-11 13:08:27.080000+09:00,2024,5,11,4,8,27,80,,,,,,,,,-0.078125,0.1521,0.622314,-88.195801,-8.605957,-8.605957,,,,,,,,,,,0.0,1.0,1.0,1.0,0.0,0.0,0.0,5.0,0.0,-0.14339846666666667,0.09990884,1.1653353733333334,-5.377604213333332,14.38639324,-18.740234386666664,-16.417934139327688,31.421582445651698,-7.994107674287684,30.17847648660867,-24.843870948232237,-30.974074188517488,49.8733559987795,2.531261976565864,50.844989524839484,2.6070743252699624,0.06527346666666667,0.052191160000000014,-0.5430213733333333,0.660486,0.5494149201920616,0.8384723067417322,0.799922815273621,1.1250252775283598
LBP01_S01,LBP01,153,154,1,153,153,1715400507.12,2024-05-11 04:08:27.120000+00:00,2024-05-11 13:08:27.120000+09:00,2024,5,11,4,8,27,120,,,,,,,,,0.235107,-0.191162,1.161865,-31.799316,-7.93457,-4.455566,,,,,,,,,,,0.0,1.0,1.0,1.0,0.0,0.0,0.0,5.0,0.0,-0.15184248,0.09296873333333334,1.17334644,-6.896158906666666,16.669921893333335,-19.548339853333335,-11.769348781240646,30.27266168021087,-7.978349205274324,29.707702535359044,-23.6329644810238,-31.29320815672846,49.19684417552662,2.589892009236228,50.242217245416015,2.609237047261048,0.38694948,-0.28413073333333333,-0.011481440000000065,0.6825616533333334,0.48019995539491855,0.8333552010467755,0.7893930265371181,1.1265805794169474
LBP01_S01,LBP01,154,155,1,154,154,1715400507.16,2024-05-11 04:08:27.160000+00:00,2024-05-11 13:08:27.160000+09:00,2024,5,11,4,8,27,160,,,,,,,,,-0.131836,0.238037,1.756104,-40.527344,138.48877,12.084961,,,,,,,,,,,0.0,1.0,1.0,1.0,0.0,0.0,0.0,5.0,0.0,-0.16537438666666668,0.08631509333333334,1.1814226,-7.3437500533333315,14.61507164,-20.074056,-7.587343979458473,27.598587779906886,-9.05571626373969,29.404208776180706,-22.529020969827528,-31.65543680727805,48.726080891774224,2.657655689433103,49.79058163627386,2.6066064839310923,0.03353838666666667,0.15172190666666666,0.5746814,0.7599416933333334,0.5953176226593091,0.822047904356496,0.7837456105625944,1.126460646265084
LBP01_S01,LBP01,155,156,1,155,155,1715400507.2,2024-05-11 04:08:27.200000+00:00,2024-05-11 13:08:27.200000+09:00,2024,5,11,4,8,27,200,,,,,,,,,-0.828857,0.201172,1.86084,-53.161621,-60.180664,25.817871,,,,,,,,,,,0.0,1.0,1.0,1.0,0.0,0.0,0.0,5.0,0.0,-0.15498050666666666,0.09169921333333332,1.1869173866666667,-6.18326828,13.597005226666667,-20.626627626666664,-4.339929485861013,23.705811926886287,-11.552641529683404,29.230611596746265,-21.580788492752077,-32.11754246846539,48.49428441066447,2.604907959941963,49.5074010057554,2.6071392624340484,-0.6738764933333333,0.10947278666666667,0.6739226133333334,1.4572718933333335,0.9593047003167582,0.8222908748825398,0.7853717607209404,1.122420586596022
LBP01_S01,LBP01,156,157,1,156,156,1715400507.24,2024-05-11 04:08:27.240000+00:00,2024-05-11 13:08:27.240000+09:00,2024,5,11,4,8,27,240,,,,,,,,,0.047607,0.075684,1.903564,24.475098,-83.679199,8.911133,,,,,,,,,,,0.0,1.0,1.0,1.0,0.0,0.0,0.0,5.0,0.0,-0.16407556,0.08914062666666668,1.1654590533333333,-3.9282227066666655,17.173665386666666,-21.7895508,-2.4935073504864738,19.038094066026822,-15.463064750288682,29.130871302726806,-20.819264730111005,-32.73606505847693,48.51493999039173,2.6410173161226087,49.4000508372515,2.6112505093615663,0.21168256000000002,-0.01345662666666668,0.7381049466666667,0.9632441333333335,0.7679775382803865,0.821814665322295,0.7844078438662602,1.1151506904329944
LBP01_S01,LBP01,157,158,1,157,157,1715400507.28,2024-05-11 04:08:27.280000+00:00,2024-05-11 13:08:27.280000+09:00,2024,5,11,4,8,27,280,,,,,,,,,-0.267578,-0.189453,0.520264,76.782227,173.156738,-44.433594,,,,,,,,,,,0.0,1.0,1.0,1.0,0.0,0.0,0.0,5.0,0.0,-0.1656348,0.09030274666666666,1.1534050133333333,-3.3146159333333323,14.371744813333335,-21.734212266666667,-2.3800111486732853,14.068509495190233,-20.39534924390298,29.035670856779873,-20.256524350303394,-33.55187902823305,48.77628057963087,2.639437285989057,49.4666252985304,2.617179056195936,-0.10194319999999998,-0.2797557466666667,-0.6331410133333334,1.0148399600000002,0.6996593718260511,0.8080345966543002,0.7662932950864991,1.072074788213934
LBP01_S01,LBP01,158,159,1,158,158,1715400507.32,2024-05-11 04:08:27.320000+00:00,2024-05-11 13:08:27.320000+09:00,2024,5,11,4,8,27,320,,,,,,,,,-0.109375,0.013672,0.313232,13.85498,-48.583984,-31.860352,,,,,,,,,,,0.0,1.0,1.0,1.0,0.0,0.0,0.0,5.0,0.0,-0.15139325333333334,0.09103842666666666,1.16934576,-2.320963586666666,14.594726586666669,-20.917154986666667,-4.027475165414696,9.243294560156649,-25.67403684805519,28.874571850163285,-19.88679256789713,-34.57884050215526,49.24349326197628,2.597851156072369,49.69670466270826,2.62819149959216,0.04201825333333334,-0.07736642666666665,-0.85611376,0.97549844,0.8606287629690809,0.8196241388614408,0.7741922483522231,1.033475588208526
LBP01_S01,LBP01,159,160,1,159,159,1715400507.36,2024-05-11 04:08:27.360000+00:00,2024-05-11 13:08:27.360000+09:00,2024,5,11,4,8,27,360,,,,,,,,,0.376465,0.09375,0.762695,-40.527344,-66.040039,-70.739746,,,,,,,,,,,0.0,1.0,1.0,1.0,0.0,0.0,0.0,5.0,0.0,-0.16327150666666668,0.09750326666666666,1.1743587733333334,-3.1054687999999993,17.0987956,-20.277506546666668,-7.0747129290474415,4.982732537577059,-30.546600277505675,28.591583333001388,-19.687483266394047,-35.80070451325549,49.86748518321272,2.6005400265694427,50.07218064847444,2.630186084441329,0.5397365066666666,-0.0037532666666666575,-0.41166377333333337,0.9551535466666666,0.6788200394172567,0.8315504857280969,0.7770160822614646,0.9960660328699888
LBP01_S01,LBP01,160,161,1,160,160,1715400507.4,2024-05-11 04:08:27.400000+00:00,2024-05-11 13:08:27.400000+09:00,2024,5,11,4,8,27,400,,,,,,,,,0.110596,0.352051,1.538086,23.254395,137.634277,-38.269043,,,,,,,,,,,0.0,1.0,1.0,1.0,0.0,0.0,0.0,5.0,0.0,-0.17907229333333333,0.09411458666666667,1.18351892,-3.5823568266666657,12.06217450666667,-19.17724613333333,-10.839794139091534,1.7013861305683882,-34.396742090556636,28.157991567437726,-19.61942782117131,-37.17657419687775,50.59537633181515,2.654330302105374,50.56871093043419,2.620634607972621,0.2896682933333333,0.25793641333333334,0.35456708000000003,0.9021717866666668,0.5255061633374404,0.8264669842190959,0.7681958675830098,0.9742650387989481
LBP01_S01,LBP01,161,162,1,161,161,1715400507.44,2024-05-11 04:08:27.440000+00:00,2024-05-11 13:08:27.440000+09:00,2024,5,11,4,8,27,440,,,,,,,,,-1.095703,-0.128418,1.829834,-147.460938,-22.949219,-19.592285,,,,,,,,,,,0.0,1.0,1.0,1.0,0.0,0.0,0.0,5.0,0.0,-0.16336590666666667,0.08586262666666666,1.1878711333333334,-3.6425781866666664,13.658040386666668,-19.576009146666664,-14.50613473768853,-0.19527060322658107,-36.876824080630236,27.577746177930184,-19.627238645300373,-38.65164716010296,51.37811216153247,2.6548968399233543,51.1583636876543,2.6228478441896583,-0.9323370933333335,-0.21428062666666667,0.6419628666666666,1.7885805866666666,1.1520785410503889,0.832359287844266,0.7788470111747298,0.9550485907953534
LBP01_S01,LBP01,162,163,1,162,162,1715400507.48,2024-05-11 04:08:27.480000+00:00,2024-05-11 13:08:27.480000+09:00,2024,5,11,4,8,27,480,,,,,,,,,0.053467,-0.02417,1.99292,-23.4375,-121.032715,-9.399414,,,,,,,,,,,0.0,1.0,1.0,1.0,0.0,0.0,0.0,5.0,0.0,-0.16930992,0.09184569333333334,1.15109704,0.5476887333333343,16.228027373333333,-21.014811226666666,-17.313937003526195,-0.36280834003019835,-37.928087978758214,26.885188697789136,-19.64175097890158,-40.16877067925329,52.1741496405581,2.641386410528102,51.81329245126396,2.6220483890210984,0.22277692,-0.11601569333333334,0.84182296,1.1806155733333332,0.8784959266652647,0.8291661826140639,0.785592716373098,0.9421170181446289
LBP01_S01,LBP01,163,164,1,163,163,1715400507.52,2024-05-11 04:08:27.520000+00:00,2024-05-11 13:08:27.520000+09:00,2024,5,11,4,8,27,520,,,,,,,,,-0.254883,-0.188721,0.463379,95.581055,157.653809,-44.433594,,,,,,,,,,,0.0,1.0,1.0,1.0,0.0,0.0,0.0,5.0,0.0,-0.17230145333333335,0.10061848,1.14484704,0.2709960266666676,14.544270866666668,-21.20849612,-18.658032204503822,1.3850506655483266,-37.71610617947184,26.138867409608984,-19.586348952279646,-41.677414926432164,52.95160403318841,2.6098378577279178,52.50938679806236,2.622159705635158,-0.08258154666666667,-0.28933948,-0.6814680399999999,1.0533890666666665,0.7449400889185457,0.8465164819054098,0.7782621168754947,0.9176696376614333
LBP01_S01,LBP01,164,165,1,164,164,1715400507.56,2024-05-11 04:08:27.560000+00:00,2024-05-11 13:08:27.560000+09:00,2024,5,11,4,8,27,560,,,,,,,,,-0.24585,0.026367,-0.19873,1.403809,-67.626953,-68.847656,,,,,,,,,,,0.0,1.0,1.0,1.0,0.0,0.0,0.0,5.0,0.0,-0.16123700000000002,0.10493813333333334,1.16513676,-2.207845119999999,17.137044306666667,-21.074218773333335,-18.087790517543958,4.968085533290169,-36.53123249880824,25.415355788907227,-19.38762553094804,-43.13866422638449,53.69138371137173,2.5621409247460214,53.22852868095673,2.624419282819499,-0.084613,-0.07857113333333333,-1.36386676,1.5270508933333333,1.3687458938003,0.8420218075402265,0.7935376324207505,0.9118613708587192
LBP01_S01,LBP01,165,166,1,165,165,1715400507.6,2024-05-11 04:08:27.600000+00:00,2024-05-11 13:08:27.600000+09:00,2024,5,11,4,8,27,600,,,,,,,,,0.384033,0.026123,0.697021,13.73291,-84.777832,-41.503906,,,,,,,,,,,0.0,1.0,1.0,1.0,0.0,0.0,0.0,5.0,0.0,-0.18743165333333334,0.10505858666666666,1.17466476,-4.182942773333332,17.220052120000002,-21.45996096,-15.300545522059096,9.966550838065169,-34.686101047640044,24.803333968024862,-18.98896349742543,-44.526108268290095,54.39081198286548,2.627040322112338,53.95871069891475,2.6246771327489045,0.5714646533333334,-0.07893558666666667,-0.47764376,1.128044,0.7489634425782979,0.8536218004187949,0.7940148675376257,0.8981973009138607
LBP01_S01,LBP01,166,167,1,166,166,1715400507.64,2024-05-11 04:08:27.640000+00:00,2024-05-11 13:08:27.640000+09:00,2024,5,11,4,8,27,640,,,,,,,,,0.418701,0.262939,1.201172,-35.217285,152.709961,-13.61084,,,,,,,,,,,0.0,1.0,1.0,1.0,0.0,0.0,0.0,5.0,0.0,-0.18818686666666667,0.10401041333333333,1.1847038133333332,-5.329589906666666,12.412923213333334,-21.403808613333332,-10.220335566371299,15.621657004412306,-32.41932967311937,24.39452054537001,-18.36409721724894,-45.82288145521487,55.06422762648837,2.6330227644370092,54.692480109628306,2.6163108234881554,0.6068878666666666,0.15892858666666665,0.016468186666666718,0.78228464,0.6275686253623344,0.8467769959893388,0.7966147986295521,0.8721698178920726
LBP01_S01,LBP01,167,168,1,167,167,1715400507.68,2024-05-11 04:08:27.680000+00:00,2024-05-11 13:08:27.680000+09:00,2024,5,11,4,8,27,680,,,,,,,,,-1.058594,0.016113,1.588135,-165.222168,30.883789,-1.586914,,,,,,,,,,,0.0,1.0,1.0,1.0,0.0,0.0,0.0,5.0,0.0,-0.18261069333333335,0.09916016,1.1659635733333333,-2.3258464133333328,14.510091186666669,-22.365722679999998,-3.145865035974007,20.927894028962964,-29.819905730515682,24.26868594393105,-17.52698145609042,-47.015677684435495,55.73722404761489,2.640550452129651,55.42506760578492,2.610694903770213,-0.8759833066666667,-0.08304716,0.42217142666666674,1.3812018933333334,0.9759468724456787,0.8388866303387503,0.800428652329234,0.8617373459078675
LBP01_S01,LBP01,168,169,1,168,168,1715400507.72,2024-05-11 04:08:27.720000+00:00,2024-05-11 13:08:27.720000+09:00,2024,5,11,4,8,27,720,,,,,,,,,-0.048584,-0.003418,2.107666,-14.892578,-184.997559,18.371582,,,,,,,,,,,0.0,1.0,1.0,1.0,0.0,0.0,0.0,5.0,0.0,-0.17882489333333335,0.10181641333333334,1.1347396133333334,1.609700453333334,14.797363320000004,-22.911783879999998,5.164947695555884,24.809984219270337,-26.81108210228044,24.475283851753286,-16.53458208731961,-48.08812096852671,56.43491209091996,2.6204469279157796,56.15336525202214,2.607700174427291,0.13024089333333333,-0.10523441333333335,0.9729263866666666,1.2084016933333332,0.9872298242649133,0.8433439181698621,0.8067481694765174,0.8647902869478922
LBP01_S01,LBP01,169,170,1,169,169,1715400507.76,2024-05-11 04:08:27.760000+00:00,2024-05-11 13:08:27.760000+09:00,2024,5,11,4,8,27,760,,,,,,,,,0.210693,-0.014893,0.806396,110.351562,163.94043,-40.83252,,,,,,,,,,,0.0,1.0,1.0,1.0,0.0,0.0,0.0,5.0,0.0,-0.1779232,0.10543621333333335,1.1231217733333334,1.9303384800000007,13.522949253333334,-22.761230493333333,13.609093037491848,26.360341977800363,-23.233402388602013,25.01964757325296,-15.480168408207595,-49.01745706407079,57.16930536279302,2.6031185258634943,56.87574352052511,2.613683239297791,0.38861619999999997,-0.12032921333333335,-0.3167257733333334,0.8256711866666667,0.5155743263366175,0.8388327946308628,0.8088024093854733,0.8618504108092566
LBP01_S01,LBP01,170,171,1,170,170,1715400507.8,2024-05-11 04:08:27.800000+00:00,2024-05-11 13:08:27.800000+09:00,2024,5,11,4,8,27,800,,,,,,,,,-0.842529,0.068604,-0.319824,135.925293,117.431641,-106.628418,,,,,,,,,,,0.0,1.0,1.0,1.0,0.0,0.0,0.0,5.0,0.0,-0.16611656000000002,0.10602866666666666,1.1360449466666667,-0.08544927999999932,14.383951853333334,-22.886556013333333,21.046388253356277,25.09900263884314,-19.016942576866434,25.86150310338721,-14.47620830265387,-49.778134767145445,57.93307043895072,2.570667209497889,57.5916561489109,2.622827711278715,-0.67641244,-0.03742466666666666,-1.4558689466666666,2.169706053333333,1.6057673506863235,0.8372674479632605,0.8230339423993114,0.8502482914446574
LBP01_S01,LBP01,171,172,1,171,171,1715400507.84,2024-05-11 04:08:27.840000+00:00,2024-05-11 13:08:27.840000+09:00,2024,5,11,4,8,27,840,,,,,,,,,-0.00415,0.288574,0.322266,78.735352,-72.143555,-20.690918,,,,,,,,,,,0.0,1.0,1.0,1.0,0.0,0.0,0.0,5.0,0.0,-0.18688480000000005,0.11181317333333332,1.1484505466666666,1.1002603600000007,13.961588573333332,-22.819824240000003,26.62433997670481,21.181055443431333,-14.359126786617255,26.926476702455403,-13.628966084916616,-50.352499838610136,58.7039871230985,2.5987376427439255,58.300182168574906,2.618407433769155,0.18273480000000006,0.17676082666666668,-0.8261845466666666,1.1856801733333333,0.8644173194272133,0.854138875672607,0.8318355484121469,0.8494868515355295
LBP01_S01,LBP01,172,173,1,172,172,1715400507.88,2024-05-11 04:08:27.880000+00:00,2024-05-11 13:08:27.880000+09:00,2024,5,11,4,8,27,880,,,,,,,,,0.653809,0.404297,1.395264,-41.259766,62.316895,-18.066406,,,,,,,,,,,0.0,1.0,1.0,1.0,0.0,0.0,0.0,5.0,0.0,-0.18993818666666668,0.11036134666666667,1.1606673466666666,-1.5177409466666658,10.620117226666668,-22.488606786666665,29.906297568539518,15.44769921113695,-9.79263046988044,28.122728605196983,-13.011058116471139,-50.74420505740535,59.45712610293032,2.611439117098885,58.99800149423694,2.614358043889763,0.8437471866666666,0.2939356533333334,0.23459665333333346,1.3722794933333335,0.9237657024720113,0.858811451689972,0.8426535775237995,0.8451604837569505
LBP01_S01,LBP01,173,174,1,173,173,1715400507.92,2024-05-11 04:08:27.920000+00:00,2024-05-11 13:08:27.920000+09:00,2024,5,11,4,8,27,920,,,,,,,,,-1.003174,0.359131,1.75,-97.106934,98.876953,51.269531,,,,,,,,,,,0.0,1.0,1.0,1.0,0.0,0.0,0.0,5.0,0.0,-0.19395186666666667,0.09794597333333334,1.13880212,2.5480142666666676,10.893554720000003,-22.739257826666666,30.742888458374757,9.258293300428422,-6.081900338818993,29.352444143531972,-12.640726384454002,-50.98748107095811,60.175386718218164,2.6696685064329126,59.67848313873826,2.613491628285828,-0.8092221333333334,0.26118502666666665,0.61119788,1.68160504,1.0471966996452542,0.8651981666595896,0.8498001433842449,0.8522234328154076
LBP01_S01,LBP01,174,175,1,174,174,1715400507.96,2024-05-11 04:08:27.960000+00:00,2024-05-11 13:08:27.960000+09:00,2024,5,11,4,8,27,960,,,,,,,,,-0.5896,0.025635,2.05835,-53.771973,-195.922852,41.931152,,,,,,,,,,,0.0,1.0,1.0,1.0,0.0,0.0,0.0,5.0,0.0,-0.18622725333333334,0.09786460000000001,1.1064453466666666,5.673014266666668,10.474446653333334,-23.566080733333333,29.041963124291854,4.13734608050155,-3.99429041701941,30.514122668503646,-12.47523254123394,-51.14725268763889,60.85050999522957,2.6535856445552652,60.3333206694704,2.6145271404075765,-0.40337274666666667,-0.0722296,0.9519046533333333,1.4275069999999999,1.0363634289703705,0.8688515553770523,0.8506674999908944,0.8419983054364779
LBP01_S01,LBP01,175,176,1,175,175,1715400508.0,2024-05-11 04:08:28+00:00,2024-05-11 13:08:28+09:00,2024,5,11,4,8,28,0,4.0,8.0,27.0,40.54575,141.523712,-13.255,3.0,16.0,0.330566,-0.0354,1.37793,98.815918,72.692871,-11.474609,-497.0,17.0,582.0,632.0,0.0,1027.199951,26.85,0.140718,-115.433014,4.014844,0.0,1.0,1.0,1.0,0.0,0.0,0.0,3.0,0.0,-0.17307296,0.10738284000000001,1.0874251599999998,8.149414000000002,10.649414093333334,-23.693033866666667,24.673752954504717,1.353987691662547,-4.066419262547465,31.501072786683835,-12.421073033567438,-51.30990945814079,61.476072179505536,2.5828375470167404,60.95649577609329,2.622295734222652,0.50363896,-0.14278284000000002,0.2905048400000003,0.9369266400000003,0.5986920773584472,0.8566350290592382,0.8490809862408161,0.8265887115090108
LBP01_S01,LBP01,176,177,1,176,176,1715400508.04,2024-05-11 04:08:28.040000+00:00,2024-05-11 13:08:28.040000+09:00,2024,5,11,4,8,28,40,,,,,,,,,-0.347656,0.35791,-0.791748,160.949707,23.925781,-76.599121,,,,,,,,,,,0.0,1.0,1.0,1.0,0.0,0.0,0.0,3.0,0.0,-0.17557296,0.10655276000000001,1.0871386933333331,4.942219986666667,12.488606800000003,-23.735351573333332,17.61885283743267,1.5805759433473865,-6.469624533578866,32.205826900181144,-12.357849995833543,-51.56869443948394,62.04242088310881,2.592528865643089,61.54856117253779,2.631322681055648,-0.17208304000000002,0.25135724,-1.878886693333333,2.302326973333333,1.9034201430953508,0.8838398134988229,0.862505846254696,0.8296928931776042
LBP01_S01,LBP01,177,178,1,177,177,1715400508.08,2024-05-11 04:08:28.080000+00:00,2024-05-11 13:08:28.080000+09:00,2024,5,11,4,8,28,80,,,,,,,,,0.384277,0.194092,0.725342,-1.037598,-103.69873,-18.310547,,,,,,,,,,,0.0,1.0,1.0,1.0,0.0,0.0,0.0,3.0,0.0,-0.19236984,0.10643882666666667,1.11134116,4.453938746666668,11.03190106666667,-22.347005226666663,8.242181150282194,4.7397926392791865,-10.99431370425026,32.53551414619243,-12.168258290262376,-52.008466987653954,62.54204049262798,2.6318862960903004,62.118744837194114,2.634891914613769,0.57664684,0.08765317333333332,-0.38599916,1.0502991733333333,0.6994283440053702,0.8898403504513552,0.8641563285965437,0.8298953269995324
LBP01_S01,LBP01,178,179,1,178,178,1715400508.12,2024-05-11 04:08:28.120000+00:00,2024-05-11 13:08:28.120000+09:00,2024,5,11,4,8,28,120,,,,,,,,,0.453613,0.083496,1.72583,31.433105,140.686035,18.676758,,,,,,,,,,,0.0,1.0,1.0,1.0,0.0,0.0,0.0,3.0,0.0,-0.18733728000000002,0.10400718666666665,1.1298665466666666,3.8720702533333347,9.184570333333335,-21.83593752,-2.542778193595686,10.065657400658019,-17.103971097978135,32.43380301844861,-11.765631994236054,-52.69262583157308,62.98328739824145,2.630802049133261,62.68368356292823,2.6361661726963197,0.64095028,-0.020511186666666653,0.5959634533333333,1.25742492,0.875448689484167,0.9056502998149253,0.8695027504308502,0.8281454509630538
LBP01_S01,LBP01,179,180,1,179,179,1715400508.16,2024-05-11 04:08:28.160000+00:00,2024-05-11 13:08:28.160000+09:00,2024,5,11,4,8,28,160,,,,,,,,,-1.135742,0.377441,1.745361,-128.417969,57.189941,3.234863,,,,,,,,,,,0.0,1.0,1.0,1.0,0.0,0.0,0.0,3.0,0.0,-0.2046387066666667,0.10030276,1.1057194,6.362304626666668,11.124674493333336,-23.08837892,-13.372443038277062,16.326111626329553,-24.01396405228199,31.898905296917526,-11.112587529182871,-53.65318439366436,63.40105642902185,2.6808044640142494,63.26379426048898,2.6351991390401808,-0.9311032933333333,0.27713824000000004,0.6396416,1.8478831333333334,1.163142434690196,0.9283632922961607,0.8752055983263284,0.8319515044737833
LBP01_S01,LBP01,180,181,1,180,180,1715400508.2,2024-05-11 04:08:28.200000+00:00,2024-05-11 13:08:28.200000+09:00,2024,5,11,4,8,28,200,,,,,,,,,-0.17334,-0.088135,2.231934,-70.43457,-204.223633,12.390137,,,,,,,,,,,0.0,1.0,1.0,1.0,0.0,0.0,0.0,3.0,0.0,-0.19434249333333334,0.10016604,1.08047852,8.002115826666667,9.991048200000002,-24.95361329333333,-22.753971109067592,22.1247311688562,-30.80193151506709,30.98874645255482,-10.227598282428623,-54.88526165426705,63.85372440339579,2.660936677827847,63.87964454218834,2.63117198934573,0.021002493333333344,-0.18830104,1.1514554799999999,1.3607590133333332,1.1669396337486049,0.9366686896334346,0.8794797822579872,0.8358040703584385
LBP01_S01,LBP01,181,182,1,181,181,1715400508.24,2024-05-11 04:08:28.240000+00:00,2024-05-11 13:08:28.240000+09:00,2024,5,11,4,8,28,240,,,,,,,,,0.206055,-0.026367,1.144531,49.499512,186.584473,-81.359863,,,,,,,,,,,0.0,1.0,1.0,1.0,0.0,0.0,0.0,3.0,0.0,-0.17942386666666668,0.09874025333333333,1.0701497333333334,8.302408786666668,12.36328128,-25.326334653333333,-29.435136967016714,26.217178201846487,-36.57834600671469,29.811340973874152,-9.178911154354763,-56.34839549453564,64.40582376966178,2.634429978325139,64.55008454417133,2.6411662123236797,0.38547886666666664,-0.12510725333333333,0.07438126666666656,0.5849673866666665,0.4120416900195493,0.9224312557030011,0.872122960512648,0.8304156478118405
LBP01_S01,LBP01,182,183,1,182,182,1715400508.28,2024-05-11 04:08:28.280000+00:00,2024-05-11 13:08:28.280000+09:00,2024,5,11,4,8,28,280,,,,,,,,,-0.376221,-0.144043,-0.266113,-35.400391,35.705566,-116.821289,,,,,,,,,,,0.0,1.0,1.0,1.0,0.0,0.0,0.0,3.0,0.0,-0.18946944000000002,0.10670249333333333,1.0676106666666667,8.312988213333334,14.106445333333335,-24.679361999999998,-32.66439542576279,27.802719555709285,-40.70015313011815,28.50476515684364,-8.066802372126391,-57.976401619740365,65.1065133602713,2.624181697924395,65.29199248323934,2.6466569445724764,-0.18675156,-0.25074549333333335,-1.3337236666666668,1.77122072,1.3698789240718277,0.9492400377928323,0.8786373172235663,0.8272755426552769
LBP01_S01,LBP01,183,184,1,183,183,1715400508.32,2024-05-11 04:08:28.320000+00:00,2024-05-11 13:08:28.320000+09:00,2024,5,11,4,8,28,320,,,,,,,,,0.24585,0.086426,0.978271,-30.212402,-20.751953,-46.020508,,,,,,,,,,,0.0,1.0,1.0,1.0,0.0,0.0,0.0,3.0,0.0,-0.20113610666666668,0.10386069333333334,1.0971484266666667,5.405273373333334,9.919433613333336,-22.607421893333335,-32.289357475100324,26.736398049311326,-42.94068615445598,27.213190857839628,-6.9973464501539375,-59.694029065918606,65.97649369382572,2.659998169871523,66.12007062812717,2.6444568131316917,0.4469861066666667,-0.017434693333333334,-0.11887742666666667,0.5832982266666668,0.462852450199349,0.9333289852820428,0.8764765620717418,0.8272378273288298
LBP01_S01,LBP01,184,185,1,184,184,1715400508.36,2024-05-11 04:08:28.360000+00:00,2024-05-11 13:08:28.360000+09:00,2024,5,11,4,8,28,360,,,,,,,,,-0.088379,0.025635,1.757568,-26.367188,220.581055,-24.108887,,,,,,,,,,,0.0,1.0,1.0,1.0,0.0,0.0,0.0,3.0,0.0,-0.18960290666666668,0.10960938666666666,1.1127864399999998,6.9848632266666675,8.960774746666667,-22.50651044,-28.724953464105194,23.574865489382375,-43.51435529135026,26.064192719275418,-6.054351830578643,-61.43460327757262,67.00901281222323,2.613314147610755,67.04540309595222,2.6437436374255503,0.10122390666666668,-0.08397438666666665,0.6447815600000002,0.8299798533333336,0.6580586881220692,0.9324985312302355,0.8820245084791662,0.8288435652510548
LBP01_S01,LBP01,185,186,1,185,185,1715400508.4,2024-05-11 04:08:28.400000+00:00,2024-05-11 13:08:28.400000+09:00,2024,5,11,4,8,28,400,,,,,,,,,-1.401611,0.17334,1.797119,-114.685059,-91.491699,-8.850098,,,,,,,,,,,0.0,1.0,1.0,1.0,0.0,0.0,0.0,3.0,0.0,-0.21121098666666668,0.10288413333333334,1.0907584399999999,7.983398386666668,11.923014333333334,-24.003906266666664,-22.82768604143182,19.39172009595732,-42.92702046554368,25.151085277618144,-5.2786830267403495,-63.151684096194366,68.18047219933538,2.6827797767962362,68.07297903724945,2.639652859895605,-1.1904000133333332,0.07045586666666666,0.70636056,1.9672164399999998,1.3859875402092419,0.9669177863051074,0.8966923852621018,0.8344365071570424
