file_name,test_id,_program_index,program_index,session_id,index,_index,unixtime,datetime_utc,datetime_jst,rtc_year,rtc_month,rtc_day,rtc_hour,rtc_min,rtc_sec,rtc_msec,gps_hour,gps_min,gps_sec,latitude,longitude,altitude,fix_type,SIV,acc_x,acc_y,acc_z,gyro_x,gyro_y,gyro_z,mag_x,mag_y,mag_z,illuminance,atmopress,water_pressure,water_temp,depth,alt_wps,battery_level,behavior_class,camera_command,camera_recording,camera_count,play_audio,speaker_on,audio_file,prev_sd_write_time_ms,delay_occurred_counter,acc_x_ma,acc_y_ma,acc_z_ma,gyro_x_ma,gyro_y_ma,gyro_z_ma,gyro_x_lowpass,gyro_y_lowpass,gyro_z_lowpass,angle_x,angle_y,angle_z,combined_angle_change,gravity_adjusted_angle,smoothed_angle_change,smoothed_gravity_angle,acc_x_dy,acc_y_dy,acc_z_dy,ODBA,VeDBA,smoothed_VeDBA_1s,smoothed_VeDBA_2s,smoothed_VeDBA_3s
LBP01_S00,LBP01,-1825,1,0,0,-1825,1715397970.0,2024-05-11 03:26:10+00:00,2024-05-11 12:26:10+09:00,2024,5,11,3,26,10,0,3.0,26.0,9.0,40.540405,141.527847,18.101999,3.0,19.0,-0.071777,-0.149414,0.489502,-47.119141,-49.377441,18.188477,-494.0,47.0,574.0,713.0,0.0,1028.599976,32.43,0.154593,-126.947708,4.035937,0.0,1.0,1.0,0.0,0.0,0.0,0.0,4.0,0.0,,,,,,,-47.34016814570326,-48.293517640533565,18.055459910244064,-1.8936067258281304,-1.9317407056213427,0.7222183964097626,2.7998157078580483,,5.018633814682535,,,,,,,,,
LBP01_S00,LBP01,-1824,2,0,1,-1824,1715397970.04,2024-05-11 03:26:10.040000+00:00,2024-05-11 12:26:10.040000+09:00,2024,5,11,3,26,10,40,,,,,,,,,0.103271,-0.017822,0.640869,82.946777,-85.205078,30.029297,,,,,,,,,,,0.0,1.0,1.0,0.0,0.0,0.0,0.0,4.0,0.0,,,,,,,-35.51261207426004,-26.328753044896985,11.33691870890931,-3.314111208798532,-2.984890827417222,1.175695144766135,4.612500995047069,,5.230322194634868,,,,,,,,,
LBP01_S00,LBP01,-1823,3,0,2,-1823,1715397970.08,2024-05-11 03:26:10.080000+00:00,2024-05-11 12:26:10.080000+09:00,2024,5,11,3,26,10,80,,,,,,,,,0.299561,0.269531,1.348633,-35.15625,28.564453,27.038574,,,,,,,,,,,0.0,1.0,1.0,0.0,0.0,0.0,0.0,4.0,0.0,,,,,,,-25.35953197739952,-6.676931013005094,4.97141308178084,-4.328492487894513,-3.2519680679374257,1.3745516680373686,5.585743980952602,,5.4332451355209,,,,,,,,,
LBP01_S00,LBP01,-1822,4,0,3,-1822,1715397970.12,2024-05-11 03:26:10.120000+00:00,2024-05-11 12:26:10.120000+09:00,2024,5,11,3,26,10,120,,,,,,,,,-0.536133,0.200684,1.720459,-50.292969,53.894043,2.868652,,,,,,,,,,,0.0,1.0,1.0,0.0,0.0,0.0,0.0,4.0,0.0,,,,,,,-18.056817291735204,8.736169525925304,-0.6646050534447512,-5.050765179563921,-2.9025212869004133,1.3479674658995786,5.979287165635142,,5.651147931269256,,,,,,,,,
LBP01_S00,LBP01,-1821,5,0,4,-1821,1715397970.16,2024-05-11 03:26:10.160000+00:00,2024-05-11 12:26:10.160000+09:00,2024,5,11,3,26,10,160,,,,,,,,,-0.09082,0.605469,1.582275,29.11377,-22.949219,2.807617,,,,,,,,,,,0.0,1.0,1.0,0.0,0.0,0.0,0.0,4.0,0.0,,,,,,,-13.977392446851958,18.766786838789073,-5.1698973169487825,-5.609860877438,-2.1518498133488504,1.1411715732216272,6.115821223919814,,5.882883708060521,,,,,,,,,
LBP01_S00,LBP01,-1820,6,0,5,-1820,1715397970.2,2024-05-11 03:26:10.200000+00:00,2024-05-11 12:26:10.200000+09:00,2024,5,11,3,26,10,200,,,,,,,,,-0.02417,0.192383,1.225342,13.61084,97.045898,-30.944824,,,,,,,,,,,0.0,1.0,1.0,0.0,0.0,0.0,0.0,4.0,0.0,,,,,,,-12.634106551780835,23.264402861748863,-8.202799832351813,-6.115225139509233,-1.2212736988788957,0.8130595799275546,6.288764094396532,,6.113803611554642,,,,,,,,,
LBP01_S00,LBP01,-1819,7,0,6,-1819,1715397970.24,2024-05-11 03:26:10.240000+00:00,2024-05-11 12:26:10.240000+09:00,2024,5,11,3,26,10,240,,,,,,,,,-0.431396,0.553711,-0.214111,-20.446777,74.951172,-42.358398,,,,,,,,,,,0.0,1.0,1.0,0.0,0.0,0.0,0.0,4.0,0.0,,,,,,,-12.872926176640522,23.031874332688485,-9.598985468385845,-6.630142186574854,-0.2999987255713563,0.4291001611921208,6.65078278083709,,6.677705561054568,,,,,,,,,
LBP01_S00,LBP01,-1818,8,0,7,-1818,1715397970.28,2024-05-11 03:26:10.280000+00:00,2024-05-11 12:26:10.280000+09:00,2024,5,11,3,26,10,280,,,,,,,,,-0.060547,-0.383789,0.540283,-85.449219,-51.086426,0.305176,,,,,,,,,,,0.0,1.0,1.0,0.0,0.0,0.0,0.0,4.0,0.0,,,,,,,-13.249867736611217,19.529816634090523,-9.458197506350487,-7.160136896039303,0.48119393979226466,0.05077226093810133,7.1764675015077515,,7.058788098681674,,,,,,,,,
LBP01_S00,LBP01,-1817,9,0,8,-1817,1715397970.32,2024-05-11 03:26:10.320000+00:00,2024-05-11 12:26:10.320000+09:00,2024,5,11,3,26,10,320,,,,,,,,,0.229248,0.254883,0.596436,27.099609,-87.95166,0.915527,,,,,,,,,,,0.0,1.0,1.0,0.0,0.0,0.0,0.0,4.0,0.0,,,,,,,-12.475916398877123,14.41581040421947,-8.146475866297902,-7.659173551994388,1.0578263559610435,-0.27508677371381474,7.736769922390637,,7.314632802871306,,,,,,,,,
LBP01_S00,LBP01,-1816,10,0,9,-1816,1715397970.36,2024-05-11 03:26:10.360000+00:00,2024-05-11 12:26:10.360000+09:00,2024,5,11,3,26,10,360,,,,,,,,,0.142578,-0.010498,1.413818,-44.433594,17.63916,-6.652832,,,,,,,,,,,0.0,1.0,1.0,0.0,0.0,0.0,0.0,4.0,0.0,,,,,,,-9.791060974840118,9.09278341409187,-6.204596023746018,-8.050815990987992,1.4215376925247183,-0.5232706146636554,8.192082743001741,,7.48152427109638,,,,,,,,,
LBP01_S00,LBP01,-1815,11,0,10,-1815,1715397970.4,2024-05-11 03:26:10.400000+00:00,2024-05-11 12:26:10.400000+09:00,2024,5,11,3,26,10,400,,,,,,,,,-0.481201,0.124512,1.794434,-47.851562,41.870117,8.178711,,,,,,,,,,,0.0,1.0,1.0,0.0,0.0,0.0,0.0,4.0,0.0,,,,,,,-5.15457209076994,4.446200470098578,-4.2003516898695485,-8.25699887461879,1.5993857113286614,-0.6912846822584373,8.438835202857287,,7.5717599160245275,,,,,,,,,
LBP01_S00,LBP01,-1814,12,0,11,-1814,1715397970.44,2024-05-11 03:26:10.440000+00:00,2024-05-11 12:26:10.440000+09:00,2024,5,11,3,26,10,440,,,,,,,,,-0.099365,0.361328,1.669434,39.794922,-33.691406,11.71875,,,,,,,,,,,0.0,1.0,1.0,0.0,0.0,0.0,0.0,4.0,0.0,,,,,,,0.7954876378446881,0.8460638665044097,-2.5833198719093917,-8.225179369105001,1.6332282659888377,-0.794617477134813,8.423326371318137,,7.57830080408672,,,,,,,,,
LBP01_S00,LBP01,-1813,13,0,12,-1813,1715397970.48,2024-05-11 03:26:10.480000+00:00,2024-05-11 12:26:10.480000+09:00,2024,5,11,3,26,10,480,,,,,,,,,0.0,0.267822,1.187256,19.65332,88.317871,-13.916016,,,,,,,,,,,0.0,1.0,1.0,0.0,0.0,0.0,0.0,4.0,0.0,,,,,,,6.984176540509252,-1.6571749326931675,-1.5910488536545762,-7.945812307484632,1.566941268681111,-0.858259431280996,8.144191022848924,,7.4884796356870735,,,,,,,,,
LBP01_S00,LBP01,-1812,14,0,13,-1812,1715397970.52,2024-05-11 03:26:10.520000+00:00,2024-05-11 12:26:10.520000+09:00,2024,5,11,3,26,10,520,,,,,,,,,-0.437744,0.010498,0.042969,40.344238,69.335938,-6.225586,,,,,,,,,,,0.0,1.0,1.0,0.0,0.0,0.0,0.0,4.0,0.0,,,,,,,12.248800907061527,-3.102490718891115,-1.2281335173407018,-7.45586027120217,1.4428416399254664,-0.9073847719746241,7.648201847885891,,7.299723401371871,,,,,,,,,
LBP01_S00,LBP01,-1811,15,0,14,-1811,1715397970.56,2024-05-11 03:26:10.560000+00:00,2024-05-11 12:26:10.560000+09:00,2024,5,11,3,26,10,560,,,,,,,,,-0.062744,-0.013672,0.272949,14.770508,-83.618164,0.366211,,,,,,,,,,,0.0,1.0,1.0,0.0,0.0,0.0,0.0,4.0,0.0,,,,,,,15.670010387108197,-3.4984682948853725,-1.3102154524886407,-6.829059855717842,1.3029029081300516,-0.9597933900741697,7.018177673201271,,7.0269134277231995,,,,,,,,,
LBP01_S00,LBP01,-1810,16,0,15,-1810,1715397970.6,2024-05-11 03:26:10.600000+00:00,2024-05-11 12:26:10.600000+09:00,2024,5,11,3,26,10,600,,,,,,,,,0.392578,0.216797,0.59082,31.799316,-97.473145,2.13623,,,,,,,,,,,0.0,1.0,1.0,0.0,0.0,0.0,0.0,4.0,0.0,,,,,,,16.780719031574804,-2.857095693549181,-1.5469825576753065,-6.15783109445485,1.1886190803880843,-1.021672692381182,6.354172975018468,,6.700410797067304,,,,,,,,,
LBP01_S00,LBP01,-1809,17,0,16,-1809,1715397970.64,2024-05-11 03:26:10.640000+00:00,2024-05-11 12:26:10.640000+09:00,2024,5,11,3,26,10,640,,,,,,,,,0.108643,0.190674,1.344727,-1.098633,39.855957,-8.850098,,,,,,,,,,,0.0,1.0,1.0,0.0,0.0,0.0,0.0,4.0,0.0,,,,,,,15.610835686755633,-1.3021641204853633,-1.636739544523707,-5.533397666984625,1.1365325155686699,-1.0871422741621304,5.752571096840624,,6.360012180169347,,,,,,,,,
LBP01_S00,LBP01,-1808,18,0,17,-1808,1715397970.68,2024-05-11 03:26:10.680000+00:00,2024-05-11 12:26:10.680000+09:00,2024,5,11,3,26,10,680,,,,,,,,,-0.543945,0.220459,1.782959,-22.216797,17.39502,-1.525879,,,,,,,,,,,0.0,1.0,1.0,0.0,0.0,0.0,0.0,4.0,0.0,,,,,,,12.593660458177057,0.8769685369268667,-1.3527105700722217,-5.029651248657542,1.1716112570457444,-1.1412506969650194,5.288905158355727,,6.048231972128535,,,,,,,,,
LBP01_S00,LBP01,-1807,19,0,18,-1807,1715397970.72,2024-05-11 03:26:10.720000+00:00,2024-05-11 12:26:10.720000+09:00,2024,5,11,3,26,10,720,,,,,,,,,-0.133789,0.303223,1.904297,18.127441,-37.719727,15.319824,,,,,,,,,,,0.0,1.0,1.0,0.0,0.0,0.0,0.0,4.0,0.0,,,,,,,8.402089430894554,3.2926682267070992,-0.6080720933019964,-4.69356767142176,1.3033179861140285,-1.1655735806970993,5.0086701859039255,,5.803837247000572,,,,,,,,,
LBP01_S00,LBP01,-1806,20,0,19,-1806,1715397970.76,2024-05-11 03:26:10.760000+00:00,2024-05-11 12:26:10.760000+09:00,2024,5,11,3,26,10,760,,,,,,,,,-0.055664,0.102539,1.276855,14.160156,110.656738,-15.014648,,,,,,,,,,,0.0,1.0,1.0,0.0,0.0,0.0,0.0,4.0,0.0,,,,,,,3.7847664012945783,5.603258948265744,0.510086064749429,-4.542177015369977,1.5274483440446582,-1.1451701381071222,4.927056436442794,,5.656188808988516,,,,,,,,,
LBP01_S00,LBP01,-1805,21,0,20,-1805,1715397970.8,2024-05-11 03:26:10.800000+00:00,2024-05-11 12:26:10.800000+09:00,2024,5,11,3,26,10,800,,,,,,,,,-0.410156,0.223633,-0.144043,8.117676,52.246094,-22.155762,,,,,,,,,,,0.0,1.0,1.0,0.0,0.0,0.0,0.0,4.0,0.0,,,,,,,-0.5598214501122841,7.6272034261353685,1.7473739785836522,-4.564569873374468,1.832536481090073,-1.0752751789637762,5.034849033877717,,5.621302234459251,,,,,,,,,
LBP01_S00,LBP01,-1804,22,0,21,-1804,1715397970.84,2024-05-11 03:26:10.840000+00:00,2024-05-11 12:26:10.840000+09:00,2024,5,11,3,26,10,840,,,,,,,,,-0.019775,-0.077637,0.398926,4.760742,-92.834473,9.94873,,,,,,,,,,,0.0,1.0,1.0,0.0,0.0,0.0,0.0,4.0,0.0,,,,,,,-4.071415136942842,9.341819814429822,2.7382010925292946,-4.727426478852182,2.206209273667266,-0.9657471352626045,5.3055242909100055,,5.700408823901229,,,,,,,,,
LBP01_S00,LBP01,-1803,23,0,22,-1803,1715397970.88,2024-05-11 03:26:10.880000+00:00,2024-05-11 12:26:10.880000+09:00,2024,5,11,3,26,10,880,,,,,,,,,0.411621,0.091797,0.872314,-22.460938,-56.82373,16.723633,,,,,,,,,,,0.0,1.0,1.0,0.0,0.0,0.0,0.0,4.0,0.0,,,,,,,-6.392284920267765,10.768323681835671,3.110207793241211,-4.983117875662893,2.6369422209406927,-0.8413388235329561,5.700243771569293,,5.881113655630273,,,,,,,,,
LBP01_S00,LBP01,-1802,24,0,23,-1802,1715397970.92,2024-05-11 03:26:10.920000+00:00,2024-05-11 12:26:10.920000+09:00,2024,5,11,3,26,10,920,,,,,,,,,0.025146,0.202881,1.562744,-27.404785,70.861816,13.916016,,,,,,,,,,,0.0,1.0,1.0,0.0,0.0,0.0,0.0,4.0,0.0,,,,,,,-7.407426399179971,11.837725153620987,2.6118860079468926,-5.279414931630092,3.110451227085532,-0.7368633832150804,6.171717467765342,,6.140513339235115,,,,,,,,,
LBP01_S00,LBP01,-1801,25,0,24,-1801,1715397970.96,2024-05-11 03:26:10.960000+00:00,2024-05-11 12:26:10.960000+09:00,2024,5,11,3,26,10,960,,,,,,,,,-0.65625,0.040527,2.001465,-18.310547,19.65332,11.169434,,,,,,,,,,,0.0,1.0,1.0,0.0,0.0,0.0,0.0,4.0,0.0,,,,,,,-7.240689656848101,12.349040139453574,1.2152057259583517,-5.569042517904016,3.604412832663675,-0.6882551541767463,6.669311927908616,,6.449217656540766,,,,,,,,,
LBP01_S00,LBP01,-1800,26,0,25,-1800,1715397971.0,2024-05-11 03:26:11+00:00,2024-05-11 12:26:11+09:00,2024,5,11,3,26,11,0,3.0,26.0,10.0,40.540424,141.527664,17.356001,3.0,18.0,-0.225098,0.258789,1.971436,6.469727,-27.648926,10.253906,-495.0,55.0,573.0,685.0,0.0,1028.0,32.41,0.148647,-122.014679,4.035937,0.0,1.0,1.0,0.0,0.0,0.0,0.0,5.0,0.0,,,,,,,-6.188729998474789,12.053128130985247,-0.8544006115363144,-5.816591717843008,4.086537957903085,-0.722431178638199,7.145238869438248,,6.775229538892432,,,,,,,,,
LBP01_S00,LBP01,-1799,27,0,26,-1799,1715397971.04,2024-05-11 03:26:11.040000+00:00,2024-05-11 12:26:11.040000+09:00,2024,5,11,3,26,11,40,,,,,,,,,-0.009521,0.247803,1.291016,31.494141,100.891113,-19.287109,,,,,,,,,,,0.0,1.0,1.0,0.0,0.0,0.0,0.0,5.0,0.0,,,,,,,-4.604641970404871,10.798724059888185,-3.17881023908586,-6.000777396659203,4.518486920298612,-0.8495835882016334,7.559619414131058,,7.087071297606625,,,,,,,,,
LBP01_S00,LBP01,-1798,28,0,27,-1798,1715397971.08,2024-05-11 03:26:11.080000+00:00,2024-05-11 12:26:11.080000+09:00,2024,5,11,3,26,11,80,,,,,,,,,-0.380371,0.371338,-0.061279,4.211426,51.208496,-36.682129,,,,,,,,,,,0.0,1.0,1.0,0.0,0.0,0.0,0.0,5.0,0.0,,,,,,,-2.779822335490296,8.639613697697916,-5.274224839857337,-6.111970290078815,4.864071468206529,-1.060552581795927,7.8829019944041505,,7.356203348730676,,,,,,,,,
LBP01_S00,LBP01,-1797,29,0,28,-1797,1715397971.12,2024-05-11 03:26:11.120000+00:00,2024-05-11 12:26:11.120000+09:00,2024,5,11,3,26,11,120,,,,,,,,,-0.024414,-0.15918,0.487793,-13.061523,-91.73584,-8.544922,,,,,,,,,,,0.0,1.0,1.0,0.0,0.0,0.0,0.0,5.0,0.0,,,,,,,-0.8820879586771593,5.833888328793576,-6.72850948512577,-6.147253808425901,5.097427001358271,-1.3296929612009576,8.095713358960438,,7.559141952266131,,,,,,,,,
LBP01_S00,LBP01,-1796,30,0,29,-1796,1715397971.16,2024-05-11 03:26:11.160000+00:00,2024-05-11 12:26:11.160000+09:00,2024,5,11,3,26,11,160,,,,,,,,,0.533691,0.329834,0.888428,5.310059,-59.020996,12.084961,,,,,,,,,,,0.0,1.0,1.0,0.0,0.0,0.0,0.0,5.0,0.0,,,,,,,1.0242354421811786,2.7424140528845236,-7.293107010540937,-6.106284390738654,5.207123563473653,-1.6214172416225952,8.187175259959451,,7.679405791909045,,,,,,,,,
LBP01_S00,LBP01,-1795,31,0,30,-1795,1715397971.2,2024-05-11 03:26:11.200000+00:00,2024-05-11 12:26:11.200000+09:00,2024,5,11,3,26,11,200,,,,,,,,,-0.148193,0.131836,1.580566,-39.794922,72.875977,0.854492,,,,,,,,,,,0.0,1.0,1.0,0.0,0.0,0.0,0.0,5.0,0.0,,,,,,,2.903268380309941,-0.2922495738450296,-6.907203312837542,-5.990153655526257,5.195433580519851,-1.8977053741360967,8.153266621019634,,7.708907099230568,,,,,,,,,
LBP01_S00,LBP01,-1794,32,0,31,-1794,1715397971.24,2024-05-11 03:26:11.240000+00:00,2024-05-11 12:26:11.240000+09:00,2024,5,11,3,26,11,240,,,,,,,,,-0.529053,0.135742,1.930664,-8.117676,-34.545898,1.953125,,,,,,,,,,,0.0,1.0,1.0,0.0,0.0,0.0,0.0,5.0,0.0,,,,,,,4.6793508606476,-2.997855990818935,-5.673145593903785,-5.802979621100353,5.0755193408870936,-2.1246311978922483,7.996844802150533,,7.648273686151866,,,,,,,,,
LBP01_S00,LBP01,-1793,33,0,32,-1793,1715397971.28,2024-05-11 03:26:11.280000+00:00,2024-05-11 12:26:11.280000+09:00,2024,5,11,3,26,11,280,,,,,,,,,-0.109619,0.251221,1.653809,10.559082,9.155273,-5.981445,,,,,,,,,,,0.0,1.0,1.0,0.0,0.0,0.0,0.0,5.0,0.0,,,,,,,6.229594925309111,-5.140095780088136,-3.8186770239096925,-5.553795824087989,4.869915509683568,-2.277378278848636,7.72962980692383,,7.5059399040845936,,,,,,,,,
LBP01_S00,LBP01,-1792,34,0,33,-1792,1715397971.32,2024-05-11 03:26:11.320000+00:00,2024-05-11 12:26:11.320000+09:00,2024,5,11,3,26,11,320,,,,,,,,,-0.085938,0.026123,0.495361,71.838379,122.009277,-23.925781,,,,,,,,,,,0.0,1.0,1.0,0.0,0.0,0.0,0.0,5.0,0.0,,,,,,,7.443294124805073,-6.47472036755234,-1.6651912357511276,-5.256064059095786,4.610926694981474,-2.343985928278681,7.374355864194494,,7.296291109593602,2.132539806777827,,,,,,,,
LBP01_S00,LBP01,-1791,35,0,34,-1791,1715397971.36,2024-05-11 03:26:11.360000+00:00,2024-05-11 12:26:11.360000+09:00,2024,5,11,3,26,11,360,,,,,,,,,-0.098145,0.126953,0.118408,25.756836,-66.223145,-9.338379,,,,,,,,,,,0.0,1.0,1.0,0.0,0.0,0.0,0.0,5.0,0.0,,,,,,,8.296460177600713,-6.7726197097300656,0.40691203831862627,-4.924205651991758,4.340021906592272,-2.327709446745936,6.9643250011238464,,7.037314784156477,2.1273564343580085,,,,,,,,
LBP01_S00,LBP01,-1790,36,0,35,-1790,1715397971.4,2024-05-11 03:26:11.400000+00:00,2024-05-11 12:26:11.400000+09:00,2024,5,11,3,26,11,400,,,,,,,,,0.09668,0.032715,0.471436,-20.263672,-97.717285,5.065918,,,,,,,,,,,0.0,1.0,1.0,0.0,0.0,0.0,0.0,5.0,0.0,,,,,,,8.868957116700223,-5.944879194656146,2.0168865876323614,-4.5694473673237495,4.102226738806026,-2.2470339832406414,6.53890473865122,,6.748167028631859,2.133112648519798,,,,,,,,
LBP01_S00,LBP01,-1789,37,0,36,-1789,1715397971.44,2024-05-11 03:26:11.440000+00:00,2024-05-11 12:26:11.440000+09:00,2024,5,11,3,26,11,440,,,,,,,,,0.499512,0.127197,1.107666,-13.549805,-53.344727,22.949219,,,,,,,,,,,0.0,1.0,1.0,0.0,0.0,0.0,0.0,5.0,0.0,,,,,,,9.274239642941534,-4.192128567644522,2.8717776203977294,-4.198477781606088,3.934541596100245,-2.132162878424732,6.136281593458328,,6.447132544852687,2.1446971263821126,,,,,,,,
LBP01_S00,LBP01,-1788,38,0,37,-1788,1715397971.48,2024-05-11 03:26:11.480000+00:00,2024-05-11 12:26:11.480000+09:00,2024,5,11,3,26,11,480,,,,,,,,,-0.03125,0.291504,1.443848,-25.32959,56.396484,12.695312,,,,,,,,,,,0.0,1.0,1.0,0.0,0.0,0.0,0.0,5.0,0.0,-0.09079425333333332,0.14514000000000002,1.0193424800000002,1.541341093333334,1.5950520266666661,-0.40527344000000004,9.547234365142065,-2.042037119948206,2.8578788035154923,-3.8165884070004052,3.852860111302317,-2.0178477262841126,5.786414049494242,2.132539806777827,6.150482922309647,2.1424764253824375,0.059544253333333325,0.14636399999999997,0.42450551999999986,0.6304137733333331,0.4529601252996719,0.4529601252996719,0.4529601252996719,0.4529601252996719
LBP01_S00,LBP01,-1787,39,0,38,-1787,1715397971.52,2024-05-11 03:26:11.520000+00:00,2024-05-11 12:26:11.520000+09:00,2024,5,11,3,26,11,520,,,,,,,,,-0.310059,0.068115,1.73877,18.737793,-16.296387,17.822266,,,,,,,,,,,0.0,1.0,1.0,0.0,0.0,0.0,0.0,5.0,0.0,-0.09042316,0.14797854666666665,1.0251953466666668,2.7872720933333337,3.6694335333333328,-0.5794270933333333,9.578666199526465,-0.19187327189833178,2.088701688115032,-3.4334417590193467,3.8451851804263835,-1.9342996587595114,5.505950104589189,2.1221730619381898,5.872222655937634,2.1384138617039388,-0.21963583999999997,-0.07986354666666666,0.7135746533333331,1.0130740399999998,0.7508707439889178,0.6019154346442949,0.6019154346442949,0.6019154346442949
LBP01_S00,LBP01,-1786,40,0,39,-1786,1715397971.56,2024-05-11 03:26:11.560000+00:00,2024-05-11 12:26:11.560000+09:00,2024,5,11,3,26,11,560,,,,,,,,,-0.036865,0.090332,1.407715,-0.549316,49.01123,-3.540039,,,,,,,,,,,0.0,1.0,1.0,0.0,0.0,0.0,0.0,5.0,0.0,-0.0970768,0.15114912000000003,1.0159212533333335,2.517089800000001,5.805663999999998,-1.0774739733333334,9.157166195191538,0.7896462503905132,0.873151412244338,-3.0671551112116853,3.8767710304420038,-1.8993736022697378,5.295697704713274,2.1446250768433766,5.623969136397588,2.136910130221175,0.0602118,-0.06081712000000003,0.39179374666666655,0.5128226666666666,0.4010318227665212,0.534954230685037,0.534954230685037,0.534954230685037
LBP01_S00,LBP01,-1785,41,0,40,-1785,1715397971.6,2024-05-11 03:26:11.600000+00:00,2024-05-11 12:26:11.600000+09:00,2024,5,11,3,26,11,600,,,,,,,,,-0.178711,0.051514,0.425049,73.669434,111.26709,-28.564453,,,,,,,,,,,0.0,1.0,1.0,0.0,0.0,0.0,0.0,5.0,0.0,-0.101569,0.14653974666666666,1.0019824533333335,3.0346679200000004,4.438476506666666,-1.4705403733333333,8.106280101285702,0.7358511362848261,-0.39365938943931844,-2.7429039071602572,3.906205075893397,-1.9151199778473105,5.1429217832279175,2.179450559969058,5.414223309810955,2.1357453488157736,-0.077142,-0.09502574666666666,-0.5769334533333335,0.7491012000000001,0.5897736771581817,0.5486590923033232,0.5486590923033232,0.5486590923033232
LBP01_S00,LBP01,-1784,42,0,41,-1784,1715397971.64,2024-05-11 03:26:11.640000+00:00,2024-05-11 12:26:11.640000+09:00,2024,5,11,3,26,11,640,,,,,,,,,-0.3479,0.088135,-0.127197,-2.746582,-15.197754,-21.606445,,,,,,,,,,,0.0,1.0,1.0,0.0,0.0,0.0,0.0,5.0,0.0,-0.09177408,0.14643882666666666,0.9860091466666667,4.2732746933333345,2.245279893333332,-1.4371744800000001,6.435980449292138,-0.03934288138822452,-1.3708966050880205,-2.4854646891885714,3.9046313606378678,-1.9699558420508314,5.030348576720123,2.1335936213837363,5.247202570558796,2.130706628163379,-0.25612592,-0.058303826666666655,-1.1132061466666667,1.4276358933333335,1.1437778403502454,0.6676828419127077,0.6676828419127077,0.6676828419127077
LBP01_S00,LBP01,-1783,43,0,42,-1783,1715397971.68,2024-05-11 03:26:11.680000+00:00,2024-05-11 12:26:11.680000+09:00,2024,5,11,3,26,11,680,,,,,,,,,0.026855,-0.018799,0.326904,31.005859,-96.191406,7.8125,,,,,,,,,,,0.0,1.0,1.0,0.0,0.0,0.0,0.0,5.0,0.0,-0.08552408,0.14125328,0.9805111066666666,3.1876627066666674,2.4747720799999993,-1.4078776,4.410884110875016,-0.9232468291347681,-1.8780680725250833,-2.309029324753571,3.867701487472477,-2.045078564951835,4.947027143203703,2.1181010433114458,5.1222139048185715,2.130295285101471,0.11237908,-0.16005228000000002,-0.6536071066666667,0.9260384666666667,0.6822375245030253,0.6701086223444271,0.6701086223444271,0.6701086223444271
LBP01_S00,LBP01,-1782,44,0,43,-1782,1715397971.72,2024-05-11 03:26:11.720000+00:00,2024-05-11 12:26:11.720000+09:00,2024,5,11,3,26,11,720,,,,,,,,,0.317383,0.140869,0.625,-6.713867,-95.88623,1.586914,,,,,,,,,,,0.0,1.0,1.0,0.0,0.0,0.0,0.0,5.0,0.0,-0.08829426666666666,0.14265301333333333,0.9848730800000001,2.888183533333334,1.5983072399999991,-0.74951172,2.480122480513134,-1.3507849132936118,-1.9208085758083513,-2.2098244255330455,3.8136700909407324,-2.121910907984169,4.891820668794038,2.127887741324592,5.034416199584361,2.1315698402536483,0.4056772666666667,-0.0017840133333333341,-0.35987308000000007,0.7673343600000001,0.5422968385509893,0.6518497960882218,0.6518497960882218,0.6518497960882218
LBP01_S00,LBP01,-1781,45,0,44,-1781,1715397971.76,2024-05-11 03:26:11.760000+00:00,2024-05-11 12:26:11.760000+09:00,2024,5,11,3,26,11,760,,,,,,,,,0.153564,0.036865,1.227539,-28.137207,20.202637,15.014648,,,,,,,,,,,0.0,1.0,1.0,0.0,0.0,0.0,0.0,5.0,0.0,-0.08507161333333334,0.13743492000000002,1.01019208,3.496907493333334,0.33447259999999923,0.10335285333333331,1.0917806193256756,-1.103449629846629,-1.6376905958235906,-2.1661532007600184,3.769532105746867,-2.1874185318171127,4.866866735257522,2.127591878977964,4.977063921542313,2.1293565657335867,0.23863561333333333,-0.10056992000000001,0.21734692,0.5565524533333334,0.3380842326895311,0.6126291006633855,0.6126291006633855,0.6126291006633855
LBP01_S00,LBP01,-1780,46,0,45,-1780,1715397971.8,2024-05-11 03:26:11.800000+00:00,2024-05-11 12:26:11.800000+09:00,2024,5,11,3,26,11,800,,,,,,,,,-0.389404,0.202637,1.584473,-76.416016,34.973145,5.554199,,,,,,,,,,,0.0,1.0,1.0,0.0,0.0,0.0,0.0,5.0,0.0,-0.08342122666666665,0.14684898666666665,1.0187760666666665,5.100097600000001,1.8432616666666661,0.11230466666666665,0.4850168048043293,-0.3746536438362922,-1.2109367652775986,-2.1467525285678453,3.7545459599934157,-2.235856002428217,4.86869734612962,2.090396862944226,4.944549548176725,2.1222051375368025,-0.30598277333333335,0.05578801333333336,0.5656969333333335,0.9274677200000002,0.6455623752908592,0.6162883533997714,0.6162883533997714,0.6162883533997714
LBP01_S00,LBP01,-1779,47,0,46,-1779,1715397971.84,2024-05-11 03:26:11.840000+00:00,2024-05-11 12:26:11.840000+09:00,2024,5,11,3,26,11,840,,,,,,,,,-0.077148,0.228271,1.459717,33.569336,9.94873,7.507324,,,,,,,,,,,0.0,1.0,1.0,0.0,0.0,0.0,0.0,5.0,0.0,-0.09054037333333334,0.14671226666666667,1.01069012,5.144856720000001,4.2862955199999995,-0.13997397333333333,0.5756237735447209,0.42494084698849066,-0.7940729410532154,-2.1237275776260565,3.771543593872955,-2.2676189200703454,4.886394936056086,2.1265931975442975,4.93490832848621,2.11153515033062,0.013392373333333346,0.08155873333333333,0.4490268799999999,0.5439779866666665,0.45657017161546093,0.6003165352213404,0.6003165352213404,0.6003165352213404
LBP01_S00,LBP01,-1778,48,0,47,-1778,1715397971.88,2024-05-11 03:26:11.880000+00:00,2024-05-11 12:26:11.880000+09:00,2024,5,11,3,26,11,880,,,,,,,,,-0.116455,0.065186,1.025635,16.540527,95.64209,-14.526367,,,,,,,,,,,0.0,1.0,1.0,0.0,0.0,0.0,0.0,5.0,0.0,-0.09318685333333333,0.14484051999999997,0.9954524933333333,5.3304036,3.0647785999999995,0.01220701333333332,1.0053285700554675,0.9768353319999815,-0.4875351159236689,-2.083514434823838,3.8106170071529544,-2.287120324707292,4.908436997152131,2.145285358299599,4.950310593647764,2.1033336818294375,-0.02326814666666667,-0.07965451999999998,0.030182506666666775,0.13310517333333344,0.08830194173638138,0.553769753995435,0.553769753995435,0.553769753995435
LBP01_S00,LBP01,-1777,49,0,48,-1777,1715397971.92,2024-05-11 03:26:11.920000+00:00,2024-05-11 12:26:11.920000+09:00,2024,5,11,3,26,11,920,,,,,,,,,-0.390137,0.301514,-0.123047,42.96875,55.969238,-22.766113,,,,,,,,,,,0.0,1.0,1.0,0.0,0.0,0.0,0.0,5.0,0.0,-0.08377605333333332,0.14425132,0.9784700666666667,6.258951773333333,0.8976236533333328,-0.008951840000000016,1.3299200227397505,1.2689264929202173,-0.35698085277285646,-2.030317633914248,3.861374066869763,-2.3013995588182063,4.932427324168712,2.100040316737571,4.995104176117756,2.095610548382029,-0.3063609466666667,0.15726268000000002,-1.1015170666666667,1.5651406933333334,1.1540920363303857,0.6037966108566809,0.6037966108566809,0.6037966108566809
LBP01_S00,LBP01,-1776,50,0,49,-1776,1715397971.96,2024-05-11 03:26:11.960000+00:00,2024-05-11 12:26:11.960000+09:00,2024,5,11,3,26,11,960,,,,,,,,,-0.036133,-0.093018,0.315918,19.287109,-89.84375,0.061035,,,,,,,,,,,0.0,1.0,1.0,0.0,0.0,0.0,0.0,5.0,0.0,-0.07660809333333334,0.14048178666666666,0.9689420666666666,5.618489533333334,0.7112629733333329,0.017089826666666662,1.2374341184031168,1.575899732890793,-0.46158178656492893,-1.9808202691781231,3.924410056185395,-2.3198628302808033,4.9705539710573925,2.073110794875532,5.07267066200613,2.091218392062495,0.04047509333333334,-0.23349978666666665,-0.6530240666666667,0.9269989466666666,0.6946947640507967,0.6107887764869975,0.6107887764869975,0.6107887764869975
LBP01_S00,LBP01,-1775,51,0,50,-1775,1715397972.0,2024-05-11 03:26:12+00:00,2024-05-11 12:26:12+09:00,2024,5,11,3,26,12,0,3.0,26.0,11.0,40.54044,141.527466,17.235001,3.0,18.0,0.281738,0.235352,0.544434,18.127441,-105.407715,11.108398,-497.0,54.0,572.0,747.0,0.0,1028.400024,32.43,0.152611,-125.303963,4.035937,0.0,1.0,1.0,0.0,0.0,0.0,0.0,4.0,0.0,-0.07693686666666667,0.14121421333333334,0.9700618533333333,5.275065053333334,-0.08626306666666707,0.3076171733333334,0.6750758372093293,2.225499035939133,-0.8583181011509032,-1.95381723568975,4.0134300176229605,-2.3541955543268394,5.046509586322771,2.0727506879072326,5.183136927601822,2.0912880790426733,0.35867486666666665,0.09413778666666667,-0.4256278533333333,0.8784405066666666,0.5645074422804286,0.6074829669008139,0.6074829669008139,0.6074829669008139
LBP01_S00,LBP01,-1774,52,0,51,-1774,1715397972.04,2024-05-11 03:26:12.040000+00:00,2024-05-11 12:26:12.040000+09:00,2024,5,11,3,26,12,40,,,,,,,,,0.11377,-0.044922,1.311035,-64.147949,15.625,6.103516,,,,,,,,,,,0.0,1.0,1.0,0.0,0.0,0.0,0.0,4.0,0.0,-0.07364259999999999,0.14223634666666668,0.99224284,4.729003853333334,-1.1499024000000002,0.5183919200000001,-0.17125139477143386,3.3192242121498543,-1.5733887365414922,-1.9606672914806074,4.1461989861089545,-2.417131103788499,5.184371228335663,2.051578936371916,5.323117810994338,2.091802589770126,0.18741259999999998,-0.18715834666666667,0.31879216,0.6933631066666667,0.4144637145073447,0.5946150167412494,0.5946150167412494,0.5946150167412494
LBP01_S00,LBP01,-1773,53,0,52,-1773,1715397972.08,2024-05-11 03:26:12.080000+00:00,2024-05-11 12:26:12.080000+09:00,2024,5,11,3,26,12,80,,,,,,,,,-0.327393,0.453125,1.514404,-37.475586,35.949707,0.12207,,,,,,,,,,,0.0,1.0,1.0,0.0,0.0,0.0,0.0,4.0,0.0,-0.07267906666666667,0.14413413333333333,1.00770508,4.678548120000001,0.6437173866666662,0.38655598666666674,-1.0062131595739425,4.608069425440937,-2.5625083086733143,-2.000915817863565,4.330521763126592,-2.5196314361354317,5.3949629679036315,2.0408697088373584,5.4870875602962235,2.084651466477334,-0.2547139333333333,0.30899086666666664,0.50669892,1.07040372,0.6458315097970383,0.5978160475572362,0.5978160475572362,0.5978160475572362
LBP01_S00,LBP01,-1772,54,0,53,-1772,1715397972.12,2024-05-11 03:26:12.120000+00:00,2024-05-11 12:26:12.120000+09:00,2024,5,11,3,26,12,120,,,,,,,,,-0.296631,0.091553,1.828857,19.714355,-11.657715,11.657715,,,,,,,,,,,0.0,1.0,1.0,0.0,0.0,0.0,0.0,4.0,0.0,-0.07978844,0.14255210666666665,1.0070931066666666,4.931640573333334,3.6726887466666662,-0.030110679999999994,-1.565342908481193,5.6101507007482985,-3.69350237569314,-2.0635295342028126,4.5549277911565245,-2.667371531163157,5.6674855276777745,2.083966178129251,5.669055093962362,2.074566028472492,-0.21684255999999996,-0.050999106666666655,0.8217638933333333,1.0896055599999999,0.8514208718926907,0.6127339784004981,0.6127339784004981,0.6127339784004981
LBP01_S00,LBP01,-1771,55,0,54,-1771,1715397972.16,2024-05-11 03:26:12.160000+00:00,2024-05-11 12:26:12.160000+09:00,2024,5,11,3,26,12,160,,,,,,,,,-0.063965,0.167236,1.312744,27.282715,80.932617,-19.226074,,,,,,,,,,,0.0,1.0,1.0,0.0,0.0,0.0,0.0,4.0,0.0,-0.08441409333333334,0.13617189333333332,0.9929231733333334,3.186035106666667,2.8019205199999995,0.13346354666666668,-1.684642469651676,5.889883924784175,-4.770467978872008,-2.1309152329888796,4.790523148147892,-2.8581902503180374,5.971529391214442,2.128288748779747,5.863431776181811,2.0710473411442,0.02044909333333335,0.031064106666666674,0.31982082666666656,0.3713340266666666,0.3219759390248026,0.5965807539907373,0.5965807539907373,0.5965807539907373
LBP01_S00,LBP01,-1770,56,0,55,-1770,1715397972.2,2024-05-11 03:26:12.200000+00:00,2024-05-11 12:26:12.200000+09:00,2024,5,11,3,26,12,200,,,,,,,,,-0.357666,0.402588,-0.005615,33.752441,97.900391,-34.484863,,,,,,,,,,,0.0,1.0,1.0,0.0,0.0,0.0,0.0,4.0,0.0,-0.07556644000000001,0.13131837333333332,0.9784114533333333,3.8468424000000003,1.5462238933333325,0.37272136,-1.2900299050816229,5.319613508456561,-5.59110646365564,-2.1825164291921446,5.003307688486154,-3.081834508864263,6.268506180054776,2.0955419702187537,6.064892264111184,2.0684896237635817,-0.28209955999999997,0.27126962666666665,-0.9840264533333334,1.53739564,1.0589973715566272,0.6209184707047315,0.6209184707047315,0.6209184707047315
LBP01_S00,LBP01,-1769,57,0,56,-1769,1715397972.24,2024-05-11 03:26:12.240000+00:00,2024-05-11 12:26:12.240000+09:00,2024,5,11,3,26,12,240,,,,,,,,,-0.139893,-0.373047,0.580322,-79.467773,-66.467285,4.943848,,,,,,,,,,,0.0,1.0,1.0,0.0,0.0,0.0,0.0,4.0,0.0,-0.06871748,0.13150066666666668,0.96374348,3.9339192266666676,1.202799426666666,0.6168619866666666,-0.3586938530313103,4.163419916633835,-6.006749188904132,-2.196864183313397,5.169844485151507,-3.3221044764204284,6.5260924290749465,2.055081964616381,6.267883339443707,2.0698348474949606,-0.07117551999999999,-0.5045476666666667,-0.38342148,0.9591446666666668,0.6376882733055694,0.6217569608347735,0.6217569608347735,0.6217569608347735
LBP01_S00,LBP01,-1768,58,0,57,-1768,1715397972.28,2024-05-11 03:26:12.280000+00:00,2024-05-11 12:26:12.280000+09:00,2024,5,11,3,26,12,280,,,,,,,,,0.361328,0.309814,0.812988,92.163086,-99.487305,10.498047,,,,,,,,,,,0.0,1.0,1.0,0.0,0.0,0.0,0.0,4.0,0.0,-0.06809898666666667,0.13380209333333334,0.9650846266666667,3.450520786666667,0.5078124533333326,1.1303710933333333,1.0932288727934754,2.937397819234575,-5.954187838149813,-2.153135028401658,5.2873403979208895,-3.560271989946421,6.7281123338135105,2.0444309782511763,6.4666247374108945,2.0773146130496043,0.4294269866666667,0.17601190666666663,-0.15209662666666668,0.75753552,0.4883862324118364,0.6154059737670146,0.6154059737670146,0.6154059737670146
LBP01_S00,LBP01,-1767,59,0,58,-1767,1715397972.32,2024-05-11 03:26:12.320000+00:00,2024-05-11 12:26:12.320000+09:00,2024,5,11,3,26,12,320,,,,,,,,,0.291748,0.276367,1.357666,-36.804199,20.202637,-10.253906,,,,,,,,,,,0.0,1.0,1.0,0.0,0.0,0.0,0.0,4.0,0.0,-0.06974286666666667,0.13027670666666666,0.9920800666666666,3.1746418800000007,-0.4866536933333341,1.7415364666666664,2.982653904974823,2.143482559393885,-5.450864681411164,-2.0338288722026654,5.373079700296645,-3.7783065772028674,6.876194146363197,2.064853443454657,6.655921752398496,2.081369779390392,0.3614908666666667,0.14609029333333332,0.36558593333333345,0.8731670933333334,0.5344820812158642,0.6117276150146895,0.6117276150146895,0.6117276150146895
LBP01_S00,LBP01,-1766,60,0,59,-1766,1715397972.36,2024-05-11 03:26:12.360000+00:00,2024-05-11 12:26:12.360000+09:00,2024,5,11,3,26,12,360,,,,,,,,,-0.555908,0.201416,1.793457,-36.743164,33.508301,-4.333496,,,,,,,,,,,0.0,1.0,1.0,0.0,0.0,0.0,0.0,4.0,0.0,-0.06977217333333333,0.13599285333333333,1.0078841066666666,3.5481770400000006,0.5940754799999992,1.6349283999999997,5.1164196018681345,2.0459635171101853,-4.570237638185353,-1.82917208812794,5.454918240981053,-3.9611160827302814,6.985158850351124,2.0475336210693444,6.832382211751211,2.076181183656092,-0.48613582666666666,0.06542314666666668,0.7855728933333335,1.3371318666666667,0.9261387589496276,0.6253976647509912,0.6253976647509912,0.6253976647509912
LBP01_S00,LBP01,-1765,61,0,60,-1765,1715397972.4,2024-05-11 03:26:12.400000+00:00,2024-05-11 12:26:12.400000+09:00,2024,5,11,3,26,12,400,,,,,,,,,-0.226318,0.374268,1.793457,-3.356934,-50.292969,10.253906,,,,,,,,,,,0.0,1.0,1.0,0.0,0.0,0.0,0.0,4.0,0.0,-0.07682296,0.13645834666666667,1.0067382800000002,4.309082000000001,2.910969999999999,0.9114583466666666,7.177295837860017,2.607003523805512,-3.4203368808138754,-1.5420802546135395,5.559198381933274,-4.0979295579628365,7.0764203396480045,2.0862029252210235,6.995226425850772,2.0678154546503733,-0.14949504,0.23780965333333332,0.7867187199999999,1.1740234133333332,0.8353613245785083,0.6341461505771377,0.6341461505771377,0.6341461505771377
LBP01_S00,LBP01,-1764,62,0,61,-1764,1715397972.44,2024-05-11 03:26:12.440000+00:00,2024-05-11 12:26:12.440000+09:00,2024,5,11,3,26,12,440,,,,,,,,,-0.032227,0.192871,1.356934,24.780273,72.937012,-14.221191,,,,,,,,,,,0.0,1.0,1.0,0.0,0.0,0.0,0.0,4.0,0.0,-0.08200850666666666,0.13283529333333333,0.9851529999999998,3.1958007466666674,1.9311522933333325,0.17740886666666655,8.777933905258628,3.5763915044247114,-2.135487329387776,-1.1909628984031944,5.702254042110262,-4.1833490511383475,7.171785208007548,2.126376591918351,7.146004892972795,2.0652603020159725,0.04978150666666666,0.06003570666666666,0.37178100000000025,0.4815982133333336,0.37987313203485396,0.6239752298354464,0.6239752298354464,0.6239752298354464
LBP01_S00,LBP01,-1763,63,0,62,-1763,1715397972.48,2024-05-11 03:26:12.480000+00:00,2024-05-11 12:26:12.480000+09:00,2024,5,11,3,26,12,480,,,,,,,,,-0.45459,0.179932,-0.003906,63.720703,89.904785,-21.057129,,,,,,,,,,,0.0,1.0,1.0,0.0,0.0,0.0,0.0,4.0,0.0,-0.07246098666666666,0.13015626666666666,0.9660416666666667,3.1778971066666677,0.5053710533333325,0.007324226666666507,9.582881724710608,4.641743993260349,-0.8736932674408967,-0.8076476294147701,5.887923801840675,-4.218296781835983,7.287933117779626,2.081421372245236,7.287155491405832,2.0654256995618523,-0.3821290133333333,0.04977573333333335,-0.9699476666666667,1.4018524133333332,1.0436947266955452,0.6476046138912812,0.6401182874069886,0.6401182874069886
LBP01_S00,LBP01,-1762,64,0,63,-1762,1715397972.52,2024-05-11 03:26:12.520000+00:00,2024-05-11 12:26:12.520000+09:00,2024,5,11,3,26,12,520,,,,,,,,,0.024902,0.026855,0.291992,-1.403809,-78.735352,0.976562,,,,,,,,,,,0.0,1.0,1.0,0.0,0.0,0.0,0.0,4.0,0.0,-0.06392257333333333,0.12949546666666664,0.9527864533333333,2.3974609066666672,0.4199218399999992,-0.1334635333333335,9.443529918964453,5.5349992629995155,0.19789778734976043,-0.42990643265619194,6.109323772360656,-4.210380870341993,7.432090121204936,2.0320802207862507,7.420124353944216,2.0730441668747264,0.08882457333333332,-0.10264046666666664,-0.6607944533333334,0.8522594933333334,0.6745918616330164,0.6445534585970453,0.6413950864523971,0.6413950864523971
LBP01_S00,LBP01,-1761,65,0,64,-1761,1715397972.56,2024-05-11 03:26:12.560000+00:00,2024-05-11 12:26:12.560000+09:00,2024,5,11,3,26,12,560,,,,,,,,,0.234375,0.003174,0.785156,17.578125,-78.674316,11.657715,,,,,,,,,,,0.0,1.0,1.0,0.0,0.0,0.0,0.0,4.0,0.0,-0.06638677333333333,0.13034506666666668,0.95500976,1.657714813333334,-0.1171875333333341,0.20182291999999985,8.467966808674824,6.0512452377455705,0.942379991572142,-0.091187760309199,6.351373581870479,-4.172685670679107,7.599971532210051,2.044631458722563,7.54415899991583,2.077477556771795,0.3007617733333333,-0.12717106666666667,-0.16985376000000008,0.5977866000000001,0.3680766554427036,0.6432352519040926,0.6316337139163366,0.6316337139163366
LBP01_S00,LBP01,-1760,66,0,65,-1760,1715397972.6,2024-05-11 03:26:12.600000+00:00,2024-05-11 12:26:12.600000+09:00,2024,5,11,3,26,12,600,,,,,,,,,0.0896,0.077637,1.464111,-8.911133,63.049316,14.526367,,,,,,,,,,,0.0,1.0,1.0,0.0,0.0,0.0,0.0,4.0,0.0,-0.06714849333333334,0.12383790666666668,0.9809700400000001,1.3598632533333341,-1.0611979466666674,0.7975260399999998,6.983907160754226,6.022996953882873,1.3093782661680258,0.18816852612097007,6.592293460025793,-4.120310540032387,7.7762908512750055,2.0699904438747447,7.6564919419216055,2.079058152167277,0.15674849333333335,-0.04620090666666668,0.48314095999999984,0.6860903599999999,0.5100292159953326,0.6400454734575786,0.6274404553673364,0.6274404553673364
LBP01_S00,LBP01,-1759,67,0,66,-1759,1715397972.64,2024-05-11 03:26:12.640000+00:00,2024-05-11 12:26:12.640000+09:00,2024,5,11,3,26,12,640,,,,,,,,,-0.560303,0.267334,1.73291,-27.954102,13.061523,15.74707,,,,,,,,,,,0.0,1.0,1.0,0.0,0.0,0.0,0.0,4.0,0.0,-0.06743169333333333,0.12843426666666666,0.9933040266666667,1.7618814800000007,0.511881479999999,0.8463541733333332,5.4190265473295565,5.331071762561248,1.3767647384190231,0.40492958801415235,6.805536330528243,-4.065239950495625,7.93759841340533,2.0567359400751726,7.753781236514274,2.072690142731783,-0.4928713066666667,0.13889973333333336,0.7396059733333332,1.3713770133333334,0.899573374798146,0.6302772948354946,0.6365115526816968,0.6365115526816968
LBP01_S00,LBP01,-1758,68,0,67,-1758,1715397972.68,2024-05-11 03:26:12.680000+00:00,2024-05-11 12:26:12.680000+09:00,2024,5,11,3,26,12,680,,,,,,,,,-0.169678,0.288086,1.699463,-8.361816,-32.165527,2.868652,,,,,,,,,,,0.0,1.0,1.0,0.0,0.0,0.0,0.0,4.0,0.0,-0.0766244,0.12566082666666667,0.9858723866666665,2.4910481466666674,2.646484346666665,0.5517578133333332,4.167983591066364,3.9822897048775756,1.3422099462020243,0.571648931656807,6.964827918723346,-4.0115515526475445,8.057800959197333,2.120615651379921,7.834041252587776,2.0600835734797998,-0.0930536,0.16242517333333334,0.7135906133333334,0.9690693866666668,0.7377346900090617,0.6324971814557361,0.6397768151761278,0.6397768151761278
LBP01_S00,LBP01,-1757,69,0,68,-1757,1715397972.72,2024-05-11 03:26:12.720000+00:00,2024-05-11 12:26:12.720000+09:00,2024,5,11,3,26,12,720,,,,,,,,,-0.044922,0.105469,1.10791,32.409668,108.703613,-17.51709,,,,,,,,,,,0.0,1.0,1.0,0.0,0.0,0.0,0.0,4.0,0.0,-0.07475917333333335,0.12585288,0.9675032533333333,3.042805960000001,0.6990559599999989,0.5590820399999998,3.511024740903689,2.1986041680955895,1.453176355190887,0.7120899212929546,7.052772085447169,-3.953424498439909,8.116540606079333,2.1091873424253422,7.898192760478418,2.055404643861607,0.02983717333333335,-0.020383880000000007,0.14040674666666664,0.1906278,0.14498211608986564,0.6166045925572912,0.6243144808296822,0.6243144808296822
LBP01_S00,LBP01,-1756,70,0,69,-1756,1715397972.76,2024-05-11 03:26:12.760000+00:00,2024-05-11 12:26:12.760000+09:00,2024,5,11,3,26,12,760,,,,,,,,,-0.562744,0.019043,0.068604,18.493652,37.29248,-24.658203,,,,,,,,,,,0.0,1.0,1.0,0.0,0.0,0.0,0.0,4.0,0.0,-0.06649094666666666,0.12466147999999999,0.9459733066666667,2.574055960000001,-0.250651080000001,0.5273437599999998,3.6031558535531936,0.42352596818281046,1.9025419032489719,0.8562161554350823,7.0697131241744815,-3.8773228223099503,8.10848827040889,2.063339575024163,7.950581134262281,2.0565965709091016,-0.49625305333333336,-0.10561847999999999,-0.8773693066666667,1.4792408400000001,1.0135083899706574,0.6436215588485362,0.636108235652136,0.636108235652136
LBP01_S00,LBP01,-1755,71,0,70,-1755,1715397972.8,2024-05-11 03:26:12.800000+00:00,2024-05-11 12:26:12.800000+09:00,2024,5,11,3,26,12,800,,,,,,,,,-0.062744,-0.04248,0.33374,18.615723,-85.998535,10.559082,,,,,,,,,,,0.0,1.0,1.0,0.0,0.0,0.0,0.0,4.0,0.0,-0.059261133333333334,0.12294598666666667,0.9348437466666667,2.3999023200000003,-1.437174506666668,0.8276367199999999,4.5006780330046645,-0.8116354378909725,2.7431395810466572,1.036243276755269,7.037247706658842,-3.767597239068084,8.049313285574682,2.0225228308660856,7.998196050339038,2.0614676701970107,-0.0034828666666666605,-0.16542598666666666,-0.6011037466666667,0.7700126,0.6234609864951953,0.6427375032967096,0.6357362577357554,0.6357362577357554
LBP01_S00,LBP01,-1754,72,0,71,-1754,1715397972.84,2024-05-11 03:26:12.840000+00:00,2024-05-11 12:26:12.840000+09:00,2024,5,11,3,26,12,840,,,,,,,,,0.37793,0.19165,0.642578,9.765625,-94.299316,6.958008,,,,,,,,,,,0.0,1.0,1.0,0.0,0.0,0.0,0.0,4.0,0.0,-0.05768886666666667,0.12684246666666665,0.9449381466666668,1.0327148133333337,-2.6660156533333343,1.4241536399999999,6.173427803146083,-1.1255247599712026,3.8674682140181096,1.2831803888811122,6.992226716259994,-3.6128985105073594,7.974385368742559,2.000310899398516,8.048962796881185,2.0668003478217876,0.43561886666666666,0.06480753333333333,-0.3023601466666668,0.8027865466666668,0.5342148179009923,0.6458432891481308,0.6328356451690479,0.6328356451690479
LBP01_S00,LBP01,-1753,73,0,72,-1753,1715397972.88,2024-05-11 03:26:12.880000+00:00,2024-05-11 12:26:12.880000+09:00,2024,5,11,3,26,12,880,,,,,,,,,0.081055,0.080811,1.396729,-19.348145,41.870117,9.216309,,,,,,,,,,,0.0,1.0,1.0,0.0,0.0,0.0,0.0,4.0,0.0,-0.06192388,0.12455730666666667,0.9668717466666668,0.4288736666666671,-1.7626953333333344,1.6796874933333332,8.479368782642606,-0.49794896464365423,5.061748294148718,1.6223551401868164,6.972308757674248,-3.410428578741411,7.929448196686057,2.0346320760633136,8.11007180442995,2.072493226042732,0.14297888,-0.04374630666666668,0.42985725333333336,0.6165824400000001,0.4551197180042917,0.6605160001988472,0.6278990916366936,0.6278990916366936
LBP01_S00,LBP01,-1752,74,0,73,-1752,1715397972.92,2024-05-11 03:26:12.920000+00:00,2024-05-11 12:26:12.920000+09:00,2024,5,11,3,26,12,920,,,,,,,,,-0.444824,0.082275,1.847412,-31.25,0.976562,22.399902,,,,,,,,,,,0.0,1.0,1.0,0.0,0.0,0.0,0.0,4.0,0.0,-0.06487636000000001,0.12749676000000001,0.9819498666666667,0.9334309600000004,-0.39957684000000104,1.6446939999999999,11.128289448060109,0.6875521901541766,6.102380863817775,2.0674867181092207,6.999810845280415,-3.1663333441886996,7.955973859043564,2.043999491261194,8.187140203641054,2.0681320672240076,-0.37994764,-0.045221760000000014,0.8654621333333333,1.2906315333333334,0.9462715894250189,0.6522031823226325,0.6365037537390807,0.6365037537390807
LBP01_S00,LBP01,-1751,75,0,74,-1751,1715397972.96,2024-05-11 03:26:12.960000+00:00,2024-05-11 12:26:12.960000+09:00,2024,5,11,3,26,12,960,,,,,,,,,-0.06665,0.205078,1.716064,15.625,-18.554688,15.319824,,,,,,,,,,,0.0,1.0,1.0,0.0,0.0,0.0,0.0,4.0,0.0,-0.07252936,0.12663088,0.9801595066666666,1.3891601333333339,1.800130199999999,0.98876952,13.691248283405283,1.8127603293585313,6.84366631015304,2.6151366494454322,7.072321258454756,-2.892586691782578,8.076120692977627,2.093342451601656,8.28405388485995,2.0618208161852247,0.00587936,0.07844712000000001,0.7359044933333334,0.8202309733333334,0.7400972509194276,0.6540192817973778,0.6392298984017214,0.6392298984017214
LBP01_S00,LBP01,-1750,76,0,75,-1750,1715397973.0,2024-05-11 03:26:13+00:00,2024-05-11 12:26:13+09:00,2024,5,11,3,26,13,0,3.0,26.0,12.0,40.540462,141.527283,16.976999,3.0,18.0,-0.043945,0.063477,0.928467,46.325684,106.201172,5.126953,-497.0,52.0,575.0,690.0,0.0,1027.900024,32.490002,0.147656,-121.192451,4.035937,0.0,1.0,1.0,0.0,0.0,0.0,0.0,4.0,0.0,-0.07682949333333333,0.12526369333333331,0.9586360666666665,1.534830706666667,1.7333984399999989,0.3369140533333332,15.693117253938679,2.3139149057940256,7.255362366793019,3.2428613396029795,7.164877854686517,-2.6023721971108573,8.283958316696463,2.123317220122511,8.4026540832526,2.0618141001844075,0.032884493333333334,-0.06178669333333331,-0.03016906666666641,0.12484025333333305,0.07621783228612043,0.6344876973976056,0.6247936915782445,0.6247936915782445
LBP01_S00,LBP01,-1749,77,0,76,-1749,1715397973.04,2024-05-11 03:26:13.040000+00:00,2024-05-11 12:26:13.040000+09:00,2024,5,11,3,26,13,40,,,,,,,,,-0.395752,0.219971,-0.054688,62.683105,75.012207,-7.324219,,,,,,,,,,,0.0,1.0,1.0,0.0,0.0,0.0,0.0,4.0,0.0,-0.07333013333333334,0.12219077333333334,0.94130208,1.252441386666667,0.7983398533333325,0.07568357333333318,16.764538765043195,1.925999809218818,7.398304666871603,3.913442890204707,7.241917847055269,-2.3064400104359932,8.548688488892981,2.113664722284617,8.541752908976285,2.0659782545396714,-0.32242186666666667,0.09778022666666666,-0.99599008,1.4161921733333334,1.051433817360945,0.6599665015117495,0.6354596947228119,0.6354596947228119
LBP01_S00,LBP01,-1748,78,0,77,-1748,1715397973.08,2024-05-11 03:26:13.080000+00:00,2024-05-11 12:26:13.080000+09:00,2024,5,11,3,26,13,80,,,,,,,,,-0.037354,-0.076172,0.303223,3.662109,-73.974609,-2.441406,,,,,,,,,,,0.0,1.0,1.0,0.0,0.0,0.0,0.0,4.0,0.0,-0.06812832,0.12363608,0.9315657466666666,1.6088866933333337,-1.1035156133333346,0.3263346133333332,16.77339910884401,0.7440224136349791,7.359998138540287,4.584378854558468,7.271678743600669,-2.0120400848943816,8.828484951308372,2.077004063192681,8.695900307291037,2.076540700361389,0.030774320000000008,-0.19980808,-0.6283427466666666,0.8589251466666665,0.6600643414799496,0.6605358147790661,0.6360598080583519,0.6360598080583519
LBP01_S00,LBP01,-1747,79,0,78,-1747,1715397973.12,2024-05-11 03:26:13.120000+00:00,2024-05-11 12:26:13.120000+09:00,2024,5,11,3,26,13,120,,,,,,,,,0.198486,0.193115,0.522461,42.602539,-110.595703,5.371094,,,,,,,,,,,0.0,1.0,1.0,0.0,0.0,0.0,0.0,4.0,0.0,-0.06511725333333333,0.12737956,0.9429133999999999,0.25227861333333373,-1.8953450400000011,0.7356770533333332,15.854955533563222,-0.9216059994938695,7.191790882851553,5.218577075900996,7.234814503620914,-1.7243684495803193,9.085677418268324,2.0460748320375113,8.854966668796813,2.0883164671063015,0.26360325333333334,0.06573544,-0.42045239999999995,0.7497910933333333,0.5005876985161252,0.6465024878440033,0.6328342816406798,0.6328342816406798
LBP01_S00,LBP01,-1746,80,0,79,-1746,1715397973.16,2024-05-11 03:26:13.160000+00:00,2024-05-11 12:26:13.160000+09:00,2024,5,11,3,26,13,160,,,,,,,,,0.37793,0.216553,1.169922,-52.307129,-5.737305,5.004883,,,,,,,,,,,0.0,1.0,1.0,0.0,0.0,0.0,0.0,4.0,0.0,-0.06820645333333333,0.12790364,0.9674218666666667,-0.31412763999999965,-1.5340169200000011,0.8805338133333331,14.320167466022117,-2.7767162822429743,6.883632437177381,5.791383774541881,7.123745852331195,-1.4490231520932242,9.294490254335363,2.063272415015987,9.005422736208107,2.095839642600705,0.4461364533333333,0.08864935999999998,0.20250013333333317,0.7372859466666665,0.4978983310087239,0.6535393835233603,0.629696236277146,0.629696236277146
LBP01_S00,LBP01,-1745,81,0,80,-1745,1715397973.2,2024-05-11 03:26:13.200000+00:00,2024-05-11 12:26:13.200000+09:00,2024,5,11,3,26,13,200,,,,,,,,,-0.231934,0.297363,1.55249,-8.850098,31.311035,18.432617,,,,,,,,,,,0.0,1.0,1.0,0.0,0.0,0.0,0.0,4.0,0.0,-0.07049485333333334,0.13193358666666666,0.9842578133333334,-0.9472656533333331,-0.41422525333333443,0.6404621999999999,12.49879246750583,-4.68339774320859,6.386339844880698,6.291335473242114,6.936409942602852,-1.1935695582979964,9.44030154281154,2.0641643744187275,9.133293038310182,2.094575714277878,-0.16143914666666664,0.16542941333333333,0.5682321866666665,0.8951007466666665,0.6134470693028484,0.635717371433209,0.6293269370277301,0.6293269370277301
LBP01_S00,LBP01,-1744,82,0,81,-1744,1715397973.24,2024-05-11 03:26:13.240000+00:00,2024-05-11 12:26:13.240000+09:00,2024,5,11,3,26,13,240,,,,,,,,,-0.189697,0.162354,1.684814,25.20752,-19.836426,21.606445,,,,,,,,,,,0.0,1.0,1.0,0.0,0.0,0.0,0.0,4.0,0.0,-0.07658209333333334,0.12989582666666666,0.9909668000000001,-0.5493164399999997,2.329915359999999,0.3995767866666666,10.610837151401556,-6.611722064246106,5.662429540591638,6.715768959298177,6.671941060033008,-0.9670723766743309,9.515859351890077,2.1059353576156936,9.227656206361358,2.0877318529991014,-0.11311490666666667,0.03245817333333334,0.6938471999999999,0.8394202799999999,0.7037559605958483,0.6383600789248202,0.6309809153292439,0.6309809153292439
LBP01_S00,LBP01,-1743,83,0,82,-1743,1715397973.28,2024-05-11 03:26:13.280000+00:00,2024-05-11 12:26:13.280000+09:00,2024,5,11,3,26,13,280,,,,,,,,,0.063232,0.322266,1.184082,34.790039,62.072754,0.976562,,,,,,,,,,,0.0,1.0,1.0,0.0,0.0,0.0,0.0,4.0,0.0,-0.08554042666666667,0.13077473333333334,0.9733951866666666,-0.01627607999999962,2.3087565066666658,-0.20670576000000013,8.731334272700057,-8.461340660454518,4.732573284469925,7.065022330206179,6.3334874336148275,-0.7777694452955338,9.52011181174382,2.1523897435124355,9.283075896885544,2.0842035554252942,0.14877242666666668,0.19149126666666666,0.2106868133333335,0.5509505066666669,0.321233674228665,0.6316739765974934,0.6242472796531444,0.6242472796531444
LBP01_S00,LBP01,-1742,84,0,83,-1742,1715397973.32,2024-05-11 03:26:13.320000+00:00,2024-05-11 12:26:13.320000+09:00,2024,5,11,3,26,13,320,,,,,,,,,-0.304688,0.244629,-0.01001,30.456543,95.275879,-18.005371,,,,,,,,,,,0.0,1.0,1.0,0.0,0.0,0.0,0.0,4.0,0.0,-0.07853197333333334,0.12927407999999999,0.95619792,1.3085937200000004,0.3645833199999989,-0.3157552400000001,6.843724426899273,-9.913824313254619,3.6930743251473244,7.338771307282149,5.936934461084642,-0.6300464722896408,9.460534533156505,2.11923124620523,9.300011851141152,2.082766583018524,-0.22615602666666668,0.11535492000000003,-0.96620792,1.3077188666666668,0.9990050303359772,0.6502548945622979,0.6322208488166089,0.6322208488166089
LBP01_S00,LBP01,-1741,85,0,84,-1741,1715397973.36,2024-05-11 03:26:13.360000+00:00,2024-05-11 12:26:13.360000+09:00,2024,5,11,3,26,13,360,,,,,,,,,-0.055908,-0.150879,0.270996,-30.517578,-73.974609,4.760742,,,,,,,,,,,0.0,1.0,1.0,0.0,0.0,0.0,0.0,4.0,0.0,-0.07158536,0.12881510666666668,0.9480110666666667,0.6738280933333335,-0.9358724000000008,-0.2384440400000001,4.923573983403773,-10.462058300480797,2.7026151667825626,7.5357142666183,5.518452129065411,-0.5219418656183383,9.354823713998373,2.0807031683733874,9.283497027068323,2.089031800099259,0.01567736,-0.2796941066666667,-0.6770150666666667,0.9723865333333334,0.7326827235675107,0.6425166531470132,0.634313804540586,0.634313804540586
LBP01_S00,LBP01,-1740,86,0,85,-1740,1715397973.4,2024-05-11 03:26:13.400000+00:00,2024-05-11 12:26:13.400000+09:00,2024,5,11,3,26,13,400,,,,,,,,,0.224609,0.080322,0.520752,21.789551,-120.666504,6.591797,,,,,,,,,,,0.0,1.0,1.0,0.0,0.0,0.0,0.0,4.0,0.0,-0.06852546666666666,0.13121418666666665,0.95299804,-0.11637371999999971,-1.5625000000000007,-0.02115888000000011,2.994686628445933,-9.64342988658397,1.953846271737937,7.655501731756138,5.132714933602052,-0.44378801474882085,9.227589997208232,2.0548786073347434,9.24105952348704,2.096131630448254,0.29313446666666665,-0.050892186666666644,-0.43224604,0.7762726933333333,0.5247422884686801,0.63009189170262,0.6320776511513634,0.6320776511513634
LBP01_S00,LBP01,-1739,87,0,86,-1739,1715397973.44,2024-05-11 03:26:13.440000+00:00,2024-05-11 12:26:13.440000+09:00,2024,5,11,3,26,13,440,,,,,,,,,0.438232,0.078613,0.954834,-8.239746,-47.668457,13.671875,,,,,,,,,,,0.0,1.0,1.0,0.0,0.0,0.0,0.0,4.0,0.0,-0.07080736,0.12805662666666665,0.9793489466666667,-1.6617838799999995,-2.191569013333334,0.3035481466666666,1.137599714611244,-7.3476294037353,1.6424015340462563,7.7010057203405875,4.83880975745264,-0.3780919533869706,9.102885394134834,2.078381746546547,9.180772660582097,2.1027867910540645,0.50903936,-0.04944362666666664,-0.02451494666666676,0.5829979333333335,0.5120221917624586,0.6353778540917242,0.6296765419635854,0.6296765419635854
LBP01_S00,LBP01,-1738,88,0,87,-1738,1715397973.48,2024-05-11 03:26:13.480000+00:00,2024-05-11 12:26:13.480000+09:00,2024,5,11,3,26,13,480,,,,,,,,,-0.024658,0.322754,1.27124,-6.103516,28.503418,7.873535,,,,,,,,,,,0.0,1.0,1.0,0.0,0.0,0.0,0.0,4.0,0.0,-0.07060228,0.13261066666666668,0.9967838400000001,-1.798502626666666,-0.8707682266666673,0.2303059599999999,-0.5365956489676007,-3.9891907910182822,1.930042016254557,7.679541894381884,4.679242125811909,-0.3008902727367883,8.997844493864452,2.0626343391249744,9.109842873020744,2.099850106413494,0.045944280000000004,0.1901433333333333,0.27445615999999984,0.5105437733333331,0.3370334521049431,0.6071114031081002,0.6273580084996907,0.6239384421624354
LBP01_S00,LBP01,-1737,89,0,88,-1737,1715397973.52,2024-05-11 03:26:13.520000+00:00,2024-05-11 12:26:13.520000+09:00,2024,5,11,3,26,13,520,,,,,,,,,-0.190674,0.087158,1.706543,-0.610352,-10.437012,9.58252,,,,,,,,,,,0.0,1.0,1.0,0.0,0.0,0.0,0.0,4.0,0.0,-0.07644212,0.12880531999999997,1.0019433333333332,-1.2947591333333328,2.244466146666666,-0.2213541866666668,-1.9263669817153493,-0.40565812124526135,2.8913422651118554,7.602487215113269,4.663015800962098,-0.1852365821323141,8.920529177540027,2.108727002844866,9.033558606078989,2.0909041229552683,-0.11423188000000001,-0.041647319999999974,0.7045996666666667,0.8604788666666667,0.7150133648669056,0.6087282632374557,0.6266408609172505,0.6256898829836752
LBP01_S00,LBP01,-1736,90,0,89,-1736,1715397973.56,2024-05-11 03:26:13.560000+00:00,2024-05-11 12:26:13.560000+09:00,2024,5,11,3,26,13,560,,,,,,,,,0.009521,0.128662,1.432617,10.986328,50.90332,-9.521484,,,,,,,,,,,0.0,1.0,1.0,0.0,0.0,0.0,0.0,4.0,0.0,-0.08278001333333333,0.13172849333333334,0.9822363066666666,-0.5468750266666664,1.9099934933333322,-0.4451497600000001,-2.9813773776708676,2.4837463265313957,4.446514600712273,7.483232120006435,4.762365654023354,-0.007375998103823139,8.870115218522548,2.134270718505931,8.954137822886803,2.089606256494296,0.09230101333333333,-0.0030664933333333366,0.4503806933333334,0.5457482000000001,0.45975172579462675,0.6123952660515326,0.6278152589778127,0.6225589743574668
LBP01_S00,LBP01,-1735,91,0,90,-1735,1715397973.6,2024-05-11 03:26:13.600000+00:00,2024-05-11 12:26:13.600000+09:00,2024,5,11,3,26,13,600,,,,,,,,,-0.140625,0.098145,0.544922,50.78125,129.699707,-29.11377,,,,,,,,,,,0.0,1.0,1.0,0.0,0.0,0.0,0.0,4.0,0.0,-0.07820318666666666,0.12539385333333333,0.9666829199999999,-0.41585289333333314,0.2579752666666659,-0.26204429333333346,-3.7424924834348694,4.075729283462423,6.308560841061477,7.33353242066904,4.925394825361851,0.24496643553863598,8.8374329137621,2.130715980476838,8.869555562796197,2.0878081817570133,-0.06242181333333334,-0.027248853333333337,-0.4217609199999999,0.5114315866666665,0.4272250653075605,0.6090831000240218,0.6245642867408002,0.6189416797454315
LBP01_S00,LBP01,-1734,92,0,91,-1734,1715397973.64,2024-05-11 03:26:13.640000+00:00,2024-05-11 12:26:13.640000+09:00,2024,5,11,3,26,13,640,,,,,,,,,-0.238281,-0.287842,0.281982,-132.019043,-25.45166,3.417969,,,,,,,,,,,0.0,1.0,1.0,0.0,0.0,0.0,0.0,4.0,0.0,-0.06854824000000001,0.12450191999999999,0.9539452933333333,-1.0205078399999998,-0.5110677066666675,-0.1261393466666668,-4.374644671077609,4.320989593639478,7.990127894772603,7.158546633825936,5.098234409107429,0.5645715513295401,8.806561476276553,2.076568511209992,8.77339268424181,2.0923141316636,-0.16973275999999998,-0.41234392,-0.6719632933333333,1.2540399733333332,0.8064560656139697,0.6053584076566547,0.6178178512460747,0.6223510322157686
LBP01_S00,LBP01,-1733,93,0,92,-1733,1715397973.68,2024-05-11 03:26:13.680000+00:00,2024-05-11 12:26:13.680000+09:00,2024,5,11,3,26,13,680,,,,,,,,,0.119629,-0.143555,0.69458,27.34375,-76.782227,16.418457,,,,,,,,,,,0.0,1.0,1.0,0.0,0.0,0.0,0.0,4.0,0.0,-0.06692063999999999,0.12558916,0.9542577999999999,-1.273600293333333,-1.0164388000000009,0.3442382533333332,-5.169043123043442,3.6803538880568487,8.903622276625303,6.951784908904198,5.2454485646297035,0.9207164423945522,8.757269142326257,2.0629299089301725,8.656807135703612,2.1019311951442425,0.18654964,-0.26914415999999997,-0.25967779999999996,0.7153715999999999,0.41793768298524503,0.592566527375702,0.612531854415719,0.6187007938366521
LBP01_S00,LBP01,-1732,94,0,93,-1732,1715397973.72,2024-05-11 03:26:13.720000+00:00,2024-05-11 12:26:13.720000+09:00,2024,5,11,3,26,13,720,,,,,,,,,0.379883,0.316895,0.804199,24.658203,-63.476562,33.630371,,,,,,,,,,,0.0,1.0,1.0,0.0,0.0,0.0,0.0,4.0,0.0,-0.06944668,0.11760088,0.9813508933333335,-1.8269857066666664,-2.2591145866666675,0.9334309599999998,-6.479699843867402,2.842717252805293,8.543522514310563,6.692596915149502,5.359157254741915,1.2624573429669748,8.666326701234656,2.106252581595506,8.512374261437419,2.1087931671588716,0.44932968,0.19929411999999996,-0.17715189333333348,0.8257756933333334,0.5224922017667456,0.6076669308027772,0.6121357616800343,0.617012923800338
LBP01_S00,LBP01,-1731,95,0,94,-1731,1715397973.76,2024-05-11 03:26:13.760000+00:00,2024-05-11 12:26:13.760000+09:00,2024,5,11,3,26,13,760,,,,,,,,,-0.009277,0.275146,1.377441,-22.094727,58.532715,23.498535,,,,,,,,,,,0.0,1.0,1.0,0.0,0.0,0.0,0.0,4.0,0.0,-0.06824225333333334,0.12809893333333333,0.9956379999999999,-0.7104492533333333,-1.518554693333334,0.7682291333333332,-8.586068071447302,2.3816633647820673,6.686132618559552,6.34915419229161,5.454423789333198,1.529902647709357,8.509001113092308,2.0627224210005646,8.337804248460916,2.1085782012781062,0.058965253333333335,0.14704706666666667,0.381803,0.58781532,0.4133682035727171,0.5836613233468597,0.6136414410976979,0.6135018079343445
LBP01_S00,LBP01,-1730,96,0,95,-1730,1715397973.8,2024-05-11 03:26:13.800000+00:00,2024-05-11 12:26:13.800000+09:00,2024,5,11,3,26,13,800,,,,,,,,,-0.533447,-0.040771,1.880615,-12.573242,-22.338867,23.681641,,,,,,,,,,,0.0,1.0,1.0,0.0,0.0,0.0,0.0,4.0,0.0,-0.0737696,0.12682289333333333,0.9966796666666669,-1.2532552399999997,1.341145826666666,0.3833007466666665,-11.528405349433722,2.5336888973158964,3.51638207125337,5.888017978314261,5.555771345225834,1.6705579305594918,8.265961211664354,2.099938106400607,8.136837116237917,2.1062514537904633,-0.4596774,-0.16759389333333333,0.8839353333333331,1.5112066266666664,1.0103131686108497,0.5991354106314859,0.6209364569640977,0.6202274242169972
LBP01_S00,LBP01,-1729,97,0,96,-1729,1715397973.84,2024-05-11 03:26:13.840000+00:00,2024-05-11 12:26:13.840000+09:00,2024,5,11,3,26,13,840,,,,,,,,,-0.021973,0.351074,1.584229,32.775879,-11.779785,1.953125,,,,,,,,,,,0.0,1.0,1.0,0.0,0.0,0.0,0.0,4.0,0.0,-0.08304369333333333,0.12089190666666667,0.9791536266666666,-0.10904952,1.0644531199999994,0.16927079999999986,-14.996991446416379,3.172157982189285,-0.3858234266072532,5.288138320457606,5.682657664513405,1.6551249934952017,7.937029908752872,2.1745523813529712,7.9159445263928685,2.1059737395077516,0.061070693333333335,0.23018209333333334,0.6050753733333335,0.8963281600000002,0.6502535144772401,0.6037769584945357,0.6248101238213333,0.6207278590546679
LBP01_S00,LBP01,-1728,98,0,97,-1728,1715397973.88,2024-05-11 03:26:13.880000+00:00,2024-05-11 12:26:13.880000+09:00,2024,5,11,3,26,13,880,,,,,,,,,-0.117188,0.126709,0.786377,34.606934,116.943359,-37.536621,,,,,,,,,,,0.0,1.0,1.0,0.0,0.0,0.0,0.0,4.0,0.0,-0.0747364,0.11964516000000001,0.95945636,0.28157548,-0.734863293333334,0.10172522666666647,-18.346398857227314,3.9285897033968684,-4.205943854597439,4.554282366168514,5.83980125264928,1.4868872393113042,7.553515751202506,2.1312540592712677,7.678776995592746,2.1104933519517943,-0.042451600000000006,0.007063839999999974,-0.17307936000000002,0.22259479999999998,0.17834937913016463,0.5927061449395706,0.6266110725692089,0.6134757528263972
LBP01_S00,LBP01,-1727,99,0,98,-1727,1715397973.92,2024-05-11 03:26:13.920000+00:00,2024-05-11 12:26:13.920000+09:00,2024,5,11,3,26,13,920,,,,,,,,,-0.36377,-0.068848,-0.056152,-110.900879,-2.624512,-41.137695,,,,,,,,,,,0.0,1.0,1.0,0.0,0.0,0.0,0.0,4.0,0.0,-0.06664396,0.11276363999999998,0.94759764,-0.42399092,-0.923665373333334,-0.00813805333333354,-20.761544248182794,4.355026151573222,-7.139819448824413,3.723820596241202,6.014002298712208,1.2012944613583276,7.174829047775013,2.106577344037214,7.4226644812308695,2.117718575342524,-0.29712604,-0.18161164,-1.00374964,1.4824873200000002,1.0624405918589994,0.5973529050369298,0.6247780436797813,0.6207171211978909
LBP01_S00,LBP01,-1726,100,0,99,-1726,1715397973.96,2024-05-11 03:26:13.960000+00:00,2024-05-11 12:26:13.960000+09:00,2024,5,11,3,26,13,960,,,,,,,,,0.059814,-0.1604,0.568115,-19.65332,-87.280273,-1.586914,,,,,,,,,,,0.0,1.0,1.0,0.0,0.0,0.0,0.0,4.0,0.0,-0.06640306666666668,0.11121090666666665,0.9490006266666665,-0.7389323200000001,-1.3248698000000005,0.1879882399999998,-21.534001191823894,4.041115259959907,-8.622735835735444,2.8624605485682464,6.175646909110605,0.8563850279289098,6.860443896292557,2.1110032436295025,7.139868350322262,2.125459411203564,0.12621706666666668,-0.27161090666666665,-0.3808856266666665,0.7787135999999998,0.4845380203239842,0.5871305358131121,0.620574908805245,0.6185555481681463
LBP01_S00,LBP01,-1725,101,0,100,-1725,1715397974.0,2024-05-11 03:26:14+00:00,2024-05-11 12:26:14+09:00,2024,5,11,3,26,14,0,3.0,26.0,13.0,40.540482,141.5271,16.77,3.0,18.0,0.415283,0.209229,0.977295,-52.062988,-34.057617,-0.305176,-493.0,55.0,573.0,761.0,0.0,1028.699951,32.540001,0.155583,-127.769485,4.035937,0.0,1.0,1.0,0.0,0.0,0.0,0.0,6.0,0.0,-0.06785814666666667,0.10934566666666666,0.9732193733333332,-1.64388024,-2.618815106666667,0.5818684533333331,-20.338800205592243,2.672972878180045,-8.456689026916688,2.0489085403445566,6.282565824237807,0.5181174668522422,6.628507015311602,2.1279388376497175,6.822646241002429,2.133175142943709,0.4831411466666667,0.09988333333333334,0.004075626666666832,0.5871001066666669,0.49337476487238924,0.6038168131165629,0.6191522552570842,0.6165995984291501
LBP01_S00,LBP01,-1724,102,0,101,-1724,1715397974.04,2024-05-11 03:26:14.040000+00:00,2024-05-11 12:26:14.040000+09:00,2024,5,11,3,26,14,40,,,,,,,,,-0.194336,0.311523,1.457764,-23.986816,60.60791,5.859375,,,,,,,,,,,0.0,1.0,1.0,0.0,0.0,0.0,0.0,6.0,0.0,-0.06980476000000001,0.11407549333333333,0.9904719866666667,-1.2622070533333334,-1.4322916666666672,0.6144205466666665,-17.38267167096381,0.08848623820104533,-6.808681464398009,1.3536016735060041,6.286105273765848,0.2457702082763219,6.434886168275337,2.121764635650421,6.469001935314236,2.1348267210241714,-0.12453124,0.19744750666666666,0.46729201333333337,0.78927076,0.522355600477243,0.5826536844412149,0.6213100929764821,0.6151496907683516
LBP01_S00,LBP01,-1723,103,0,102,-1723,1715397974.08,2024-05-11 03:26:14.080000+00:00,2024-05-11 12:26:14.080000+09:00,2024,5,11,3,26,14,80,,,,,,,,,-0.4375,-0.116699,1.885742,-18.127441,-19.592285,7.995605,,,,,,,,,,,0.0,1.0,1.0,0.0,0.0,0.0,0.0,6.0,0.0,-0.07376309333333333,0.11700192,0.9900064933333335,-0.8154297066666667,1.1352539066666663,0.3312174133333331,-13.348877958105225,-3.6237488019872237,-4.114585864901282,0.8196465551817951,6.14115532168636,0.08118677368027061,6.196143998707478,2.1351821428374675,6.085882138634752,2.1303828730527257,-0.3637369066666667,-0.23370091999999998,0.8957355066666666,1.4931733333333332,0.9946168886479214,0.5960357863279336,0.6282858005534998,0.6208991937665269
LBP01_S00,LBP01,-1722,104,0,103,-1722,1715397974.12,2024-05-11 03:26:14.120000+00:00,2024-05-11 12:26:14.120000+09:00,2024,5,11,3,26,14,120,,,,,,,,,-0.045654,0.185547,1.412842,17.089844,26.245117,-4.882812,,,,,,,,,,,0.0,1.0,1.0,0.0,0.0,0.0,0.0,6.0,0.0,-0.07909838666666667,0.1128678,0.9717187333333334,-0.4850260533333333,0.14567057333333294,-0.07975264000000026,-9.158704342731546,-8.014355196143882,-0.9495863605738082,0.4532983814725332,5.820581113840604,0.04320331925731828,5.838365392148593,2.1836609402059075,5.6878681218500615,2.1282994756666893,0.03344438666666667,0.07267919999999999,0.44112326666666657,0.5472468533333332,0.44831967334349776,0.5939450653210286,0.620223776582516,0.6183233800288698
LBP01_S00,LBP01,-1721,105,0,104,-1721,1715397974.16,2024-05-11 03:26:14.160000+00:00,2024-05-11 12:26:14.160000+09:00,2024,5,11,3,26,14,160,,,,,,,,,-0.155762,0.121826,0.331055,59.997559,101.074219,-10.009766,,,,,,,,,,,0.0,1.0,1.0,0.0,0.0,0.0,0.0,6.0,0.0,-0.06997729333333333,0.10982091999999999,0.9555305866666667,0.32877603999999994,-1.6194661333333336,-0.28157554666666695,-5.652704381152928,-12.253631070358438,2.088021322693624,0.22719020622641609,5.330435871026267,0.12672417216506326,5.336780019893989,2.139879738402012,5.2917598426560675,2.1271005348345855,-0.08578470666666668,0.012005080000000015,-0.6244755866666667,0.7222653733333334,0.6304545155571256,0.5992473127029647,0.6263933481131625,0.6185017790807558
LBP01_S00,LBP01,-1720,106,0,105,-1720,1715397974.2,2024-05-11 03:26:14.200000+00:00,2024-05-11 12:26:14.200000+09:00,2024,5,11,3,26,14,200,,,,,,,,,-0.008301,0.14624,0.202881,1.586914,-73.181152,1.403809,,,,,,,,,,,0.0,1.0,1.0,0.0,0.0,0.0,0.0,6.0,0.0,-0.062190826666666664,0.10281245333333332,0.9461881333333334,-0.49723308000000005,-1.9897460800000002,-0.11474612000000027,-3.3298666203261127,-15.292991754511625,4.465056512590964,0.09399554141337157,4.718716200845802,0.30532643266870185,4.729518154782411,2.116453887205231,4.91080628366217,2.1276040272177843,0.05388982666666667,0.04342754666666669,-0.7433071333333334,0.8406245066666668,0.7465223102438847,0.6045703223406061,0.6201438468869075,0.6203571490976127
LBP01_S00,LBP01,-1719,107,0,106,-1719,1715397974.24,2024-05-11 03:26:14.240000+00:00,2024-05-11 12:26:14.240000+09:00,2024,5,11,3,26,14,240,,,,,,,,,0.091064,0.046387,0.315918,-43.273926,-105.773926,-0.427246,,,,,,,,,,,0.0,1.0,1.0,0.0,0.0,0.0,0.0,6.0,0.0,-0.06335618666666668,0.1015592,0.94996092,-0.1904296933333334,-3.0281575333333333,0.29378253333333304,-2.251918241040748,-16.202580753007275,5.78209684663032,0.003918811771741651,4.070612970725511,0.5366103065339146,4.105831941958035,2.1301139016385133,4.5539800720070875,2.132879177341993,0.15442018666666668,-0.055172200000000005,-0.63404292,0.8436353066666666,0.6549045656468846,0.6026162665426475,0.6204881727337339,0.6208506836197452
LBP01_S00,LBP01,-1718,108,0,107,-1718,1715397974.28,2024-05-11 03:26:14.280000+00:00,2024-05-11 12:26:14.280000+09:00,2024,5,11,3,26,14,280,,,,,,,,,0.432617,0.122559,0.819092,-2.502441,-79.833984,16.540527,,,,,,,,,,,0.0,1.0,1.0,0.0,0.0,0.0,0.0,6.0,0.0,-0.06121426666666667,0.10257157333333333,0.9730305733333334,0.4467773466666667,-3.8370768000000006,0.8780924266666663,-2.1327501089510488,-14.552612593507801,5.831449997702847,-0.0813911925863003,3.4885084669851993,0.7698683064420285,3.5733755833555985,2.1104200854109108,4.230597830104697,2.1351411146074133,0.49383126666666666,0.01998742666666667,-0.15393857333333338,0.6677572666666667,0.5176542296960992,0.610473088761345,0.6210735326794192,0.619397212437722
LBP01_S00,LBP01,-1717,109,0,108,-1717,1715397974.32,2024-05-11 03:26:14.320000+00:00,2024-05-11 12:26:14.320000+09:00,2024,5,11,3,26,14,320,,,,,,,,,0.031982,0.318359,1.252441,-30.700684,29.846191,20.812988,,,,,,,,,,,0.0,1.0,1.0,0.0,0.0,0.0,0.0,6.0,0.0,-0.06154956000000001,0.10697261333333333,0.9907389066666668,-0.004882813333333331,-2.2078450266666674,0.5981445066666663,-2.5395937767463157,-10.637633133744403,4.637085500048659,-0.1829749436561529,3.063003141635423,0.9553517264439749,3.2137462558350696,2.094587935716172,3.9541397868578514,2.130367027351277,0.09353156000000001,0.21138638666666668,0.26170209333333316,0.5666200399999999,0.3491709364180698,0.5844797250046286,0.6173673097834633,0.6156440697152268
LBP01_S00,LBP01,-1716,110,0,109,-1716,1715397974.36,2024-05-11 03:26:14.360000+00:00,2024-05-11 12:26:14.360000+09:00,2024,5,11,3,26,14,360,,,,,,,,,-0.415771,-0.044434,1.763428,-19.53125,1.525879,9.82666,,,,,,,,,,,0.0,1.0,1.0,0.0,0.0,0.0,0.0,6.0,0.0,-0.06641610666666665,0.10991533333333332,0.9941992,-0.12695312,0.7470703333333332,0.05777991999999974,-3.0917579111192843,-5.4057180321829055,2.4539836277487797,-0.3066452601009243,2.846774420348107,1.0535110715539262,3.0509083063535956,2.1160381674614905,3.7411412153542933,2.121436035440882,-0.34935489333333336,-0.15434933333333334,0.7692288,1.2729330266666667,0.858827983327179,0.5895255353950154,0.6160210942710143,0.6189753562030618
LBP01_S00,LBP01,-1715,111,0,110,-1715,1715397974.4,2024-05-11 03:26:14.400000+00:00,2024-05-11 12:26:14.400000+09:00,2024,5,11,3,26,14,400,,,,,,,,,-0.124756,0.253174,1.602295,17.578125,4.516602,2.441406,,,,,,,,,,,0.0,1.0,1.0,0.0,0.0,0.0,0.0,6.0,0.0,-0.0731902,0.10505204000000001,0.9772590933333334,-0.3377278533333333,0.44840497333333323,-0.9073893600000003,-3.5705405886498047,-0.11597607016043313,-0.2928053857392963,-0.4494668836469165,2.8421353775416898,1.0417988561243543,3.060244898760772,2.180690338891803,3.6065077941755193,2.117003905791495,-0.05156580000000001,0.14812196,0.6250359066666666,0.8247236666666666,0.644413711358242,0.594312392310598,0.6122021420066089,0.6193191177592129
LBP01_S00,LBP01,-1714,112,0,111,-1714,1715397974.44,2024-05-11 03:26:14.440000+00:00,2024-05-11 12:26:14.440000+09:00,2024,5,11,3,26,14,440,,,,,,,,,-0.074463,0.062256,0.973389,20.629883,111.633301,-26.245117,,,,,,,,,,,0.0,1.0,1.0,0.0,0.0,0.0,0.0,6.0,0.0,-0.06708669333333334,0.10420244,0.9546386533333333,0.34179688,-1.0847981466666667,-1.308593786666667,-3.9196159400540282,4.107600988465464,-3.12404413155474,-0.6062515212490777,3.0064394170803084,0.9168370908621647,3.2010637492514267,2.1443840083046246,3.558212000263228,2.110407781883575,-0.0073763066666666655,-0.041946439999999995,0.01875034666666664,0.0680730933333333,0.046534817382627464,0.5756928973354046,0.6055353757135644,0.6116819937541917
LBP01_S00,LBP01,-1713,113,0,112,-1713,1715397974.48,2024-05-11 03:26:14.480000+00:00,2024-05-11 12:26:14.480000+09:00,2024,5,11,3,26,14,480,,,,,,,,,-0.35376,0.188965,-0.17041,-14.404297,51.391602,-36.193848,,,,,,,,,,,0.0,1.0,1.0,0.0,0.0,0.0,0.0,6.0,0.0,-0.059231879999999994,0.10469724,0.9401204266666665,-0.9822591066666666,-2.1972655866666666,-1.2255859733333336,-4.175215408893063,6.615275461879003,-5.637873490775519,-0.7732601376048002,3.2710504355554684,0.6913221512311439,3.431563566239021,2.087441270276106,3.5936163841617335,2.10745158731419,-0.29452812,0.08426776,-1.1105304266666665,1.4893263066666664,1.1520094172352064,0.6082919359406151,0.6077016695243578,0.6210026509799988
LBP01_S00,LBP01,-1712,114,0,113,-1712,1715397974.52,2024-05-11 03:26:14.520000+00:00,2024-05-11 12:26:14.520000+09:00,2024,5,11,3,26,14,520,,,,,,,,,-0.047607,-0.162354,0.438721,-2.441406,-86.425781,-1.77002,,,,,,,,,,,0.0,1.0,1.0,0.0,0.0,0.0,0.0,6.0,0.0,-0.058473426666666675,0.1016764,0.9486653466666667,-2.258300773333333,-2.958170533333333,-0.8634440400000002,-4.389402620933981,7.32261283980069,-7.6001198536269765,-0.9488362424421595,3.563954949147496,0.38731735708606485,3.708379677113014,2.0943510211019545,3.6992309322626484,2.1131756836389575,0.010866426666666679,-0.2640304,-0.5099443466666667,0.7848411733333334,0.5743460351129409,0.6026652427504565,0.6056967529939561,0.6186489881949859
LBP01_S00,LBP01,-1711,115,0,114,-1711,1715397974.56,2024-05-11 03:26:14.560000+00:00,2024-05-11 12:26:14.560000+09:00,2024,5,11,3,26,14,560,,,,,,,,,0.353271,0.19873,0.67749,26.184082,-93.62793,15.258789,,,,,,,,,,,0.0,1.0,1.0,0.0,0.0,0.0,0.0,6.0,0.0,-0.05796886666666667,0.10049150666666666,0.9713053333333332,-3.5782877466666667,-3.6311848533333335,-0.2986653866666669,-4.593459558967752,6.557029143957844,-8.954210865720997,-1.1325746248008697,3.82623611490581,0.029148922457224946,3.9904458081062515,2.0955584419081466,3.8549909518914225,2.1179140658761533,0.4112398666666667,0.09823849333333333,-0.2938153333333332,0.8032936933333332,0.514875207803016,0.6048701820307921,0.6086327240411624,0.6201668999954725
LBP01_S00,LBP01,-1710,116,0,115,-1710,1715397974.6,2024-05-11 03:26:14.600000+00:00,2024-05-11 12:26:14.600000+09:00,2024,5,11,3,26,14,600,,,,,,,,,0.047119,0.332275,1.276123,-28.076172,51.879883,2.13623,,,,,,,,,,,0.0,1.0,1.0,0.0,0.0,0.0,0.0,6.0,0.0,-0.05517914666666667,0.10652016,0.9840299333333333,-2.6074218533333333,-2.4503580400000002,-0.008951853333333587,-4.812109852096112,4.802565751426013,-9.758050016714712,-1.3250590188847142,4.0183387449628505,-0.3611730782113636,4.246560215659494,2.0504926481260277,4.041485061373658,2.1144585023614586,0.10229814666666667,0.22575483999999998,0.29209306666666657,0.6201460533333332,0.38307769210644227,0.6031042871027474,0.6060936935633846,0.6174109535281159
LBP01_S00,LBP01,-1709,117,0,116,-1709,1715397974.64,2024-05-11 03:26:14.640000+00:00,2024-05-11 12:26:14.640000+09:00,2024,5,11,3,26,14,640,,,,,,,,,-0.57959,0.127441,1.710938,-45.227051,11.901855,-10.742188,,,,,,,,,,,0.0,1.0,1.0,0.0,0.0,0.0,0.0,6.0,0.0,-0.05993825333333334,0.10272133333333333,0.9840169066666665,-2.80761716,0.4052734666666667,-0.36214196000000026,-5.104630831688826,2.5179624201015,-10.096431816422122,-1.5292442521522673,4.11905724176691,-0.7650303508682484,4.459875780943094,2.1005519559446624,4.2453748977308745,2.106068477165297,-0.5196517466666667,0.024719666666666668,0.7269210933333335,1.271292506666667,0.8939033928041429,0.6066021801903543,0.6059802939235045,0.6140792942275012
LBP01_S00,LBP01,-1708,118,0,117,-1708,1715397974.68,2024-05-11 03:26:14.680000+00:00,2024-05-11 12:26:14.680000+09:00,2024,5,11,3,26,14,680,,,,,,,,,-0.144775,0.283447,1.5896,-16.479492,-12.207031,-10.192871,,,,,,,,,,,0.0,1.0,1.0,0.0,0.0,0.0,0.0,6.0,0.0,-0.06834319999999999,0.10086586666666666,0.9675520666666667,-0.7625325199999999,0.1416016,-0.5053711333333336,-5.58730000169659,0.10432562357185074,-10.022065795902439,-1.752736252220131,4.123230266709784,-1.165912982704346,4.629521064364742,2.1676610486585863,4.459995257668941,2.10320584422841,-0.0764318,0.18258113333333334,0.6220479333333332,0.8810608666666665,0.6527796884591274,0.6159958604093095,0.6042811938925059,0.6136865230802493
LBP01_S00,LBP01,-1707,119,0,118,-1707,1715397974.72,2024-05-11 03:26:14.720000+00:00,2024-05-11 12:26:14.720000+09:00,2024,5,11,3,26,14,720,,,,,,,,,-0.13916,-0.011963,1.128174,23.132324,109.924316,-16.479492,,,,,,,,,,,0.0,1.0,1.0,0.0,0.0,0.0,0.0,6.0,0.0,-0.06401050666666666,0.09993162666666665,0.9481412666666665,-0.5688476133333332,-1.5348306933333333,-0.7104492533333335,-6.397083346645168,-2.0378985239296448,-9.547617941677142,-2.008619586085938,4.041714325752599,-1.5478177003714317,4.7713464521228115,2.141971758088132,4.6830500748346635,2.1049944274203534,-0.07514949333333334,-0.11189462666666665,0.18003273333333347,0.36707685333333345,0.22489917495758088,0.6040921393369431,0.6058795350698601,0.6094545542323372
LBP01_S00,LBP01,-1706,120,0,119,-1706,1715397974.76,2024-05-11 03:26:14.760000+00:00,2024-05-11 12:26:14.760000+09:00,2024,5,11,3,26,14,760,,,,,,,,,-0.518311,0.102783,-0.090332,11.84082,18.615723,-30.456543,,,,,,,,,,,0.0,1.0,1.0,0.0,0.0,0.0,0.0,6.0,0.0,-0.05540373333333334,0.09927081333333332,0.9352376266666668,-0.7495116799999999,-2.46744788,-0.450846386666667,-7.598097544965722,-3.4866931128777767,-8.674045394421555,-2.3125434878845668,3.9022466012374877,-1.8947795161482939,4.915849401175956,2.081482532314543,4.914049041544669,2.10677472937469,-0.46290726666666665,0.0035121866666666807,-1.0255696266666667,1.4919890800000002,1.125205995420035,0.6325656510108357,0.6081134871788477,0.6199495110687439
LBP01_S00,LBP01,-1705,121,0,120,-1705,1715397974.8,2024-05-11 03:26:14.800000+00:00,2024-05-11 12:26:14.800000+09:00,2024,5,11,3,26,14,800,,,,,,,,,0.13623,0.090088,0.294678,22.949219,-110.839844,-2.624512,,,,,,,,,,,0.0,1.0,1.0,0.0,0.0,0.0,0.0,6.0,0.0,-0.05630542666666667,0.09733070666666667,0.9400651066666668,-2.3177082933333333,-2.4283853866666663,0.1310221066666663,-9.086014731980214,-3.891620835293792,-7.422712074694131,-2.6759840771637755,3.746581767825736,-2.191687999136059,5.0991432623329285,2.096790086930191,5.15224255269637,2.112610418011331,0.19253542666666668,-0.007242706666666668,-0.6453871066666668,0.84516524,0.673533120769236,0.6190944490971713,0.6091149298643286,0.6203224543417889
LBP01_S00,LBP01,-1704,122,0,121,-1704,1715397974.84,2024-05-11 03:26:14.840000+00:00,2024-05-11 12:26:14.840000+09:00,2024,5,11,3,26,14,840,,,,,,,,,0.443848,0.193848,0.845703,-14.038086,-87.585449,13.305664,,,,,,,,,,,0.0,1.0,1.0,0.0,0.0,0.0,0.0,6.0,0.0,-0.05862313333333334,0.09701494666666667,0.9659309999999999,-4.2854817333333335,-3.270670546666666,0.6469726266666663,-10.563744071676798,-3.1490039347721335,-5.847387410854365,-3.0985338400308473,3.6206216104348505,-2.425583495570234,5.347267348632091,2.11575767893575,5.395232352691254,2.129067746185514,0.5024711333333334,0.09683305333333332,-0.12022799999999989,0.7195321866666666,0.5256506939357548,0.6141103362755118,0.6089436473850237,0.6212435279727262
LBP01_S00,LBP01,-1703,123,0,122,-1703,1715397974.88,2024-05-11 03:26:14.880000+00:00,2024-05-11 12:26:14.880000+09:00,2024,5,11,3,26,14,880,,,,,,,,,0.113037,0.245117,1.399658,-42.724609,48.64502,1.77002,,,,,,,,,,,0.0,1.0,1.0,0.0,0.0,0.0,0.0,6.0,0.0,-0.06052742666666666,0.10259437333333334,0.9906966266666666,-3.7019856399999997,-2.434895813333333,0.7918293999999997,-11.621966617489694,-1.5255852768842664,-4.0271607926246915,-3.5634125047304352,3.55959819935948,-2.5866699272752216,5.662111737896249,2.1053271021955364,5.63848020225893,2.134373522687953,0.17356442666666666,0.14252262666666665,0.4089613733333335,0.7250484266666668,0.4665690883403881,0.6256391246439208,0.6091726347917458,0.6262870899274463
LBP01_S00,LBP01,-1702,124,0,123,-1702,1715397974.92,2024-05-11 03:26:14.920000+00:00,2024-05-11 12:26:14.920000+09:00,2024,5,11,3,26,14,920,,,,,,,,,-0.561279,0.064697,1.853271,-72.937012,8.789062,1.586914,,,,,,,,,,,0.0,1.0,1.0,0.0,0.0,0.0,0.0,6.0,0.0,-0.06319018666666666,0.10546546666666666,1.00053712,-3.563639293333333,0.49479169333333345,0.41259762666666633,-11.887235450440379,0.3962847222691821,-2.0612494262587098,-4.0389019227480505,3.575449588250247,-2.66911990432557,6.018369344213073,2.1121540406453274,5.875544282603907,2.1306893568037744,-0.4980888133333333,-0.040768466666666656,0.8527338799999999,1.39159116,0.9883873754464965,0.6226769959874207,0.6100149505121752,0.6240776944489944
LBP01_S00,LBP01,-1701,125,0,124,-1701,1715397974.96,2024-05-11 03:26:14.960000+00:00,2024-05-11 12:26:14.960000+09:00,2024,5,11,3,26,14,960,,,,,,,,,-0.020752,0.248535,1.623535,9.033203,9.216309,-5.432129,,,,,,,,,,,0.0,1.0,1.0,0.0,0.0,0.0,0.0,6.0,0.0,-0.07392912,0.11248696,0.9860091200000002,-3.7532551866666664,2.1899414266666666,0.10579423999999965,-11.15319226674492,1.957028486418763,-0.08330252586297353,-4.485029613417847,3.6537307277069977,-2.6724520053600886,6.372380919623254,2.1539153282745542,6.098514346320458,2.1348910351890376,0.05317712,0.13604804,0.6375258799999998,0.8267510399999998,0.6540459639422218,0.6294573137321501,0.6082939247726311,0.6235357104475466
LBP01_S00,LBP01,-1700,126,0,125,-1700,1715397975.0,2024-05-11 03:26:15+00:00,2024-05-11 12:26:15+09:00,2024,5,11,3,26,15,0,3.0,26.0,14.0,40.540493,141.526917,16.252001,3.0,15.0,-0.15625,-0.050049,0.931396,55.908203,128.234863,-22.766113,-494.0,60.0,569.0,671.0,0.0,1027.800049,32.59,0.146665,-120.370155,4.035937,0.0,1.0,1.0,0.0,0.0,0.0,0.0,3.0,0.0,-0.07591154666666666,0.10128904000000001,0.9786816533333332,-4.531249973333334,0.7462565333333333,-0.020345080000000352,-9.427524053830682,2.71147448117143,1.7118129060319476,-4.862130575571074,3.762189706953855,-2.6039794891188106,6.67645821560834,2.2150659298678574,6.298379688287641,2.1423914747601165,-0.08033845333333334,-0.15133804,-0.04728565333333323,0.2789621466666666,0.17774533030770162,0.6168321363495626,0.6103244747330627,0.6183788822879103
LBP01_S00,LBP01,-1699,127,0,126,-1699,1715397975.04,2024-05-11 03:26:15.040000+00:00,2024-05-11 12:26:15.040000+09:00,2024,5,11,3,26,15,40,,,,,,,,,-0.361572,0.174316,-0.166992,-8.056641,-9.460449,-10.681152,,,,,,,,,,,0.0,1.0,1.0,0.0,0.0,0.0,0.0,3.0,0.0,-0.06879892,0.10471351999999999,0.9665820400000001,-3.23079424,-0.4467773200000001,0.08138017333333297,-6.895688813695676,2.600802256081492,3.059869024081727,-5.137958128118901,3.8662217971971145,-2.4815847281555414,6.8923542766198524,2.15360972096905,6.465688635273757,2.1479910553234856,-0.29277308,0.06960248000000001,-1.13357404,1.4959496,1.1728387296456229,0.6428514615162978,0.6127525729787563,0.6284905491564208
LBP01_S00,LBP01,-1698,128,0,127,-1698,1715397975.08,2024-05-11 03:26:15.080000+00:00,2024-05-11 12:26:15.080000+09:00,2024,5,11,3,26,15,80,,,,,,,,,0.015869,-0.021973,0.3479,-27.648926,-87.95166,13.85498,,,,,,,,,,,0.0,1.0,1.0,0.0,0.0,0.0,0.0,3.0,0.0,-0.06735034666666667,0.10782224,0.9696679733333333,-4.131673146666667,-0.26448565333333346,0.17659501333333297,-3.8574019489449682,1.9061641943466978,3.6698123050394407,-5.2922542060766995,3.942468364970982,-2.3347922359539637,7.000161867814515,2.1308193898168013,6.591968844854364,2.155992439062617,0.08321934666666667,-0.12979524,-0.6217679733333333,0.8347825600000001,0.6405994666320954,0.6286907646356648,0.6123632754817993,0.6284207885808881
LBP01_S00,LBP01,-1697,129,0,128,-1697,1715397975.12,2024-05-11 03:26:15.120000+00:00,2024-05-11 12:26:15.120000+09:00,2024,5,11,3,26,15,120,,,,,,,,,0.42749,0.024658,0.873535,-25.634766,-69.335938,21.850586,,,,,,,,,,,0.0,1.0,1.0,0.0,0.0,0.0,0.0,3.0,0.0,-0.07462898666666666,0.10636390666666666,0.9896451866666667,-6.222330693333333,-1.3240559600000001,0.33365882666666624,-0.6817015612520646,1.0270573812679946,3.3205817982342825,-5.319522268526782,3.983550660221702,-2.2019689640245925,7.001047089288331,2.183988541940763,6.671578047873652,2.167614799342516,0.5021189866666667,-0.08170590666666666,-0.11611018666666673,0.69993508,0.5218054305995199,0.6316301949259057,0.6127876301234672,0.6240259160303125
LBP01_S00,LBP01,-1696,130,0,129,-1696,1715397975.16,2024-05-11 03:26:15.160000+00:00,2024-05-11 12:26:15.160000+09:00,2024,5,11,3,26,15,160,,,,,,,,,0.058105,0.248779,1.336182,8.300781,43.029785,16.052246,,,,,,,,,,,0.0,1.0,1.0,0.0,0.0,0.0,0.0,3.0,0.0,-0.07458341333333335,0.11282874666666665,1.0112142,-5.006510386666666,-0.8707682,0.17089841333333294,2.226804471652285,0.24147582158321104,1.9748808043233121,-5.230450089660691,3.9932096930850305,-2.12297373185166,6.9145028208477815,2.156486928025332,6.702837447423734,2.1699662105887816,0.13268841333333334,0.13595025333333335,0.32496780000000003,0.5936064666666667,0.37642098433954907,0.6214688536772026,0.6103580831900836,0.6247518499678425
LBP01_S00,LBP01,-1695,131,0,130,-1695,1715397975.2,2024-05-11 03:26:15.200000+00:00,2024-05-11 12:26:15.200000+09:00,2024,5,11,3,26,15,200,,,,,,,,,-0.547119,-0.196533,2.026367,-7.751465,4.699707,9.70459,,,,,,,,,,,0.0,1.0,1.0,0.0,0.0,0.0,0.0,3.0,0.0,-0.07716153333333334,0.11770830666666666,1.0171875066666667,-4.398600226666667,1.5584310266666668,-0.17089846666666705,4.488666481590728,-0.39794480579413577,-0.15076738472978055,-5.050903430397062,3.977291900853265,-2.1290044272408513,6.772232732194082,2.152785892563883,6.687577498911326,2.16765353465357,-0.4699574666666667,-0.31424130666666666,1.0091794933333333,1.7933782666666667,1.1567414875657605,0.6378776207700776,0.6212239715553419,0.6260551048479643
LBP01_S00,LBP01,-1694,132,0,131,-1694,1715397975.24,2024-05-11 03:26:15.240000+00:00,2024-05-11 12:26:15.240000+09:00,2024,5,11,3,26,15,240,,,,,,,,,-0.049561,0.414307,1.651855,4.272461,-10.925293,-7.446289,,,,,,,,,,,0.0,1.0,1.0,0.0,0.0,0.0,0.0,3.0,0.0,-0.08706713333333332,0.12110673333333333,1.0011686266666666,-5.064290333333333,2.99072268,-0.9261068000000005,5.854159720284461,-0.9927101076424677,-2.606659733700821,-4.816737041585683,3.9375834965475662,-2.233270816588884,6.610069444438155,2.195771516327064,6.629315935118143,2.1621598648252704,0.03750613333333332,0.29320026666666665,0.6506863733333335,0.9813927733333334,0.7146788529491469,0.6402685922621681,0.6214424294024078,0.6270816459098787
LBP01_S00,LBP01,-1693,133,0,132,-1693,1715397975.28,2024-05-11 03:26:15.280000+00:00,2024-05-11 12:26:15.280000+09:00,2024,5,11,3,26,15,280,,,,,,,,,-0.053223,0.214111,0.891113,51.452637,114.990234,-18.371582,,,,,,,,,,,0.0,1.0,1.0,0.0,0.0,0.0,0.0,3.0,0.0,-0.08704434666666666,0.11464514666666666,0.9879948,-4.90722652,0.7470703333333334,-1.107584666666667,6.320602837673983,-1.639787576141075,-4.824910469031891,-4.563912928078723,3.8719919935019234,-2.42626723535016,6.4582037680891435,2.2215507049945264,6.531138721727144,2.1593949875010243,0.03382134666666666,0.09946585333333334,-0.0968817999999999,0.2301689999999999,0.14291054069212322,0.6252788447020091,0.617875966731677,0.6224753033536158
LBP01_S00,LBP01,-1692,134,0,133,-1692,1715397975.32,2024-05-11 03:26:15.320000+00:00,2024-05-11 12:26:15.320000+09:00,2024,5,11,3,26,15,320,,,,,,,,,-0.403809,-0.168457,0.043213,49.01123,-0.549316,-26.306152,,,,,,,,,,,0.0,1.0,1.0,0.0,0.0,0.0,0.0,3.0,0.0,-0.07393237333333333,0.11716466666666667,0.97065756,-4.6516926666666665,-0.42073565333333346,-1.1922200933333336,6.195300997995624,-2.3201034422751885,-6.2859675294890245,-4.316100888158898,3.7791878558109158,-2.677705936529721,6.33096333971389,2.135668153107984,6.3945230776231154,2.157810398393276,-0.3298766266666666,-0.28562166666666666,-0.9274445600000001,1.5429428533333334,1.0249642614081806,0.6523105777016134,0.6183951513531211,0.6290150657561799
LBP01_S00,LBP01,-1691,135,0,134,-1691,1715397975.36,2024-05-11 03:26:15.360000+00:00,2024-05-11 12:26:15.360000+09:00,2024,5,11,3,26,15,360,,,,,,,,,0.067139,0.10791,0.316162,-7.446289,-101.44043,-9.399414,,,,,,,,,,,0.0,1.0,1.0,0.0,0.0,0.0,0.0,3.0,0.0,-0.07221361333333333,0.11568354666666664,0.9671223999999999,-4.51578772,0.1660156399999999,-1.027018266666667,6.0388245896766275,-2.9182939981978566,-6.6701723621629005,-4.074547904571833,3.6624560958830017,-2.9445128310162367,6.219781434499168,2.1307885689224397,6.219961464185137,2.159615551863814,0.13935261333333332,-0.007773546666666631,-0.6509604,0.79808656,0.6657544751924453,0.6445876373762242,0.6170565863856198,0.6255432753060842
LBP01_S00,LBP01,-1690,136,0,135,-1690,1715397975.4,2024-05-11 03:26:15.400000+00:00,2024-05-11 12:26:15.400000+09:00,2024,5,11,3,26,15,400,,,,,,,,,0.380615,-0.141846,0.904053,-56.274414,-64.453125,2.01416,,,,,,,,,,,0.0,1.0,1.0,0.0,0.0,0.0,0.0,3.0,0.0,-0.07694668,0.11552729333333332,0.9823209733333332,-6.112467413333333,-1.1385090933333333,-0.7413737333333338,6.474445369615416,-3.346976379534461,-5.938602527612636,-3.815570089787217,3.5285770407016233,-3.182056932120742,6.093842577676513,2.160129231584862,6.009518959301635,2.162859565178094,0.45756167999999997,-0.2573732933333333,-0.07826797333333324,0.7932029466666665,0.5307820445110928,0.6400423707023382,0.6171773815064681,0.6214822182385188
LBP01_S00,LBP01,-1689,137,0,136,-1689,1715397975.44,2024-05-11 03:26:15.440000+00:00,2024-05-11 12:26:15.440000+09:00,2024,5,11,3,26,15,440,,,,,,,,,-0.01416,0.076416,1.462158,1.159668,42.84668,0.488281,,,,,,,,,,,0.0,1.0,1.0,0.0,0.0,0.0,0.0,3.0,0.0,-0.07462570666666667,0.12085281333333335,1.0049446666666668,-3.755696573333333,-1.2638346133333334,-0.15787764000000043,7.930067082582671,-3.6558641160383227,-4.324102513557787,-3.49836740648391,3.3823424760600904,-3.3550210326630534,5.910582142709863,2.1259609477265884,5.770422736314693,2.1580465872728465,0.06046570666666667,-0.04443681333333335,0.45721333333333325,0.5621158533333332,0.46333008130241077,0.6567141812591295,0.6162035392972671,0.6225949775620861
LBP01_S00,LBP01,-1688,138,0,137,-1688,1715397975.48,2024-05-11 03:26:15.480000+00:00,2024-05-11 12:26:15.480000+09:00,2024,5,11,3,26,15,480,,,,,,,,,-0.563721,0.040039,1.8125,-4.150391,-7.141113,8.483887,,,,,,,,,,,0.0,1.0,1.0,0.0,0.0,0.0,0.0,3.0,0.0,-0.07607426666666667,0.12634109333333332,1.00839844,-2.7905273066666667,1.7928059999999997,-0.3450521200000004,10.432013559734635,-4.013581713636741,-2.25276059127209,-3.081086864094525,3.221799207514621,-3.445131456313937,5.6340054267742286,2.1149734987393223,5.5172696848958385,2.149939639210663,-0.48764673333333336,-0.08630209333333333,0.8041015600000001,1.3780503866666667,0.944365769518792,0.648408435350473,0.628350185645544,0.6212705914663961
LBP01_S00,LBP01,-1687,139,0,138,-1687,1715397975.52,2024-05-11 03:26:15.520000+00:00,2024-05-11 12:26:15.520000+09:00,2024,5,11,3,26,15,520,,,,,,,,,-0.121094,0.381592,1.585938,27.22168,10.253906,3.417969,,,,,,,,,,,0.0,1.0,1.0,0.0,0.0,0.0,0.0,3.0,0.0,-0.08687830666666668,0.11924148,0.9953873733333334,-1.32812496,2.3876953199999993,-0.8813476933333337,13.548997678108645,-4.558373603253346,-0.2359343732673049,-2.539126956970179,3.0394642633844873,-3.454568831244629,5.255430954908544,2.202040076646138,5.269461841558647,2.1410421179437984,-0.03421569333333331,0.26235052,0.5905506266666667,0.88711684,0.647107836199612,0.6513189073939398,0.6269920750721982,0.6209041377939508
LBP01_S00,LBP01,-1686,140,0,139,-1686,1715397975.56,2024-05-11 03:26:15.560000+00:00,2024-05-11 12:26:15.560000+09:00,2024,5,11,3,26,15,560,,,,,,,,,-0.0625,0.222656,0.750244,51.086426,113.891602,-9.58252,,,,,,,,,,,0.0,1.0,1.0,0.0,0.0,0.0,0.0,3.0,0.0,-0.08368169333333333,0.11810541333333333,0.9765787733333333,0.7071940399999997,-0.021972653333333484,-1.1319987333333337,16.504649334565762,-5.22850691936321,1.2330900039926538,-1.8789409835875486,2.830323986609959,-3.405245231084923,4.810077772012761,2.188927061168132,5.044253800739418,2.1406153646508908,0.021181693333333335,0.10455058666666667,-0.2263347733333333,0.3520670533333333,0.25021374647421535,0.6407324489407877,0.6228013154857899,0.6193326323410375
LBP01_S00,LBP01,-1685,141,0,140,-1685,1715397975.6,2024-05-11 03:26:15.600000+00:00,2024-05-11 12:26:15.600000+09:00,2024,5,11,3,26,15,600,,,,,,,,,-0.310547,-0.232422,0.092529,15.869141,-11.169434,-16.296387,,,,,,,,,,,0.0,1.0,1.0,0.0,0.0,0.0,0.0,3.0,0.0,-0.07206385333333333,0.12255853333333334,0.9586002666666665,-0.08056638666666686,-0.9773763066666667,-1.3175456000000005,18.398835498788724,-5.713528565370359,1.7650829945945026,-1.1429875636359996,2.6017828439951445,-3.334641911301143,4.381270502324658,2.1046561135114086,4.852534680048804,2.1411984405255096,-0.2384831466666667,-0.35498053333333335,-0.8660712666666666,1.4595349466666665,0.965901045260464,0.6640453830669486,0.633574835084848,0.6254109233979059
LBP01_S00,LBP01,-1684,142,0,141,-1684,1715397975.64,2024-05-11 03:26:15.640000+00:00,2024-05-11 12:26:15.640000+09:00,2024,5,11,3,26,15,640,,,,,,,,,0.123779,0.038818,0.518799,33.081055,-119.32373,0.610352,,,,,,,,,,,0.0,1.0,1.0,0.0,0.0,0.0,0.0,3.0,0.0,-0.07189133333333333,0.11945957333333335,0.9602604266666667,-0.7283528533333335,-0.8398437466666666,-1.153157586666667,18.44979553910878,-5.593965157187007,1.1488849630311144,-0.40499574207164835,2.378024237707664,-3.2886865127798983,4.078538930249617,2.1147020357052275,4.70141167084207,2.144108295840222,0.19567033333333334,-0.08064157333333336,-0.44146142666666666,0.7177733333333334,0.48956933516206047,0.6478720207612654,0.6272371004758098,0.6199442028694248
LBP01_S00,LBP01,-1683,143,0,142,-1683,1715397975.68,2024-05-11 03:26:15.680000+00:00,2024-05-11 12:26:15.680000+09:00,2024,5,11,3,26,15,680,,,,,,,,,0.414307,-0.237549,0.998779,-70.3125,-59.936523,15.380859,,,,,,,,,,,0.0,1.0,1.0,0.0,0.0,0.0,0.0,3.0,0.0,-0.07513026666666667,0.11990228,0.9783463600000001,-2.290852853333334,-1.99869792,-0.8243815333333337,16.194267547935013,-4.602403039115433,-0.5820575124555668,0.24277495984575215,2.193928116143047,-3.311968813278121,3.9801253347172336,2.132575492325883,4.598752762794739,2.152636719232837,0.48943726666666665,-0.35745128000000004,0.02043263999999989,0.8673211866666666,0.6064138424814738,0.6460173869221592,0.6310066236657345,0.6181932582357236
LBP01_S00,LBP01,-1682,144,0,143,-1682,1715397975.72,2024-05-11 03:26:15.720000+00:00,2024-05-11 12:26:15.720000+09:00,2024,5,11,3,26,15,720,,,,,,,,,-0.132324,0.011475,1.390869,55.419922,30.822754,13.122559,,,,,,,,,,,0.0,1.0,1.0,0.0,0.0,0.0,0.0,3.0,0.0,-0.07539393333333334,0.12062819999999999,0.9942610666666667,-1.7187499866666671,-0.6250000133333333,-0.7771810133333338,11.625861936226032,-2.8351516604875706,-3.1066866613557633,0.7078094372947934,2.080522049723544,-3.4362362797323516,4.078882931521602,2.1314006201789044,4.553634353398649,2.15197473001296,-0.056930066666666654,-0.10915319999999999,0.3966079333333332,0.5626911999999998,0.4152749767850801,0.6536324189952591,0.628862279166101,0.6217971630449932
LBP01_S00,LBP01,-1681,145,0,144,-1681,1715397975.76,2024-05-11 03:26:15.760000+00:00,2024-05-11 12:26:15.760000+09:00,2024,5,11,3,26,15,760,,,,,,,,,-0.4021,0.094971,1.798828,66.28418,-23.376465,19.165039,,,,,,,,,,,0.0,1.0,1.0,0.0,0.0,0.0,0.0,3.0,0.0,-0.07714848,0.12201165333333333,1.0026920533333332,-0.32063800000000003,2.0076497333333334,-0.720214866666667,5.267566600544664,-0.7615710840363291,-5.833790782259071,0.91851210131658,2.050059206362091,-3.6695879110227145,4.302590227593027,2.136619327668629,4.571385571865754,2.1423952763989895,-0.32495152,-0.02704065333333333,0.7961359466666669,1.1481281200000002,0.8603238534748608,0.6430371333174522,0.637801392164144,0.6197547025583826
LBP01_S00,LBP01,-1680,146,0,145,-1680,1715397975.8,2024-05-11 03:26:15.800000+00:00,2024-05-11 12:26:15.800000+09:00,2024,5,11,3,26,15,800,,,,,,,,,-0.087891,0.287598,1.661865,-15.258789,36.193848,-10.437012,,,,,,,,,,,0.0,1.0,1.0,0.0,0.0,0.0,0.0,3.0,0.0,-0.08807295999999999,0.12425774666666667,0.9899706933333334,0.6917317866666666,3.6490885333333334,-1.0774739733333338,-1.848355397053226,0.9874180792122812,-8.012436932353527,0.844577885434451,2.089555929530582,-3.9900853883168557,4.582612485609166,2.1892277847319814,4.6463501728639836,2.1339776905960526,0.0001819599999999949,0.16334025333333335,0.6718943066666665,0.8354165199999999,0.6914636872602347,0.6437543559770922,0.6314244025371317,0.6206614052352497
LBP01_S00,LBP01,-1679,147,0,146,-1679,1715397975.84,2024-05-11 03:26:15.840000+00:00,2024-05-11 12:26:15.840000+09:00,2024,5,11,3,26,15,840,,,,,,,,,0.012939,0.412354,0.9021,0.610352,127.319336,-33.569336,,,,,,,,,,,0.0,1.0,1.0,0.0,0.0,0.0,0.0,3.0,0.0,-0.08778649333333334,0.11817702666666667,0.9789160133333333,1.826985693333333,2.0003255200000005,-1.2255859466666672,-8.337833748186675,1.923396684235698,-8.928919777459074,0.511064535506984,2.16649179690001,-4.347242179415218,4.883993062236553,2.2112451816527443,4.756805401156238,2.132431544492605,0.10072549333333335,0.2941769733333333,-0.07681601333333332,0.47171848,0.32029114341678405,0.6355399739563333,0.6248251551159225,0.6178090895754603
LBP01_S00,LBP01,-1678,148,0,147,-1678,1715397975.88,2024-05-11 03:26:15.880000+00:00,2024-05-11 12:26:15.880000+09:00,2024,5,11,3,26,15,880,,,,,,,,,-0.427002,-0.283936,0.126221,-35.15625,19.470215,-63.171387,,,,,,,,,,,0.0,1.0,1.0,0.0,0.0,0.0,0.0,3.0,0.0,-0.07541345333333334,0.12722,0.9617089733333334,3.2234700666666662,0.5314127600000003,-0.8780924533333339,-12.77179675963134,1.9100667479307007,-8.128248818834402,0.00019266512173043981,2.2428944668172384,-4.6723721321685945,5.182821332813329,2.1083536065405486,4.8657164886522235,2.129919990024225,-0.35158854666666667,-0.411156,-0.8354879733333334,1.59823252,0.9953411053843901,0.6566908546380934,0.6411649896410071,0.6250120414071949
LBP01_S00,LBP01,-1677,149,0,148,-1677,1715397975.92,2024-05-11 03:26:15.920000+00:00,2024-05-11 12:26:15.920000+09:00,2024,5,11,3,26,15,920,,,,,,,,,0.012939,0.018555,0.150879,19.714355,-114.013672,-7.69043,,,,,,,,,,,0.0,1.0,1.0,0.0,0.0,0.0,0.0,3.0,0.0,-0.07261722666666667,0.12305333333333332,0.9601529866666666,1.7708333466666666,0.856933586666667,-0.5297851600000005,-14.073077917334867,1.1545946282102615,-5.563912600166076,-0.5627304515716642,2.2890782519456487,-4.894928636175237,5.432943139579593,2.1062455405064338,4.929596991123107,2.1296911566127035,0.08555622666666668,-0.10449833333333332,-0.8092739866666666,0.9993285466666666,0.8204658159157167,0.6499739922568623,0.6363254941221413,0.6233346310937375
LBP01_S00,LBP01,-1676,150,0,149,-1676,1715397975.96,2024-05-11 03:26:15.960000+00:00,2024-05-11 12:26:15.960000+09:00,2024,5,11,3,26,15,960,,,,,,,,,0.522461,0.242188,0.627197,-83.679199,-101.989746,21.54541,,,,,,,,,,,0.0,1.0,1.0,0.0,0.0,0.0,0.0,3.0,0.0,-0.07411462666666667,0.12604161333333333,0.9692740799999999,1.4176432399999999,-0.42399089333333323,0.13509113333333284,-11.885638134453979,0.00934979651466112,-1.6004938160053308,-1.0381559769498234,2.289452243806235,-4.95894838881545,5.559723781995055,2.1047512031387665,4.912636786541129,2.131791463748365,0.5965756266666666,0.11614638666666666,-0.3420770799999999,1.054799093333333,0.6974304195615325,0.6517093704816347,0.6405833421068924,0.6227657400089657
LBP01_S00,LBP01,-1675,151,0,150,-1675,1715397976.0,2024-05-11 03:26:16+00:00,2024-05-11 12:26:16+09:00,2024,5,11,3,26,16,0,3.0,26.0,15.0,40.540508,141.526733,15.75,3.0,15.0,0.012939,-0.163086,1.569336,-49.377441,49.133301,32.287598,-489.0,55.0,573.0,725.0,0.0,1027.800049,32.639999,0.146665,-120.370155,4.035937,0.0,1.0,1.0,0.0,0.0,0.0,0.0,4.0,0.0,-0.07121749333333334,0.12552077333333334,0.9911783733333334,2.373046893333333,-0.6363932399999999,0.6754557199999995,-6.780880532806368,-1.2489764021898406,3.1318280546817236,-1.309391198262078,2.2394931877186415,-4.833675266628181,5.485822785247207,2.0891946524769307,4.796339800296957,2.1260539320719123,0.08415649333333335,-0.28860677333333334,0.5781576266666667,0.9509208933333334,0.6516459362697462,0.6706653947201164,0.6437487655348394,0.6304381147287473
LBP01_S00,LBP01,-1674,152,0,151,-1674,1715397976.04,2024-05-11 03:26:16.040000+00:00,2024-05-11 12:26:16.040000+09:00,2024,5,11,3,26,16,40,,,,,,,,,-0.35791,0.131104,1.643311,-36.315918,24.536133,35.03418,,,,,,,,,,,0.0,1.0,1.0,0.0,0.0,0.0,0.0,4.0,0.0,-0.07260421333333333,0.12786127999999997,0.9998795466666667,2.82389324,1.9742838400000002,0.38981119999999964,-0.19235988173549232,-2.4918345774306134,7.95072486981342,-1.3170855935314978,2.1398198046214167,-4.515646271835644,5.1676498052094635,2.0895864910214295,4.579342644206379,2.112776897338124,-0.28530578666666667,0.0032427200000000322,0.6434314533333333,0.93197996,0.7038564784649847,0.6519061046728909,0.6473787830945943,0.6258037502101346
LBP01_S00,LBP01,-1673,153,0,152,-1673,1715397976.08,2024-05-11 03:26:16.080000+00:00,2024-05-11 12:26:16.080000+09:00,2024,5,11,3,26,16,80,,,,,,,,,0.171875,0.375977,1.257568,76.477051,14.587402,19.287109,,,,,,,,,,,0.0,1.0,1.0,0.0,0.0,0.0,0.0,4.0,0.0,-0.08206058666666666,0.13174474666666666,0.9868196533333332,2.263997413333333,3.5807291600000006,-0.10416666666666707,5.952076126093135,-3.6311217763746684,12.293126248651605,-1.0790025484877723,1.99457493356643,-4.02392122188958,4.618930359426083,2.130287158210669,4.274925124744974,2.1000451891220413,0.25393558666666666,0.24423225333333334,0.2707483466666668,0.7689161866666668,0.4443392206037582,0.6440556948317574,0.636373229733711,0.6229274152651186
LBP01_S00,LBP01,-1672,154,0,153,-1672,1715397976.12,2024-05-11 03:26:16.120000+00:00,2024-05-11 12:26:16.120000+09:00,2024,5,11,3,26,16,120,,,,,,,,,-0.158447,-0.091797,0.521484,27.587891,103.57666,-21.118164,,,,,,,,,,,0.0,1.0,1.0,0.0,0.0,0.0,0.0,4.0,0.0,-0.08284509333333334,0.12661129333333335,0.9723177066666667,2.19645184,1.672363266666667,0.008138026666666272,9.8085894143118,-4.454976690744484,15.775586534596773,-0.6866589719153002,1.8163758659366507,-3.392897760505709,3.909280885701813,2.1524036915355165,3.91876738725954,2.091336583606927,-0.07560190666666666,-0.21840829333333334,-0.4508337066666668,0.7448439066666668,0.5066249717051271,0.6434484764759817,0.6375393357009437,0.623007912240972
LBP01_S00,LBP01,-1671,155,0,154,-1671,1715397976.16,2024-05-11 03:26:16.160000+00:00,2024-05-11 12:26:16.160000+09:00,2024,5,11,3,26,16,160,,,,,,,,,-0.252441,0.077393,-0.064941,101.074219,-25.512695,-5.737305,,,,,,,,,,,0.0,1.0,1.0,0.0,0.0,0.0,0.0,4.0,0.0,-0.07012373333333333,0.12657549333333334,0.9592154800000001,2.89957684,-0.014648439999999709,0.6665039199999996,10.199868051470974,-4.573722497316047,18.154054671605277,-0.27866424985646127,1.6334269660440088,-2.666735573641498,3.139620365151311,2.0792440109041004,3.572171094779846,2.0849956094469646,-0.1823172666666667,-0.04918249333333334,-1.02415648,1.25565624,1.0414197035303674,0.6700484252436144,0.6457586394604086,0.630254863874594
LBP01_S00,LBP01,-1670,156,0,155,-1670,1715397976.2,2024-05-11 03:26:16.200000+00:00,2024-05-11 12:26:16.200000+09:00,2024,5,11,3,26,16,200,,,,,,,,,0.093018,0.227295,0.09668,5.67627,-94.421387,3.051758,,,,,,,,,,,0.0,1.0,1.0,0.0,0.0,0.0,0.0,4.0,0.0,-0.06661137333333333,0.12700193333333334,0.9547883866666667,3.155924493333333,0.24739582666666707,1.219075533333333,6.967231065301649,-3.553081912943865,19.254984481926417,2.4992755604691386e-05,1.4913036895262541,-1.8965361943644412,2.412640924703387,2.0564574373941005,3.293394548091019,2.083508316797846,0.15962937333333332,0.10029306666666665,-0.8581083866666667,1.1180308266666668,0.8785728423527935,0.6589216794350957,0.6483996501025867,0.6337898741819266
LBP01_S00,LBP01,-1669,157,0,156,-1669,1715397976.24,2024-05-11 03:26:16.240000+00:00,2024-05-11 12:26:16.240000+09:00,2024,5,11,3,26,16,240,,,,,,,,,0.455811,0.112793,0.717041,11.657715,-89.782715,41.07666,,,,,,,,,,,0.0,1.0,1.0,0.0,0.0,0.0,0.0,4.0,0.0,-0.06976893333333332,0.12452146666666666,0.96400388,1.216634133333333,-0.5631510399999996,1.327311213333333,0.9468640673380007,-1.1622712171992506,18.9528041905051,0.03789955544912472,1.444812840838284,-1.1384240267442371,1.8398178676224985,2.083928099491922,3.1277281057442354,2.086952187230274,0.5255799333333333,-0.01172846666666666,-0.24696288,0.7842712799999999,0.5808291378287737,0.6535676908302809,0.6469181415462245,0.6321508498783655
LBP01_S00,LBP01,-1668,158,0,157,-1668,1715397976.28,2024-05-11 03:26:16.280000+00:00,2024-05-11 12:26:16.280000+09:00,2024,5,11,3,26,16,280,,,,,,,,,-0.004395,0.176758,1.546143,-82.824707,65.002441,44.616699,,,,,,,,,,,0.0,1.0,1.0,0.0,0.0,0.0,0.0,4.0,0.0,-0.06263676,0.13037758666666666,0.9854361733333333,0.9375000266666664,-0.12451171999999966,1.513671893333333,-6.408459013683253,2.435088297248171,17.21657116027276,-0.2184388050982054,1.542216372728211,-0.4497611803333267,1.6212439579589863,2.0212675513894003,3.1124904497876655,2.0839766170628606,0.058241760000000004,0.04638041333333334,0.5607068266666667,0.6653290000000001,0.5656283150793212,0.6704764018057687,0.6478776232538889,0.6354094450897075
LBP01_S00,LBP01,-1667,159,0,158,-1667,1715397976.32,2024-05-11 03:26:16.320000+00:00,2024-05-11 12:26:16.320000+09:00,2024,5,11,3,26,16,320,,,,,,,,,-0.478516,0.220947,1.929932,-117.126465,32.104492,20.690918,,,,,,,,,,,0.0,1.0,1.0,0.0,0.0,0.0,0.0,4.0,0.0,-0.06634769333333332,0.13078774666666668,0.9932291333333332,1.0172526266666666,2.710774746666667,1.061197933333333,-13.580031070094508,6.687510509949545,14.185195460739571,-0.7616400479019858,1.8097167931261928,0.1176466380962562,1.9669802147826607,2.042835798906813,3.276123713636894,2.0743381705916293,-0.4121683066666667,0.09015925333333333,0.9367028666666668,1.4390304266666667,1.0273381451127195,0.6705713571539502,0.6614409674277819,0.6357872199533975
LBP01_S00,LBP01,-1666,160,0,159,-1666,1715397976.36,2024-05-11 03:26:16.360000+00:00,2024-05-11 12:26:16.360000+09:00,2024,5,11,3,26,16,360,,,,,,,,,-0.19873,0.267578,2.128418,13.244629,-11.291504,15.625,,,,,,,,,,,0.0,1.0,1.0,0.0,0.0,0.0,0.0,4.0,0.0,-0.07633142666666666,0.13444334666666666,0.9804003599999999,0.6722005466666663,4.564615893333333,0.36051434666666626,-19.45443209000851,10.860793329055179,10.204957008667009,-1.5398173315023262,2.2441485262884,0.5258449184429366,2.771958315106777,2.089878276647576,3.634251632841612,2.0612101789976203,-0.12239857333333333,0.13313465333333332,1.14801764,1.4035508666666665,1.162175007657363,0.690428178452547,0.6675079079143855,0.6415137837412622
LBP01_S00,LBP01,-1665,161,0,160,-1665,1715397976.4,2024-05-11 03:26:16.400000+00:00,2024-05-11 12:26:16.400000+09:00,2024,5,11,3,26,16,400,,,,,,,,,0.024902,0.295654,1.258789,32.165527,99.060059,-21.850586,,,,,,,,,,,0.0,1.0,1.0,0.0,0.0,0.0,0.0,4.0,0.0,-0.07879886666666666,0.12840493333333336,0.96710284,0.6811523599999997,2.792154946666667,0.17578126666666635,-23.52822234476494,14.313122788047778,5.789794159631838,-2.480946225292924,2.8166734378103113,0.7574366848282101,3.8291583617793763,2.1236333568012142,4.186544199152168,2.0548065302440786,0.10370086666666667,0.1672490666666666,0.2916861599999999,0.5626360933333332,0.35186209796429396,0.6832713805906749,0.6616568756465065,0.6392087145345371
LBP01_S00,LBP01,-1664,162,0,161,-1664,1715397976.44,2024-05-11 03:26:16.440000+00:00,2024-05-11 12:26:16.440000+09:00,2024,5,11,3,26,16,440,,,,,,,,,-0.367188,0.605225,-0.134766,-22.460938,79.467773,-9.338379,,,,,,,,,,,0.0,1.0,1.0,0.0,0.0,0.0,0.0,4.0,0.0,-0.06804692,0.12871092,0.9497981600000001,1.432291693333333,1.1555989600000003,0.170084653333333,-25.819082680287075,16.680447634483556,1.5169579599830483,-3.513709532504407,3.4838913431896534,0.8181150032275321,5.015273245643764,2.059830789347296,4.9157673005601215,2.0523588728147737,-0.29914108,0.47651408,-1.08456416,1.8602193200000001,1.2218144177158488,0.7136107540472125,0.685162467653171,0.6486726108805821
LBP01_S00,LBP01,-1663,163,0,162,-1663,1715397976.48,2024-05-11 03:26:16.480000+00:00,2024-05-11 12:26:16.480000+09:00,2024,5,11,3,26,16,480,,,,,,,,,-0.17334,-0.51709,0.72168,-64.453125,-79.772949,-1.586914,,,,,,,,,,,0.0,1.0,1.0,0.0,0.0,0.0,0.0,4.0,0.0,-0.06283208,0.12668618666666664,0.9417512933333332,0.23600262666666613,0.5232747333333337,0.09765626666666634,-26.603083561543514,17.880258894567294,-2.0935064965459453,-4.577832874966148,4.1991016989723455,0.7343747433656942,6.255262997918369,2.0339026934983537,5.786410900936515,2.051905414017702,-0.11050792,-0.6437761866666667,-0.2200712933333332,0.9743553999999999,0.6892685638060155,0.7034068658187015,0.6759076505845871,0.6533690790365966
LBP01_S00,LBP01,-1662,164,0,163,-1662,1715397976.52,2024-05-11 03:26:16.520000+00:00,2024-05-11 12:26:16.520000+09:00,2024,5,11,3,26,16,520,,,,,,,,,0.342773,0.343994,0.799072,96.923828,-99.914551,17.211914,,,,,,,,,,,0.0,1.0,1.0,0.0,0.0,0.0,0.0,4.0,0.0,-0.06331385333333334,0.13192708,0.9485872400000002,-1.4884439866666672,-0.49560546666666594,0.19287110666666635,-26.145582949234484,17.963345006126882,-4.66990185645635,-5.6236561929355275,4.917635499217421,0.5475786691074402,7.490560077748991,2.0211237755954254,6.7365464097209955,2.0611041488820594,0.40608685333333333,0.21206692000000002,-0.14951524000000016,0.7676690133333335,0.4819063373734695,0.6967988058656558,0.6740588566297978,0.6502609853366841
LBP01_S00,LBP01,-1661,165,0,164,-1661,1715397976.56,2024-05-11 03:26:16.560000+00:00,2024-05-11 12:26:16.560000+09:00,2024,5,11,3,26,16,560,,,,,,,,,0.118164,0.361816,1.664062,-56.57959,64.575195,-2.380371,,,,,,,,,,,0.0,1.0,1.0,0.0,0.0,0.0,0.0,4.0,0.0,-0.061943413333333336,0.13098958666666666,0.9744042933333332,-2.158203093333334,0.16601562666666736,0.1391601599999997,-24.54961266247102,16.950783772640353,-6.035744427419584,-6.605640699434368,5.595666850123035,0.30614889201065687,8.662546028256877,2.0152075233686855,7.679063832088803,2.061210955305202,0.18010741333333335,0.23082641333333337,0.6896577066666667,1.1005915333333334,0.7492311164084693,0.7167595006630261,0.6787459748019069,0.6541207105448686
LBP01_S00,LBP01,-1660,166,0,165,-1660,1715397976.6,2024-05-11 03:26:16.600000+00:00,2024-05-11 12:26:16.600000+09:00,2024,5,11,3,26,16,600,,,,,,,,,-0.686523,-0.01123,2.043213,-106.018066,50.231934,-17.333984,,,,,,,,,,,0.0,1.0,1.0,0.0,0.0,0.0,0.0,4.0,0.0,-0.06465825333333332,0.13097005333333334,0.9907747466666667,-1.5958658533333334,2.202962240000001,-0.23925780000000033,-21.76344272126813,14.801626547055784,-6.224224831873811,-7.476178408285094,6.187731912005266,0.05717989873570442,9.704871938782913,2.031980863101049,8.536492253849502,2.0552305692788573,-0.6218647466666667,-0.14220005333333333,1.0524382533333334,1.8165030533333333,1.2306757880912902,0.727350490376259,0.6956979367216038,0.6648333868486518
LBP01_S00,LBP01,-1659,167,0,166,-1659,1715397976.64,2024-05-11 03:26:16.640000+00:00,2024-05-11 12:26:16.640000+09:00,2024,5,11,3,26,16,640,,,,,,,,,-0.234863,0.197021,1.899658,-40.83252,8.544922,-8.789062,,,,,,,,,,,0.0,1.0,1.0,0.0,0.0,0.0,0.0,4.0,0.0,-0.07308598666666667,0.13189453333333334,0.9877832133333334,-0.12776689333333366,4.581705733333334,-0.7218424400000003,-17.70300222370787,11.541786632601452,-5.473285431409206,-8.184298497233408,6.649403377309325,-0.16175151852066383,10.546253871386439,2.0793935115212063,9.254769815981305,2.0485613355373857,-0.16177701333333333,0.06512646666666666,0.9118747866666667,1.1387782666666666,0.9284012522944575,0.7449037670615549,0.69638789391141,0.6664593226710582
LBP01_S00,LBP01,-1658,168,0,167,-1658,1715397976.68,2024-05-11 03:26:16.680000+00:00,2024-05-11 12:26:16.680000+09:00,2024,5,11,3,26,16,680,,,,,,,,,-0.07373,0.222412,1.142578,72.937012,105.407715,-9.216309,,,,,,,,,,,0.0,1.0,1.0,0.0,0.0,0.0,0.0,4.0,0.0,-0.07696944,0.12839844,0.9722721466666667,-0.09440100000000035,3.280436200000001,-0.9529622266666671,-12.391667248492434,7.441607458635216,-4.197290283011447,-8.679965187173107,6.947067675654734,-0.3296431298411217,11.12259904580379,2.1132549000329726,9.798060565372618,2.0461555076340554,0.003239439999999996,0.09401356,0.17030585333333337,0.26755885333333335,0.19455880117584518,0.7284295654093298,0.6872234761657444,0.6634809375802662
LBP01_S00,LBP01,-1657,169,0,168,-1657,1715397976.72,2024-05-11 03:26:16.720000+00:00,2024-05-11 12:26:16.720000+09:00,2024,5,11,3,26,16,720,,,,,,,,,-0.363037,0.571777,-0.397217,-25.268555,43.945312,-23.010254,,,,,,,,,,,0.0,1.0,1.0,0.0,0.0,0.0,0.0,4.0,0.0,-0.06758468000000001,0.13297526666666667,0.9538964933333334,0.29622399999999965,1.8741862000000011,-1.1767578000000003,-6.039379028025733,3.0787808376014123,-2.9198228173393304,-8.921540348294135,7.07021890915879,-0.44643604253469493,11.392154438460743,2.0439038631382402,10.14641433352364,2.044580818184228,-0.29545232,0.4388017333333333,-1.3511134933333333,2.0853675466666663,1.4509812908639186,0.7698578179724832,0.7117451184838712,0.6758607921015618
LBP01_S00,LBP01,-1656,170,0,169,-1656,1715397976.76,2024-05-11 03:26:16.760000+00:00,2024-05-11 12:26:16.760000+09:00,2024,5,11,3,26,16,760,,,,,,,,,-0.007568,-0.209473,0.389404,-10.314941,-109.741211,9.887695,,,,,,,,,,,0.0,1.0,1.0,0.0,0.0,0.0,0.0,4.0,0.0,-0.06339522666666667,0.12908854666666666,0.9447233199999999,-0.2172851200000004,1.5502929733333342,-1.2556966000000003,0.9486451208009993,-0.8026518542801578,-2.1604943336145026,-8.883594543462095,7.038112834987583,-0.532855815879275,11.346242532713763,2.0300744163841298,10.29563437214055,2.048447957741862,0.05582722666666667,-0.33856154666666666,-0.55531932,0.9497080933333333,0.6527787889353324,0.7615560153909021,0.702296574354177,0.67905293323973
LBP01_S00,LBP01,-1655,171,0,170,-1655,1715397976.8,2024-05-11 03:26:16.800000+00:00,2024-05-11 12:26:16.800000+09:00,2024,5,11,3,26,16,800,,,,,,,,,0.449951,0.148193,0.580322,6.591797,-109.924316,17.333984,,,,,,,,,,,0.0,1.0,1.0,0.0,0.0,0.0,0.0,4.0,0.0,-0.06572269333333332,0.12513998666666665,0.9530924666666666,-0.4801432000000004,0.33691406666666773,-0.843098946666667,8.002945893140891,-3.580679701961221,-2.2932739918670197,-8.56347670773646,6.894885646909134,-0.6245867755539558,11.011933983097398,2.0569410193864988,10.257238792576658,2.0537534893879643,0.5156736933333333,0.023053013333333344,-0.3727704666666666,0.9114971733333332,0.6367170645103459,0.7593661504809066,0.7015602532289994,0.6740716518517232
LBP01_S00,LBP01,-1654,172,0,171,-1654,1715397976.84,2024-05-11 03:26:16.840000+00:00,2024-05-11 12:26:16.840000+09:00,2024,5,11,3,26,16,840,,,,,,,,,0.106934,0.23999,1.319092,42.96875,32.226562,14.343262,,,,,,,,,,,0.0,1.0,1.0,0.0,0.0,0.0,0.0,4.0,0.0,-0.06425784,0.12892905333333335,0.9728027466666667,-1.2825520533333339,0.25878906666666773,-0.1033528533333336,14.445246577807136,-5.014241099502725,-3.4204801056737537,-7.985666844624173,6.694316002929025,-0.761405979780906,10.44818073955689,2.0357725103139894,10.056943370200853,2.053696617295219,0.17119183999999998,0.11106094666666666,0.34628925333333327,0.6285420399999999,0.4019420691234487,0.7626321875091732,0.6990860807327534,0.6707608325803394
LBP01_S00,LBP01,-1653,173,0,172,-1653,1715397976.88,2024-05-11 03:26:16.880000+00:00,2024-05-11 12:26:16.880000+09:00,2024,5,11,3,26,16,880,,,,,,,,,-0.472168,0.11499,1.92627,-85.144043,19.104004,-16.113281,,,,,,,,,,,0.0,1.0,1.0,0.0,0.0,0.0,0.0,4.0,0.0,-0.06402346666666667,0.13439454666666664,0.9825618666666666,0.5533854399999996,1.917317720000001,0.24739583999999976,19.581846257045715,-5.2988976074041965,-5.316202885019278,-7.202392994342345,6.4823600986328564,-0.9740540951816771,9.738800679428616,2.0181557990000822,9.730759417839888,2.0457516244428886,-0.40814453333333334,-0.019404546666666647,0.9437081333333334,1.3712572133333334,1.0283693584703444,0.7639533176326112,0.7103220861353523,0.6820944323048751
LBP01_S00,LBP01,-1652,174,0,173,-1652,1715397976.92,2024-05-11 03:26:16.920000+00:00,2024-05-11 12:26:16.920000+09:00,2024,5,11,3,26,16,920,,,,,,,,,-0.189697,0.330566,1.640625,65.856934,-12.023926,2.624512,,,,,,,,,,,0.0,1.0,1.0,0.0,0.0,0.0,0.0,4.0,0.0,-0.07260745333333334,0.13741864,0.9766699333333334,2.4511718933333326,4.0087890800000014,0.11962891999999972,22.851949251988078,-4.8834900578824785,-7.472901211890119,-6.288315024262822,6.287020496317557,-1.2729701436572818,8.982760463918062,2.059795171171769,9.319457187390155,2.0345810507498046,-0.11708954666666667,0.19314736000000002,0.6639550666666666,0.9741919733333333,0.7013217486759645,0.7591875549430214,0.7045807735999418,0.677279514395768
LBP01_S00,LBP01,-1651,175,0,174,-1651,1715397976.96,2024-05-11 03:26:16.960000+00:00,2024-05-11 12:26:16.960000+09:00,2024,5,11,3,26,16,960,,,,,,,,,-0.048828,0.251221,0.827148,52.734375,141.967773,-15.625,,,,,,,,,,,0.0,1.0,1.0,0.0,0.0,0.0,0.0,4.0,0.0,-0.07348636,0.13628908,0.95940756,3.4155273599999996,2.2916666800000014,-0.2343749866666669,24.01823196567416,-4.1774914037048685,-9.243185400394108,-5.327585745635855,6.119920840169362,-1.6426975596730462,8.278590232617955,2.0682628398297056,8.863499631461256,2.025855659159113,0.024658359999999997,0.11493192000000002,-0.13225956000000005,0.27184984000000006,0.1769462408873656,0.7383681877960545,0.6950387791388445,0.6731782906699465
LBP01_S00,LBP01,-1650,176,0,175,-1650,1715397977.0,2024-05-11 03:26:17+00:00,2024-05-11 12:26:17+09:00,2024,5,11,3,26,17,0,3.0,26.0,16.0,40.540524,141.52655,15.23,3.0,15.0,-0.39502,-0.323242,0.001465,57.617188,10.559082,-40.527344,-498.0,60.0,571.0,683.0,0.0,1028.300049,32.689999,0.15162,-124.481987,4.035937,0.0,1.0,1.0,0.0,0.0,0.0,0.0,6.0,0.0,-0.06693687999999999,0.13595705333333336,0.9386523466666667,4.312337266666666,0.6803385466666678,-0.5851236933333336,23.33287847349274,-3.3472196734064106,-10.028931854144517,-4.394270606696145,5.986032053233106,-2.043854833838827,7.701917715024889,2.031412142173595,8.400219241077826,2.0212951478000916,-0.32808312,-0.45919905333333333,-0.9371873466666667,1.72446952,1.0939937965835413,0.7560621022086064,0.7133637484643613,0.6811865444260952
LBP01_S00,LBP01,-1649,177,0,176,-1649,1715397977.04,2024-05-11 03:26:17.040000+00:00,2024-05-11 12:26:17.040000+09:00,2024,5,11,3,26,17,40,,,,,,,,,0.04541,0.226318,0.047119,128.662109,-120.117188,-12.939453,,,,,,,,,,,0.0,1.0,1.0,0.0,0.0,0.0,0.0,6.0,0.0,-0.06031904,0.13289063999999998,0.92486328,3.9729818,-1.0628255066666654,-0.6152343733333335,21.569089859187223,-2.3297374430071565,-9.450910409603765,-3.5315070123286567,5.89284255551282,-2.4218912502229775,7.284414347776763,1.9999435829979009,7.963559802954575,2.016915501372501,0.10572904,0.09342736000000001,-0.8777442799999999,1.07690068,0.8890119923649002,0.7634683227646031,0.7076872137187471,0.6860752963179305
LBP01_S00,LBP01,-1648,178,0,177,-1648,1715397977.08,2024-05-11 03:26:17.080000+00:00,2024-05-11 12:26:17.080000+09:00,2024,5,11,3,26,17,80,,,,,,,,,0.433838,0.217285,0.537354,-77.209473,-91.247559,-5.92041,,,,,,,,,,,0.0,1.0,1.0,0.0,0.0,0.0,0.0,6.0,0.0,-0.05928388,0.13000328,0.9282714799999998,2.5927734666666664,-2.556966133333332,-0.3181966133333336,19.83167332791125,-1.032896324650754,-7.440965019409691,-2.738240079212207,5.851526702526789,-2.7195298509993653,7.009576741306478,2.0015491631021334,7.585131291861131,2.014697631064744,0.49312188,0.08728172000000001,-0.3909174799999998,0.9713210799999998,0.6352981688549426,0.7711066806946504,0.7075811877632039,0.6812843800540241
LBP01_S00,LBP01,-1647,179,0,178,-1647,1715397977.12,2024-05-11 03:26:17.120000+00:00,2024-05-11 12:26:17.120000+09:00,2024,5,11,3,26,17,120,,,,,,,,,-0.032715,-0.046875,1.537354,-31.494141,36.560059,7.446289,,,,,,,,,,,0.0,1.0,1.0,0.0,0.0,0.0,0.0,6.0,0.0,-0.05593752,0.13894859999999998,0.9421679733333331,2.1582031466666662,-2.2493489466666654,-0.00325520000000027,19.16994640525055,0.4516746912000495,-4.232853540653182,-1.9714422230021849,5.869593690174791,-2.8888439926254925,6.832578879171752,1.9566499472313252,7.294020512224181,2.011316401918623,0.023222519999999996,-0.18582359999999998,0.595186026666667,0.804232146666667,0.6239520030349809,0.7757997619478445,0.709624119211913,0.6836261444499105
LBP01_S00,LBP01,-1646,180,0,179,-1646,1715397977.16,2024-05-11 03:26:17.160000+00:00,2024-05-11 12:26:17.160000+09:00,2024,5,11,3,26,17,160,,,,,,,,,-0.398682,0.155029,1.6875,-57.189941,14.160156,14.648438,,,,,,,,,,,0.0,1.0,1.0,0.0,0.0,0.0,0.0,6.0,0.0,-0.060641293333333325,0.13931644,0.9544108133333333,2.292480479999999,-0.2587890533333323,-0.04313150666666694,20.15218501306423,1.8028118516473937,-0.27171973946865535,-1.1653548224796157,5.941706164240687,-2.899712782204239,6.71343862887946,1.9844693027939146,7.113140697724364,2.003848553112147,-0.33804070666666663,0.015712559999999987,0.7330891866666667,1.0868424533333334,0.8074268756445055,0.7664400488324099,0.7182442370380123,0.6859857759177423
LBP01_S00,LBP01,-1645,181,0,180,-1645,1715397977.2,2024-05-11 03:26:17.200000+00:00,2024-05-11 12:26:17.200000+09:00,2024,5,11,3,26,17,200,,,,,,,,,-0.028076,0.200684,1.396484,44.494629,29.846191,4.943848,,,,,,,,,,,0.0,1.0,1.0,0.0,0.0,0.0,0.0,6.0,0.0,-0.06725587999999999,0.1432292,0.9543457066666665,3.070475266666666,1.9148763066666679,-0.36132812000000025,22.617695715340744,2.6331734788057464,3.9089647896952378,-0.260646993865986,6.047033103392916,-2.7433541906164294,6.645339601864894,2.013144555110594,7.053333076470625,1.9950403282751474,0.039179879999999986,0.0574548,0.44213829333333354,0.5387729733333335,0.44757389051593177,0.7492000907589356,0.7040608850970158,0.6819997969880363
LBP01_S00,LBP01,-1644,182,0,181,-1644,1715397977.24,2024-05-11 03:26:17.240000+00:00,2024-05-11 12:26:17.240000+09:00,2024,5,11,3,26,17,240,,,,,,,,,-0.040527,0.150146,0.948242,61.584473,91.674805,3.845215,,,,,,,,,,,0.0,1.0,1.0,0.0,0.0,0.0,0.0,6.0,0.0,-0.06844729333333334,0.14568362666666665,0.9385123733333334,3.277994799999999,2.494303386666668,-0.7194010400000002,25.740340440515578,2.7395579577789606,7.795894249160067,0.7689666237546372,6.156615421704075,-2.4315184206500264,6.663895628622454,2.01359380723642,7.109886346218161,1.9847751664541722,0.02792029333333334,0.004462373333333353,0.009729626666666658,0.04211229333333335,0.029901859317743664,0.7271629996184943,0.6903653452243875,0.6736664275703145
LBP01_S00,LBP01,-1643,183,0,182,-1643,1715397977.28,2024-05-11 03:26:17.280000+00:00,2024-05-11 12:26:17.280000+09:00,2024,5,11,3,26,17,280,,,,,,,,,-0.386719,0.291016,-0.13501,73.425293,43.273926,-10.253906,,,,,,,,,,,0.0,1.0,1.0,0.0,0.0,0.0,0.0,6.0,0.0,-0.06261396,0.14409182666666667,0.9166959733333332,1.9352213599999992,2.058105466666668,-0.8129882800000003,28.366110030534188,2.2545947561885726,10.968569358500028,1.9036110249760045,6.246799211951617,-1.9927756463100252,6.8276928830590995,1.9843435075388751,7.264589883652327,1.9774496672986293,-0.32410503999999996,0.14692417333333332,-1.0517059733333332,1.5227351866666665,1.1102775526903614,0.7489489691229361,0.7097126854643524,0.6815680718769047
