file_name,test_id,_program_index,program_index,session_id,index,_index,unixtime,datetime_utc,datetime_jst,rtc_year,rtc_month,rtc_day,rtc_hour,rtc_min,rtc_sec,rtc_msec,gps_hour,gps_min,gps_sec,latitude,longitude,altitude,fix_type,SIV,acc_x,acc_y,acc_z,gyro_x,gyro_y,gyro_z,mag_x,mag_y,mag_z,illuminance,atmopress,water_pressure,water_temp,depth,alt_wps,battery_level,behavior_class,camera_command,camera_recording,camera_count,play_audio,speaker_on,audio_file,prev_sd_write_time_ms,delay_occurred_counter,acc_x_ma,acc_y_ma,acc_z_ma,gyro_x_ma,gyro_y_ma,gyro_z_ma,gyro_x_lowpass,gyro_y_lowpass,gyro_z_lowpass,angle_x,angle_y,angle_z,combined_angle_change,gravity_adjusted_angle,smoothed_angle_change,smoothed_gravity_angle,acc_x_dy,acc_y_dy,acc_z_dy,ODBA,VeDBA,smoothed_VeDBA_1s,smoothed_VeDBA_2s,smoothed_VeDBA_3s
LBP01_S02,LBP01,-1650,1,2,0,-1650,1715400852.0,2024-05-11 04:14:12+00:00,2024-05-11 13:14:12+09:00,2024,5,11,4,14,12,0,4.0,14.0,11.0,40.546448,141.525192,-6.959,3.0,17.0,-0.386963,0.017822,0.190674,70.983887,142.211914,-53.710938,-483.0,12.0,574.0,648.0,0.0,1027.099976,28.73,0.139728,-114.610268,4.000781,0.0,1.0,1.0,2.0,0.0,0.0,0.0,5.0,0.0,,,,,,,70.45891001560238,143.37940813206046,-53.44152789818784,2.8183564006240953,5.735176325282419,-2.137661115927514,6.738321402958397,,13.194226666386106,,,,,,,,,
LBP01_S02,LBP01,-1649,2,2,1,-1649,1715400852.04,2024-05-11 04:14:12.040000+00:00,2024-05-11 13:14:12.040000+09:00,2024,5,11,4,14,12,40,,,,,,,,,-0.11792,0.041748,0.242432,-23.681641,-58.47168,-42.480469,,,,,,,,,,,0.0,1.0,1.0,2.0,0.0,0.0,0.0,5.0,0.0,,,,,,,35.81852877320967,105.40492267576309,-41.8044982315977,4.2510975515524825,9.951373232312942,-3.8098410451914217,11.472425567038355,,13.956454612694776,,,,,,,,,
LBP01_S02,LBP01,-1648,3,2,2,-1648,1715400852.08,2024-05-11 04:14:12.080000+00:00,2024-05-11 13:14:12.080000+09:00,2024,5,11,4,14,12,80,,,,,,,,,0.31543,-0.171631,0.847656,-97.717285,-38.146973,-22.583008,,,,,,,,,,,0.0,1.0,1.0,2.0,0.0,0.0,0.0,5.0,0.0,,,,,,,4.7443032347800465,71.29375937362862,-31.534468379641066,4.440869680943685,12.803123607258087,-5.0712197803770644,14.469228303083126,,14.597557407727205,,,,,,,,,
LBP01_S02,LBP01,-1647,4,2,3,-1647,1715400852.12,2024-05-11 04:14:12.120000+00:00,2024-05-11 13:14:12.120000+09:00,2024,5,11,4,14,12,120,,,,,,,,,0.094238,0.448242,1.580566,88.439941,106.811523,-0.915527,,,,,,,,,,,0.0,1.0,1.0,2.0,0.0,0.0,0.0,5.0,0.0,,,,,,,-20.094112178867668,44.1034052597564,-23.647151656281824,3.637105193788978,14.567259817648342,-6.017105846628337,16.175263693525608,,15.179478397431929,,,,,,,,,
LBP01_S02,LBP01,-1646,5,2,4,-1646,1715400852.16,2024-05-11 04:14:12.160000+00:00,2024-05-11 13:14:12.160000+09:00,2024,5,11,4,14,12,160,,,,,,,,,-0.936279,-0.000488,2.063232,-136.59668,8.972168,14.648438,,,,,,,,,,,0.0,1.0,1.0,2.0,0.0,0.0,0.0,5.0,0.0,,,,,,,-37.095705896537545,25.21018085307014,-18.606067482994447,2.153276957927476,15.575667051771148,-6.761348545948115,17.11589436532504,,15.730918857819749,,,,,,,,,
LBP01_S02,LBP01,-1645,6,2,5,-1645,1715400852.2,2024-05-11 04:14:12.200000+00:00,2024-05-11 13:14:12.200000+09:00,2024,5,11,4,14,12,200,,,,,,,,,-0.077393,-0.041016,2.228027,-54.443359,-71.166992,-4.150391,,,,,,,,,,,0.0,1.0,1.0,2.0,0.0,0.0,0.0,5.0,0.0,,,,,,,-45.84172279538352,14.227291376921718,-16.25664257619328,0.3196080461121351,16.144758706848016,-7.411614248995846,17.767594344238127,,16.257558536821584,,,,,,,,,
LBP01_S02,LBP01,-1644,7,2,6,-1644,1715400852.24,2024-05-11 04:14:12.240000+00:00,2024-05-11 13:14:12.240000+09:00,2024,5,11,4,14,12,240,,,,,,,,,-0.284424,0.002686,0.602295,56.762695,188.537598,-58.47168,,,,,,,,,,,0.0,1.0,1.0,2.0,0.0,0.0,0.0,5.0,0.0,,,,,,,-46.944883730580315,9.422656750451782,-15.946754893643298,-1.5581873031110776,16.521664976866088,-8.049484444741578,18.444174177921784,,17.755463026091828,,,,,,,,,
LBP01_S02,LBP01,-1643,8,2,7,-1643,1715400852.28,2024-05-11 04:14:12.280000+00:00,2024-05-11 13:14:12.280000+09:00,2024,5,11,4,14,12,280,,,,,,,,,-0.132324,0.189453,-0.018555,9.643555,-15.625,-54.56543,,,,,,,,,,,0.0,1.0,1.0,2.0,0.0,0.0,0.0,5.0,0.0,,,,,,,-41.75192225391615,8.416438558675715,-16.78009823765156,-3.228264193267724,16.858322519213118,-8.72068837424764,19.252925325364988,,18.833650179525883,,,,,,,,,
LBP01_S02,LBP01,-1642,9,2,8,-1642,1715400852.32,2024-05-11 04:14:12.320000+00:00,2024-05-11 13:14:12.320000+09:00,2024,5,11,4,14,12,320,,,,,,,,,0.175781,-0.160645,0.878174,-83.984375,-59.143066,-24.353027,,,,,,,,,,,0.0,1.0,1.0,2.0,0.0,0.0,0.0,5.0,0.0,,,,,,,-32.04454046013383,8.899864368314779,-17.891625366111164,-4.510045811673077,17.21431709394571,-9.436353388892087,20.142442540922303,,19.647733652038514,,,,,,,,,
LBP01_S02,LBP01,-1641,10,2,9,-1641,1715400852.36,2024-05-11 04:14:12.360000+00:00,2024-05-11 13:14:12.360000+09:00,2024,5,11,4,14,12,360,,,,,,,,,0.324951,0.232422,1.585205,-17.211914,115.29541,-6.164551,,,,,,,,,,,0.0,1.0,1.0,2.0,0.0,0.0,0.0,5.0,0.0,,,,,,,-19.830635271066267,9.168862531588749,-18.635488922310522,-5.303271222515728,17.58107159520926,-10.181772945784507,20.997315647838096,,20.311533639834302,,,,,,,,,
LBP01_S02,LBP01,-1640,11,2,10,-1640,1715400852.4,2024-05-11 04:14:12.400000+00:00,2024-05-11 13:14:12.400000+09:00,2024,5,11,4,14,12,400,,,,,,,,,-0.970947,0.311768,1.850586,-127.13623,44.006348,0.976562,,,,,,,,,,,0.0,1.0,1.0,2.0,0.0,0.0,0.0,5.0,0.0,,,,,,,-7.202765080849937,8.36662671333587,-18.639254620544072,-5.591381825749726,17.915736663742695,-10.92734313060627,21.717366295660867,,20.889217055406778,,,,,,,,,
LBP01_S02,LBP01,-1639,12,2,11,-1639,1715400852.44,2024-05-11 04:14:12.440000+00:00,2024-05-11 13:14:12.440000+09:00,2024,5,11,4,14,12,440,,,,,,,,,-0.274902,0.121582,2.107178,-34.606934,-127.319336,3.845215,,,,,,,,,,,0.0,1.0,1.0,2.0,0.0,0.0,0.0,5.0,0.0,,,,,,,3.846881367434933,6.427477484486503,-17.75810628347511,-5.437506571052328,18.172835763122155,-11.637667381945274,22.25429710137891,,21.398730794451478,,,,,,,,,
LBP01_S02,LBP01,-1638,13,2,12,-1638,1715400852.48,2024-05-11 04:14:12.480000+00:00,2024-05-11 13:14:12.480000+09:00,2024,5,11,4,14,12,480,,,,,,,,,0.160156,-0.134033,1.401123,103.210449,77.087402,2.01416,,,,,,,,,,,0.0,1.0,1.0,2.0,0.0,0.0,0.0,5.0,0.0,,,,,,,11.738369385102647,3.792786060499596,-16.00413323634811,-4.967971795648222,18.32454720554214,-12.2778327113992,22.61006302820942,,21.826602727655548,,,,,,,,,
LBP01_S02,LBP01,-1637,14,2,13,-1637,1715400852.52,2024-05-11 04:14:12.520000+00:00,2024-05-11 13:14:12.520000+09:00,2024,5,11,4,14,12,520,,,,,,,,,-0.539307,0.075928,-0.465332,149.414062,21.54541,-63.049316,,,,,,,,,,,0.0,1.0,1.0,2.0,0.0,0.0,0.0,5.0,0.0,,,,,,,15.686484121555596,1.0292316759725064,-13.508357048306854,-4.340512430785998,18.36571647258104,-12.818166993331474,22.813263571483468,,22.148020575287024,,,,,,,,,
LBP01_S02,LBP01,-1636,15,2,14,-1636,1715400852.56,2024-05-11 04:14:12.560000+00:00,2024-05-11 13:14:12.560000+09:00,2024,5,11,4,14,12,560,,,,,,,,,0.148438,0.165039,0.258545,61.889648,-152.648926,-21.362305,,,,,,,,,,,0.0,1.0,1.0,2.0,0.0,0.0,0.0,5.0,0.0,,,,,,,15.952742746128726,-1.4996570416389579,-10.519271427760252,-3.7024027209408494,18.30573019091548,-13.238937850441884,22.89272852104981,,22.343322880793814,,,,,,,,,
LBP01_S02,LBP01,-1635,16,2,15,-1635,1715400852.6,2024-05-11 04:14:12.600000+00:00,2024-05-11 13:14:12.600000+09:00,2024,5,11,4,14,12,600,,,,,,,,,0.782471,0.202393,1.003662,-47.851562,-22.155762,-10.314941,,,,,,,,,,,0.0,1.0,1.0,2.0,0.0,0.0,0.0,5.0,0.0,,,,,,,13.755980614943457,-3.7862821505054067,-7.396289667507278,-3.1521634963431113,18.154278904895264,-13.534789437142175,22.862731734685134,,22.406173316670095,,,,,,,,,
LBP01_S02,LBP01,-1634,17,2,16,-1634,1715400852.64,2024-05-11 04:14:12.640000+00:00,2024-05-11 13:14:12.640000+09:00,2024,5,11,4,14,12,640,,,,,,,,,-0.053955,0.100586,1.296387,-66.467285,143.371582,6.713867,,,,,,,,,,,0.0,1.0,1.0,2.0,0.0,0.0,0.0,5.0,0.0,,,,,,,10.801758978310453,-6.102831106494706,-4.556047586067359,-2.7200931372106933,17.910165660635474,-13.71703134058487,22.722893509962468,,22.344532105404703,,,,,,,,,
LBP01_S02,LBP01,-1633,18,2,17,-1633,1715400852.68,2024-05-11 04:14:12.680000+00:00,2024-05-11 13:14:12.680000+09:00,2024,5,11,4,14,12,680,,,,,,,,,-0.773926,0.117188,1.745117,-91.308594,-8.056641,25.939941,,,,,,,,,,,0.0,1.0,1.0,2.0,0.0,0.0,0.0,5.0,0.0,,,,,,,8.628428372532754,-8.748638459275025,-2.3721009997549163,-2.374956002309383,17.560220122264475,-13.811915380575066,22.46710380167977,,22.1777723265348,,,,,,,,,
LBP01_S02,LBP01,-1632,19,2,18,-1632,1715400852.72,2024-05-11 04:14:12.720000+00:00,2024-05-11 13:14:12.720000+09:00,2024,5,11,4,14,12,720,,,,,,,,,-0.017334,-0.214844,2.091064,-12.023926,-71.166992,19.40918,,,,,,,,,,,0.0,1.0,1.0,2.0,0.0,0.0,0.0,5.0,0.0,,,,,,,8.088651497689042,-11.77379526593161,-1.0745899666868999,-2.051409942401821,17.08926831162721,-13.854898979242542,22.09546559599021,,21.932708062841233,,,,,,,,,
LBP01_S02,LBP01,-1631,20,2,19,-1631,1715400852.76,2024-05-11 04:14:12.760000+00:00,2024-05-11 13:14:12.760000+09:00,2024,5,11,4,14,12,760,,,,,,,,,-0.37085,-0.101807,0.23584,71.105957,133.178711,-19.958496,,,,,,,,,,,0.0,1.0,1.0,2.0,0.0,0.0,0.0,5.0,0.0,,,,,,,9.199692964994071,-14.844218973204754,-0.7052141215883023,-1.6834222238020582,16.495499552699023,-13.883107544106073,21.62582000660089,,21.640111483705297,,,,,,,,,
LBP01_S02,LBP01,-1630,21,2,20,-1630,1715400852.8,2024-05-11 04:14:12.800000+00:00,2024-05-11 13:14:12.800000+09:00,2024,5,11,4,14,12,800,,,,,,,,,-0.122314,0.04248,-0.220215,122.924805,-109.558105,-33.02002,,,,,,,,,,,0.0,1.0,1.0,2.0,0.0,0.0,0.0,5.0,0.0,,,,,,,11.36981291229317,-17.320708062245707,-1.1466629883809192,-1.2286297073103314,15.802671230209194,-13.92897406364131,21.100954183006966,,21.3321553779189,,,,,,,,,
LBP01_S02,LBP01,-1629,22,2,21,-1629,1715400852.84,2024-05-11 04:14:12.840000+00:00,2024-05-11 13:14:12.840000+09:00,2024,5,11,4,14,12,840,,,,,,,,,0.290039,0.182129,0.505127,43.640137,-157.653809,-14.465332,,,,,,,,,,,0.0,1.0,1.0,2.0,0.0,0.0,0.0,5.0,0.0,,,,,,,13.800018394595755,-18.498762617109264,-2.1939753505220847,-0.6766289715265011,15.062720725524823,-14.016733077662193,20.586699312679862,,21.040449147369458,,,,,,,,,
LBP01_S02,LBP01,-1628,23,2,22,-1628,1715400852.88,2024-05-11 04:14:12.880000+00:00,2024-05-11 13:14:12.880000+09:00,2024,5,11,4,14,12,880,,,,,,,,,0.384766,0.241455,1.032227,-32.531738,49.621582,-7.019043,,,,,,,,,,,0.0,1.0,1.0,2.0,0.0,0.0,0.0,5.0,0.0,,,,,,,15.80689727571805,-17.872294553788855,-3.612098947286394,-0.044353080497779085,14.347828943373269,-14.16121703555365,20.15942039127376,,20.794309865427056,,,,,,,,,
LBP01_S02,LBP01,-1627,24,2,23,-1627,1715400852.92,2024-05-11 04:14:12.920000+00:00,2024-05-11 13:14:12.920000+09:00,2024,5,11,4,14,12,920,,,,,,,,,-0.669678,0.193359,1.525391,-42.541504,77.697754,46.875,,,,,,,,,,,0.0,1.0,1.0,2.0,0.0,0.0,0.0,5.0,0.0,,,,,,,16.932487486550958,-15.288059027191894,-5.150824755859812,0.6329464189642593,13.736306582285593,-14.367250025788042,19.887297780124094,,20.619204047439833,,,,,,,,,
LBP01_S02,LBP01,-1626,25,2,24,-1626,1715400852.96,2024-05-11 04:14:12.960000+00:00,2024-05-11 13:14:12.960000+09:00,2024,5,11,4,14,12,960,,,,,,,,,-0.40918,0.454346,1.69165,-7.995605,-106.323242,30.639648,,,,,,,,,,,0.0,1.0,1.0,2.0,0.0,0.0,0.0,5.0,0.0,,,,,,,16.88944543340084,-10.950746702515872,-6.541668448622646,1.308524236300293,13.298276714184958,-14.628916763732947,19.81316746318584,,20.535167803201443,,,,,,,,,
LBP01_S02,LBP01,-1625,26,2,25,-1625,1715400853.0,2024-05-11 04:14:13+00:00,2024-05-11 13:14:13+09:00,2024,5,11,4,14,13,0,4.0,14.0,12.0,40.546509,141.525253,-7.009,3.0,17.0,0.152588,-0.04248,1.146973,-16.601562,72.998047,-40.161133,-490.0,15.0,570.0,685.0,0.0,1027.400024,28.73,0.142701,-117.079323,4.000781,0.0,1.0,1.0,2.0,0.0,0.0,0.0,5.0,0.0,,,,,,,15.488086074674733,-5.343261891597739,-7.528848197328718,1.9280476792872823,13.084546238521048,-14.930070691626096,19.945669429190712,,20.55473238123246,,,,,,,,,
LBP01_S02,LBP01,-1624,27,2,26,-1624,1715400853.04,2024-05-11 04:14:13.040000+00:00,2024-05-11 13:14:13.040000+09:00,2024,5,11,4,14,13,40,,,,,,,,,-0.461914,0.119385,-0.503418,121.704102,57.556152,-60.48584,,,,,,,,,,,0.0,1.0,1.0,2.0,0.0,0.0,0.0,5.0,0.0,,,,,,,12.64863479378399,0.8486262800710531,-7.954602544198946,2.4339930710386417,13.11849128972389,-15.248254793394054,20.26150069053846,,20.680400746316984,,,,,,,,,
LBP01_S02,LBP01,-1623,28,2,27,-1623,1715400853.08,2024-05-11 04:14:13.080000+00:00,2024-05-11 13:14:13.080000+09:00,2024,5,11,4,14,13,80,,,,,,,,,-0.016113,-0.078369,0.115479,28.076172,-110.900879,-26.367188,,,,,,,,,,,0.0,1.0,1.0,2.0,0.0,0.0,0.0,5.0,0.0,,,,,,,8.479635763997898,6.774566819186247,-7.8517991859017835,2.7731785015985575,13.38947396249134,-15.562326760830125,20.71604562180754,,20.902998269141197,,,,,,,,,
LBP01_S02,LBP01,-1622,29,2,28,-1622,1715400853.12,2024-05-11 04:14:13.120000+00:00,2024-05-11 13:14:13.120000+09:00,2024,5,11,4,14,13,120,,,,,,,,,0.616699,0.240234,0.549072,46.020508,-99.67041,-1.342773,,,,,,,,,,,0.0,1.0,1.0,2.0,0.0,0.0,0.0,5.0,0.0,,,,,,,3.3162080022404967,11.466304136821979,-7.461836225512458,2.9058268216881773,13.84812612796422,-15.860800209850623,21.255103153606317,,21.202866120555946,,,,,,,,,
LBP01_S02,LBP01,-1621,30,2,29,-1621,1715400853.16,2024-05-11 04:14:13.160000+00:00,2024-05-11 13:14:13.160000+09:00,2024,5,11,4,14,13,160,,,,,,,,,0.105225,0.150391,1.099854,-98.205566,102.355957,26.733398,,,,,,,,,,,0.0,1.0,1.0,2.0,0.0,0.0,0.0,5.0,0.0,,,,,,,-2.364746554132181,13.980279820620314,-7.136676826925898,2.81123695952289,14.407337320789033,-16.14626728292766,21.82146578691102,,21.554777429394818,,,,,,,,,
LBP01_S02,LBP01,-1620,31,2,30,-1620,1715400853.2,2024-05-11 04:14:13.200000+00:00,2024-05-11 13:14:13.200000+09:00,2024,5,11,4,14,13,200,,,,,,,,,-0.553223,0.022949,1.50415,-107.48291,67.565918,41.870117,,,,,,,,,,,0.0,1.0,1.0,2.0,0.0,0.0,0.0,5.0,0.0,,,,,,,-8.121142926717697,13.67754424355577,-7.1706688197483555,2.4863912424541823,14.954439090531263,-16.433094035717595,22.357637833852205,,21.93519748560275,,,,,,,,,
LBP01_S02,LBP01,-1619,32,2,31,-1619,1715400853.24,2024-05-11 04:14:13.240000+00:00,2024-05-11 13:14:13.240000+09:00,2024,5,11,4,14,13,240,,,,,,,,,0.028076,0.276855,1.141846,54.504395,19.104004,-1.037598,,,,,,,,,,,0.0,1.0,1.0,2.0,0.0,0.0,0.0,5.0,0.0,,,,,,,-13.682721792256487,10.553031174698013,-7.666579361770884,1.9390823707639226,15.376560337519184,-16.73975721018843,22.812674540922004,,22.328762956216426,,,,,,,,,
LBP01_S02,LBP01,-1618,33,2,32,-1618,1715400853.28,2024-05-11 04:14:13.280000+00:00,2024-05-11 13:14:13.280000+09:00,2024,5,11,4,14,13,280,,,,,,,,,-0.423096,0.177246,0.218262,-12.695312,116.516113,-39.0625,,,,,,,,,,,0.0,1.0,1.0,2.0,0.0,0.0,0.0,5.0,0.0,,,,,,,-18.931022256602166,5.420237774051608,-8.521593758115918,1.1818414804998358,15.593369848481249,-17.080620960513066,23.15809890542124,,22.731000781529556,,,,,,,,,
LBP01_S02,LBP01,-1617,34,2,33,-1617,1715400853.32,2024-05-11 04:14:13.320000+00:00,2024-05-11 13:14:13.320000+09:00,2024,5,11,4,14,13,320,,,,,,,,,-0.445312,-0.106689,-0.158691,-1.098633,0.061035,-45.654297,,,,,,,,,,,0.0,1.0,1.0,2.0,0.0,0.0,0.0,5.0,0.0,,,,,,,-23.727846559210032,-0.21722626087174265,-9.536042259989909,0.2327276181314345,15.58468079804638,-17.462062650912664,23.406410868512832,,23.146454922198753,2.541105930664781,,,,,,,,
LBP01_S02,LBP01,-1616,35,2,34,-1616,1715400853.36,2024-05-11 04:14:13.360000+00:00,2024-05-11 13:14:13.360000+09:00,2024,5,11,4,14,13,360,,,,,,,,,0.039795,0.042725,0.197021,48.400879,-138.48877,-30.090332,,,,,,,,,,,0.0,1.0,1.0,2.0,0.0,0.0,0.0,5.0,0.0,,,,,,,-27.72260137837773,-4.62120952269649,-10.562477355949161,-0.8761764370036748,15.39983241713852,-17.88456174515063,23.61736802526514,,23.584061992531275,2.5282868754902816,,,,,,,,
LBP01_S02,LBP01,-1615,36,2,35,-1615,1715400853.4,2024-05-11 04:14:13.400000+00:00,2024-05-11 13:14:13.400000+09:00,2024,5,11,4,14,13,400,,,,,,,,,0.585449,0.225586,0.496094,-3.540039,-135.986328,-6.469727,,,,,,,,,,,0.0,1.0,1.0,2.0,0.0,0.0,0.0,5.0,0.0,,,,,,,-30.297135210398714,-6.424696834995277,-11.58786073726774,-2.0880618454196234,15.142844543738708,-18.34807617464134,23.881324135327496,,24.05268996943645,2.5235085408822324,,,,,,,,
LBP01_S02,LBP01,-1614,37,2,36,-1614,1715400853.44,2024-05-11 04:14:13.440000+00:00,2024-05-11 13:14:13.440000+09:00,2024,5,11,4,14,13,440,,,,,,,,,0.243164,0.0625,1.179443,-92.895508,79.223633,-6.469727,,,,,,,,,,,0.0,1.0,1.0,2.0,0.0,0.0,0.0,5.0,0.0,,,,,,,-30.72548714795292,-5.103387871552628,-12.69145615059651,-3.3170813313377403,14.938709028876602,-18.8557344206652,24.283878943669748,,24.55853109757633,2.5263622216992436,,,,,,,,
LBP01_S02,LBP01,-1613,38,2,37,-1613,1715400853.48,2024-05-11 04:14:13.480000+00:00,2024-05-11 13:14:13.480000+09:00,2024,5,11,4,14,13,480,,,,,,,,,-0.538818,0.301758,1.597412,-128.051758,56.82373,20.446777,,,,,,,,,,,0.0,1.0,1.0,2.0,0.0,0.0,0.0,5.0,0.0,-0.12452793333333333,0.08489584,0.9488737333333334,6.466471373333333,-0.22623701333333257,-5.79182948,-28.486820885583416,-1.0930360698782224,-13.90588280609296,-4.456554166761077,14.894987586081474,-19.41196973290892,24.87058702849952,2.541105930664781,25.10398494508811,2.539465169616016,-0.4142900666666667,0.21686216000000003,0.6485382666666667,1.2796904933333333,0.7995419558156664,0.7995419558156664,0.7995419558156664,0.7995419558156664
LBP01_S02,LBP01,-1612,39,2,38,-1612,1715400853.52,2024-05-11 04:14:13.520000+00:00,2024-05-11 13:14:13.520000+09:00,2024,5,11,4,14,13,520,,,,,,,,,-0.442139,0.072998,1.911377,-94.421387,-58.288574,12.390137,,,,,,,,,,,0.0,1.0,1.0,2.0,0.0,0.0,0.0,5.0,0.0,-0.1127278,0.08125652,0.9581640933333333,4.519042986666666,-3.4749349333333326,-4.978027386666667,-23.554475639272454,4.4670872816490235,-15.07261430805649,-5.398733192331974,15.073671077347434,-20.014874305231178,25.63117385693154,2.5154678203157825,25.68669850757167,2.5356316208448844,-0.3294112,-0.008258520000000005,0.9532129066666668,1.2908826266666669,1.0085607504131548,0.9040513531144106,0.9040513531144106,0.9040513531144106
LBP01_S02,LBP01,-1611,40,2,39,-1611,1715400853.56,2024-05-11 04:14:13.560000+00:00,2024-05-11 13:14:13.560000+09:00,2024,5,11,4,14,13,560,,,,,,,,,0.148926,-0.142334,1.784912,87.585449,70.983887,-1.586914,,,,,,,,,,,0.0,1.0,1.0,2.0,0.0,0.0,0.0,5.0,0.0,-0.11015293333333334,0.07967449333333333,0.9713314000000001,4.828287786666667,-1.5266927466666664,-4.185384159999999,-16.48113068973929,10.199935446551262,-15.79152040946607,-6.057978419921546,15.481668495209485,-20.64653512160982,26.507745555962785,2.513951871666133,26.29809598710341,2.5341895408136788,0.2590789333333333,-0.22200849333333333,0.8135806,1.2946680266666666,0.8822261940713586,0.8967763001000599,0.8967763001000599,0.8967763001000599
LBP01_S02,LBP01,-1610,41,2,40,-1610,1715400853.6,2024-05-11 04:14:13.600000+00:00,2024-05-11 13:14:13.600000+09:00,2024,5,11,4,14,13,600,,,,,,,,,-0.610107,0.087891,-0.012695,99.243164,122.741699,-60.119629,,,,,,,,,,,0.0,1.0,1.0,2.0,0.0,0.0,0.0,5.0,0.0,-0.12319330666666665,0.08514324,0.9778515866666667,5.285644560000001,-0.649414093333333,-3.27799484,-8.23521271465318,14.946056114028195,-15.514609376118935,-6.387386928507673,16.079510739770612,-21.267119496654576,27.416049115250985,2.5349232641502772,26.922118537553665,2.533513788831593,-0.4869136933333333,0.002747760000000002,-0.9905465866666667,1.48020804,1.1037549706785057,0.9485209677446714,0.9485209677446714,0.9485209677446714
LBP01_S02,LBP01,-1609,42,2,41,-1609,1715400853.64,2024-05-11 04:14:13.640000+00:00,2024-05-11 13:14:13.640000+09:00,2024,5,11,4,14,13,640,,,,,,,,,0.04834,0.045654,0.619629,0.732422,-99.54834,-32.287598,,,,,,,,,,,0.0,1.0,1.0,2.0,0.0,0.0,0.0,5.0,0.0,-0.12832676,0.07820965333333334,0.979668,5.31494144,-3.316243519999999,-2.513834693333333,0.08134444796535452,18.045869981298313,-13.753586940177302,-6.384133150589059,16.801345539022545,-21.81726297426167,28.26721301603984,2.591876961283105,27.535703304770408,2.5273345074677014,0.17666676,-0.03255565333333334,-0.360039,0.5692614133333334,0.4023668676392948,0.8392901477235961,0.8392901477235961,0.8392901477235961
LBP01_S02,LBP01,-1608,43,2,42,-1608,1715400853.68,2024-05-11 04:14:13.680000+00:00,2024-05-11 13:14:13.680000+09:00,2024,5,11,4,14,13,680,,,,,,,,,0.64624,0.365234,1.117188,-29.296875,-6.958008,-17.944336,,,,,,,,,,,0.0,1.0,1.0,2.0,0.0,0.0,0.0,5.0,0.0,-0.11432610666666666,0.08222982666666667,0.9632389733333334,7.0711263466666665,-2.2509765866666664,-2.759602933333333,7.443791639910416,19.3899498096452,-10.306019570894774,-6.086381484992642,17.576943531408354,-22.22950375709746,28.98523453025677,2.5164638769892265,28.112026630605765,2.5241079099683708,0.7605661066666667,0.28300417333333333,0.15394902666666666,1.1975193066666665,0.8259857550501636,0.8370727489446906,0.8370727489446906,0.8370727489446906
LBP01_S02,LBP01,-1607,44,2,43,-1607,1715400853.72,2024-05-11 04:14:13.720000+00:00,2024-05-11 13:14:13.720000+09:00,2024,5,11,4,14,13,720,,,,,,,,,-0.736816,0.464111,1.662842,-18.310547,106.994629,-3.295898,,,,,,,,,,,0.0,1.0,1.0,2.0,0.0,0.0,0.0,5.0,0.0,-0.12008781333333333,0.08466798666666667,0.9308529066666668,7.939453159999999,-0.37760418666666623,-3.29020188,12.962482338426376,19.282803119883685,-5.395953021247037,-5.5678821914555865,18.3482556562037,-22.445341877947342,29.520385663830275,2.5255370606264465,28.625914178797522,2.5228204412517794,-0.6167281866666667,0.3794430133333333,0.7319890933333332,1.728160293333333,1.0296303654008996,0.8645809798670062,0.8645809798670062,0.8645809798670062
LBP01_S02,LBP01,-1606,45,2,44,-1606,1715400853.76,2024-05-11 04:14:13.760000+00:00,2024-05-11 13:14:13.760000+09:00,2024,5,11,4,14,13,760,,,,,,,,,-0.997314,-0.520996,2.241455,-177.429199,-55.725098,5.187988,,,,,,,,,,,0.0,1.0,1.0,2.0,0.0,0.0,0.0,5.0,0.0,-0.11849275999999999,0.08296876,0.9236523866666668,7.909342493333334,-4.263509133333333,-2.6472982266666665,15.878145850496585,18.223170222478217,0.3278122574175696,-4.932756357435723,19.07718246510283,-22.43222938765064,29.857593529767705,2.528783524956994,29.059175870429982,2.5217794401154547,-0.8788212400000001,-0.60396476,1.3178026133333334,2.8005886133333333,1.6952002627728555,0.9684083902302374,0.9684083902302374,0.9684083902302374
LBP01_S02,LBP01,-1605,46,2,45,-1605,1715400853.8,2024-05-11 04:14:13.800000+00:00,2024-05-11 13:14:13.800000+09:00,2024,5,11,4,14,13,800,,,,,,,,,0.136963,-0.007324,2.08252,71.777344,-14.465332,20.019531,,,,,,,,,,,0.0,1.0,1.0,2.0,0.0,0.0,0.0,5.0,0.0,-0.10825838666666666,0.08444012,0.9296354666666667,8.1070964,-5.559082053333333,-1.9718424933333332,15.658083699366818,16.692903799825288,5.927247623885114,-4.306433009461051,19.744898617095842,-22.195139482695236,30.01717180749489,2.4779002565565653,29.403330734473865,2.5184425931316925,0.24522138666666665,-0.09176411999999999,1.1528845333333333,1.48987004,1.1822423310799335,0.9921677169913148,0.9921677169913148,0.9921677169913148
LBP01_S02,LBP01,-1604,47,2,46,-1604,1715400853.84,2024-05-11 04:14:13.840000+00:00,2024-05-11 13:14:13.840000+09:00,2024,5,11,4,14,13,840,,,,,,,,,-0.681396,-0.043213,0.041748,242.553711,155.151367,-0.732422,,,,,,,,,,,0.0,1.0,1.0,2.0,0.0,0.0,0.0,5.0,0.0,-0.1114908,0.08389,0.9356641066666667,8.06152348,-3.6775716399999996,-1.1914062933333331,12.257718305761642,15.003893204453703,10.391968140166622,-3.816124277230585,20.34505434527399,-21.77946075708857,30.047112202023374,2.495068532474397,29.658653925024385,2.5123592497681777,-0.5699052,-0.12710300000000002,-0.8939161066666667,1.5909243066666665,1.0677233327759263,0.9997232785697759,0.9997232785697759,0.9997232785697759
LBP01_S02,LBP01,-1603,48,2,47,-1603,1715400853.88,2024-05-11 04:14:13.880000+00:00,2024-05-11 13:14:13.880000+09:00,2024,5,11,4,14,13,880,,,,,,,,,-0.087646,0.447998,0.156006,19.470215,-109.008789,9.70459,,,,,,,,,,,0.0,1.0,1.0,2.0,0.0,0.0,0.0,5.0,0.0,-0.12173168,0.08532554666666665,0.9330859866666666,7.42106124,-4.750162786666666,-0.2905273866666665,6.410529575212551,13.220015609083145,12.874270225410317,-3.559703094222083,20.873854969637314,-21.26448994807216,30.009462510417087,2.5282312434988676,29.83059652199812,2.497362731672942,0.03408567999999999,0.36267245333333337,-0.7770799866666667,1.17383812,0.8582228426613616,0.9868596025781019,0.9868596025781019,0.9868596025781019
LBP01_S02,LBP01,-1602,49,2,48,-1602,1715400853.92,2024-05-11 04:14:13.920000+00:00,2024-05-11 13:14:13.920000+09:00,2024,5,11,4,14,13,920,,,,,,,,,0.423096,-0.01001,0.99292,14.282227,-48.76709,30.883789,,,,,,,,,,,0.0,1.0,1.0,2.0,0.0,0.0,0.0,5.0,0.0,-0.11071605333333336,0.08157554666666667,0.9285677600000001,9.762369826666667,-5.929362013333334,0.3548176666666667,-0.31314116145911414,11.15799393884448,12.889003048494276,-3.5722287406804476,21.320174727191095,-20.74892982613239,29.963790773256104,2.50505780895254,29.925815472254005,2.49311362259946,0.5338120533333334,-0.09158554666666667,0.06435223999999995,0.68974984,0.5454213338651133,0.9500730801853529,0.9500730801853529,0.9500730801853529
LBP01_S02,LBP01,-1601,50,2,49,-1601,1715400853.96,2024-05-11 04:14:13.960000+00:00,2024-05-11 13:14:13.960000+09:00,2024,5,11,4,14,13,960,,,,,,,,,-0.255371,0.458008,1.551514,-74.157715,149.475098,14.770508,,,,,,,,,,,0.0,1.0,1.0,2.0,0.0,0.0,0.0,5.0,0.0,-0.10569001333333333,0.08198245333333333,0.9164648933333333,10.97086592,-3.2950846666666664,0.4467773066666667,-5.838878286860326,8.469017386422223,10.437678563664145,-3.8057838721548607,21.658935422647982,-20.331422683585824,29.949294196401652,2.4805834018285045,29.949740043175503,2.491370227240984,-0.14968098666666668,0.3760255466666667,0.6350491066666668,1.16075564,0.7530517760377462,0.9349175952509216,0.9349175952509216,0.9349175952509216
LBP01_S02,LBP01,-1600,51,2,50,-1600,1715400854.0,2024-05-11 04:14:14+00:00,2024-05-11 13:14:14+09:00,2024,5,11,4,14,14,0,4.0,14.0,13.0,40.546555,141.52533,-7.018,3.0,16.0,-0.969238,-0.43042,2.077881,-207.580566,-35.27832,16.662598,-494.0,11.0,570.0,802.0,0.0,1026.800049,28.77,0.136756,-112.141624,4.000781,0.0,1.0,1.0,2.0,0.0,0.0,0.0,6.0,0.0,-0.11182608,0.08788089333333335,0.8937370266666667,10.793457066666669,-3.2169596666666664,0.09521481333333341,-8.209400517645388,4.788541419812668,6.02618546860321,-4.134159892860676,21.850477079440488,-20.090375264841697,29.969281020756153,2.474089830515133,29.906565443546175,2.4901964505886918,-0.8574119200000001,-0.5183008933333334,1.1841439733333334,2.559856786666667,1.5511247422982692,0.9789323914685892,0.9789323914685892,0.9789323914685892
LBP01_S02,LBP01,-1599,52,2,51,-1599,1715400854.04,2024-05-11 04:14:14.040000+00:00,2024-05-11 13:14:14.040000+09:00,2024,5,11,4,14,14,40,,,,,,,,,0.045654,-0.388672,2.203369,-24.902344,-63.232422,12.695312,,,,,,,,,,,0.0,1.0,1.0,2.0,0.0,0.0,0.0,6.0,0.0,-0.10414053333333333,0.08749026666666666,0.9033268666666667,8.057454466666666,-4.42789716,0.7421874666666667,-6.1814653215608955,-0.09373648153764086,0.5609028071068957,-4.381418505723112,21.84672762017898,-20.067939152557422,29.98663898577717,2.441911780330746,29.801718697430267,2.489984975319202,0.1497945333333333,-0.47616226666666667,1.3000421333333332,1.9259989333333332,1.3925797840179832,1.0065088843052155,1.0065088843052155,1.0065088843052155
LBP01_S02,LBP01,-1598,53,2,52,-1598,1715400854.08,2024-05-11 04:14:14.080000+00:00,2024-05-11 13:14:14.080000+09:00,2024,5,11,4,14,14,80,,,,,,,,,0.069092,0.239014,0.669189,156.37207,121.948242,-19.65332,,,,,,,,,,,0.0,1.0,1.0,2.0,0.0,0.0,0.0,6.0,0.0,-0.10389965333333334,0.08171226666666667,0.9109115066666668,6.4103190533333345,-3.434244813333333,1.1629231466666665,0.4964045478155618,-6.111395240725642,-4.863452517789557,-4.36156232381049,21.602271810549954,-20.262477253269005,29.937424032815652,2.4739727862544028,29.646093645603383,2.4853806296841845,0.17299165333333333,0.15730173333333333,-0.24172250666666673,0.5720158933333334,0.33630301464882534,0.9646210174516912,0.9646210174516912,0.9646210174516912
LBP01_S02,LBP01,-1597,54,2,53,-1597,1715400854.12,2024-05-11 04:14:14.120000+00:00,2024-05-11 13:14:14.120000+09:00,2024,5,11,4,14,14,120,,,,,,,,,-0.333496,-0.149414,-0.180908,106.384277,-42.663574,-28.381348,,,,,,,,,,,0.0,1.0,1.0,2.0,0.0,0.0,0.0,6.0,0.0,-0.11221672,0.08213544,0.9138346799999999,6.820475293333333,-2.148437519999999,1.7781575200000002,11.192699683939434,-12.891963000287259,-9.234168820737644,-3.9138543364529124,21.086593290538463,-20.63184400609851,29.7596313730452,2.5081031070416886,29.460169067634297,2.4744149107400877,-0.22127928000000002,-0.23154944,-1.09474268,1.5475714,1.140631929386169,0.9749746005066603,0.9749746005066603,0.9749746005066603
LBP01_S02,LBP01,-1596,55,2,54,-1596,1715400854.16,2024-05-11 04:14:14.160000+00:00,2024-05-11 13:14:14.160000+09:00,2024,5,11,4,14,14,160,,,,,,,,,0.095703,0.278564,0.193115,-12.207031,-132.751465,-22.827148,,,,,,,,,,,0.0,1.0,1.0,2.0,0.0,0.0,0.0,6.0,0.0,-0.11952141333333333,0.0858008,0.9166406666666668,6.512858106666667,-3.2666015866666656,2.1834309600000004,24.71004512854897,-19.8234383211362,-11.869612289245941,-2.9254525313109534,20.293655757693013,-21.10662849766835,29.42584753347448,2.5170457584340715,29.27508603584401,2.46673337924286,0.2152244133333333,0.19276319999999997,-0.7235256666666667,1.13151328,0.7790818889528636,0.9640916720870051,0.9640916720870051,0.9640916720870051
LBP01_S02,LBP01,-1595,56,2,55,-1595,1715400854.2,2024-05-11 04:14:14.200000+00:00,2024-05-11 13:14:14.200000+09:00,2024,5,11,4,14,14,200,,,,,,,,,0.638916,-0.054443,1.165771,-13.427734,-5.493164,-37.17041,,,,,,,,,,,0.0,1.0,1.0,2.0,0.0,0.0,0.0,6.0,0.0,-0.11341138666666666,0.08881837333333334,0.91520512,7.22005212,-4.170735693333333,2.1134439866666668,39.571829853685706,-26.178971112944815,-12.563214032968398,-1.342579337163525,19.24649691317522,-21.609157058987087,28.968704346335777,2.4757855038616685,29.128702158192787,2.4629966082747727,0.7523273866666667,-0.14326137333333333,0.2505658799999999,1.1461546399999998,0.805793756514794,0.9557602028463623,0.9557602028463623,0.9557602028463623
LBP01_S02,LBP01,-1594,57,2,56,-1594,1715400854.24,2024-05-11 04:14:14.240000+00:00,2024-05-11 13:14:14.240000+09:00,2024,5,11,4,14,14,240,,,,,,,,,-0.336914,0.138428,1.299805,1.586914,121.765137,-24.780273,,,,,,,,,,,0.0,1.0,1.0,2.0,0.0,0.0,0.0,6.0,0.0,-0.11200188,0.09270184000000001,0.9032552533333335,7.870279986666666,-2.4186198133333323,1.5478515333333336,54.182469156359176,-31.245696743371916,-11.568670411506515,0.8247194290908422,17.996669043440345,-22.071903875447347,28.49086168375452,2.449025076124226,29.05810958546391,2.4629446456997077,-0.22491212,0.04572615999999999,0.39654974666666665,0.6671880266666667,0.4581790534415967,0.9308811453761241,0.9308811453761241,0.9308811453761241
LBP01_S02,LBP01,-1593,58,2,57,-1593,1715400854.28,2024-05-11 04:14:14.280000+00:00,2024-05-11 13:14:14.280000+09:00,2024,5,11,4,14,14,280,,,,,,,,,-0.915771,0.373047,1.605713,47.973633,-153.381348,33.874512,,,,,,,,,,,0.0,1.0,1.0,2.0,0.0,0.0,0.0,6.0,0.0,-0.11325513333333333,0.09976238666666667,0.8952799866666667,7.635091186666667,-3.2291666933333327,1.0473632533333335,66.93945012543033,-34.43204232092835,-9.431288440755672,3.5022974341080557,16.619387350603212,-22.449155413077573,28.15021673072625,2.418574054057894,29.09292517163943,2.4677189078782495,-0.8025158666666666,0.2732846133333333,0.7104330133333332,1.786233493333333,1.106088270695599,0.9392243418199087,0.9392243418199087,0.9392243418199087
LBP01_S02,LBP01,-1592,59,2,58,-1592,1715400854.32,2024-05-11 04:14:14.320000+00:00,2024-05-11 13:14:14.320000+09:00,2024,5,11,4,14,14,320,,,,,,,,,0.038574,-0.15625,1.964355,62.683105,-62.194824,38.146973,,,,,,,,,,,0.0,1.0,1.0,2.0,0.0,0.0,0.0,6.0,0.0,-0.11282545333333334,0.09744468,0.9022070666666667,4.60937504,-2.8637695599999997,1.189778626666667,76.41602761756108,-35.366871590204255,-6.736556511392677,6.5589385388105,15.204712486995042,-22.71861767353328,28.112960455353246,2.4282424939802634,29.252294277039532,2.4688557100087123,0.15139945333333332,-0.25369468,1.0621479333333332,1.4672420666666666,1.1024704156639331,0.9466446179037278,0.9466446179037278,0.9466446179037278
LBP01_S02,LBP01,-1591,60,2,59,-1591,1715400854.36,2024-05-11 04:14:14.360000+00:00,2024-05-11 13:14:14.360000+09:00,2024,5,11,4,14,14,360,,,,,,,,,-0.271484,0.159424,0.019043,206.298828,86.486816,-5.371094,,,,,,,,,,,0.0,1.0,1.0,2.0,0.0,0.0,0.0,6.0,0.0,-0.11021152000000001,0.09232423999999999,0.90862308,3.4326172266666672,-1.7903646133333329,1.7179361733333338,81.63248054119907,-33.99636200797168,-3.8875930838102315,9.824237760458463,13.844858006676175,-22.87412139688569,28.485455419889412,2.4432156921476365,29.54474726602505,2.470272928759358,-0.16127248,0.06709976000000002,-0.88958008,1.11795232,0.906567101394163,0.9449021171859207,0.9449021171859207,0.9449021171859207
LBP01_S02,LBP01,-1590,61,2,60,-1590,1715400854.4,2024-05-11 04:14:14.400000+00:00,2024-05-11 13:14:14.400000+09:00,2024,5,11,4,14,14,400,,,,,,,,,0.098633,0.371826,-0.097656,180.419922,-131.103516,-19.348145,,,,,,,,,,,0.0,1.0,1.0,2.0,0.0,0.0,0.0,6.0,0.0,-0.11479812,0.09031252,0.9150553600000001,3.7508138399999997,-1.2141927333333324,2.3933919066666665,82.2994156820721,-30.645823949356434,-1.0066173852244138,13.116214387741346,12.619025048701918,-22.914386092294666,29.263355293467406,2.4735702047644823,29.96816621205617,2.466682562908065,0.21343112,0.28151348,-1.0127113600000002,1.5076559600000001,1.0725609451584626,0.95022123501811,0.95022123501811,0.95022123501811
LBP01_S02,LBP01,-1589,62,2,61,-1589,1715400854.44,2024-05-11 04:14:14.440000+00:00,2024-05-11 13:14:14.440000+09:00,2024,5,11,4,14,14,440,,,,,,,,,0.51123,-0.111572,0.859131,-41.992188,-115.356445,-33.02002,,,,,,,,,,,0.0,1.0,1.0,2.0,0.0,0.0,0.0,6.0,0.0,-0.11535801333333334,0.08776044,0.9183235866666667,3.6328125333333334,-2.626953146666666,2.2428385200000003,78.86804002774477,-25.997309837261895,2.0159196177630743,16.270935988851136,11.579132655211442,-22.833749307584142,30.334794847532336,2.489654402116165,30.508097358548696,2.4655360733814424,0.6265880133333332,-0.19933244,-0.05919258666666671,0.88511304,0.6601891565344419,0.9386199518787631,0.9386199518787631,0.9386199518787631
LBP01_S02,LBP01,-1588,63,2,62,-1588,1715400854.48,2024-05-11 04:14:14.480000+00:00,2024-05-11 13:14:14.480000+09:00,2024,5,11,4,14,14,480,,,,,,,,,0.028076,0.138916,1.316162,69.641113,84.594727,-1.342773,,,,,,,,,,,0.0,1.0,1.0,2.0,0.0,0.0,0.0,6.0,0.0,-0.11040358666666668,0.08477541333333333,0.9196679866666667,4.123535186666667,-1.4933268533333326,1.9571940000000003,72.31302227765495,-20.95043159003297,5.378449066786946,19.163456879957334,10.741115391610123,-22.618611344912665,31.531115086816705,2.4853408075590266,31.13471291219517,2.4694729198413183,0.13847958666666668,0.054140586666666685,0.39649401333333334,0.5891141866666667,0.42345637515233514,0.92357652865223,0.918805968158516,0.918805968158516
LBP01_S02,LBP01,-1587,64,2,63,-1587,1715400854.52,2024-05-11 04:14:14.520000+00:00,2024-05-11 13:14:14.520000+09:00,2024,5,11,4,14,14,520,,,,,,,,,-0.708496,0.223877,1.638428,-13.48877,18.737793,43.640137,,,,,,,,,,,0.0,1.0,1.0,2.0,0.0,0.0,0.0,6.0,0.0,-0.11690098666666666,0.08300132,0.9116438933333334,5.877278666666667,-0.5525716399999995,2.1110026,63.74288593887481,-16.379182619570795,9.21320690808862,21.713172317512324,10.08594808682729,-22.25008306858912,32.68416126290033,2.5222752945481464,31.80059296205714,2.480139361273706,-0.5915950133333333,0.14087568,0.7267841066666666,1.4592548,0.9476527606246887,0.9211402090606913,0.9198743678794854,0.9198743678794854
LBP01_S02,LBP01,-1586,65,2,64,-1586,1715400854.56,2024-05-11 04:14:14.560000+00:00,2024-05-11 13:14:14.560000+09:00,2024,5,11,4,14,14,560,,,,,,,,,-0.33374,0.210205,1.860352,37.353516,-65.917969,48.156738,,,,,,,,,,,0.0,1.0,1.0,2.0,0.0,0.0,0.0,6.0,0.0,-0.11123041333333333,0.08615561333333334,0.91659832,5.24332684,-2.2778320533333325,2.4902343733333336,54.04210877178428,-12.866607062388285,13.46998656246704,23.874856668383696,9.57128380433176,-21.71128360609044,33.66003699378568,2.4811420999211404,32.44250267322474,2.48872387685128,-0.22250958666666665,0.12404938666666666,0.94375368,1.2903126533333333,0.9775324930683836,0.9249524610205724,0.9219335866362318,0.9219335866362318
LBP01_S02,LBP01,-1585,66,2,65,-1585,1715400854.6,2024-05-11 04:14:14.600000+00:00,2024-05-11 13:14:14.600000+09:00,2024,5,11,4,14,14,600,,,,,,,,,0.032715,-0.053467,1.033691,95.275879,87.036133,-0.427246,,,,,,,,,,,0.0,1.0,1.0,2.0,0.0,0.0,0.0,6.0,0.0,-0.10810541333333333,0.08672526666666666,0.9256543066666668,3.25846356,-2.1451823066666655,2.680664066666667,43.711372271611914,-10.542105654678798,17.84683039373243,25.623311559248172,9.149599578144608,-20.99741039034114,34.368015811261074,2.464320608595446,32.98932399730546,2.496927683139437,0.14082041333333334,-0.14019226666666668,0.1080366933333331,0.3890493733333331,0.22617733651033495,0.8898493556538455,0.8979419918043042,0.8979419918043042
LBP01_S02,LBP01,-1584,67,2,66,-1584,1715400854.64,2024-05-11 04:14:14.640000+00:00,2024-05-11 13:14:14.640000+09:00,2024,5,11,4,14,14,640,,,,,,,,,-0.328369,0.450439,-0.489014,159.667969,12.390137,-57.800293,,,,,,,,,,,0.0,1.0,1.0,2.0,0.0,0.0,0.0,6.0,0.0,-0.11174798666666667,0.08526693333333334,0.9389713733333331,2.5040690266666665,-0.043945333333332524,2.7750651066666667,32.93118015622623,-9.112330843361804,21.771242037409827,26.940558765497222,8.785106344410137,-20.12656070884475,34.757017220219254,2.488393540722979,33.374704990120094,2.502582755827832,-0.21662101333333333,0.36517206666666663,-1.4279853733333332,2.0097784533333334,1.489770964995997,0.9333455195481136,0.9176696242440273,0.9176696242440273
LBP01_S02,LBP01,-1583,68,2,67,-1583,1715400854.68,2024-05-11 04:14:14.680000+00:00,2024-05-11 13:14:14.680000+09:00,2024,5,11,4,14,14,680,,,,,,,,,-0.106934,-0.280273,0.218506,-124.328613,-104.980469,-9.277344,,,,,,,,,,,0.0,1.0,1.0,2.0,0.0,0.0,0.0,6.0,0.0,-0.12238276000000002,0.08634114666666666,0.9486556133333333,3.6401367333333328,-0.6510416933333327,2.9728190133333334,21.74840321189965,-8.081811059867784,24.466944119308764,27.810494893973207,8.461833902015425,-19.1478829440724,34.80901722934599,2.525238468381771,33.54947144689353,2.5032950641558522,0.01544876000000002,-0.36661414666666664,-0.7301496133333333,1.11221252,0.8171677028446988,0.9329927974598949,0.9144276267795328,0.9144276267795328
LBP01_S02,LBP01,-1582,69,2,68,-1582,1715400854.72,2024-05-11 04:14:14.720000+00:00,2024-05-11 13:14:14.720000+09:00,2024,5,11,4,14,14,720,,,,,,,,,0.567139,-0.302979,0.900879,13.000488,-124.389648,73.364258,,,,,,,,,,,0.0,1.0,1.0,2.0,0.0,0.0,0.0,6.0,0.0,-0.12353835999999999,0.08924805333333334,0.9534472800000001,4.24560548,-2.3559570533333325,2.8946940133333334,10.26327798644792,-7.054302028488648,25.148686534642586,28.221026013431125,8.179661820875879,-18.141935482686698,34.532057567029184,2.5140876497560054,33.48918460479195,2.5039450807759573,0.6906773599999999,-0.39222705333333335,-0.052568280000000134,1.1354726933333334,0.7960155155807439,0.9236482034670889,0.9107272483045707,0.9107272483045707
LBP01_S02,LBP01,-1581,70,2,69,-1581,1715400854.76,2024-05-11 04:14:14.760000+00:00,2024-05-11 13:14:14.760000+09:00,2024,5,11,4,14,14,760,,,,,,,,,0.319092,0.399902,0.912842,55.603027,54.077148,83.190918,,,,,,,,,,,0.0,1.0,1.0,2.0,0.0,0.0,0.0,6.0,0.0,-0.12258784,0.08649089333333333,0.9609635466666666,4.627278653333334,-2.3103841333333324,3.052571626666667,-1.2403372434158493,-5.945231124540639,23.32307574546689,28.171412523694492,7.941852575894253,-17.209012452868024,33.95366866069668,2.5252537550292065,33.195644094240784,2.5040476624660286,0.44167984,0.31341110666666666,-0.04812154666666657,0.8032124933333332,0.5437125031650849,0.8775886930827778,0.8996055893609499,0.8996055893609499
LBP01_S02,LBP01,-1580,71,2,70,-1580,1715400854.8,2024-05-11 04:14:14.800000+00:00,2024-05-11 13:14:14.800000+09:00,2024,5,11,4,14,14,800,,,,,,,,,-0.594727,0.300293,1.205322,-54.6875,74.401855,61.706543,,,,,,,,,,,0.0,1.0,1.0,2.0,0.0,0.0,0.0,6.0,0.0,-0.12314773333333333,0.08597982666666666,0.95791016,6.274414066666666,-2.3917643333333323,3.1144205866666668,-12.22236181459675,-4.978693249031398,19.071942481100738,27.682518051110623,7.742704845932997,-16.446134753623994,33.11716522161368,2.530120931648436,32.69373666516786,2.5134538515787477,-0.47157926666666666,0.21431317333333333,0.24741184000000005,0.93330428,0.5740468269978157,0.8532608729194934,0.8900303316443872,0.8900303316443872
LBP01_S02,LBP01,-1579,72,2,71,-1579,1715400854.84,2024-05-11 04:14:14.840000+00:00,2024-05-11 13:14:14.840000+09:00,2024,5,11,4,14,14,840,,,,,,,,,-0.026855,0.181641,1.501709,65.490723,-58.654785,37.29248,,,,,,,,,,,0.0,1.0,1.0,2.0,0.0,0.0,0.0,6.0,0.0,-0.11851884,0.08884114666666666,0.9633951866666667,5.8593750133333335,-3.531087253333332,3.4000651200000003,-21.880062380056614,-4.484964121463465,13.15177264652495,26.80731555590836,7.563306281074459,-15.920063847762997,32.08245941526673,2.496777485396364,32.02553893549818,2.5237119821429603,0.09166384,0.09279985333333333,0.5383138133333333,0.7227775066666666,0.5538915362845948,0.83270760105984,0.8804263660626788,0.8804263660626788
LBP01_S02,LBP01,-1578,73,2,72,-1578,1715400854.88,2024-05-11 04:14:14.880000+00:00,2024-05-11 13:14:14.880000+09:00,2024,5,11,4,14,14,880,,,,,,,,,-0.07666,0.010254,0.471924,-59.387207,106.811523,-40.039062,,,,,,,,,,,0.0,1.0,1.0,2.0,0.0,0.0,0.0,6.0,0.0,-0.11430985333333332,0.08660156000000001,0.9724837333333335,4.345703133333333,-2.8483072933333324,3.8997395999999998,-29.242395614144186,-4.647617286230961,6.815225875294385,25.637619731342593,7.3774015896252205,-15.64745481275122,30.928246665800877,2.491840973760081,31.24329143737803,2.530132275193897,0.037649853333333316,-0.07634756000000001,-0.5005597333333335,0.6145571466666668,0.5077464997503311,0.8186885473433988,0.8700741475540025,0.8700741475540025
LBP01_S02,LBP01,-1577,74,2,73,-1577,1715400854.92,2024-05-11 04:14:14.920000+00:00,2024-05-11 13:14:14.920000+09:00,2024,5,11,4,14,14,920,,,,,,,,,-0.193115,-0.057129,-0.150146,-33.874512,6.896973,-70.556641,,,,,,,,,,,0.0,1.0,1.0,2.0,0.0,0.0,0.0,6.0,0.0,-0.11972652000000002,0.08485677333333334,0.98573568,4.559733079999999,-0.021972653333332537,4.3652344,-33.38208007371902,-5.3678460306316245,1.4101232941353552,24.30233652839383,7.162687748399955,-15.591049880985807,29.748756157388687,2.523301111448859,30.402608186877934,2.5337930156284676,-0.07338847999999999,-0.14198577333333334,-1.13588168,1.3512559333333334,1.1470714972421716,0.842754553878481,0.8775605624104396,0.8775605624104396
LBP01_S02,LBP01,-1576,75,2,74,-1576,1715400854.96,2024-05-11 04:14:14.960000+00:00,2024-05-11 13:14:14.960000+09:00,2024,5,11,4,14,14,960,,,,,,,,,-0.05249,-0.050293,-0.024902,-68.969727,-107.36084,-36.499023,,,,,,,,,,,0.0,1.0,1.0,2.0,0.0,0.0,0.0,6.0,0.0,-0.13268225333333333,0.08392904,0.9968717466666668,5.21402996,-1.153157546666666,4.630533880000001,-33.70087651390429,-6.319849276817132,-2.060897612276877,22.95430146783766,6.90989377732727,-15.673485785476881,28.640962703056374,2.5752039910483275,29.556880715623095,2.534054141456115,0.08019225333333332,-0.13422204,-1.0217737466666668,1.23618804,1.0336672302504695,0.8539791720469901,0.881668632616756,0.881668632616756
LBP01_S02,LBP01,-1575,76,2,75,-1575,1715400855.0,2024-05-11 04:14:15+00:00,2024-05-11 13:14:15+09:00,2024,5,11,4,14,15,0,4.0,14.0,14.0,40.546574,141.525421,-6.891,3.0,16.0,0.498047,-0.255127,0.887451,-75.073242,-101.44043,7.324219,-489.0,0.0,559.0,1349.0,0.0,1028.800049,28.83,0.156575,-128.592209,4.000781,0.0,1.0,1.0,2.0,0.0,0.0,0.0,5.0,0.0,-0.12550777333333335,0.08091145333333333,1.00131836,6.368815120000001,-2.4812825466666655,4.47509768,-30.183562287022962,-7.13928896647581,-3.2141645732386683,21.74695897635674,6.6243222186682384,-15.802052368406429,27.686038514564412,2.566901914237575,28.753171401698513,2.5302500310669696,0.6235547733333333,-0.3360384533333333,-0.11386735999999997,1.0734605866666667,0.7174316504997622,0.8206314483750498,0.8774574279470895,0.8774574279470895
LBP01_S02,LBP01,-1574,77,2,76,-1574,1715400855.04,2024-05-11 04:14:15.040000+00:00,2024-05-11 13:14:15.040000+09:00,2024,5,11,4,14,15,40,,,,,,,,,0.075195,-0.076904,1.22998,-0.488281,87.646484,16.967773,,,,,,,,,,,0.0,1.0,1.0,2.0,0.0,0.0,0.0,5.0,0.0,-0.12092444000000001,0.08045572,0.9860839866666666,8.645833346666667,0.3662109466666675,3.9705403866666673,-23.502866604552697,-7.60083924376879,-2.2825765118470054,20.806844312174633,6.3202886489174865,-15.893355428880309,26.93454223901769,2.552596471232345,28.029342007969063,2.531240476864275,0.19611944,-0.15735971999999998,0.24389601333333344,0.5973751733333335,0.3503001306655274,0.7789402622409516,0.8642784955150505,0.8642784955150505
LBP01_S02,LBP01,-1573,78,2,77,-1573,1715400855.08,2024-05-11 04:14:15.080000+00:00,2024-05-11 13:14:15.080000+09:00,2024,5,11,4,14,15,80,,,,,,,,,-0.662598,0.238525,1.33667,-63.415527,27.648926,45.471191,,,,,,,,,,,0.0,1.0,1.0,2.0,0.0,0.0,0.0,5.0,0.0,-0.12684241333333332,0.08264648,0.9603483066666666,7.441406266666666,-0.8040364533333324,3.2519531466666667,-14.907787381979288,-7.663944538864627,0.12112587963376015,20.210532816895462,6.013730867362901,-15.888510393694958,26.402184724344963,2.561845872727481,27.412045412697456,2.5374211478194497,-0.5357555866666667,0.15587852,0.37632169333333343,1.0679558,0.673015734225584,0.7924087710240219,0.8596135501177465,0.8596135501177465
LBP01_S02,LBP01,-1572,79,2,78,-1572,1715400855.12,2024-05-11 04:14:15.120000+00:00,2024-05-11 13:14:15.120000+09:00,2024,5,11,4,14,15,120,,,,,,,,,-0.290771,-0.071777,1.716797,90.637207,-93.200684,56.396484,,,,,,,,,,,0.0,1.0,1.0,2.0,0.0,0.0,0.0,5.0,0.0,-0.11559568,0.08309894666666666,0.9695019466666666,5.861816426666667,-4.054361973333332,3.811035173333334,-5.9192168298312655,-7.379915245832483,3.3207911619175126,19.973764143702212,5.718534257529602,-15.755678747218257,26.07478285448086,2.516698908032478,26.91542704360763,2.5334542613175683,-0.17517532,-0.15487594666666665,0.7472950533333333,1.07734632,0.7830216142160241,0.7781043584172161,0.8577899325962768,0.8577899325962768
LBP01_S02,LBP01,-1571,80,2,79,-1571,1715400855.16,2024-05-11 04:14:15.160000+00:00,2024-05-11 13:14:15.160000+09:00,2024,5,11,4,14,15,160,,,,,,,,,0.11377,0.301025,0.831055,-4.882812,88.867188,-3.78418,,,,,,,,,,,0.0,1.0,1.0,2.0,0.0,0.0,0.0,5.0,0.0,-0.11018226666666665,0.08430662666666666,0.9811621066666667,5.0821940266666665,-1.9335937466666655,4.329427106666667,2.056527101126188,-6.754476091931818,6.803344875520249,20.05602522774726,5.448355213852329,-15.483544952197446,25.91657552145085,2.4872126511377477,26.540631305396413,2.528125328637738,0.22395226666666665,0.21671837333333333,-0.1501071066666667,0.5907777466666667,0.34590983587811125,0.7607774762942259,0.8458857443005054,0.8458857443005054
LBP01_S02,LBP01,-1570,81,2,80,-1570,1715400855.2,2024-05-11 04:14:15.200000+00:00,2024-05-11 13:14:15.200000+09:00,2024,5,11,4,14,15,200,,,,,,,,,-0.509521,0.141846,-0.200928,10.681152,69.335938,-43.945312,,,,,,,,,,,0.0,1.0,1.0,2.0,0.0,0.0,0.0,5.0,0.0,-0.12642901333333334,0.08641274666666666,0.9881640533333332,4.747721373333333,-0.6730143199999992,4.934082053333334,8.048077800451349,-5.675343385028657,10.265726430037304,20.377948339765315,5.2213414784511825,-15.072915894995955,25.878871284319192,2.540025389621491,26.276263985983263,2.513781396550672,-0.38309198666666666,0.055433253333333335,-1.1890920533333333,1.6276172933333333,1.2505087873037175,0.778566077525783,0.8550817225505786,0.8550817225505786
LBP01_S02,LBP01,-1569,82,2,81,-1569,1715400855.24,2024-05-11 04:14:15.240000+00:00,2024-05-11 13:14:15.240000+09:00,2024,5,11,4,14,15,240,,,,,,,,,-0.164795,-0.124756,0.062256,54.504395,-102.905273,-10.253906,,,,,,,,,,,0.0,1.0,1.0,2.0,0.0,0.0,0.0,5.0,0.0,-0.12329750666666667,0.08096028,0.9934863199999999,4.658203146666667,-3.500162759999999,5.433756533333334,11.655915563383418,-3.962621259588307,13.513894922399645,20.844184962300652,5.06283662806765,-14.53236009809997,25.909493462550596,2.558584194948113,26.099826800657517,2.4976316344714635,-0.04149749333333333,-0.20571628,-0.93123032,1.1784440933333333,0.9545842753247566,0.7984222864011093,0.8572928903900048,0.8572928903900048
LBP01_S02,LBP01,-1568,83,2,82,-1568,1715400855.28,2024-05-11 04:14:15.280000+00:00,2024-05-11 13:14:15.280000+09:00,2024,5,11,4,14,15,280,,,,,,,,,0.635254,0.299805,0.430176,24.475098,-112.792969,-3.90625,,,,,,,,,,,0.0,1.0,1.0,2.0,0.0,0.0,0.0,5.0,0.0,-0.10788410666666666,0.08876301333333333,0.97882812,7.537434920000001,-1.9042968666666658,5.33447268,12.970210481731014,-1.5179522640010554,16.3309431420672,21.362993381569893,5.002118537507608,-13.879122372417282,25.962062974902633,2.452172108741268,25.980023831383914,2.484738547203305,0.7431381066666667,0.21104198666666665,-0.54865212,1.5028322133333334,0.9475294794869582,0.7920799347527635,0.8592545553703733,0.8592545553703733
LBP01_S02,LBP01,-1567,84,2,83,-1567,1715400855.32,2024-05-11 04:14:15.320000+00:00,2024-05-11 13:14:15.320000+09:00,2024,5,11,4,14,15,320,,,,,,,,,-0.06665,-0.201904,1.330322,-87.402344,81.970215,34.179688,,,,,,,,,,,0.0,1.0,1.0,2.0,0.0,0.0,0.0,5.0,0.0,-0.11599609333333333,0.09194334666666666,0.9465299333333335,8.285319026666668,-1.2239583199999993,4.34651696,12.329269966716794,1.5302978999283445,18.427921396244678,21.856164180238565,5.063330453504741,-13.142005516567494,26.000798775276543,2.470011784650555,25.87991841631944,2.474262532586716,0.04934609333333333,-0.2938473466666667,0.38379206666666654,0.7269855066666666,0.48587822600583086,0.7674162471664395,0.8513103781498511,0.8513103781498511
LBP01_S02,LBP01,-1566,85,2,84,-1566,1715400855.36,2024-05-11 04:14:15.360000+00:00,2024-05-11 13:14:15.360000+09:00,2024,5,11,4,14,15,360,,,,,,,,,-0.443115,0.340088,1.391846,-65.246582,34.851074,61.401367,,,,,,,,,,,0.0,1.0,1.0,2.0,0.0,0.0,0.0,5.0,0.0,-0.10766928,0.09235676,0.9476855333333333,5.669759133333334,-5.294596333333332,3.951009146666667,10.053471447656166,4.799825948587609,19.510716204348807,22.258303038144813,5.255323491448245,-12.361576868393541,25.9972895089249,2.4317646701776687,25.761024842252027,2.4577929032914807,-0.33544571999999995,0.24773124000000002,0.44416046666666664,1.0273374266666666,0.609239787347976,0.7555231546045921,0.8462672408414788,0.8462672408414788
LBP01_S02,LBP01,-1565,86,2,85,-1565,1715400855.4,2024-05-11 04:14:15.400000+00:00,2024-05-11 13:14:15.400000+09:00,2024,5,11,4,14,15,400,,,,,,,,,-0.144775,0.030518,1.511719,48.461914,-44.433594,49.377441,,,,,,,,,,,0.0,1.0,1.0,2.0,0.0,0.0,0.0,5.0,0.0,-0.09877930666666666,0.08942056000000001,0.95383136,5.611165386666667,-5.319824199999999,3.8118489866666665,6.307844255711981,7.774345878850096,19.404665207840203,22.510616808373292,5.566297326602249,-11.585390260079933,25.921666661306958,2.4054042934454873,25.588136093639044,2.442451538579262,-0.04599569333333332,-0.05890256000000001,0.55788764,0.6627858933333334,0.5628709747753363,0.735135555789267,0.8404836435748227,0.8404836435748227
LBP01_S02,LBP01,-1564,87,2,86,-1564,1715400855.44,2024-05-11 04:14:15.440000+00:00,2024-05-11 13:14:15.440000+09:00,2024,5,11,4,14,15,440,,,,,,,,,0.102051,0.1521,1.199463,56.030273,70.251465,10.742188,,,,,,,,,,,0.0,1.0,1.0,2.0,0.0,0.0,0.0,5.0,0.0,-0.10206706666666666,0.08902668,0.9593684666666666,4.6557617333333345,-3.1241861733333325,3.6075846666666664,1.1712620125199469,9.994862724913027,18.140631605287297,22.55746728887409,5.96609183559877,-10.85976499586844,25.73651254628164,2.42366559855076,25.333989792191414,2.4249865531614607,0.20411806666666665,0.06307332000000002,0.2400945333333333,0.50728592,0.3213842151881627,0.721583358135416,0.8301016550070895,0.8301016550070895
LBP01_S02,LBP01,-1563,88,2,87,-1563,1715400855.48,2024-05-11 04:14:15.480000+00:00,2024-05-11 13:14:15.480000+09:00,2024,5,11,4,14,15,480,,,,,,,,,-0.300049,0.30835,-0.303467,89.904785,82.946777,-24.353027,,,,,,,,,,,0.0,1.0,1.0,2.0,0.0,0.0,0.0,5.0,0.0,-0.10757162666666666,0.08761066666666667,0.96083656,5.038248720000001,-4.624837213333333,3.966471386666667,-5.153820369789506,11.210520414378292,15.943000928897321,22.35131447408251,6.414512652173902,-10.222044958712548,25.401130573700257,2.4570857265615884,24.98242367581493,2.4030262887207625,-0.19247737333333337,0.22073933333333334,-1.2643035599999999,1.6775202666666666,1.297781524122769,0.7565563640942332,0.8400664463732315,0.8392718485191617
LBP01_S02,LBP01,-1562,89,2,88,-1562,1715400855.52,2024-05-11 04:14:15.520000+00:00,2024-05-11 13:14:15.520000+09:00,2024,5,11,4,14,15,520,,,,,,,,,0.037109,0.046631,0.253906,-55.786133,-69.274902,-14.526367,,,,,,,,,,,0.0,1.0,1.0,2.0,0.0,0.0,0.0,5.0,0.0,-0.09531577333333334,0.09612629333333333,0.9578580400000001,7.893880226666667,-4.884440079999999,4.1007487199999995,-12.162445562625418,11.415671730906027,13.13796807227444,21.864816651577495,6.871139521410143,-9.69652623582157,24.885847113806694,2.3520026150801256,24.529139866160655,2.388175065052621,0.13242477333333336,-0.049495293333333336,-0.7039520400000001,0.8858721066666668,0.7180073671451424,0.7473705483550513,0.8342553787078714,0.8369398392619691
LBP01_S02,LBP01,-1561,90,2,89,-1561,1715400855.56,2024-05-11 04:14:15.560000+00:00,2024-05-11 13:14:15.560000+09:00,2024,5,11,4,14,15,560,,,,,,,,,0.166504,-0.268311,0.827393,-61.645508,-78.125,10.192871,,,,,,,,,,,0.0,1.0,1.0,2.0,0.0,0.0,0.0,5.0,0.0,-0.0966504,0.10112954666666665,0.9397786133333333,9.072265640000001,-2.038574186666666,3.5791015866666664,-19.043616705049985,10.774235265626762,10.055927549862734,21.103071983375497,7.302108932035213,-9.29428913382706,24.187688035321028,2.333799004015562,23.98041945203393,2.3776328068522163,0.2631544,-0.3694405466666667,-0.1123856133333333,0.74498056,0.4672976373201934,0.7269611541251237,0.8259568075728481,0.8299654580932563
LBP01_S02,LBP01,-1560,91,2,90,-1560,1715400855.6,2024-05-11 04:14:15.600000+00:00,2024-05-11 13:14:15.600000+09:00,2024,5,11,4,14,15,600,,,,,,,,,0.158691,0.234131,1.2229,-17.089844,74.279785,35.827637,,,,,,,,,,,0.0,1.0,1.0,2.0,0.0,0.0,0.0,5.0,0.0,-0.10099285333333333,0.09913409333333333,0.9285969733333334,7.156575533333333,-4.042968719999999,3.298339866666667,-24.863088889133834,9.503788252206041,6.991166304606252,20.108548427810142,7.6822604621234545,-9.014642481642811,23.337408269842868,2.365375535443478,23.351155363489607,2.3737510796794075,0.2596838533333333,0.1349969066666667,0.29430302666666674,0.6889837866666668,0.41505920059285234,0.7345164286884246,0.8121828921711349,0.8222820088802858
LBP01_S02,LBP01,-1559,92,2,91,-1559,1715400855.64,2024-05-11 04:14:15.640000+00:00,2024-05-11 13:14:15.640000+09:00,2024,5,11,4,14,15,640,,,,,,,,,-0.601807,0.375488,1.506836,-89.538574,59.509277,37.109375,,,,,,,,,,,0.0,1.0,1.0,2.0,0.0,0.0,0.0,5.0,0.0,-0.09621746666666667,0.09962562666666668,0.9372167599999999,5.613606786666667,-5.052083306666666,3.8126627866666674,-28.819342892960634,7.807274994453176,4.219225903895993,18.955774712091717,7.994551461901581,-8.845873445486971,22.393832298785753,2.3389815505411358,22.663489772042805,2.369474027952451,-0.5055895333333333,0.2758623733333333,0.5696192400000002,1.351071146666667,0.8100536425543032,0.7073277357907567,0.820336627669435,0.8220596749470861
LBP01_S02,LBP01,-1558,93,2,92,-1558,1715400855.68,2024-05-11 04:14:15.680000+00:00,2024-05-11 13:14:15.680000+09:00,2024,5,11,4,14,15,680,,,,,,,,,-0.315674,0.343506,1.637451,-38.269043,-75.866699,20.690918,,,,,,,,,,,0.0,1.0,1.0,2.0,0.0,0.0,0.0,5.0,0.0,-0.08961916,0.09967119999999999,0.9496451466666668,5.308431000000001,-3.214518199999999,4.344075546666667,-30.433039961563782,5.880445583923499,2.015229656168704,17.738453113629166,8.229769285258522,-8.765264259240222,21.4292248783599,2.303659872059851,21.946139982990598,2.363879940145749,-0.22605484,0.2438348,0.6878058533333332,1.1576954933333332,0.7639588289024876,0.7051993808330682,0.8190960891464816,0.8210221598391468
LBP01_S02,LBP01,-1557,94,2,93,-1557,1715400855.72,2024-05-11 04:14:15.720000+00:00,2024-05-11 13:14:15.720000+09:00,2024,5,11,4,14,15,720,,,,,,,,,0.088379,0.076416,1.194824,36.743164,60.241699,-23.010254,,,,,,,,,,,0.0,1.0,1.0,2.0,0.0,0.0,0.0,5.0,0.0,-0.10398765333333333,0.10223629333333333,0.9562336933333332,5.054524746666667,-1.9840494533333326,5.187988306666668,-29.597184993376114,3.950881870114665,0.6157982785425375,16.55456571389412,8.387804560063108,-8.74063232809852,20.5135946340093,2.3645892026465063,21.233219153118498,2.355170380702032,0.19236665333333333,-0.025820293333333327,0.23859030666666692,0.4567772533333336,0.30756617385171015,0.6856614071639069,0.8046548053154978,0.8120141600849814
LBP01_S02,LBP01,-1556,95,2,94,-1556,1715400855.76,2024-05-11 04:14:15.760000+00:00,2024-05-11 13:14:15.760000+09:00,2024,5,11,4,14,15,760,,,,,,,,,-0.464844,0.427734,-0.362305,53.466797,72.387695,-57.495117,,,,,,,,,,,0.0,1.0,1.0,2.0,0.0,0.0,0.0,5.0,0.0,-0.10903648000000002,0.10121416,0.96553056,3.8867187600000004,-4.616699199999999,5.6551106933333335,-26.514510222958585,2.2866681265426543,0.12459498445897826,15.493985304975777,8.479271285124813,-8.735648528720162,19.704648623481674,2.392947398449576,20.561225413668453,2.355871488145023,-0.35580751999999993,0.32651984,-1.32783556,2.01016292,1.4129265627068839,0.7204299695455789,0.7990093313141784,0.8223747187508763
LBP01_S02,LBP01,-1555,96,2,95,-1555,1715400855.8,2024-05-11 04:14:15.800000+00:00,2024-05-11 13:14:15.800000+09:00,2024,5,11,4,14,15,800,,,,,,,,,-0.090088,-0.131348,0.299316,-104.003906,-82.15332,-22.338867,,,,,,,,,,,0.0,1.0,1.0,2.0,0.0,0.0,0.0,5.0,0.0,-0.09599286666666666,0.09475257333333333,0.964401,3.486328133333334,-2.142740866666666,5.054524746666668,-21.61064866237598,1.1441062324758655,0.4287788676231736,14.629559358480737,8.525035534423848,-8.718497374015236,19.045010746838955,2.362633776175928,19.964116814658674,2.3606179419479885,0.005904866666666661,-0.22610057333333333,-0.6650849999999999,0.8970904399999999,0.7024915614703233,0.7255677589244791,0.7894143159219861,0.8203428008308667
LBP01_S02,LBP01,-1554,97,2,96,-1554,1715400855.84,2024-05-11 04:14:15.840000+00:00,2024-05-11 13:14:15.840000+09:00,2024,5,11,4,14,15,840,,,,,,,,,0.486084,-0.201904,0.986328,-44.616699,-77.148438,25.146484,,,,,,,,,,,0.0,1.0,1.0,2.0,0.0,0.0,0.0,5.0,0.0,-0.10289065333333333,0.10051754666666667,0.9364843333333333,4.267578133333334,-0.0862629999999994,4.119466146666667,-15.489933368747783,0.6723356320413258,1.2094235989242335,14.009962023730825,8.551928959705501,-8.670120430058267,18.563014655759535,2.3677247204837397,19.468006018769707,2.3665742534601226,0.5889746533333333,-0.30242154666666665,0.04984366666666673,0.9412398666666667,0.6639535565565989,0.7299702397353595,0.7813389203975996,0.8177363134262957
LBP01_S02,LBP01,-1553,98,2,97,-1553,1715400855.88,2024-05-11 04:14:15.880000+00:00,2024-05-11 13:14:15.880000+09:00,2024,5,11,4,14,15,880,,,,,,,,,0.040771,0.090576,1.514648,-8.666992,92.834473,43.640137,,,,,,,,,,,0.0,1.0,1.0,2.0,0.0,0.0,0.0,5.0,0.0,-0.10125004,0.09846350666666667,0.9385806933333334,1.8351237066666677,-2.488606746666666,4.303385426666667,-8.916352703390839,0.8362014777356869,2.0706465048313665,13.653307915595192,8.585377018814928,-8.587294569865012,18.27192227497925,2.3699901321244163,19.087635406386603,2.373134301940195,0.14202104,-0.007887506666666669,0.5760673066666666,0.7259758533333333,0.5933681238272626,0.7333951046984366,0.7760418260209175,0.8140581463836886
LBP01_S02,LBP01,-1552,99,2,98,-1552,1715400855.92,2024-05-11 04:14:15.920000+00:00,2024-05-11 13:14:15.920000+09:00,2024,5,11,4,14,15,920,,,,,,,,,-0.71167,0.001953,1.770508,-51.391602,-28.259277,35.583496,,,,,,,,,,,0.0,1.0,1.0,2.0,0.0,0.0,0.0,5.0,0.0,-0.09460941333333334,0.09407222666666666,0.9492414933333333,-0.6046549466666657,-2.0524088266666656,4.58902996,-2.742883070791138,1.4208202634303464,2.721894941799634,13.543592592763547,8.642209829352142,-8.478418772193027,18.165909719306256,2.35901368951004,18.825888225126853,2.380622134678815,-0.6170605866666667,-0.09211922666666666,0.8212665066666667,1.53044632,1.0313720931417263,0.7287671285344188,0.78576084120645,0.8175632100410762
LBP01_S02,LBP01,-1551,100,2,99,-1551,1715400855.96,2024-05-11 04:14:15.960000+00:00,2024-05-11 13:14:15.960000+09:00,2024,5,11,4,14,15,960,,,,,,,,,-0.037598,0.230469,1.79248,28.808594,-21.30127,9.216309,,,,,,,,,,,0.0,1.0,1.0,2.0,0.0,0.0,0.0,5.0,0.0,-0.10051436000000001,0.09554682666666667,0.9580761333333334,-0.7080077999999991,0.9708659066666674,5.380859400000001,2.258470116265531,2.1251181698519783,3.100122997141118,13.633931397414168,8.72721455614622,-8.354413852307383,18.216602045223247,2.381263542045214,18.675879435150698,2.3827500455636113,0.06291636,0.13492217333333334,0.8344038666666667,1.0322424,0.8475802463017434,0.7213236491764696,0.7876514106117298,0.8180396709341028
LBP01_S02,LBP01,-1550,101,2,100,-1550,1715400856.0,2024-05-11 04:14:16+00:00,2024-05-11 13:14:16+09:00,2024,5,11,4,14,16,0,4.0,14.0,15.0,40.546604,141.525482,-7.262,3.0,16.0,-0.334717,-0.175537,0.545166,114.929199,143.554688,-28.625488,-483.0,8.0,565.0,655.0,0.0,1027.300049,28.889999,0.141711,-116.256706,4.000781,0.0,1.0,1.0,2.0,0.0,0.0,0.0,5.0,0.0,-0.11033206666666667,0.09596674666666667,0.9661881200000001,-2.4552408666666654,-0.095214826666666,5.6160482,5.620723250287632,2.685391263382893,3.3541353058914054,13.858760327425673,8.834630206681537,-8.220248440071726,18.376300310953216,2.4249386505648194,18.623958211290407,2.3819900766512907,-0.22438493333333331,-0.27150374666666666,-0.42102212000000006,0.9169108,0.548928509270867,0.7145835235273139,0.7676074859511818,0.8138348090331147
LBP01_S02,LBP01,-1549,102,2,101,-1549,1715400856.04,2024-05-11 04:14:16.040000+00:00,2024-05-11 13:14:16.040000+09:00,2024,5,11,4,14,16,40,,,,,,,,,-0.036621,0.355957,-0.131836,74.157715,-71.838379,-32.043457,,,,,,,,,,,0.0,1.0,1.0,2.0,0.0,0.0,0.0,5.0,0.0,-0.10213545333333333,0.09261062666666668,0.9732030933333334,-2.4837239333333323,-0.9008788933333327,5.221354186666667,7.33450874046649,2.9529537181457677,3.7049437507053717,14.152140677044333,8.952748355407367,-8.072050690043511,18.59012617495465,2.4045820353418588,18.65203409792607,2.374858343882379,0.06551445333333333,0.26334637333333333,-1.1050390933333334,1.43389992,1.1378729514925383,0.7460864363603943,0.7625133493006728,0.8188200112247981
LBP01_S02,LBP01,-1548,103,2,102,-1548,1715400856.08,2024-05-11 04:14:16.080000+00:00,2024-05-11 13:14:16.080000+09:00,2024,5,11,4,14,16,80,,,,,,,,,0.218262,-0.035645,0.794678,-120.788574,-100.952148,-12.084961,,,,,,,,,,,0.0,1.0,1.0,2.0,0.0,0.0,0.0,5.0,0.0,-0.0956934,0.09147130666666667,0.9634309466666665,-2.3046874799999992,1.4949544400000006,4.328613306666667,7.806823597453004,2.8920461251198923,4.275373838082899,14.464413620942453,9.068430200412163,-7.901035736520195,18.81175306576243,2.3785381994460497,18.73877546009924,2.368784730349582,0.3139554,-0.12711630666666668,-0.16875294666666651,0.6098246533333331,0.3784231832465036,0.7343027343212312,0.7633557526726266,0.8121473320130058
LBP01_S02,LBP01,-1547,104,2,103,-1547,1715400856.12,2024-05-11 04:14:16.120000+00:00,2024-05-11 13:14:16.120000+09:00,2024,5,11,4,14,16,120,,,,,,,,,0.343506,0.130859,1.547852,-10.559082,57.922363,5.737305,,,,,,,,,,,0.0,1.0,1.0,2.0,0.0,0.0,0.0,5.0,0.0,-0.10167973333333334,0.09575515999999999,0.9426985333333334,-3.0013020666666654,0.7918294400000004,3.548990906666667,7.612544660799239,2.531930626957827,4.994983956224781,14.768915407374424,9.169707425490476,-7.701236378271204,19.013506734247752,2.3858683114944697,18.860465215718694,2.3719614774955184,0.44518573333333333,0.03510384000000001,0.6051534666666666,1.08544304,0.7520859890763607,0.7330653093156445,0.7555848338664304,0.8112508940587275
LBP01_S02,LBP01,-1546,105,2,104,-1546,1715400856.16,2024-05-11 04:14:16.160000+00:00,2024-05-11 13:14:16.160000+09:00,2024,5,11,4,14,16,160,,,,,,,,,-0.692383,0.230957,1.826172,-13.000488,56.82373,41.564941,,,,,,,,,,,0.0,1.0,1.0,2.0,0.0,0.0,0.0,5.0,0.0,-0.09606776,0.09057288000000001,0.9528287466666667,-4.517415346666666,-1.2622070266666663,4.169921893333333,7.171226837964123,1.94068405753649,5.6289891606602644,15.05576448089299,9.247334787791935,-7.476076811844794,19.18543638487875,2.3853477093263704,18.992679548242595,2.3704807226293294,-0.59631524,0.14038412,0.8733432533333332,1.6100426133333332,1.0667839541103357,0.7619002740449337,0.7613388751695799,0.8150087331771335
LBP01_S02,LBP01,-1545,106,2,105,-1545,1715400856.2,2024-05-11 04:14:16.200000+00:00,2024-05-11 13:14:16.200000+09:00,2024,5,11,4,14,16,200,,,,,,,,,-0.639893,0.240967,1.863525,-62.072754,-60.302734,36.010742,,,,,,,,,,,0.0,1.0,1.0,2.0,0.0,0.0,0.0,5.0,0.0,-0.08454106666666668,0.09639969333333333,0.9642056933333333,-3.4016926933333322,-0.4492187466666663,4.6720377866666665,6.542389850542721,1.2497660444014462,5.896865372891457,15.317460074914699,9.297325429567993,-7.240202196929136,19.325769613195614,2.2913164484868114,19.113203188326988,2.3718900323070393,-0.5553519333333333,0.14456730666666667,0.8993193066666668,1.5992385466666668,1.066813334823548,0.7545524559457267,0.7665592667357549,0.8186580752299801
LBP01_S02,LBP01,-1544,107,2,106,-1544,1715400856.24,2024-05-11 04:14:16.240000+00:00,2024-05-11 13:14:16.240000+09:00,2024,5,11,4,14,16,240,,,,,,,,,0.099365,0.070068,1.705566,83.129883,22.521973,10.803223,,,,,,,,,,,0.0,1.0,1.0,2.0,0.0,0.0,0.0,5.0,0.0,-0.09494146666666668,0.10488602666666667,0.97103512,-4.089355453333333,2.6090494800000004,3.903808613333333,5.4552715991299845,0.6911595001518657,5.5959397876717345,15.535670938879898,9.324971809574068,-7.016364605422266,19.43042827749123,2.306988585155768,19.205339874495973,2.3687584912655977,0.19430646666666668,-0.03481802666666667,0.7345308799999999,0.9636553733333333,0.7605937888538267,0.7467928364868897,0.7726075614439994,0.8178285854246065
LBP01_S02,LBP01,-1543,108,2,107,-1543,1715400856.28,2024-05-11 04:14:16.280000+00:00,2024-05-11 13:14:16.280000+09:00,2024,5,11,4,14,16,280,,,,,,,,,-0.465088,0.138916,-0.010742,110.839844,110.412598,-34.423828,,,,,,,,,,,0.0,1.0,1.0,2.0,0.0,0.0,0.0,5.0,0.0,-0.1083334,0.09878577333333334,0.9853092,-6.397298159999999,1.4884440133333336,2.786458346666667,3.537485410441939,0.5844385316022284,4.659311918951152,15.677170355297575,9.348349350838157,-6.8299921286642205,19.48881983117378,2.401757603583783,19.260081658508547,2.364685413077125,-0.35675460000000003,0.04013022666666667,-0.9960512,1.3929360266666668,1.0587739478920504,0.7512426152230934,0.7716612749879285,0.8212221820790775
LBP01_S02,LBP01,-1542,109,2,108,-1542,1715400856.32,2024-05-11 04:14:16.320000+00:00,2024-05-11 13:14:16.320000+09:00,2024,5,11,4,14,16,320,,,,,,,,,-0.098145,0.10791,0.252686,-32.226562,-85.388184,-24.230957,,,,,,,,,,,0.0,1.0,1.0,2.0,0.0,0.0,0.0,5.0,0.0,-0.09720709333333334,0.09958981333333333,0.9893131066666666,-4.873046853333332,0.7088216266666669,1.8082682400000003,0.5893815002864141,1.2401088689988957,3.139271145602689,15.700745615309032,9.397953705598113,-6.704421282840113,19.48805304454528,2.34420614084815,19.2760571068875,2.357950596271927,-0.0009379066666666547,0.008320186666666674,-0.7366271066666665,0.7458851999999998,0.7366746903832031,0.7612744737981884,0.7643453604823139,0.8200479113610792
LBP01_S02,LBP01,-1541,110,2,109,-1541,1715400856.36,2024-05-11 04:14:16.360000+00:00,2024-05-11 13:14:16.360000+09:00,2024,5,11,4,14,16,360,,,,,,,,,0.355469,-0.125244,0.878662,-65.124512,-87.280273,7.385254,,,,,,,,,,,0.0,1.0,1.0,2.0,0.0,0.0,0.0,5.0,0.0,-0.10426438666666667,0.09632157333333334,0.9727278133333332,-4.702148426666666,3.1665039200000002,0.6412760533333337,-3.256142801123695,2.8008068899434453,1.1632656000468213,15.570499903264084,9.50998598119585,-6.65789065883824,19.4218384460672,2.3953566388223124,19.257421050605863,2.356504546364642,0.45973338666666663,-0.22156557333333332,-0.09406581333333319,0.7753647733333331,0.5189358990671131,0.7576623182669537,0.7565927364357727,0.8159230892748606
LBP01_S02,LBP01,-1540,111,2,110,-1540,1715400856.4,2024-05-11 04:14:16.400000+00:00,2024-05-11 13:14:16.400000+09:00,2024,5,11,4,14,16,400,,,,,,,,,0.179199,0.094727,1.48999,12.512207,75.98877,28.442383,,,,,,,,,,,0.0,1.0,1.0,2.0,0.0,0.0,0.0,5.0,0.0,-0.10421556,0.09661454666666666,0.9687597066666668,-4.6695963466666655,0.6412760666666668,0.9008789066666668,-7.547192161784452,5.0992142486862715,-1.0872938771177032,15.268612216792706,9.713954551143301,-6.701382413922948,19.29766717264304,2.393623240150405,19.210965376949034,2.355455806625248,0.28341456,-0.0018875466666666563,0.5212302933333332,0.8065323999999998,0.5933029532547137,0.7588795974061289,0.7470075765976979,0.812914709058372
LBP01_S02,LBP01,-1539,112,2,111,-1539,1715400856.44,2024-05-11 04:14:16.440000+00:00,2024-05-11 13:14:16.440000+09:00,2024,5,11,4,14,16,440,,,,,,,,,-0.728516,-0.00708,2.014648,-43.823242,-5.615234,13.427734,,,,,,,,,,,0.0,1.0,1.0,2.0,0.0,0.0,0.0,5.0,0.0,-0.09676438666666666,0.09527990666666668,0.98358392,-4.714355453333333,-0.7714843599999999,2.0597330800000004,-11.639251239943333,7.627824083161753,-3.3707856513303347,14.803042167194972,10.019067514469771,-6.836213839976161,19.137544015080344,2.3638512534571356,19.144025706634828,2.3613851744178187,-0.6317516133333334,-0.10235990666666668,1.0310640800000002,1.7651756000000003,1.2135406002719171,0.7945658528094789,0.7580746054724474,0.818256387607886
LBP01_S02,LBP01,-1538,113,2,112,-1538,1715400856.48,2024-05-11 04:14:16.480000+00:00,2024-05-11 13:14:16.480000+09:00,2024,5,11,4,14,16,480,,,,,,,,,-0.000732,0.075439,1.930908,-41.442871,-42.785645,8.789062,,,,,,,,,,,0.0,1.0,1.0,2.0,0.0,0.0,0.0,5.0,0.0,-0.09285488,0.10169917333333334,1.0009699866666666,-3.8924153466666658,2.036132826666667,2.8540039066666667,-14.833620482990543,9.65982804095891,-5.39161394123476,14.20969734787535,10.405460636108128,-7.0518783976255515,18.971507549552022,2.311190031394066,19.064141329818185,2.36655240888319,0.09212288,-0.02626017333333333,0.9299380133333335,1.048321066666667,0.934858775626211,0.7800489428696166,0.768302653481925,0.8200606118720266
LBP01_S02,LBP01,-1537,114,2,113,-1537,1715400856.52,2024-05-11 04:14:16.520000+00:00,2024-05-11 13:14:16.520000+09:00,2024,5,11,4,14,16,520,,,,,,,,,-0.098389,0.038818,0.768799,76.35498,155.273438,-25.45166,,,,,,,,,,,0.0,1.0,1.0,2.0,0.0,0.0,0.0,5.0,0.0,-0.11081712,0.10745764000000001,1.0129752,-4.825032533333333,4.094238293333333,2.9101562533333336,-16.474528778681012,10.47267453058058,-6.856986920058357,13.550716196728109,10.824367617331351,-7.326157874427886,18.827146171431366,2.3714078124216162,18.980289507044,2.363044295808036,0.01242812,-0.06863964,-0.24417620000000007,0.32524396000000005,0.25394462977685517,0.7614864333748852,0.7544284908649682,0.8099990635968759
LBP01_S02,LBP01,-1536,115,2,114,-1536,1715400856.56,2024-05-11 04:14:16.560000+00:00,2024-05-11 13:14:16.560000+09:00,2024,5,11,4,14,16,560,,,,,,,,,-0.294922,0.021973,-0.145264,-2.746582,-16.784668,-55.480957,,,,,,,,,,,0.0,1.0,1.0,2.0,0.0,0.0,0.0,5.0,0.0,-0.11411789333333333,0.10988602666666665,1.02241856,-5.526529933333333,1.9514974133333332,2.8133138133333335,-16.023968585957896,9.575127805093857,-7.575399670299538,12.909757453289792,11.207372729535106,-7.629173861239868,18.720879648310444,2.3748603119324323,18.904413445529066,2.3583871493472857,-0.1808041066666667,-0.08791302666666664,-1.16768256,1.4363996933333334,1.1848634462136889,0.790189065730625,0.7585751099278744,0.8140342269587737
LBP01_S02,LBP01,-1535,116,2,115,-1535,1715400856.6,2024-05-11 04:14:16.600000+00:00,2024-05-11 13:14:16.600000+09:00,2024,5,11,4,14,16,600,,,,,,,,,0.233398,0.121826,0.673828,-19.226074,-121.032715,-18.188477,,,,,,,,,,,0.0,1.0,1.0,2.0,0.0,0.0,0.0,5.0,0.0,-0.10493169333333334,0.10612301333333334,1.0165233733333334,-4.138997386666666,3.303222666666666,1.8066406400000006,-13.167444068859611,6.852181622021327,-7.538400556502201,12.383059690535408,11.481459994415959,-7.930709883499956,18.656372910053573,2.350610126412519,18.85145923568836,2.3463276223746607,0.33832969333333335,0.01570298666666667,-0.34269537333333344,0.6967280533333334,0.4818232913479315,0.7928596293608281,0.7636880290246262,0.8057418045676993
LBP01_S02,LBP01,-1534,117,2,116,-1534,1715400856.64,2024-05-11 04:14:16.640000+00:00,2024-05-11 13:14:16.640000+09:00,2024,5,11,4,14,16,640,,,,,,,,,0.454346,0.13623,1.494141,-57.739258,59.509277,6.591797,,,,,,,,,,,0.0,1.0,1.0,2.0,0.0,0.0,0.0,5.0,0.0,-0.10597988000000001,0.10545244000000001,0.9893749333333333,-4.6061197866666665,4.2561849066666655,0.3247070533333339,-7.969052587844645,2.6020432248215752,-6.921019714939225,12.064297587021622,11.585541723408822,-8.207550672097526,18.631584509324775,2.3586609298094827,18.836778714096706,2.3460043143007896,0.56032588,0.03077755999999998,0.5047660666666667,1.0958695066666668,0.7547854874435954,0.7906489031563999,0.7489883194735782,0.8104407194984233
LBP01_S02,LBP01,-1533,118,2,117,-1533,1715400856.68,2024-05-11 04:14:16.680000+00:00,2024-05-11 13:14:16.680000+09:00,2024,5,11,4,14,16,680,,,,,,,,,-0.572266,0.523193,1.642334,-54.382324,87.585449,27.404785,,,,,,,,,,,0.0,1.0,1.0,2.0,0.0,0.0,0.0,5.0,0.0,-0.10551113333333334,0.10329749333333334,0.9801594399999999,-3.928222653333333,1.1214192799999998,0.31575524000000044,-1.012580175497057,-2.507830007842222,-5.985989588296074,12.02379438000174,11.485228523095133,-8.446990255629368,18.650301603431966,2.3666764728322405,18.871576397901052,2.3472361680870604,-0.4667548666666667,0.4198955066666667,0.6621745600000001,1.5488249333333335,0.9124951999802894,0.7965903579995118,0.7508948694162902,0.8115941787641584
LBP01_S02,LBP01,-1532,119,2,118,-1532,1715400856.72,2024-05-11 04:14:16.720000+00:00,2024-05-11 13:14:16.720000+09:00,2024,5,11,4,14,16,720,,,,,,,,,-0.501953,0.055176,2.062012,-25.024414,-105.041504,34.179688,,,,,,,,,,,0.0,1.0,1.0,2.0,0.0,0.0,0.0,5.0,0.0,-0.08925462666666667,0.10047848,0.99677728,-4.90722656,-0.2539062533333336,1.058756533333334,6.590500984811824,-7.542148815048891,-4.9476298945843435,12.287414419394214,11.183542570493177,-8.644895451412742,18.729292429395905,2.297634676240646,18.95884784519867,2.3549233679420865,-0.4126983733333333,-0.04530247999999999,1.0652347200000003,1.5232355733333336,1.1432835478303747,0.8300190529586584,0.7578402300612826,0.8131095545298848
LBP01_S02,LBP01,-1531,120,2,119,-1531,1715400856.76,2024-05-11 04:14:16.760000+00:00,2024-05-11 13:14:16.760000+09:00,2024,5,11,4,14,16,760,,,,,,,,,0.158691,0.064209,1.14209,38.513184,63.964844,-2.258301,,,,,,,,,,,0.0,1.0,1.0,2.0,0.0,0.0,0.0,5.0,0.0,-0.08977545333333334,0.10589189333333333,1.0150845733333334,-5.3401692800000005,2.445475253333333,1.4754232000000005,13.410573596395329,-11.467200551871978,-3.8854992040384886,12.823837363250027,10.724854548418298,-8.80031541957428,18.892296347660146,2.2747613690960655,19.092198760089143,2.3586193580923256,0.24846645333333334,-0.04168289333333333,0.1270054266666667,0.4171547733333334,0.28214078122714836,0.784787621699469,0.752608795622524,0.7942687614426086
LBP01_S02,LBP01,-1530,121,2,120,-1530,1715400856.8,2024-05-11 04:14:16.800000+00:00,2024-05-11 13:14:16.800000+09:00,2024,5,11,4,14,16,800,,,,,,,,,-0.471436,0.231201,-0.339844,127.868652,36.560059,-54.077148,,,,,,,,,,,0.0,1.0,1.0,2.0,0.0,0.0,0.0,5.0,0.0,-0.10922532000000001,0.10192704,1.0356998,-6.46484376,3.9013671866666666,1.7919922133333337,18.09242936820569,-13.395789784038424,-2.763904702494103,13.547534537978255,10.18902295705676,-8.910871607674045,19.150861956726512,2.3903901594116927,19.257928365062284,2.3596852667783645,-0.36221068,0.12927396,-1.3755438,1.86702844,1.4282958654139497,0.813819793857214,0.7696937763908467,0.7975494752337288
LBP01_S02,LBP01,-1529,122,2,121,-1529,1715400856.84,2024-05-11 04:14:16.840000+00:00,2024-05-11 13:14:16.840000+09:00,2024,5,11,4,14,16,840,,,,,,,,,-0.056885,-0.012207,0.128418,46.386719,-150.146484,-30.395508,,,,,,,,,,,0.0,1.0,1.0,2.0,0.0,0.0,0.0,5.0,0.0,-0.10882818666666666,0.10452144,1.0443000666666666,-5.091959639999999,2.1012369733333327,1.5242513200000005,19.770590492149875,-12.863105458328238,-1.5341983797038077,14.33835815766425,9.674498738723631,-8.972239542862196,19.48552085312379,2.376169791319839,19.438716136397158,2.3591707422830055,0.05194318666666666,-0.11672843999999999,-0.9158820666666666,1.0845536933333333,0.9247505519801142,0.8242516736741546,0.777110956704757,0.7956431714897846
LBP01_S02,LBP01,-1528,123,2,122,-1528,1715400856.88,2024-05-11 04:14:16.880000+00:00,2024-05-11 13:14:16.880000+09:00,2024,5,11,4,14,16,880,,,,,,,,,0.579102,0.227783,0.616943,15.075684,-110.900879,-0.732422,,,,,,,,,,,0.0,1.0,1.0,2.0,0.0,0.0,0.0,5.0,0.0,-0.10553717333333333,0.09895502666666667,1.0372525333333333,-3.095703133333333,3.698730466666666,0.4077148666666672,18.310486243235047,-10.02869547178684,-0.2348939882137193,15.070777607393651,9.273350919852158,-8.981635302390744,19.844222022528182,2.3880620299443285,19.61681758813458,2.360027684157959,0.6846391733333334,0.12882797333333335,-0.4203095333333333,1.23377668,0.8136261722600918,0.8330619956114679,0.7832285501549522,0.7950485492177677
LBP01_S02,LBP01,-1527,124,2,123,-1527,1715400856.92,2024-05-11 04:14:16.920000+00:00,2024-05-11 13:14:16.920000+09:00,2024,5,11,4,14,16,920,,,,,,,,,0.176514,-0.039551,1.408203,-57.373047,115.905762,15.563965,,,,,,,,,,,0.0,1.0,1.0,2.0,0.0,0.0,0.0,5.0,0.0,-0.10778326666666667,0.09698236,1.0176887333333333,-3.6035156266666664,3.699544266666666,-0.6966145599999994,14.270806141541378,-5.682004358287858,0.9890594051073505,15.641609853055307,9.046070745520643,-8.94207292618645,20.16065532033614,2.4083677139240107,19.77572010411296,2.3616320308621974,0.28429726666666666,-0.13653336,0.3905142666666668,0.8113448933333334,0.5019638300686932,0.8118856650885465,0.7703263968114826,0.7944691158338155
LBP01_S02,LBP01,-1526,125,2,124,-1526,1715400856.96,2024-05-11 04:14:16.960000+00:00,2024-05-11 13:14:16.960000+09:00,2024,5,11,4,14,16,960,,,,,,,,,-0.668213,0.351807,1.661621,-45.471191,36.92627,41.687012,,,,,,,,,,,0.0,1.0,1.0,2.0,0.0,0.0,0.0,5.0,0.0,-0.10524746666666666,0.09918938666666666,1.0108267466666667,-3.6905924399999996,0.6355794266666666,-1.389973946666666,8.642908199882012,-0.9994339377064915,1.9585467345539809,15.987326181050587,9.006093388012383,-8.86373105680429,20.378175698041836,2.3855193987928174,19.90061807250304,2.3719658478280814,-0.5629655333333333,0.2526176133333333,0.6507942533333333,1.4663773999999998,0.8968160404783162,0.8138550968556095,0.7675893730160397,0.796385972693023
LBP01_S02,LBP01,-1525,126,2,125,-1525,1715400857.0,2024-05-11 04:14:17+00:00,2024-05-11 13:14:17+09:00,2024,5,11,4,14,17,0,4.0,14.0,16.0,40.546646,141.525558,-8.182,3.0,16.0,-0.050049,0.208252,1.854492,6.591797,-54.748535,26.733398,-484.0,9.0,567.0,685.0,0.0,1028.099976,28.950001,0.149638,-122.836845,4.000781,0.0,1.0,1.0,2.0,0.0,0.0,0.0,6.0,0.0,-0.09578457333333334,0.09788078666666666,1.0352017466666665,-5.48990884,0.45003255999999986,-1.1580403599999995,2.532539941431752,2.8595606847545336,2.563411623847815,16.088627778707856,9.120475815402564,-8.761194591850378,20.4642506234023,2.3454648814589296,19.978926846106035,2.3846039643738304,0.04573557333333334,0.11037121333333333,0.8192902533333335,0.9753970400000002,0.8279553530280475,0.8250161706058967,0.7697998470666053,0.78674371416942
LBP01_S02,LBP01,-1524,127,2,126,-1524,1715400857.04,2024-05-11 04:14:17.040000+00:00,2024-05-11 13:14:17.040000+09:00,2024,5,11,4,14,17,40,,,,,,,,,-0.054443,-0.013428,0.847412,63.476562,150.20752,-26.428223,,,,,,,,,,,0.0,1.0,1.0,2.0,0.0,0.0,0.0,6.0,0.0,-0.10588222666666668,0.10354810666666667,1.0546581333333334,-5.142415346666666,2.3901367199999997,-0.6217447866666663,-3.0682695627430285,5.129929590777072,2.817938600743644,15.965896996198135,9.325672999033648,-8.648477047820633,20.412599026699027,2.367230348559017,20.001861876743938,2.3853915931723093,0.05143922666666668,-0.11697610666666666,-0.2072461333333333,0.37566146666666667,0.24347559087632142,0.7892402761812481,0.7676633562708212,0.7714223249275313
LBP01_S02,LBP01,-1523,128,2,127,-1523,1715400857.08,2024-05-11 04:14:17.080000+00:00,2024-05-11 13:14:17.080000+09:00,2024,5,11,4,14,17,80,,,,,,,,,-0.256592,0.089355,-0.169434,12.695312,-28.381348,-40.710449,,,,,,,,,,,0.0,1.0,1.0,2.0,0.0,0.0,0.0,6.0,0.0,-0.11399094666666668,0.10803703999999999,1.07195956,-4.827473933333333,2.2265625066666668,-0.5192057199999995,-7.382949074142482,5.6259899185183615,2.835513627909859,15.670579033232436,9.550712595774382,-8.535056502704238,20.23932676321575,2.3827199398746273,19.966850967638504,2.3826274116364035,-0.1426010533333333,-0.018682039999999983,-1.2413935600000001,1.4026766533333335,1.2496967831597436,0.8240912201777776,0.7791969772495044,0.7836009085076769
LBP01_S02,LBP01,-1522,129,2,128,-1522,1715400857.12,2024-05-11 04:14:17.120000+00:00,2024-05-11 13:14:17.120000+09:00,2024,5,11,4,14,17,120,,,,,,,,,0.024658,-0.112549,0.465576,-9.338379,-118.347168,10.192871,,,,,,,,,,,0.0,1.0,1.0,2.0,0.0,0.0,0.0,6.0,0.0,-0.11559901333333333,0.10558261333333332,1.0701334,-3.8224283599999995,2.4926757866666662,-1.2223307199999995,-9.889966298303278,4.6817684517071045,2.755290090505188,15.274980381300304,9.737983333842665,-8.42484489908403,19.978272113296708,2.400972845899483,19.879243796544333,2.3770213821669155,0.14025701333333335,-0.2181316133333333,-0.6045574,0.9629460266666667,0.6578321065586186,0.820321064877068,0.7766931870963564,0.7771635775366428
LBP01_S02,LBP01,-1521,130,2,129,-1521,1715400857.16,2024-05-11 04:14:17.160000+00:00,2024-05-11 13:14:17.160000+09:00,2024,5,11,4,14,17,160,,,,,,,,,0.590576,0.281982,1.125244,-35.095215,5.065918,17.028809,,,,,,,,,,,0.0,1.0,1.0,2.0,0.0,0.0,0.0,6.0,0.0,-0.11278650666666666,0.10297845333333333,1.0445539733333333,-1.2288411200000002,2.0369466266666665,-2.3055012933333328,-10.37358622355001,2.9219313316046107,2.6821830947062604,14.860036932358303,9.85486058710685,-8.31755757529578,19.67538408369008,2.4011425345535575,19.75190619186326,2.3742645883336335,0.7033625066666667,0.17900354666666668,0.08069002666666658,0.9630560799999999,0.7302547267270029,0.8068598957817347,0.7843800849133342,0.7765125487069647
LBP01_S02,LBP01,-1520,131,2,130,-1520,1715400857.2,2024-05-11 04:14:17.200000+00:00,2024-05-11 13:14:17.200000+09:00,2024,5,11,4,14,17,200,,,,,,,,,-0.438721,0.137939,1.659912,-32.470703,86.791992,26.123047,,,,,,,,,,,0.0,1.0,1.0,2.0,0.0,0.0,0.0,6.0,0.0,-0.10824549333333332,0.09941399999999999,1.02410476,-0.36132809333333327,1.2231445466666666,-2.7823893199999996,-8.98902408480224,1.0068196740647268,2.672101544061679,14.500475968966214,9.89513337406944,-8.210673513533312,19.380212263105555,2.3982664473964856,19.60281435904083,2.377256693815462,-0.3304755066666667,0.03852500000000002,0.6358072400000001,1.0048077466666667,0.7175995279875871,0.7928913435082963,0.7737218997270116,0.7753366256599353
LBP01_S02,LBP01,-1519,132,2,131,-1519,1715400857.24,2024-05-11 04:14:17.240000+00:00,2024-05-11 13:14:17.240000+09:00,2024,5,11,4,14,17,240,,,,,,,,,-0.715576,0.061768,1.99707,-85.998535,-75.683594,10.253906,,,,,,,,,,,0.0,1.0,1.0,2.0,0.0,0.0,0.0,6.0,0.0,-0.09930344,0.10085279999999999,1.0180142666666667,-0.7902017866666666,-0.8129882666666668,-2.195638013333333,-6.273208294173824,-0.5362932063255562,2.744020919775319,14.24954763719926,9.873681645816417,-8.100912676742299,19.13541176206948,2.3485279759607756,19.451976176901184,2.385271433481519,-0.61627256,-0.03908479999999999,0.9790557333333332,1.6344130933333332,1.157527372796369,0.8087686868659978,0.7777807616764437,0.7846612699179989
LBP01_S02,LBP01,-1518,133,2,132,-1518,1715400857.28,2024-05-11 04:14:17.280000+00:00,2024-05-11 13:14:17.280000+09:00,2024,5,11,4,14,17,280,,,,,,,,,0.0625,-0.111572,1.520996,17.944336,32.165527,-11.169434,,,,,,,,,,,0.0,1.0,1.0,2.0,0.0,0.0,0.0,6.0,0.0,-0.09260746666666667,0.09723952,1.0401529466666666,-2.3706054400000003,0.08544924,-1.0725911466666662,-3.0258359756076283,-1.376585456423356,2.8816561820647366,14.128514198174955,9.818618227559483,-7.98564642945971,18.968150311586452,2.3320017352494546,19.31875504151751,2.38984407294315,0.15510746666666667,-0.20881152,0.48084305333333344,0.8447620400000001,0.5466906063207821,0.7882853532031472,0.7697639842131201,0.7772026343930013
LBP01_S02,LBP01,-1517,134,2,133,-1517,1715400857.32,2024-05-11 04:14:17.320000+00:00,2024-05-11 13:14:17.320000+09:00,2024,5,11,4,14,17,320,,,,,,,,,-0.47876,0.276123,-0.129395,121.276855,92.041016,-31.982422,,,,,,,,,,,0.0,1.0,1.0,2.0,0.0,0.0,0.0,6.0,0.0,-0.10192712000000001,0.09698887999999999,1.0625162266666666,-2.7254231466666665,1.1254882933333332,-0.6119791733333328,-0.05829362475648914,-1.3851915753852777,3.0133283858595608,14.126182453184695,9.763210564544073,-7.865113294025327,18.887279273525397,2.3807997755911887,19.219663403326116,2.3934303528560608,-0.37683288000000004,0.17913412,-1.1919112266666665,1.7478782266666666,1.262831906728408,0.8093316418569553,0.7853030578275717,0.7793407876071944
LBP01_S02,LBP01,-1516,135,2,134,-1516,1715400857.36,2024-05-11 04:14:17.360000+00:00,2024-05-11 13:14:17.360000+09:00,2024,5,11,4,14,17,360,,,,,,,,,-0.148438,0.005371,0.17627,23.864746,-93.688965,8.422852,,,,,,,,,,,0.0,1.0,1.0,2.0,0.0,0.0,0.0,6.0,0.0,-0.10947920000000001,0.09711257333333334,1.0758463066666666,-2.2705077866666663,1.6121419466666664,-0.7747395866666661,2.0848840879776995,-0.6314701402483708,2.996925782494218,14.209577816703803,9.737951758934138,-7.745236262725558,18.887257369817572,2.415440453611101,19.16627488982603,2.3873858881394945,-0.038958799999999974,-0.09174157333333334,-0.8995763066666665,1.0302766799999998,0.9050811211660289,0.8247774507409119,0.7912198845039329,0.7793209745374859
LBP01_S02,LBP01,-1515,136,2,135,-1515,1715400857.4,2024-05-11 04:14:17.400000+00:00,2024-05-11 13:14:17.400000+09:00,2024,5,11,4,14,17,400,,,,,,,,,0.59668,0.04248,0.701904,-2.563477,-98.388672,2.075195,,,,,,,,,,,0.0,1.0,1.0,2.0,0.0,0.0,0.0,6.0,0.0,-0.11126956000000002,0.09667312,1.0604622,-1.2052408666666665,2.0825195466666666,-1.8611653733333329,3.2740189875922963,0.6235611380872671,2.6469214153756035,14.340538576207495,9.762894204457629,-7.639359406110533,18.955868802005806,2.4256122781195004,19.163399418897054,2.383930591934928,0.70794956,-0.054193120000000004,-0.35855819999999994,1.1207008799999998,0.7954203018195901,0.8328621446835069,0.7958708710448179,0.7756257659596344
LBP01_S02,LBP01,-1514,137,2,136,-1514,1715400857.44,2024-05-11 04:14:17.440000+00:00,2024-05-11 13:14:17.440000+09:00,2024,5,11,4,14,17,440,,,,,,,,,0.068359,-0.000977,1.521729,-49.743652,111.38916,26.367188,,,,,,,,,,,0.0,1.0,1.0,2.0,0.0,0.0,0.0,6.0,0.0,-0.1050456,0.09365229333333333,1.0402734,-1.5185546666666667,2.046712253333333,-2.7921549599999995,3.7189774849174655,1.975158590225313,1.810717656382783,14.489297675604194,9.841900548066642,-7.566930699855222,19.080387672862283,2.412956743175327,19.208245345417183,2.3886353509439013,0.17340460000000002,-0.09462929333333334,0.4814556000000001,0.7494894933333335,0.5204069112043825,0.8051367971208055,0.7998513249651424,0.7737620026885669
LBP01_S02,LBP01,-1513,138,2,137,-1513,1715400857.48,2024-05-11 04:14:17.480000+00:00,2024-05-11 13:14:17.480000+09:00,2024,5,11,4,14,17,480,,,,,,,,,-0.708252,0.17041,1.924561,-61.401367,4.638672,16.296387,,,,,,,,,,,0.0,1.0,1.0,2.0,0.0,0.0,0.0,6.0,0.0,-0.10374677333333335,0.09144200000000001,1.0187011466666667,-1.5266926933333336,0.8894856933333335,-3.325195333333333,3.724824171685584,3.000723040099887,0.45769031267872784,14.638290642471617,9.961929469670638,-7.548623087348073,19.24841038130185,2.418582739003733,19.291156412774473,2.400431658140501,-0.6045052266666666,0.078968,0.9058598533333333,1.5893330799999998,1.0918995319956897,0.8114184273755848,0.7957336851226008,0.7826745781131449
LBP01_S02,LBP01,-1512,139,2,138,-1512,1715400857.52,2024-05-11 04:14:17.520000+00:00,2024-05-11 13:14:17.520000+09:00,2024,5,11,4,14,17,520,,,,,,,,,-0.09375,-0.027832,2.164551,-15.625,-41.687012,14.038086,,,,,,,,,,,0.0,1.0,1.0,2.0,0.0,0.0,0.0,6.0,0.0,-0.08977216,0.09265293333333334,1.0252896933333333,-3.1868489466666663,-1.6894531199999998,-2.669270853333333,3.4438049734133545,3.436498376179094,-1.276324884625203,14.77604284140815,10.099389404717801,-7.599676082733081,19.44438697829583,2.3405281987338227,19.397752239181766,2.4128371792048102,-0.003977839999999996,-0.12048493333333334,1.1392613066666666,1.2637240799999998,1.1456215637108285,0.8470855047329436,0.8042859690539145,0.7853141621542935
LBP01_S02,LBP01,-1511,140,2,139,-1511,1715400857.56,2024-05-11 04:14:17.560000+00:00,2024-05-11 13:14:17.560000+09:00,2024,5,11,4,14,17,560,,,,,,,,,0.149414,0.124756,1.127441,50.78125,113.769531,-18.798828,,,,,,,,,,,0.0,1.0,1.0,2.0,0.0,0.0,0.0,6.0,0.0,-0.09186200000000001,0.08995762666666667,1.0460123466666669,-4.405110666666666,0.7983398533333336,-2.0377604399999996,2.7772095488817743,3.3135751460399234,-3.1254988487562505,14.887131223363422,10.231932410559399,-7.724696036683332,19.64662937440031,2.3665895725078943,19.51160336672047,2.4196030493687153,0.241276,0.03479837333333334,0.08142865333333305,0.3575030266666664,0.25701295793466555,0.8099714852017829,0.8000802754662039,0.7757072350191773
LBP01_S02,LBP01,-1510,141,2,140,-1510,1715400857.6,2024-05-11 04:14:17.600000+00:00,2024-05-11 13:14:17.600000+09:00,2024,5,11,4,14,17,600,,,,,,,,,-0.41626,0.267822,-0.52124,43.029785,34.301758,-58.898926,,,,,,,,,,,0.0,1.0,1.0,2.0,0.0,0.0,0.0,6.0,0.0,-0.10681642666666669,0.08915685333333334,1.06098304,-3.3154296800000003,1.6105143333333334,-1.7724609599999992,1.4631234092279004,2.9622972986820972,-4.797184969439483,14.945656159732538,10.350424302506683,-7.916583435460911,19.828671528306838,2.4453140374862175,19.61647668209305,2.4208803008152295,-0.30944357333333333,0.17866514666666666,-1.5822230400000001,2.07033176,1.6220685275343842,0.8555812946492409,0.8242204620050344,0.7943191175661645
LBP01_S02,LBP01,-1509,142,2,141,-1509,1715400857.64,2024-05-11 04:14:17.640000+00:00,2024-05-11 13:14:17.640000+09:00,2024,5,11,4,14,17,640,,,,,,,,,0.092529,0.061768,0.270752,45.959473,-141.662598,-11.230469,,,,,,,,,,,0.0,1.0,1.0,2.0,0.0,0.0,0.0,6.0,0.0,-0.11060549333333335,0.08837886666666667,1.0649934533333334,-3.416341133333333,0.4947916800000002,-2.0930989866666665,-0.741694601708002,2.8600964301434226,-6.081153113106841,14.915988375664218,10.46482815971242,-8.159829559985184,19.964522435642387,2.4664910479267723,19.697746024487405,2.41816764578856,0.20313449333333333,-0.026610866666666663,-0.7942414533333334,1.0239868133333334,0.8202385304285497,0.8581994163686391,0.8244241597625195,0.7853920184385985
LBP01_S02,LBP01,-1508,143,2,142,-1508,1715400857.68,2024-05-11 04:14:17.680000+00:00,2024-05-11 13:14:17.680000+09:00,2024,5,11,4,14,17,680,,,,,,,,,0.757568,0.156738,1.071777,-40.649414,-44.006348,28.381348,,,,,,,,,,,0.0,1.0,1.0,2.0,0.0,0.0,0.0,6.0,0.0,-0.10529624000000001,0.08597326666666666,1.0458984,-2.9370117066666666,2.0410156400000004,-3.3528645999999998,-3.9212938014498686,3.3916661415637224,-6.8995288886242205,14.759136623606224,10.60049480537497,-8.435810715530152,20.034108575659403,2.4560569458925468,19.74332046244559,2.4200021034320813,0.8628642400000001,0.07076473333333333,0.025878599999999974,0.9595075733333334,0.8661478200009947,0.8563455211694674,0.8264679395844895,0.7860450866673492
LBP01_S02,LBP01,-1507,144,2,143,-1507,1715400857.72,2024-05-11 04:14:17.720000+00:00,2024-05-11 13:14:17.720000+09:00,2024,5,11,4,14,17,720,,,,,,,,,-0.212891,0.333496,1.413086,-38.574219,104.980469,15.74707,,,,,,,,,,,0.0,1.0,1.0,2.0,0.0,0.0,0.0,6.0,0.0,-0.09866537333333333,0.08183589333333333,1.02519528,-2.668457013333333,2.0336914133333335,-4.181315119999999,-7.97365396527326,4.6556763988458405,-7.278713617761385,14.440190464995293,10.786721861328804,-8.726959260240609,20.025790548912397,2.448458477230239,19.74467903680817,2.4246148996768833,-0.11422562666666666,0.2516601066666667,0.38789072000000013,0.7537764533333335,0.4762767197092351,0.8296652480446217,0.8298421505016401,0.7817819027223957
LBP01_S02,LBP01,-1506,145,2,144,-1506,1715400857.76,2024-05-11 04:14:17.760000+00:00,2024-05-11 13:14:17.760000+09:00,2024,5,11,4,14,17,760,,,,,,,,,-0.685303,-0.057617,1.983398,-117.492676,-29.968262,-0.610352,,,,,,,,,,,0.0,1.0,1.0,2.0,0.0,0.0,0.0,6.0,0.0,-0.09589193333333335,0.08289384,1.0130012800000001,-4.48893228,0.1741536533333336,-4.473470066666667,-12.66156771483712,6.425486105224599,-7.284893543362179,13.933727756401808,11.043741305537788,-9.018355001975095,19.935990523543417,2.4282129680762425,19.6980086678833,2.437527651991428,-0.5894110666666666,-0.14051084,0.9703967199999999,1.7003186266666666,1.1440360553118076,0.8641410590080081,0.8244643403537385,0.7897862167510187
LBP01_S02,LBP01,-1505,146,2,145,-1505,1715400857.8,2024-05-11 04:14:17.800000+00:00,2024-05-11 13:14:17.800000+09:00,2024,5,11,4,14,17,800,,,,,,,,,0.239746,0.360596,1.505615,59.631348,15.930176,-11.657715,,,,,,,,,,,0.0,1.0,1.0,2.0,0.0,0.0,0.0,6.0,0.0,-0.08725261333333334,0.08012365333333332,1.0353971066666665,-6.527506506666667,-0.0056966133333332895,-4.004720066666666,-17.647828327144147,8.262580997825546,-6.984039706992442,13.227814623316043,11.374244545450809,-9.297716590254794,19.768562225949324,2.398485727852804,19.60467064061017,2.443798189180235,0.32699861333333335,0.2804723466666667,0.4702178933333334,1.0776888533333335,0.6377285453682215,0.8325183662061789,0.8231690800316965,0.7906353063292908
LBP01_S02,LBP01,-1504,147,2,146,-1504,1715400857.84,2024-05-11 04:14:17.840000+00:00,2024-05-11 13:14:17.840000+09:00,2024,5,11,4,14,17,840,,,,,,,,,-0.556152,-0.063477,0.257812,78.308105,125.671387,-50.231934,,,,,,,,,,,0.0,1.0,1.0,2.0,0.0,0.0,0.0,6.0,0.0,-0.09736653333333334,0.08364578666666667,1.0539420266666668,-6.193033853333333,1.875,-3.3178711066666655,-22.465781263256492,9.688564647905904,-6.450440644063961,12.329183372785783,11.761787131367045,-9.555734216017353,19.5361320524441,2.431301319610538,19.470317418423342,2.4418978055492575,-0.45878546666666664,-0.14712278666666667,-0.7961300266666669,1.4020382800000002,0.9305655474717428,0.8327509660258441,0.8285013198499995,0.7956576264784527
LBP01_S02,LBP01,-1503,148,2,147,-1503,1715400857.88,2024-05-11 04:14:17.880000+00:00,2024-05-11 13:14:17.880000+09:00,2024,5,11,4,14,17,880,,,,,,,,,-0.072998,0.032227,0.174316,-56.945801,-82.580566,-20.568848,,,,,,,,,,,0.0,1.0,1.0,2.0,0.0,0.0,0.0,6.0,0.0,-0.10819986666666667,0.0867838,1.0714550533333334,-5.286458333333333,1.3623046799999998,-2.9484049599999995,-26.479075652587277,10.31576201270723,-5.793551576823415,11.270020346682292,12.174417611875334,-9.787476279090289,19.26199612492766,2.4647107014517546,19.30306260937157,2.434601459673627,0.03520186666666668,-0.054556799999999996,-0.8971390533333333,0.98689772,0.8994854622832362,0.8361853376267699,0.834623666619119,0.8008808126455581
LBP01_S02,LBP01,-1502,149,2,148,-1502,1715400857.92,2024-05-11 04:14:17.920000+00:00,2024-05-11 13:14:17.920000+09:00,2024,5,11,4,14,17,920,,,,,,,,,0.365723,-0.157227,0.96167,-37.231445,-99.060059,16.357422,,,,,,,,,,,0.0,1.0,1.0,2.0,0.0,0.0,0.0,6.0,0.0,-0.10959309333333335,0.08700189333333333,1.06281248,-4.677734373333333,1.3557942533333334,-3.3732096533333324,-28.936727202285017,9.901531707026601,-5.15283013597438,10.11255125859089,12.570478880156399,-9.993589484529263,18.977683289047167,2.4696557218792763,19.11201101259632,2.424883084317869,0.47531609333333336,-0.24422889333333334,-0.10114248000000003,0.8206874666666667,0.5438776904608582,0.8378618920424565,0.8248737785655016,0.7928382285551405
LBP01_S02,LBP01,-1501,150,2,149,-1501,1715400857.96,2024-05-11 04:14:17.960000+00:00,2024-05-11 13:14:17.960000+09:00,2024,5,11,4,14,17,960,,,,,,,,,0.240723,0.431152,1.279053,-7.324219,103.210449,23.071289,,,,,,,,,,,0.0,1.0,1.0,2.0,0.0,0.0,0.0,6.0,0.0,-0.10435545333333335,0.08999668,1.0292024533333333,-2.2753906266666664,1.3736978933333335,-4.361979173333332,-29.169526972550567,8.365065559567535,-4.642284901742027,8.945770179688868,12.905081502539101,-10.179280880598943,18.713249101668975,2.429294944395963,18.907124732808207,2.4229330938466282,0.3450784533333333,0.34115532,0.24985054666666673,0.93608432,0.5457942716709843,0.8238210212901632,0.8188380590728863,0.7863332557740809
LBP01_S02,LBP01,-1500,151,2,150,-1500,1715400858.0,2024-05-11 04:14:18+00:00,2024-05-11 13:14:18+09:00,2024,5,11,4,14,18,0,4.0,14.0,17.0,40.546715,141.525665,-8.349,3.0,16.0,-0.849121,0.176758,1.787842,-145.019531,52.91748,11.535645,-489.0,13.0,571.0,651.0,0.0,1026.800049,29.0,0.136756,-112.141624,4.000781,0.0,1.0,1.0,2.0,0.0,0.0,0.0,5.0,0.0,-0.10369790666666669,0.08997063999999999,1.0044856533333333,-1.869303386666667,0.17008461333333344,-4.955240879999999,-26.855157608664463,5.821264545243145,-4.281380876891208,7.871563875342289,13.137932084348828,-10.350536115674592,18.48513930643857,2.426310201176441,18.70017063513273,2.4280171815277334,-0.7454230933333333,0.08678736000000001,0.7833563466666666,1.6155667999999999,1.0848201693337711,0.8340956139423921,0.8295558922741445,0.7912317693585343
LBP01_S02,LBP01,-1499,152,2,151,-1499,1715400858.04,2024-05-11 04:14:18.040000+00:00,2024-05-11 13:14:18.040000+09:00,2024,5,11,4,14,18,40,,,,,,,,,-0.172363,0.105225,1.938232,-53.100586,-73.059082,9.70459,,,,,,,,,,,0.0,1.0,1.0,2.0,0.0,0.0,0.0,5.0,0.0,-0.09330728,0.0865364,1.0055826533333332,-3.120930986666667,-2.7555338799999998,-4.498697919999999,-22.204279207738416,2.6271831272921555,-3.975760375674567,6.983392707032753,13.243019409440514,-10.509566530701575,18.29197434512467,2.3935275891704673,18.505537505561186,2.4390378121721152,-0.07905571999999998,0.0186886,0.9326493466666668,1.0303936666666667,0.936180471101827,0.8618038091514123,0.8255220426663302,0.7990435072310182
LBP01_S02,LBP01,-1498,153,2,152,-1498,1715400858.08,2024-05-11 04:14:18.080000+00:00,2024-05-11 13:14:18.080000+09:00,2024,5,11,4,14,18,80,,,,,,,,,0.026367,-0.043701,0.894531,40.649414,129.02832,-30.029297,,,,,,,,,,,0.0,1.0,1.0,2.0,0.0,0.0,0.0,5.0,0.0,-0.08949868000000001,0.08901686666666667,1.0255533600000002,-2.8255208266666667,-1.243489613333333,-3.478190106666666,-15.943031884606524,-0.6277363551107614,-3.582915607608489,6.3456714316484915,13.217909955236083,-10.652883155005915,18.123592607906904,2.358873192334964,18.339739408943686,2.4446288612028346,0.11586568000000001,-0.13271786666666666,-0.13102236000000023,0.3796059066666669,0.21955807148538894,0.8205982606844383,0.822344740431108,0.7929974050611489
LBP01_S02,LBP01,-1497,154,2,153,-1497,1715400858.12,2024-05-11 04:14:18.120000+00:00,2024-05-11 13:14:18.120000+09:00,2024,5,11,4,14,18,120,,,,,,,,,-0.369385,-0.12207,-0.319336,55.603027,-21.728516,-54.748535,,,,,,,,,,,0.0,1.0,1.0,2.0,0.0,0.0,0.0,5.0,0.0,-0.10339190666666667,0.08923170666666667,1.04187172,-3.6629231733333336,0.15624997333333335,-3.042805986666666,-9.078266939463168,-3.2486983437209482,-3.034083593567951,5.982540754069965,13.087962021487245,-10.774246498748633,17.976927751031255,2.428958572517834,18.2193221193399,2.446710256773477,-0.2659930933333333,-0.21130170666666667,-1.3612077200000001,1.83850252,1.4029565901797818,0.8504032400292847,0.8353621524531764,0.8012632047406658
LBP01_S02,LBP01,-1496,155,2,154,-1496,1715400858.16,2024-05-11 04:14:18.160000+00:00,2024-05-11 13:14:18.160000+09:00,2024,5,11,4,14,18,160,,,,,,,,,0.148926,0.139404,0.139893,45.959473,-146.240234,-4.455566,,,,,,,,,,,0.0,1.0,1.0,2.0,0.0,0.0,0.0,5.0,0.0,-0.11220376000000001,0.08734369333333333,1.04834632,-3.1998697866666665,-1.2605794533333332,-2.9825846399999993,-2.564086453890973,-4.664754058289314,-2.43246238438456,5.879977295914326,12.901371859155672,-10.871544994124015,17.86644954678866,2.4790538448872903,18.158060569613724,2.4427541988785997,0.26112976,0.05206030666666667,-0.90845332,1.2216433866666667,0.9466712532378425,0.8590599010897182,0.8329598984357264,0.8092733569721289
LBP01_S02,LBP01,-1495,156,2,155,-1495,1715400858.2,2024-05-11 04:14:18.200000+00:00,2024-05-11 13:14:18.200000+09:00,2024,5,11,4,14,18,200,,,,,,,,,0.709717,-0.06958,1.04541,-62.744141,-33.813477,11.779785,,,,,,,,,,,0.0,1.0,1.0,2.0,0.0,0.0,0.0,5.0,0.0,-0.10674152000000002,0.07811193333333333,1.0391731466666665,-1.7464192666666667,-0.2604166933333329,-3.7736002666666657,2.9557778919263393,-4.657955392188237,-2.0507692557308475,5.99820841159138,12.715053643468142,-10.95357576435325,17.82223093023387,2.5086920342966237,18.164952335057343,2.4436020679004087,0.8164585200000001,-0.14769193333333333,0.006236853333333459,0.9703873066666668,0.8297326800794518,0.8635452271733928,0.8282182853408444,0.8036630088758052
LBP01_S02,LBP01,-1494,157,2,156,-1494,1715400858.24,2024-05-11 04:14:18.240000+00:00,2024-05-11 13:14:18.240000+09:00,2024,5,11,4,14,18,240,,,,,,,,,-0.203857,0.28125,1.435303,22.033691,99.54834,20.996094,,,,,,,,,,,0.0,1.0,1.0,2.0,0.0,0.0,0.0,5.0,0.0,-0.10387693333333334,0.07951492,1.0088964533333333,-1.1791992133333333,1.097818986666667,-4.928385426666666,7.222439019662241,-3.458581656322825,-2.2119381230592077,6.287105972377869,12.576710377215228,-11.042053289275618,17.878151086269103,2.487211809917732,18.24394398926769,2.4536046875439688,-0.09998006666666667,0.20173508,0.42640654666666666,0.7281216933333333,0.48219871347139626,0.8365320808003941,0.8226503838331959,0.7973645347177605
LBP01_S02,LBP01,-1493,158,2,157,-1493,1715400858.28,2024-05-11 04:14:18.280000+00:00,2024-05-11 13:14:18.280000+09:00,2024,5,11,4,14,18,280,,,,,,,,,-0.823486,0.002441,1.976318,-59.875488,-3.601074,19.836426,,,,,,,,,,,0.0,1.0,1.0,2.0,0.0,0.0,0.0,5.0,0.0,-0.10281573333333334,0.07898106666666665,1.0028450133333333,-2.1459960933333333,-1.024576853333333,-4.967447919999999,10.274956506440901,-1.6406078045531625,-3.113834971949173,6.698104232635505,12.511086065033101,-11.166606688153585,18.057823228889784,2.485524657158179,18.39489263161006,2.4673394311680696,-0.7206702666666667,-0.07654006666666666,0.9734729866666667,1.77068332,1.2136200685686038,0.8632092592903068,0.825747306246727,0.8009124092388491
LBP01_S02,LBP01,-1492,159,2,158,-1492,1715400858.32,2024-05-11 04:14:18.320000+00:00,2024-05-11 13:14:18.320000+09:00,2024,5,11,4,14,18,320,,,,,,,,,-0.036865,-0.007324,1.975342,15.563965,-53.039551,14.099121,,,,,,,,,,,0.0,1.0,1.0,2.0,0.0,0.0,0.0,5.0,0.0,-0.09025388000000001,0.07773432,1.0285709333333333,-3.946126293333333,-0.754394573333333,-4.007975266666667,12.307240581620189,0.12205107537203286,-4.697138228115801,7.190393855900313,12.515968108047982,-11.354492217278217,18.365067791785435,2.4300951429305027,18.6142860835701,2.4849840807662043,0.05338888000000001,-0.08505831999999999,0.9467710666666667,1.0852182666666668,0.9520823194377757,0.8507792757986814,0.8300554588278185,0.8071284638179417
LBP01_S02,LBP01,-1491,160,2,159,-1491,1715400858.36,2024-05-11 04:14:18.360000+00:00,2024-05-11 13:14:18.360000+09:00,2024,5,11,4,14,18,360,,,,,,,,,-0.196289,-0.077393,0.863281,84.472656,154.663086,-22.338867,,,,,,,,,,,0.0,1.0,1.0,2.0,0.0,0.0,0.0,5.0,0.0,-0.09964841333333334,0.08447910666666666,1.0500585599999999,-5.839029946666666,2.3673502133333333,-3.394368493333333,13.560964664604347,1.3008594368051305,-6.631244404524128,7.7328324424844865,12.568002485520188,-11.619741993459183,18.782166756105138,2.4377736346140515,18.89468773129044,2.495207947856583,-0.09664058666666665,-0.16187210666666668,-0.1867775599999999,0.4452902533333332,0.2653824388077248,0.8251913285043494,0.8249843896226307,0.8025436991707383
LBP01_S02,LBP01,-1490,161,2,160,-1490,1715400858.4,2024-05-11 04:14:18.400000+00:00,2024-05-11 13:14:18.400000+09:00,2024,5,11,4,14,18,400,,,,,,,,,-0.313232,-0.117432,0.044434,10.375977,-44.372559,-33.447266,,,,,,,,,,,0.0,1.0,1.0,2.0,0.0,0.0,0.0,5.0,0.0,-0.11386065333333334,0.08024733333333332,1.07216468,-7.6529948,2.398274693333333,-3.3138020799999994,14.271454685951051,1.6441357116685986,-8.425762209501292,8.303690629922528,12.633767913986931,-11.956772481839234,19.275055848542095,2.526336397612044,19.223214923230877,2.4949247182704792,-0.19937134666666667,-0.19767933333333332,-1.02773068,1.4247813599999999,1.0653902586902386,0.8359901267791754,0.8344261357313413,0.8092439562896038
LBP01_S02,LBP01,-1489,162,2,161,-1489,1715400858.44,2024-05-11 04:14:18.440000+00:00,2024-05-11 13:14:18.440000+09:00,2024,5,11,4,14,18,440,,,,,,,,,0.292236,0.317627,0.684814,49.499512,-159.545898,-41.259766,,,,,,,,,,,0.0,1.0,1.0,2.0,0.0,0.0,0.0,5.0,0.0,-0.11497393333333335,0.08024408,1.0692577866666668,-6.211751306666666,1.949869746666667,-3.87695312,14.621266942890427,1.1633576971266348,-9.60704172379613,8.888541307638144,12.680302221871997,-12.341054150791079,19.801460768548345,2.5308750254114742,19.580356856225478,2.4907398308886957,0.40720993333333333,0.23738292,-0.3844437866666668,1.0290366400000002,0.6082496244303566,0.8395038353082143,0.82232031621451,0.813068828412833
LBP01_S02,LBP01,-1488,163,2,162,-1488,1715400858.48,2024-05-11 04:14:18.480000+00:00,2024-05-11 13:14:18.480000+09:00,2024,5,11,4,14,18,480,,,,,,,,,0.409668,0.210205,1.524658,-45.043945,69.030762,-6.958008,,,,,,,,,,,0.0,1.0,1.0,2.0,0.0,0.0,0.0,5.0,0.0,-0.11293617333333335,0.0780696,1.0398242,-4.353027360000001,1.827799426666667,-5.394694013333333,14.662181583133583,0.03290534861921879,-9.870309219934278,9.475028570963488,12.681618435816766,-12.73586651958845,20.317527127507326,2.5353196883163145,19.940481048424846,2.494965840967022,0.5226041733333333,0.13213540000000001,0.4848338000000001,1.1395733733333335,0.7250094478977614,0.8248282319442971,0.8181233296599411,0.8054318673964996
LBP01_S02,LBP01,-1487,164,2,163,-1487,1715400858.52,2024-05-11 04:14:18.520000+00:00,2024-05-11 13:14:18.520000+09:00,2024,5,11,4,14,18,520,,,,,,,,,-0.720215,0.47168,1.713135,-29.724121,76.23291,25.695801,,,,,,,,,,,0.0,1.0,1.0,2.0,0.0,0.0,0.0,5.0,0.0,-0.11102536,0.07742832,1.0181054533333334,-4.333496106666667,0.49967442666666706,-6.239420573333334,14.231908153069961,-1.4994103078634664,-9.14506601394505,10.044304897086286,12.621642023502227,-13.101669160146253,20.78094422823459,2.5311972434216194,20.274651803950402,2.5051097984943747,-0.6091896400000001,0.39425168,0.6950295466666667,1.6984708666666668,1.004794742923063,0.8191951591127865,0.8331403319228652,0.8092556990735384
LBP01_S02,LBP01,-1486,165,2,164,-1486,1715400858.56,2024-05-11 04:14:18.560000+00:00,2024-05-11 13:14:18.560000+09:00,2024,5,11,4,14,18,560,,,,,,,,,-0.44165,0.068359,2.125,-38.024902,-90.393066,17.883301,,,,,,,,,,,0.0,1.0,1.0,2.0,0.0,0.0,0.0,5.0,0.0,-0.09977862666666666,0.07815749333333334,1.0200358,-5.849609386666667,-2.049967506666666,-5.9619140533333335,12.950764893305076,-3.1421719492815527,-7.573451681879609,10.56233549281849,12.495955145530965,-13.404607227421437,21.1517214661931,2.4762215490262536,20.555288758876923,2.52197406911613,-0.34187137333333334,-0.009798493333333338,1.1049642,1.4566340666666666,1.156684023257027,0.855182001725681,0.8325767434637319,0.8184475175526962
LBP01_S02,LBP01,-1485,166,2,165,-1485,1715400858.6,2024-05-11 04:14:18.600000+00:00,2024-05-11 13:14:18.600000+09:00,2024,5,11,4,14,18,600,,,,,,,,,0.038086,0.050049,1.085938,58.288574,94.238281,-16.906738,,,,,,,,,,,0.0,1.0,1.0,2.0,0.0,0.0,0.0,5.0,0.0,-0.10063474666666666,0.08037429333333333,1.0416373733333335,-6.5340169333333336,0.2823892666666673,-5.244140613333332,10.369060890754119,-4.567016648285482,-5.449482882729866,10.977097928448654,12.313274479599546,-13.622586542730632,21.393650260179886,2.4668431604787866,20.76118252404027,2.534605007215346,0.13872074666666667,-0.03032529333333333,0.044300626666666565,0.21334666666666657,0.14874681339299203,0.7962491331600253,0.8259152139046332,0.8148966857233647
LBP01_S02,LBP01,-1484,167,2,166,-1484,1715400858.64,2024-05-11 04:14:18.640000+00:00,2024-05-11 13:14:18.640000+09:00,2024,5,11,4,14,18,640,,,,,,,,,-0.390869,0.180176,-0.411621,104.980469,25.32959,-44.128418,,,,,,,,,,,0.0,1.0,1.0,2.0,0.0,0.0,0.0,5.0,0.0,-0.11242510666666668,0.07870762666666667,1.0608105466666669,-7.79703776,1.5787759866666673,-5.315755199999999,6.238234034813477,-5.457953949737907,-3.1641496667701516,11.226627289841193,12.094956321610029,-13.749152529401439,21.479393008262768,2.5294719107009933,20.881059093450467,2.535182033987396,-0.27844389333333336,0.10146837333333333,-1.4724315466666669,1.8523438133333334,1.501959217868691,0.8235179606576309,0.840858688513135,0.8241220933942234
LBP01_S02,LBP01,-1483,168,2,167,-1483,1715400858.68,2024-05-11 04:14:18.680000+00:00,2024-05-11 13:14:18.680000+09:00,2024,5,11,4,14,18,680,,,,,,,,,0.024902,0.076172,0.10376,26.794434,-136.901855,-15.075684,,,,,,,,,,,0.0,1.0,1.0,2.0,0.0,0.0,0.0,5.0,0.0,-0.12034828000000002,0.07426426666666666,1.06708984,-6.592610680000001,1.5934244266666673,-5.3629557199999995,0.7635654404773285,-5.620319711936851,-1.1586103894947852,11.257169907460286,11.870143533132556,-13.795496944981231,21.39953078414535,2.5869642324317064,20.91461998105844,2.5306592133766315,0.14525028,0.0019077333333333418,-0.96332984,1.1104878533333333,0.9742205417260381,0.8278408695266327,0.8420931953480499,0.8269255828985372
LBP01_S02,LBP01,-1482,169,2,168,-1482,1715400858.72,2024-05-11 04:14:18.720000+00:00,2024-05-11 13:14:18.720000+09:00,2024,5,11,4,14,18,720,,,,,,,,,0.759033,0.184326,0.738037,4.577637,-92.468262,20.996094,,,,,,,,,,,0.0,1.0,1.0,2.0,0.0,0.0,0.0,5.0,0.0,-0.12140296000000002,0.07293289333333333,1.0463411466666668,-4.24804688,1.7545572400000007,-6.086425773333333,-5.336951359654732,-5.088845516719227,0.1435750378111544,11.043691853074096,11.666589712463786,-13.789753943468785,21.171437341050652,2.598737849148055,20.871351277008063,2.525096600216723,0.88043596,0.11139310666666666,-0.3083041466666667,1.3001332133333334,0.9394824909096681,0.8463691003746502,0.8380171742096358,0.8353511337926434
LBP01_S02,LBP01,-1481,170,2,169,-1481,1715400858.76,2024-05-11 04:14:18.760000+00:00,2024-05-11 13:14:18.760000+09:00,2024,5,11,4,14,18,760,,,,,,,,,0.037354,0.156738,1.298096,-65.063477,139.770508,26.733398,,,,,,,,,,,0.0,1.0,1.0,2.0,0.0,0.0,0.0,5.0,0.0,-0.11223954666666666,0.07288405333333334,1.02111328,-2.7636718800000004,1.5429687066666673,-6.442871079999999,-11.046495637490555,-4.134826559721327,0.43723903494545197,10.601832027574474,11.501196650074933,-13.772264382070967,20.841104407738552,2.5640830156062155,20.768345054236235,2.5263843322726958,0.14959354666666666,0.08385394666666665,0.2769827199999999,0.5104302133333332,0.3257746778902355,0.8136386452777872,0.8388898521428976,0.8208557753284214
LBP01_S02,LBP01,-1480,171,2,170,-1480,1715400858.8,2024-05-11 04:14:18.800000+00:00,2024-05-11 13:14:18.800000+09:00,2024,5,11,4,14,18,800,,,,,,,,,-0.789062,-0.150146,1.976562,-130.615234,-4.150391,12.207031,,,,,,,,,,,0.0,1.0,1.0,2.0,0.0,0.0,0.0,5.0,0.0,-0.10639645333333334,0.0740722,1.01351888,-3.225911466666667,-0.5672200933333327,-6.325683573333333,-15.446025087658455,-3.1235954885952504,-0.3654840089006602,9.983991024068136,11.376252830531122,-13.786883742426992,20.473821542644114,2.532106665332539,20.628251428469834,2.5305196335627946,-0.6826655466666667,-0.2242182,0.96304312,1.8699268666666669,1.2015648550104456,0.8361920976634761,0.8343552319348275,0.8275100859089565
LBP01_S02,LBP01,-1479,172,2,171,-1479,1715400858.84,2024-05-11 04:14:18.840000+00:00,2024-05-11 13:14:18.840000+09:00,2024,5,11,4,14,18,840,,,,,,,,,-0.080322,-0.192627,1.986084,-10.498047,-40.649414,12.939453,,,,,,,,,,,0.0,1.0,1.0,2.0,0.0,0.0,0.0,5.0,0.0,-0.09505856000000001,0.07303378666666666,1.0326139333333333,-4.444986986666667,-1.3875325999999994,-5.708821586666667,-18.083242858112715,-2.291173745367045,-2.098179905525508,9.260661309743627,11.284605880716441,-13.870810938648013,20.13706964462804,2.485646819303832,20.477604683845822,2.5347661725038306,0.01473656000000001,-0.26566078666666665,0.9534700666666667,1.2338674133333334,0.9898979683797334,0.8385653944997956,0.83565818026282,0.8318560113999316
LBP01_S02,LBP01,-1478,173,2,172,-1478,1715400858.88,2024-05-11 04:14:18.880000+00:00,2024-05-11 13:14:18.880000+09:00,2024,5,11,4,14,18,880,,,,,,,,,-0.093506,0.057617,0.36084,71.228027,128.112793,-37.841797,,,,,,,,,,,0.0,1.0,1.0,2.0,0.0,0.0,0.0,5.0,0.0,-0.10178056000000002,0.07915684,1.0509342400000001,-5.797526053333335,1.1702473466666672,-5.520833306666666,-19.119616424173245,-1.5854711967737565,-4.39911831681789,8.495876652776698,11.22118703284549,-14.046775671320729,19.884840087003564,2.4796935567172316,20.344938452415295,2.5307701390564947,0.008274560000000014,-0.021539840000000005,-0.6900942400000001,0.7199086400000001,0.6904799005992839,0.8302051720324377,0.8331952548296038,0.8331508350902251
LBP01_S02,LBP01,-1477,174,2,173,-1477,1715400858.92,2024-05-11 04:14:18.920000+00:00,2024-05-11 13:14:18.920000+09:00,2024,5,11,4,14,18,920,,,,,,,,,-0.244873,-0.224609,0.256348,-74.890137,-30.944824,-34.240723,,,,,,,,,,,0.0,1.0,1.0,2.0,0.0,0.0,0.0,5.0,0.0,-0.11736976,0.07961257333333334,1.0684733066666667,-6.595052093333334,1.3582356266666673,-5.213216119999999,-19.19767971946518,-0.6848215462905355,-6.841431917934638,7.7279694639980905,11.193794170993868,-14.320432948038114,19.750882000516302,2.544074563981341,20.25786511599427,2.5208876542352314,-0.12750324000000002,-0.30422157333333333,-0.8121253066666667,1.24385012,0.8765588146954737,0.8435124170018221,0.8406871545221394,0.8310866580442752
LBP01_S02,LBP01,-1476,175,2,174,-1476,1715400858.96,2024-05-11 04:14:18.960000+00:00,2024-05-11 13:14:18.960000+09:00,2024,5,11,4,14,18,960,,,,,,,,,0.059814,0.064697,0.174561,28.198242,-108.093262,-30.761719,,,,,,,,,,,0.0,1.0,1.0,2.0,0.0,0.0,0.0,5.0,0.0,-0.11514645333333334,0.08267247999999999,1.06567056,-5.773112,0.9195963066666673,-5.876464826666666,-19.120926721354923,0.800133582052462,-9.063529178023517,6.9631323951438935,11.225799514275966,-14.682974115159055,19.750785208529095,2.517574561927247,20.238817193213343,2.5087251033864426,0.17496045333333335,-0.017975479999999988,-0.8911095600000001,1.0840454933333334,0.9083009006024543,0.8580126821590811,0.8409168517246222,0.8318962667682847
LBP01_S02,LBP01,-1475,176,2,175,-1475,1715400859.0,2024-05-11 04:14:19+00:00,2024-05-11 13:14:19+09:00,2024,5,11,4,14,19,0,4.0,14.0,18.0,40.546757,141.525742,-8.002,3.0,16.0,0.713379,-0.084717,1.039307,-9.58252,-49.865723,20.568848,-489.0,9.0,570.0,757.0,0.0,1028.300049,29.049999,0.15162,-124.481987,4.000781,0.0,1.0,1.0,2.0,0.0,0.0,0.0,4.0,0.0,-0.11302405333333333,0.08257482666666666,1.0328352666666667,-4.248046893333334,1.8904621866666673,-6.953938786666666,-19.503521939989678,3.0475447151635198,-10.831332535383739,6.182991517544306,11.347701302882507,-15.116227416574405,19.887182813939784,2.509308549889146,20.300258118548676,2.507089454782545,0.8264030533333333,-0.16729182666666664,0.006471733333333285,1.0001666133333331,0.8431906339378207,0.848347500743243,0.8412215573428177,0.835819761763844
LBP01_S02,LBP01,-1474,177,2,176,-1474,1715400859.04,2024-05-11 04:14:19.040000+00:00,2024-05-11 13:14:19.040000+09:00,2024,5,11,4,14,19,40,,,,,,,,,-0.193359,0.153809,1.422363,-17.211914,114.746094,15.319824,,,,,,,,,,,0.0,1.0,1.0,2.0,0.0,0.0,0.0,4.0,0.0,-0.11072262666666667,0.08432286666666666,1.0051074,-3.8916015866666673,0.8007812000000007,-7.32014972,-20.52078136046667,5.829695169073427,-12.016421523221311,5.36216026312564,11.580889109645444,-15.596884277503259,20.15273069395749,2.489511576227631,20.441183824202906,2.5100401942991075,-0.08263637333333333,0.06948613333333334,0.41725560000000006,0.5693781066666668,0.4309980610799356,0.8281402043423673,0.84497200674689,0.8263947632250093
LBP01_S02,LBP01,-1473,178,2,177,-1473,1715400859.08,2024-05-11 04:14:19.080000+00:00,2024-05-11 13:14:19.080000+09:00,2024,5,11,4,14,19,80,,,,,,,,,-0.90332,-0.095703,1.91748,-39.0625,-40.039062,7.8125,,,,,,,,,,,0.0,1.0,1.0,2.0,0.0,0.0,0.0,4.0,0.0,-0.10353838666666668,0.07910150666666667,1.0021223733333333,-5.463053413333333,-1.1873372799999993,-7.097981746666666,-21.82838998534342,8.515671116952547,-12.537237614860842,4.489024663711903,11.921515954323546,-16.098373782097692,20.52879741993512,2.488139384219077,20.64677063257519,2.5204958355023117,-0.7997816133333333,-0.17480450666666666,0.9153576266666668,1.8899437466666669,1.2280418678831269,0.8684795561982769,0.8445389084413574,0.8377230123534976
LBP01_S02,LBP01,-1472,179,2,178,-1472,1715400859.12,2024-05-11 04:14:19.120000+00:00,2024-05-11 13:14:19.120000+09:00,2024,5,11,4,14,19,120,,,,,,,,,0.059326,0.07251,1.848633,-18.127441,-25.756836,-18.310547,,,,,,,,,,,0.0,1.0,1.0,2.0,0.0,0.0,0.0,4.0,0.0,-0.09956377333333334,0.07784825333333334,1.02806964,-5.900878933333334,-0.16438806666666608,-6.082356746666666,-22.658190789573887,10.264867281670783,-12.332721088945492,3.5826970321289475,12.332110645590378,-16.591682625655512,20.980958113241353,2.4771123406601663,20.89185362674466,2.528081508972079,0.15888977333333335,-0.005338253333333334,0.82056336,0.9847913866666667,0.8358221609846549,0.8457941790304718,0.8480987095298782,0.8388394946456081
LBP01_S02,LBP01,-1471,180,2,179,-1471,1715400859.16,2024-05-11 04:14:19.160000+00:00,2024-05-11 13:14:19.160000+09:00,2024,5,11,4,14,19,160,,,,,,,,,-0.294189,0.050537,0.394043,22.949219,172.790527,-52.91748,,,,,,,,,,,0.0,1.0,1.0,2.0,0.0,0.0,0.0,4.0,0.0,-0.11348629333333335,0.07638014666666666,1.0500715866666666,-7.029622426666668,0.7967122000000004,-5.68522132,-22.054952108856444,10.309719593872904,-11.400457015469675,2.70049894777469,12.744499429345295,-17.047700906274297,21.455513661091878,2.547726529567238,21.14727328307898,2.5297273083843574,-0.18070270666666663,-0.025843146666666664,-0.6560285866666666,0.8625744399999999,0.6809514248095515,0.8351653858933402,0.8471126434915293,0.8336950609215977
LBP01_S02,LBP01,-1470,181,2,180,-1470,1715400859.2,2024-05-11 04:14:19.200000+00:00,2024-05-11 13:14:19.200000+09:00,2024,5,11,4,14,19,200,,,,,,,,,-0.142578,-0.069336,0.310791,-41.931152,-60.852051,-26.123047,,,,,,,,,,,0.0,1.0,1.0,2.0,0.0,0.0,0.0,4.0,0.0,-0.12086584,0.07888991999999999,1.0569628666666666,-5.973307320000001,1.1132812133333339,-5.917968719999999,-19.194798244652965,8.207220286248322,-9.866518767090223,1.9327070179885713,13.072788240795228,-17.442361656957907,21.88307859918644,2.5616140604981643,21.38690808046458,2.5279407527011934,-0.021712160000000008,-0.14822591999999998,-0.7461718666666666,0.9161099466666666,0.7610616242174674,0.8324185436588608,0.8479818854161267,0.8296183714468499
LBP01_S02,LBP01,-1469,182,2,181,-1469,1715400859.24,2024-05-11 04:14:19.240000+00:00,2024-05-11 13:14:19.240000+09:00,2024,5,11,4,14,19,240,,,,,,,,,0.307373,0.149414,0.791016,-53.405762,-116.943359,-11.108398,,,,,,,,,,,0.0,1.0,1.0,2.0,0.0,0.0,0.0,4.0,0.0,-0.12336909333333336,0.07554357333333334,1.0384895600000001,-4.278971373333333,1.442057253333334,-6.4729817333333335,-13.70952194835926,3.979876406128467,-8.016363335247119,1.3843261400542008,13.231983297040367,-17.763016190367793,22.192937728350902,2.590203231335876,21.59283361950222,2.530412911624905,0.43074209333333335,0.07387042666666666,-0.2474735600000001,0.7520860800000001,0.5022337641021072,0.8332199456840893,0.8348760132422416,0.826173571116827
LBP01_S02,LBP01,-1468,183,2,182,-1468,1715400859.28,2024-05-11 04:14:19.280000+00:00,2024-05-11 13:14:19.280000+09:00,2024,5,11,4,14,19,280,,,,,,,,,0.182861,-0.068848,1.668945,-42.053223,96.923828,0.732422,,,,,,,,,,,0.0,1.0,1.0,2.0,0.0,0.0,0.0,4.0,0.0,-0.11616531999999999,0.07683262666666667,1.0122981599999998,-1.926269546666667,0.5167642933333341,-6.958821573333333,-5.9201970517929965,-1.865732691676257,-6.236565904482086,1.147518257982481,13.157353989373316,-18.012478826547078,22.335670028698217,2.5555502914149004,21.756776268101643,2.534129258301759,0.29902631999999996,-0.14568062666666667,0.6566468400000001,1.1013537866666667,0.7360873980178717,0.8141186388620599,0.8386639490761835,0.8218710837851713
LBP01_S02,LBP01,-1467,184,2,183,-1467,1715400859.32,2024-05-11 04:14:19.320000+00:00,2024-05-11 13:14:19.320000+09:00,2024,5,11,4,14,19,320,,,,,,,,,-0.856689,0.37207,1.643555,-7.141113,55.664062,27.282715,,,,,,,,,,,0.0,1.0,1.0,2.0,0.0,0.0,0.0,4.0,0.0,-0.11342769333333334,0.07421544,1.0004850133333334,-2.607421893333334,-1.1246745066666661,-7.226562453333333,3.1216617029670823,-8.409001295279728,-4.880077612188331,1.2723847261011643,12.820993937562127,-18.20768193103461,22.3050785638595,2.5605325581041276,21.87803723088028,2.541223082604016,-0.7432613066666667,0.29785456,0.6430699866666667,1.6841858533333334,1.0269828219849158,0.8171146589639454,0.8339469673813136,0.8257418588731941
