file_name,test_id,_program_index,program_index,session_id,index,_index,unixtime,datetime_utc,datetime_jst,rtc_year,rtc_month,rtc_day,rtc_hour,rtc_min,rtc_sec,rtc_msec,gps_hour,gps_min,gps_sec,latitude,longitude,altitude,fix_type,SIV,acc_x,acc_y,acc_z,gyro_x,gyro_y,gyro_z,mag_x,mag_y,mag_z,illuminance,atmopress,water_pressure,water_temp,depth,alt_wps,battery_level,behavior_class,camera_command,camera_recording,camera_count,play_audio,speaker_on,audio_file,prev_sd_write_time_ms,delay_occurred_counter,acc_x_ma,acc_y_ma,acc_z_ma,gyro_x_ma,gyro_y_ma,gyro_z_ma,gyro_x_lowpass,gyro_y_lowpass,gyro_z_lowpass,angle_x,angle_y,angle_z,combined_angle_change,gravity_adjusted_angle,smoothed_angle_change,smoothed_gravity_angle,acc_x_dy,acc_y_dy,acc_z_dy,ODBA,VeDBA,smoothed_VeDBA_1s,smoothed_VeDBA_2s,smoothed_VeDBA_3s
LBP00_S00,LBP00,-1650,1,0,0,-1650,1715222160.0,2024-05-09 02:36:00+00:00,2024-05-09 11:36:00+09:00,2024,5,9,2,36,0,0,2.0,36.0,0.0,40.540173,141.543198,16.648001,3.0,13.0,-0.048096,0.47168,2.035645,34.301758,-1.831055,0.793457,-237.0,-7.0,406.0,2603.0,0.0,1012.700012,17.48,-0.002973,4.577342,4.028906,0.0,1.0,1.0,0.0,0.0,0.0,0.0,12.0,0.0,,,,,,,33.940608611207566,-2.725600116550415,0.9113326796439919,1.3576243444483027,-0.1090240046620166,0.036453307185759676,1.3624826376273593,,1.7642597970378642,,,,,,,,,
LBP00_S00,LBP00,-1649,2,0,1,-1649,1715222160.04,2024-05-09 02:36:00.040000+00:00,2024-05-09 11:36:00.040000+09:00,2024,5,9,2,36,0,40,,,,,,,,,0.338379,0.42041,1.905029,-47.485352,80.13916,-10.009766,,,,,,,,,,,0.0,1.0,1.0,0.0,0.0,0.0,0.0,12.0,0.0,,,,,,,17.408809834158728,0.8196040534578416,-1.5031456840705195,2.0539767378146516,-0.07623984252370294,-0.023672520177061104,2.0555275092499468,,1.6885341050034228,,,,,,,,,
LBP00_S00,LBP00,-1648,3,0,2,-1648,1715222160.08,2024-05-09 02:36:00.080000+00:00,2024-05-09 11:36:00.080000+09:00,2024,5,9,2,36,0,80,,,,,,,,,-0.621582,-0.237549,-0.180176,53.649902,130.065918,-33.691406,,,,,,,,,,,0.0,1.0,1.0,0.0,0.0,0.0,0.0,12.0,0.0,,,,,,,2.5369045690665506,3.7267483896330362,-3.7943522666874445,2.155452920577314,0.0728300930616185,-0.17544661084455887,2.1638075303819138,,1.713621297130949,,,,,,,,,
LBP00_S00,LBP00,-1647,4,0,3,-1647,1715222160.12,2024-05-09 02:36:00.120000+00:00,2024-05-09 11:36:00.120000+09:00,2024,5,9,2,36,0,120,,,,,,,,,0.082275,0.307617,0.17334,-88.867188,-47.607422,-5.432129,,,,,,,,,,,0.0,1.0,1.0,0.0,0.0,0.0,0.0,12.0,0.0,,,,,,,-9.405389307407239,5.493775592998853,-5.837882263248264,1.7792373482810242,0.2925811167815726,-0.4089619013744894,1.8489291733841726,,1.8301507258279788,,,,,,,,,
LBP00_S00,LBP00,-1646,5,0,4,-1646,1715222160.16,2024-05-09 02:36:00.160000+00:00,2024-05-09 11:36:00.160000+09:00,2024,5,9,2,36,0,160,,,,,,,,,0.539062,-0.537354,1.135742,-43.029785,-116.638184,12.268066,,,,,,,,,,,0.0,1.0,1.0,0.0,0.0,0.0,0.0,12.0,0.0,,,,,,,-17.717640172667306,5.979860799240184,-7.538479653348491,1.070531741374332,0.5317755487511799,-0.710501087508429,1.3905521345459286,,2.0023014112560182,,,,,,,,,
LBP00_S00,LBP00,-1645,6,0,5,-1645,1715222160.2,2024-05-09 02:36:00.200000+00:00,2024-05-09 11:36:00.200000+09:00,2024,5,9,2,36,0,200,,,,,,,,,0.694824,0.678223,1.436035,28.991699,41.259766,13.427734,,,,,,,,,,,0.0,1.0,1.0,0.0,0.0,0.0,0.0,12.0,0.0,,,,,,,-22.310780602563558,5.33210253185971,-8.8013006851221,0.17810051727178977,0.7450596500255684,-1.062553114913313,1.3099056448312167,,2.1971607219522196,,,,,,,,,
LBP00_S00,LBP00,-1644,7,0,6,-1644,1715222160.24,2024-05-09 02:36:00.240000+00:00,2024-05-09 11:36:00.240000+09:00,2024,5,9,2,36,0,240,,,,,,,,,-0.118164,0.191162,1.935547,-3.479004,19.226074,-9.338379,,,,,,,,,,,0.0,1.0,1.0,0.0,0.0,0.0,0.0,12.0,0.0,,,,,,,-23.570607629414518,3.8529133333316525,-9.506539549499102,-0.764723787904791,0.8991761833588345,-1.4428146968932771,1.8641444498961048,,2.491859657923185,,,,,,,,,
LBP00_S00,LBP00,-1643,8,0,7,-1643,1715222160.28,2024-05-09 02:36:00.280000+00:00,2024-05-09 11:36:00.280000+09:00,2024,5,9,2,36,0,280,,,,,,,,,0.35083,0.293213,2.50415,1.403809,-31.12793,-9.70459,,,,,,,,,,,0.0,1.0,1.0,0.0,0.0,0.0,0.0,12.0,0.0,,,,,,,-22.131725079343457,1.9136202325793221,-9.523287235753644,-1.6499927910785295,0.9757209926620074,-1.8237461863234228,2.6458567267071884,,2.730450719140997,,,,,,,,,
LBP00_S00,LBP00,-1642,9,0,8,-1642,1715222160.32,2024-05-09 02:36:00.320000+00:00,2024-05-09 11:36:00.320000+09:00,2024,5,9,2,36,0,320,,,,,,,,,0.06958,0.184814,1.046875,16.540527,143.615723,-55.603027,,,,,,,,,,,0.0,1.0,1.0,0.0,0.0,0.0,0.0,12.0,0.0,,,,,,,-18.682117988453,-0.07582652517679578,-8.766289095888656,-2.3972775106166493,0.9726879316549356,-2.174397750158969,3.379506894680332,,2.9502089653589003,,,,,,,,,
LBP00_S00,LBP00,-1641,10,0,9,-1641,1715222160.36,2024-05-09 02:36:00.360000+00:00,2024-05-09 11:36:00.360000+09:00,2024,5,9,2,36,0,360,,,,,,,,,0.095215,0.599609,0.032227,-73.852539,-73.669434,5.859375,,,,,,,,,,,0.0,1.0,1.0,0.0,0.0,0.0,0.0,12.0,0.0,,,,,,,-13.875132853152364,-1.7016854269775779,-7.260138917093998,-2.9522828247427437,0.9046205145758325,-2.464803306842729,3.950894518218031,,3.175954034302619,,,,,,,,,
LBP00_S00,LBP00,-1640,11,0,10,-1640,1715222160.4,2024-05-09 02:36:00.400000+00:00,2024-05-09 11:36:00.400000+09:00,2024,5,9,2,36,0,400,,,,,,,,,0.275635,-0.415039,0.791748,-103.393555,-83.496094,-7.93457,,,,,,,,,,,0.0,1.0,1.0,0.0,0.0,0.0,0.0,12.0,0.0,,,,,,,-8.336576761785997,-2.629961882503056,-5.164773448392445,-3.2857458952141836,0.7994220392757102,-2.6713942447784267,4.309471997337016,,3.4098143661837286,,,,,,,,,
LBP00_S00,LBP00,-1639,12,0,11,-1639,1715222160.44,2024-05-09 02:36:00.440000+00:00,2024-05-09 11:36:00.440000+09:00,2024,5,9,2,36,0,440,,,,,,,,,0.69165,0.474854,1.341064,107.48291,-5.432129,32.958984,,,,,,,,,,,0.0,1.0,1.0,0.0,0.0,0.0,0.0,12.0,0.0,,,,,,,-2.6872219056030135,-2.7091219861828466,-2.7437817493450276,-3.393234771438304,0.6910571598283963,-2.781145514752228,4.441438121428067,,3.6080042070503495,,,,,,,,,
LBP00_S00,LBP00,-1638,13,0,12,-1638,1715222160.48,2024-05-09 02:36:00.480000+00:00,2024-05-09 11:36:00.480000+09:00,2024,5,9,2,36,0,480,,,,,,,,,-0.022705,0.333984,1.583008,-30.151367,70.251465,-14.648438,,,,,,,,,,,0.0,1.0,1.0,0.0,0.0,0.0,0.0,12.0,0.0,,,,,,,2.490680759498908,-2.014111626301056,-0.29780188684432796,-3.2936075410583476,0.610492694776354,-2.793057590226001,4.361389992560948,,3.7077402143579654,,,,,,,,,
LBP00_S00,LBP00,-1637,14,0,13,-1637,1715222160.52,2024-05-09 02:36:00.520000+00:00,2024-05-09 11:36:00.520000+09:00,2024,5,9,2,36,0,520,,,,,,,,,-0.09668,0.416504,1.952393,47.058105,-49.987793,12.145996,,,,,,,,,,,0.0,1.0,1.0,0.0,0.0,0.0,0.0,12.0,0.0,,,,,,,6.742235632340175,-0.7884327920410805,1.8968554821162316,-3.0239181157647406,0.5789553830947108,-2.7171833709413518,4.106379862821355,,3.693819709193788,,,,,,,,,
LBP00_S00,LBP00,-1636,15,0,14,-1636,1715222160.56,2024-05-09 02:36:00.560000+00:00,2024-05-09 11:36:00.560000+09:00,2024,5,9,2,36,0,560,,,,,,,,,0.31958,0.231689,1.719482,-4.333496,65.979004,-24.658203,,,,,,,,,,,0.0,1.0,1.0,0.0,0.0,0.0,0.0,12.0,0.0,,,,,,,9.821978430147587,0.6763625236764288,3.6208255920261494,-2.6310389785588373,0.606009884041768,-2.572350347260306,3.729155453357028,,3.5844115634414293,,,,,,,,,
LBP00_S00,LBP00,-1635,16,0,15,-1635,1715222160.6,2024-05-09 02:36:00.600000+00:00,2024-05-09 11:36:00.600000+09:00,2024,5,9,2,36,0,600,,,,,,,,,-0.714111,0.218018,-0.537598,30.883789,44.067383,7.8125,,,,,,,,,,,0.0,1.0,1.0,0.0,0.0,0.0,0.0,12.0,0.0,,,,,,,11.711271333543758,2.1393716011222357,4.722177434625506,-2.162588125217087,0.6915847480866575,-2.3834632498752857,3.291804053497428,,3.411468365963139,,,,,,,,,
LBP00_S00,LBP00,-1634,17,0,16,-1634,1715222160.64,2024-05-09 02:36:00.640000+00:00,2024-05-09 11:36:00.640000+09:00,2024,5,9,2,36,0,640,,,,,,,,,0.181396,-0.021729,0.220459,-86.730957,-89.782715,-0.854492,,,,,,,,,,,0.0,1.0,1.0,0.0,0.0,0.0,0.0,12.0,0.0,,,,,,,12.563973475106113,3.4316533773051288,5.126059711978823,-1.6600291862128422,0.8288508831788626,-2.1784208613961327,2.8615045229722633,,3.2093754595294044,,,,,,,,,
LBP00_S00,LBP00,-1633,18,0,17,-1633,1715222160.68,2024-05-09 02:36:00.680000+00:00,2024-05-09 11:36:00.680000+09:00,2024,5,9,2,36,0,680,,,,,,,,,0.771973,0.068604,1.105713,117.126465,-66.162109,37.780762,,,,,,,,,,,0.0,1.0,1.0,0.0,0.0,0.0,0.0,12.0,0.0,,,,,,,12.617024717019982,4.416768920193237,4.8533182141759195,-1.155348197532043,1.005521639986592,-1.984288132829096,2.506651675065414,,3.0084377846692116,,,,,,,,,
LBP00_S00,LBP00,-1632,19,0,18,-1632,1715222160.72,2024-05-09 02:36:00.720000+00:00,2024-05-09 11:36:00.720000+09:00,2024,5,9,2,36,0,720,,,,,,,,,0.463135,0.439941,1.535889,-21.911621,87.524414,-1.342773,,,,,,,,,,,0.0,1.0,1.0,0.0,0.0,0.0,0.0,12.0,0.0,,,,,,,12.107011471622778,4.963689026574551,4.034082967229054,-0.6710677386671319,1.2040692010495742,-1.822924814139934,2.2854254371567433,,2.8326170038131027,,,,,,,,,
LBP00_S00,LBP00,-1631,20,0,19,-1631,1715222160.76,2024-05-09 02:36:00.760000+00:00,2024-05-09 11:36:00.760000+09:00,2024,5,9,2,36,0,760,,,,,,,,,-0.094727,0.282471,2.013184,34.790039,15.563965,8.728027,,,,,,,,,,,0.0,1.0,1.0,0.0,0.0,0.0,0.0,12.0,0.0,,,,,,,11.208180249706938,4.991317761312062,2.8908107573514896,-0.22274052867885435,1.4037219115020567,-1.7072923838458742,2.2214625434351243,,2.699322451273667,,,,,,,,,
LBP00_S00,LBP00,-1630,21,0,20,-1630,1715222160.8,2024-05-09 02:36:00.800000+00:00,2024-05-09 11:36:00.800000+09:00,2024,5,9,2,36,0,800,,,,,,,,,0.246582,0.662598,2.267334,-31.982422,-30.456543,-3.540039,,,,,,,,,,,0.0,1.0,1.0,0.0,0.0,0.0,0.0,12.0,0.0,,,,,,,9.98967170930435,4.563401097244447,1.6797195310368498,0.17684633969331964,1.5862579553918346,-1.6401036026044002,2.288542932999672,,2.6198615119893423,,,,,,,,,
LBP00_S00,LBP00,-1629,22,0,21,-1629,1715222160.84,2024-05-09 02:36:00.840000+00:00,2024-05-09 11:36:00.840000+09:00,2024,5,9,2,36,0,840,,,,,,,,,0.064697,-0.18457,1.108398,-17.700195,162.719727,-40.649414,,,,,,,,,,,0.0,1.0,1.0,0.0,0.0,0.0,0.0,12.0,0.0,,,,,,,8.401314888403512,3.942418473954165,0.6101462521883068,0.5128989352294602,1.743954694350001,-1.6156977525168679,2.432061372826142,,2.600176687827756,,,,,,,,,
LBP00_S00,LBP00,-1628,23,0,22,-1628,1715222160.88,2024-05-09 02:36:00.880000+00:00,2024-05-09 11:36:00.880000+09:00,2024,5,9,2,36,0,880,,,,,,,,,-0.017822,0.545654,0.057861,43.273926,-74.09668,12.023926,,,,,,,,,,,0.0,1.0,1.0,0.0,0.0,0.0,0.0,12.0,0.0,,,,,,,6.312501131032029,3.5190193088807606,-0.21674151926876872,0.7653989804707413,1.8847154667052315,-1.6243674132876187,2.6031821839998592,,2.641299150448535,,,,,,,,,
LBP00_S00,LBP00,-1627,24,0,23,-1627,1715222160.92,2024-05-09 02:36:00.920000+00:00,2024-05-09 11:36:00.920000+09:00,2024,5,9,2,36,0,920,,,,,,,,,0.121094,-0.170166,0.531494,-20.812988,-101.5625,1.77002,,,,,,,,,,,0.0,1.0,1.0,0.0,0.0,0.0,0.0,12.0,0.0,,,,,,,3.611408426787689,3.617464459338168,-0.8152938346943543,0.9098553175422488,2.029414045078758,-1.6569791666753928,2.7734343374269947,,2.738947457162955,,,,,,,,,
LBP00_S00,LBP00,-1626,25,0,24,-1626,1715222160.96,2024-05-09 02:36:00.960000+00:00,2024-05-09 11:36:00.960000+09:00,2024,5,9,2,36,0,960,,,,,,,,,0.832031,0.441895,1.187988,88.684082,-38.879395,38.696289,,,,,,,,,,,0.0,1.0,1.0,0.0,0.0,0.0,0.0,12.0,0.0,,,,,,,0.3271405423452112,4.283834349689583,-1.2689290709148944,0.9229409392360572,2.2007674190663415,-1.7077363295119885,2.9345460605137794,,2.883228465660806,,,,,,,,,
LBP00_S00,LBP00,-1625,26,0,25,-1625,1715222161.0,2024-05-09 02:36:01+00:00,2024-05-09 11:36:01+09:00,2024,5,9,2,36,1,0,2.0,36.0,1.0,40.540203,141.543045,17.208,3.0,13.0,0.172119,0.417236,1.558838,-48.278809,77.148438,-17.028809,-238.0,0.0,407.0,2600.0,0.0,1012.900024,17.469999,-0.000991,2.912482,4.028906,0.0,1.0,1.0,0.0,0.0,0.0,0.0,9.0,0.0,,,,,,,-3.2935743727296285,5.210499242478508,-1.667141413310889,0.7911979643268721,2.4091873887654818,-1.7744219860444241,3.0949558118815634,,3.0608089282839495,,,,,,,,,
LBP00_S00,LBP00,-1624,27,0,26,-1624,1715222161.04,2024-05-09 02:36:01.040000+00:00,2024-05-09 11:36:01.040000+09:00,2024,5,9,2,36,1,40,,,,,,,,,-0.100342,0.392578,1.883545,-9.70459,-17.272949,4.150391,,,,,,,,,,,0.0,1.0,1.0,0.0,0.0,0.0,0.0,9.0,0.0,,,,,,,-6.807455497497628,5.876662505294454,-2.070989399376885,0.518899744426967,2.6442538889772598,-1.8572615620194994,3.2727291491800607,,3.2594628384556876,,,,,,,,,
LBP00_S00,LBP00,-1623,28,0,27,-1623,1715222161.08,2024-05-09 02:36:01.080000+00:00,2024-05-09 11:36:01.080000+09:00,2024,5,9,2,36,1,80,,,,,,,,,0.187256,0.11499,1.583984,-40.100098,89.782715,-23.925781,,,,,,,,,,,0.0,1.0,1.0,0.0,0.0,0.0,0.0,9.0,0.0,,,,,,,-9.690087576241432,5.832990096507804,-2.5235406317220845,0.13129624137730966,2.877573492837572,-1.9582031872883827,3.483134742209611,,3.471224995860813,,,,,,,,,
LBP00_S00,LBP00,-1622,29,0,28,-1622,1715222161.12,2024-05-09 02:36:01.120000+00:00,2024-05-09 11:36:01.120000+09:00,2024,5,9,2,36,1,120,,,,,,,,,-0.668213,-0.190918,-0.317871,21.728516,99.79248,-19.470215,,,,,,,,,,,0.0,1.0,1.0,0.0,0.0,0.0,0.0,9.0,0.0,,,,,,,-11.489547447511132,4.950629612527651,-3.0825353920377148,-0.3282856565231356,3.075598677338678,-2.081504602969891,3.7282355221352494,,3.6924574502661187,,,,,,,,,
LBP00_S00,LBP00,-1621,30,0,29,-1621,1715222161.16,2024-05-09 02:36:01.160000+00:00,2024-05-09 11:36:01.160000+09:00,2024,5,9,2,36,1,160,,,,,,,,,0.104492,0.060547,0.14624,-39.428711,-58.71582,-2.319336,,,,,,,,,,,0.0,1.0,1.0,0.0,0.0,0.0,0.0,9.0,0.0,,,,,,,-11.950593066065824,3.473093466817562,-3.8353191589516347,-0.8063093791657686,3.2145224160113806,-2.2349173693279565,3.9972671696665616,,3.9225442128678196,,,,,,,,,
LBP00_S00,LBP00,-1620,31,0,30,-1620,1715222161.2,2024-05-09 02:36:01.200000+00:00,2024-05-09 11:36:01.200000+09:00,2024,5,9,2,36,1,200,,,,,,,,,0.290039,-0.097656,0.64917,-13.549805,-150.57373,21.484375,,,,,,,,,,,0.0,1.0,1.0,0.0,0.0,0.0,0.0,9.0,0.0,,,,,,,-11.068241140946727,1.8414511096911812,-4.872935883254837,-1.2490390248036376,3.288180460399028,-2.42983480465815,4.275082034717053,,4.162570206253169,,,,,,,,,
LBP00_S00,LBP00,-1619,32,0,31,-1619,1715222161.24,2024-05-09 02:36:01.240000+00:00,2024-05-09 11:36:01.240000+09:00,2024,5,9,2,36,1,240,,,,,,,,,0.635498,0.3125,1.153564,1.342773,-2.563477,5.126953,,,,,,,,,,,0.0,1.0,1.0,0.0,0.0,0.0,0.0,9.0,0.0,,,,,,,-9.063305774514522,0.4236552077623228,-6.236360308964627,-1.6115712557842183,3.3051266687095207,-2.679289217016735,4.549682946877394,,4.414139449892256,,,,,,,,,
LBP00_S00,LBP00,-1618,33,0,32,-1618,1715222161.28,2024-05-09 02:36:01.280000+00:00,2024-05-09 11:36:01.280000+09:00,2024,5,9,2,36,1,280,,,,,,,,,0.073975,0.408691,1.402832,-1.89209,64.575195,-17.028809,,,,,,,,,,,0.0,1.0,1.0,0.0,0.0,0.0,0.0,9.0,0.0,,,,,,,-6.296097480498279,-0.6547770270052395,-7.873340593885896,-1.8634151550041496,3.278935587629311,-2.9942228407721707,4.815506728052914,,4.678474404389205,,,,,,,,,
LBP00_S00,LBP00,-1617,34,0,33,-1617,1715222161.32,2024-05-09 02:36:01.320000+00:00,2024-05-09 11:36:01.320000+09:00,2024,5,9,2,36,1,320,,,,,,,,,-0.031738,0.214844,1.781006,-11.352539,-4.638672,-10.742188,,,,,,,,,,,0.0,1.0,1.0,0.0,0.0,0.0,0.0,9.0,0.0,,,,,,,-3.1496572840310977,-1.4741476082585039,-9.637836785855738,-1.9894014463653935,3.219969683298971,-3.3797363122064,5.074301963444007,,4.956236273864226,0.9533739747804154,,,,,,,,
LBP00_S00,LBP00,-1616,35,0,34,-1616,1715222161.36,2024-05-09 02:36:01.360000+00:00,2024-05-09 11:36:01.360000+09:00,2024,5,9,2,36,1,360,,,,,,,,,0.237793,0.291016,1.138428,-0.244141,76.23291,-22.644043,,,,,,,,,,,0.0,1.0,1.0,0.0,0.0,0.0,0.0,9.0,0.0,,,,,,,0.07876264659760181,-2.145989846799827,-11.332576345285919,-1.9862509405014894,3.134130089426978,-3.833039366017837,5.334805994367277,,5.248014807600389,0.9408065501857203,,,,,,,,
LBP00_S00,LBP00,-1615,36,0,35,-1615,1715222161.4,2024-05-09 02:36:01.400000+00:00,2024-05-09 11:36:01.400000+09:00,2024,5,9,2,36,1,400,,,,,,,,,-0.605469,-0.189453,-0.237305,49.682617,60.119629,-25.085449,,,,,,,,,,,0.0,1.0,1.0,0.0,0.0,0.0,0.0,9.0,0.0,,,,,,,3.241455218398811,-2.670252924118169,-12.766634666768017,-1.856592731765537,3.0273199724622515,-4.3437047526885575,5.610648248272443,,5.554703045186555,0.9434237125940901,,,,,,,,
LBP00_S00,LBP00,-1614,37,0,36,-1614,1715222161.44,2024-05-09 02:36:01.440000+00:00,2024-05-09 11:36:01.440000+09:00,2024,5,9,2,36,1,440,,,,,,,,,0.114746,0.187256,0.101562,2.624512,-74.890137,-10.192871,,,,,,,,,,,0.0,1.0,1.0,0.0,0.0,0.0,0.0,9.0,0.0,,,,,,,6.3328272615023575,-2.952898723370792,-13.795119173152026,-1.6032796413054426,2.90920402352742,-4.895509519614638,5.916078694149545,,5.877201277461358,0.937085855053504,,,,,,,,
LBP00_S00,LBP00,-1613,38,0,37,-1613,1715222161.48,2024-05-09 02:36:01.480000+00:00,2024-05-09 11:36:01.480000+09:00,2024,5,9,2,36,1,480,,,,,,,,,0.309326,0.111328,0.568115,-12.573242,-149.658203,12.390137,,,,,,,,,,,0.0,1.0,1.0,0.0,0.0,0.0,0.0,9.0,0.0,0.1257194,0.17865888,0.9350488133333332,2.4877929066666664,0.27180986666666634,-2.3535156666666666,9.406022141128698,-2.97105914025142,-14.326588500442293,-1.2270387556602946,2.790361657917363,-5.46857305963233,6.260753436959821,0.9533739747804154,6.215724366571226,0.9331983790482218,0.18360659999999998,-0.06733088,-0.3669338133333332,0.6178712933333332,0.4157947261960832,0.4157947261960832,0.4157947261960832,0.4157947261960832
LBP00_S00,LBP00,-1612,39,0,38,-1612,1715222161.52,2024-05-09 02:36:01.520000+00:00,2024-05-09 11:36:01.520000+09:00,2024,5,9,2,36,1,520,,,,,,,,,0.622559,0.210693,1.009521,-21.850586,0.305176,-17.150879,,,,,,,,,,,0.0,1.0,1.0,0.0,0.0,0.0,0.0,9.0,0.0,0.1302832,0.1754232,0.92521808,1.5364582666666664,1.1165364399999997,-2.643229213333333,12.446779106248533,-2.935191632030396,-14.30972962641038,-0.7291675914103533,2.672953992636147,-6.040962244688745,6.646020859496875,0.9282391255910252,6.569246034253846,0.9383399136547267,0.4922758,0.03526979999999999,0.08430291999999984,0.6118485199999998,0.5006859338729284,0.4582403300345058,0.4582403300345058,0.4582403300345058
LBP00_S00,LBP00,-1611,40,0,39,-1611,1715222161.56,2024-05-09 02:36:01.560000+00:00,2024-05-09 11:36:01.560000+09:00,2024,5,9,2,36,1,560,,,,,,,,,0.071533,0.271729,1.440918,13.427734,62.805176,-24.963379,,,,,,,,,,,0.0,1.0,1.0,0.0,0.0,0.0,0.0,9.0,0.0,0.12427733333333331,0.17480145333333336,0.9220019333333332,2.5935871733333333,-0.008951840000000382,-2.4414062933333334,15.27453209126672,-3.2755530951083554,-13.723521961454956,-0.11818630775968442,2.541931868831813,-6.589903123146944,7.064149545528216,0.9486580374108298,6.935210191377891,0.9425797558480828,-0.05274433333333331,0.09692754666666664,0.5189160666666667,0.6685879466666667,0.530519366513986,0.48233334219433255,0.48233334219433255,0.48233334219433255
LBP00_S00,LBP00,-1610,41,0,40,-1610,1715222161.6,2024-05-09 02:36:01.600000+00:00,2024-05-09 11:36:01.600000+09:00,2024,5,9,2,36,1,600,,,,,,,,,-0.003418,0.206787,1.518311,-2.868652,14.404297,-13.48877,,,,,,,,,,,0.0,1.0,1.0,0.0,0.0,0.0,0.0,9.0,0.0,0.1353482933333333,0.17833986666666665,0.9465299333333334,1.7097981199999996,-1.3826497600000007,-2.021484426666667,17.54159141708063,-4.409900514438155,-12.584666063563619,0.5834773489235409,2.3655358482542868,-7.093289765689488,7.500064357465088,0.9180722824317452,7.309337240036944,0.9401835850852999,-0.13876629333333332,0.028447133333333346,0.5717810666666666,0.7389944933333332,0.5890661353013159,0.5090165404710784,0.5090165404710784,0.5090165404710784
LBP00_S00,LBP00,-1609,42,0,41,-1609,1715222161.64,2024-05-09 02:36:01.640000+00:00,2024-05-09 11:36:01.640000+09:00,2024,5,9,2,36,1,640,,,,,,,,,0.220215,0.053955,0.997314,37.109375,72.143555,-12.451172,,,,,,,,,,,0.0,1.0,1.0,0.0,0.0,0.0,0.0,9.0,0.0,0.13032225333333333,0.17146486666666666,0.9484244666666668,3.3789062,1.171874986666666,-2.377115933333333,18.852635274464728,-6.4316608176151355,-10.964280732716691,1.33758275990213,2.1082694155496813,-7.531860994998156,7.934913837976075,0.9176484750270936,7.685592788286028,0.9381770751181389,0.08989274666666666,-0.11750986666666666,0.048889533333333235,0.25629214666666655,0.1558186803205777,0.43837696844097823,0.43837696844097823,0.43837696844097823
LBP00_S00,LBP00,-1608,43,0,42,-1608,1715222161.68,2024-05-09 02:36:01.680000+00:00,2024-05-09 11:36:01.680000+09:00,2024,5,9,2,36,1,680,,,,,,,,,-0.594482,-0.180664,-0.272461,92.956543,70.495605,-16.479492,,,,,,,,,,,0.0,1.0,1.0,0.0,0.0,0.0,0.0,9.0,0.0,0.125625,0.18277346666666666,0.9355631466666667,4.298502546666667,1.8457031199999991,-2.3706055066666667,18.95460480461367,-8.94253774997725,-8.994272989824092,2.095766952086677,1.7505679055505912,-7.89163191459112,8.350723404879098,0.9640475866872511,8.056761487402479,0.9383743013908891,-0.7201069999999999,-0.36343746666666665,-1.2080241466666668,2.2915686133333333,1.4525712452598711,0.6074093479107937,0.6074093479107937,0.6074093479107937
LBP00_S00,LBP00,-1607,44,0,43,-1607,1715222161.72,2024-05-09 02:36:01.720000+00:00,2024-05-09 11:36:01.720000+09:00,2024,5,9,2,36,1,720,,,,,,,,,0.067139,0.19751,-0.044922,10.986328,-80.749512,-6.958008,,,,,,,,,,,0.0,1.0,1.0,0.0,0.0,0.0,0.0,9.0,0.0,0.11960286666666665,0.17542970666666666,0.9229947866666667,3.86637364,-0.249837253333334,-2.1875000266666667,17.896190574645125,-11.177846021896189,-6.850085855233708,2.8116145750724817,1.3034540646747437,-8.165635348800468,8.733943534684482,0.9680188090082191,8.415884026049463,0.9340629997377292,-0.05246386666666665,0.022080293333333334,-0.9679167866666667,1.0424609466666668,0.9695890379797151,0.6591493036349254,0.6591493036349254,0.6591493036349254
LBP00_S00,LBP00,-1606,45,0,44,-1606,1715222161.76,2024-05-09 02:36:01.760000+00:00,2024-05-09 11:36:01.760000+09:00,2024,5,9,2,36,1,760,,,,,,,,,0.149414,0.057373,0.136719,-7.93457,-150.085449,6.774902,,,,,,,,,,,0.0,1.0,1.0,0.0,0.0,0.0,0.0,9.0,0.0,0.13034505333333332,0.17373049333333335,0.9113802,3.97786452,-0.9944661600000007,-1.9018554933333334,16.062579406015267,-12.387899359265171,-4.712340594480009,3.4541177513130923,0.8079380903041369,-8.354128972579668,9.076076480957811,0.9234103897458196,8.758125227311591,0.9355089982555302,0.01906894666666667,-0.11635749333333334,-0.7746611999999999,0.91008764,0.7835832219791544,0.674703543427954,0.674703543427954,0.674703543427954
LBP00_S00,LBP00,-1605,46,0,45,-1605,1715222161.8,2024-05-09 02:36:01.800000+00:00,2024-05-09 11:36:01.800000+09:00,2024,5,9,2,36,1,800,,,,,,,,,0.731934,0.258057,0.656006,5.92041,-88.562012,13.000488,,,,,,,,,,,0.0,1.0,1.0,0.0,0.0,0.0,0.0,9.0,0.0,0.12993489333333333,0.17273765333333335,0.8975878933333333,4.235025973333333,0.0016275999999992526,-1.9539388266666666,14.057943312106318,-12.257347752295498,-2.724622407562227,4.016435483797345,0.31764418021231694,-8.463113868882157,9.37320373076328,0.9221249953808515,9.082207922744427,0.9372424370044801,0.6019991066666667,0.08531934666666663,-0.24158189333333335,0.9289003466666667,0.6542508131669457,0.6724310178433975,0.6724310178433975,0.6724310178433975
LBP00_S00,LBP00,-1604,47,0,46,-1604,1715222161.84,2024-05-09 02:36:01.840000+00:00,2024-05-09 11:36:01.840000+09:00,2024,5,9,2,36,1,840,,,,,,,,,0.419678,0.061279,1.137939,-1.953125,57.739258,-8.544922,,,,,,,,,,,0.0,1.0,1.0,0.0,0.0,0.0,0.0,9.0,0.0,0.12719401333333333,0.17573570666666666,0.9062955733333333,4.5540364,-2.1183268266666673,-1.03678388,12.492078672376456,-11.09286458492217,-0.9701638224237968,4.516118630692403,-0.12607040318456986,-8.50192042177911,9.627765685314055,0.9401493378456404,9.390689859406349,0.9394568998807855,0.29248398666666664,-0.11445670666666666,0.2316434266666667,0.63858412,0.39026388159203457,0.6442143042182612,0.6442143042182612,0.6442143042182612
LBP00_S00,LBP00,-1603,48,0,47,-1603,1715222161.88,2024-05-09 02:36:01.880000+00:00,2024-05-09 11:36:01.880000+09:00,2024,5,9,2,36,1,880,,,,,,,,,-0.072021,0.169922,1.343262,1.342773,51.696777,-10.437012,,,,,,,,,,,0.0,1.0,1.0,0.0,0.0,0.0,0.0,9.0,0.0,0.13208008,0.17112958666666667,0.9310481733333332,5.312499946666666,-0.8846028666666673,-0.9635416933333333,11.771210688149186,-9.646335373971086,0.5197395787164691,4.9869670582183705,-0.5119238181434134,-8.48113083863045,9.851978823429645,0.9102609582488165,9.688765557287336,0.9369460064502997,-0.20410108,-0.0012075866666666768,0.4122138266666667,0.6175224933333334,0.4599771168415888,0.6274654690022001,0.6274654690022001,0.6274654690022001
LBP00_S00,LBP00,-1602,49,0,48,-1602,1715222161.92,2024-05-09 02:36:01.920000+00:00,2024-05-09 11:36:01.920000+09:00,2024,5,9,2,36,1,920,,,,,,,,,0.017578,0.112305,1.597656,4.150391,-2.990723,-4.455566,,,,,,,,,,,0.0,1.0,1.0,0.0,0.0,0.0,0.0,9.0,0.0,0.12459634666666666,0.17297529333333334,0.9278776,6.590169226666667,2.4365234399999993,-1.26871748,11.977481577144356,-8.677026864792609,1.7344734084638354,5.466066321304145,-0.8590048927351177,-8.411751902291897,10.068432872118166,0.9426991107690363,9.981887785473585,0.929712170771517,-0.10701834666666667,-0.06067029333333333,0.6697784,0.8374670399999999,0.6809823170413307,0.6319252063387943,0.6319252063387943,0.6319252063387943
LBP00_S00,LBP00,-1601,50,0,49,-1601,1715222161.96,2024-05-09 02:36:01.960000+00:00,2024-05-09 11:36:01.960000+09:00,2024,5,9,2,36,1,960,,,,,,,,,0.084717,0.233398,0.755371,21.057129,97.351074,-5.065918,,,,,,,,,,,0.0,1.0,1.0,0.0,0.0,0.0,0.0,9.0,0.0,0.11733398666666667,0.17130536,0.9126822933333333,5.573730426666667,1.7757161466666662,-1.7008463866666668,12.87155129204553,-8.517942388456152,2.6557378069922426,5.980928372985966,-1.1997225882733638,-8.305522390012207,10.304976499856561,0.9659924249003274,10.273313196773142,0.9200811651370907,-0.03261698666666667,0.062092640000000004,-0.15731129333333327,0.2520209199999999,0.17223880739133424,0.5965647141120666,0.5965647141120666,0.5965647141120666
LBP00_S00,LBP00,-1600,51,0,50,-1600,1715222162.0,2024-05-09 02:36:02+00:00,2024-05-09 11:36:02+09:00,2024,5,9,2,36,2,0,2.0,36.0,2.0,40.540245,141.542877,19.766001,3.0,13.0,-0.438721,0.064697,-0.350586,48.461914,10.742188,15.808105,-237.0,-2.0,407.0,2605.0,0.0,1012.700012,17.51,-0.002973,4.577342,4.028906,0.0,1.0,1.0,0.0,0.0,0.0,0.0,4.0,0.0,0.12105144000000001,0.16715497333333332,0.8996289066666666,5.399576773333333,-0.5069986933333339,-1.4054362266666665,13.999415677556167,-8.898847948989808,3.2545418235881014,6.5409050000882125,-1.555676506232956,-8.175340717068684,10.584883724084325,0.9402169111947997,10.562912931178529,0.9158190723506792,-0.55977244,-0.10245797333333331,-1.2502149066666666,1.9124453199999998,1.3736375554470945,0.6520699170645686,0.6520699170645686,0.6520699170645686
LBP00_S00,LBP00,-1599,52,0,51,-1599,1715222162.04,2024-05-09 02:36:02.040000+00:00,2024-05-09 11:36:02.040000+09:00,2024,5,9,2,36,2,40,,,,,,,,,0.071533,0.081055,0.081543,2.258301,-77.575684,4.272461,,,,,,,,,,,0.0,1.0,1.0,0.0,0.0,0.0,0.0,4.0,0.0,0.13185222666666666,0.16461265333333333,0.8893652266666667,4.789225213333333,-0.18798828000000048,-1.5388997733333334,14.848440691146374,-9.123343978318143,3.514863287558334,7.134842627734067,-1.9206102653656818,-8.03474618556635,10.915670816785939,0.8925395407222363,10.847672427739763,0.9172168642918278,-0.060319226666666656,-0.08355765333333333,-0.8078222266666667,0.9516991066666667,0.8143691057701844,0.6628898629782763,0.6628898629782763,0.6628898629782763
LBP00_S00,LBP00,-1598,53,0,52,-1598,1715222162.08,2024-05-09 02:36:02.080000+00:00,2024-05-09 11:36:02.080000+09:00,2024,5,9,2,36,2,80,,,,,,,,,0.279541,0.108398,0.504639,17.822266,-160.522461,27.648926,,,,,,,,,,,0.0,1.0,1.0,0.0,0.0,0.0,0.0,4.0,0.0,0.13016277333333331,0.16219729333333333,0.8876009066666668,4.787597613333333,-0.24251302666666721,-1.6341146133333333,14.991945116485955,-8.493537634351709,3.4631360486369243,7.734520432393506,-2.2603517707397502,-7.896220743620873,11.281945686741604,0.8917092298994231,11.123102833514444,0.918443782795394,0.14937822666666667,-0.05379929333333333,-0.38296190666666685,0.5861394266666669,0.41456970526440173,0.6473698531211591,0.6473698531211591,0.6473698531211591
LBP00_S00,LBP00,-1597,54,0,53,-1597,1715222162.12,2024-05-09 02:36:02.120000+00:00,2024-05-09 11:36:02.120000+09:00,2024,5,9,2,36,2,120,,,,,,,,,0.763184,0.14502,0.940186,-11.474609,-20.446777,-4.333496,,,,,,,,,,,0.0,1.0,1.0,0.0,0.0,0.0,0.0,4.0,0.0,0.13860351999999998,0.16564454666666664,0.91880208,4.522298133333333,-1.110839853333334,-1.7382812799999998,14.18609180917407,-6.7271424435167,3.1765195073927956,8.301964104760469,-2.529437468480418,-7.769159963325161,11.648197647680028,0.8717087526639565,11.384550542965595,0.9200136739074193,0.62458048,-0.020624546666666632,0.02138392,0.6665889466666667,0.6252866702215891,0.6460708423623609,0.6460708423623609,0.6460708423623609
LBP00_S00,LBP00,-1596,55,0,54,-1596,1715222162.16,2024-05-09 02:36:02.160000+00:00,2024-05-09 11:36:02.160000+09:00,2024,5,9,2,36,2,160,,,,,,,,,0.121826,0.166504,1.341309,33.26416,64.941406,-22.216797,,,,,,,,,,,0.0,1.0,1.0,0.0,0.0,0.0,0.0,4.0,0.0,0.13826173333333333,0.16837893333333334,0.9372916666666666,5.5607095866666665,1.108398426666666,-1.9482422133333335,12.41577750601607,-4.11388158152003,2.75824862208151,8.798595205001112,-2.6939927317412193,-7.6588300184419005,11.972073825011682,0.8807894618817057,11.628045090769625,0.9139667498649034,-0.016435733333333327,-0.0018749333333333285,0.40401733333333345,0.4223280000000001,0.404355851124955,0.6326422317380607,0.6326422317380607,0.6326422317380607
LBP00_S00,LBP00,-1595,56,0,55,-1595,1715222162.2,2024-05-09 02:36:02.200000+00:00,2024-05-09 11:36:02.200000+09:00,2024,5,9,2,36,2,200,,,,,,,,,-0.031738,0.382324,1.498291,6.347656,11.413574,0.549316,,,,,,,,,,,0.0,1.0,1.0,0.0,0.0,0.0,0.0,4.0,0.0,0.11999349333333333,0.16414063999999998,0.9217708266666667,4.414062453333333,3.5677083199999995,-2.65950524,9.901471645716905,-1.3271725251447117,2.2952188996564034,9.194654070829788,-2.747079632747008,-7.567021262455644,12.220798696375619,0.9361029147923358,11.850887279477572,0.9076767460975115,-0.15173149333333333,0.21818336000000002,0.5765201733333334,0.9464350266666668,0.634824333899032,0.632757079220217,0.632757079220217,0.632757079220217
LBP00_S00,LBP00,-1594,57,0,56,-1594,1715222162.24,2024-05-09 02:36:02.240000+00:00,2024-05-09 11:36:02.240000+09:00,2024,5,9,2,36,2,240,,,,,,,,,0.253174,0.147705,1.356934,6.713867,74.035645,7.751465,,,,,,,,,,,0.0,1.0,1.0,0.0,0.0,0.0,0.0,4.0,0.0,0.11538086666666668,0.16348309333333333,0.9023893066666666,4.9837239066666665,1.7561848799999995,-2.6383463866666665,7.072035268691425,0.9713334872255367,1.8297905803605221,9.477535481577446,-2.7082262932579866,-7.493829639241223,12.382069743060875,0.9524185228813014,12.052256722663262,0.9019045335996487,0.13779313333333332,-0.015778093333333326,0.45454469333333347,0.6081159200000001,0.47523338904221296,0.6248808947113168,0.6248808947113168,0.6248808947113168
LBP00_S00,LBP00,-1593,58,0,57,-1593,1715222162.28,2024-05-09 02:36:02.280000+00:00,2024-05-09 11:36:02.280000+09:00,2024,5,9,2,36,2,280,,,,,,,,,-0.570801,-0.076904,-0.223389,27.648926,94.726562,-6.530762,,,,,,,,,,,0.0,1.0,1.0,0.0,0.0,0.0,0.0,4.0,0.0,0.12174479999999997,0.16306642666666665,0.8843977599999999,4.1528319866666665,-0.034179706666667094,-2.2753906533333335,4.496876825913827,2.4791713852413917,1.3690062408777441,9.657410554614,-2.6090594378483307,-7.4390693896061135,12.466455917941154,0.9259598693690705,12.23395026619998,0.9017538290723339,-0.6925458,-0.23997042666666665,-1.10778676,2.0403029866666667,1.3283060627745098,0.6583773312857546,0.6583773312857546,0.6583773312857546
LBP00_S00,LBP00,-1592,59,0,58,-1592,1715222162.32,2024-05-09 02:36:02.320000+00:00,2024-05-09 11:36:02.320000+09:00,2024,5,9,2,36,2,320,,,,,,,,,0.057861,0.232178,0.035889,2.441406,-62.133789,10.803223,,,,,,,,,,,0.0,1.0,1.0,0.0,0.0,0.0,0.0,4.0,0.0,0.12646485333333332,0.15445314666666665,0.8717480266666666,4.546712199999999,0.5078124799999995,-2.295735706666667,2.771013685445551,3.3484887429709,0.926873023352282,9.768251102031822,-2.4751198881294947,-7.401994468672022,12.50337835015846,0.8822298703438779,12.400978945523002,0.9061230678037419,-0.06860385333333333,0.07772485333333334,-0.8358590266666667,0.9821877333333333,0.8422635893697513,0.6667357975622998,0.6667357975622998,0.6667357975622998
LBP00_S00,LBP00,-1591,60,0,59,-1591,1715222162.36,2024-05-09 02:36:02.360000+00:00,2024-05-09 11:36:02.360000+09:00,2024,5,9,2,36,2,360,,,,,,,,,0.328369,0.110352,0.652344,-11.962891,-136.779785,28.625488,,,,,,,,,,,0.0,1.0,1.0,0.0,0.0,0.0,0.0,4.0,0.0,0.12610678666666666,0.16094077333333334,0.8779785066666667,5.197753866666667,-1.0327148666666672,-1.8245443066666667,2.3621246625182106,3.9974004604895024,0.5704414439457186,9.86273608853255,-2.315223869709915,-7.379176810914194,12.53339838693603,0.9030923872264072,12.561250968961975,0.9121675104070984,0.20226221333333336,-0.05058877333333334,-0.22563450666666662,0.47848549333333334,0.3072135373458993,0.6511043949441955,0.6511043949441955,0.6511043949441955
LBP00_S00,LBP00,-1590,61,0,60,-1590,1715222162.4,2024-05-09 02:36:02.400000+00:00,2024-05-09 11:36:02.400000+09:00,2024,5,9,2,36,2,400,,,,,,,,,0.719238,0.205322,1.101562,-12.939453,-3.173828,-2.197266,,,,,,,,,,,0.0,1.0,1.0,0.0,0.0,0.0,0.0,4.0,0.0,0.12728517333333333,0.15549806666666666,0.9026204399999999,4.1048176666666665,-0.2954101733333338,-2.0084635866666667,3.4534874820452464,4.78836067844548,0.43356630582362604,10.00087558781436,-2.1236894425720956,-7.361834158681249,12.598578155941228,0.8824947862161726,12.72364490511914,0.9124450788017798,0.5919528266666667,0.04982393333333335,0.19894156000000007,0.8407183200000001,0.6264729185102057,0.6500780834261125,0.6500780834261125,0.6500780834261125
LBP00_S00,LBP00,-1589,62,0,61,-1589,1715222162.44,2024-05-09 02:36:02.440000+00:00,2024-05-09 11:36:02.440000+09:00,2024,5,9,2,36,2,440,,,,,,,,,-0.015137,0.182129,1.445068,-5.981445,77.209473,-24.169922,,,,,,,,,,,0.0,1.0,1.0,0.0,0.0,0.0,0.0,4.0,0.0,0.12866537333333333,0.16003257333333332,0.9124381466666667,4.48893224,2.3510742,-2.2412109866666667,5.837087408175349,5.797231016579049,0.6776313498083454,10.234359084141374,-1.8918002019089335,-7.334728904688915,12.732606252153124,0.8910324954490872,12.894740788473964,0.9051163641242693,-0.14380237333333334,0.022096426666666696,0.5326298533333333,0.6985286533333334,0.5521430388129719,0.6461606816415869,0.6461606816415869,0.6461606816415869
LBP00_S00,LBP00,-1588,63,0,62,-1588,1715222162.48,2024-05-09 02:36:02.480000+00:00,2024-05-09 11:36:02.480000+09:00,2024,5,9,2,36,2,480,,,,,,,,,-0.28833,0.465088,1.666016,2.502441,-27.282715,4.516602,,,,,,,,,,,0.0,1.0,1.0,0.0,0.0,0.0,0.0,4.0,0.0,0.1115202,0.15222982666666668,0.89375,3.7166340666666664,3.5237630133333324,-2.677408906666667,8.909175049422075,6.8066246943063975,1.4102039799859647,10.590726086118257,-1.6195352141366777,-7.278320745489476,12.952232479971821,0.9354016172135037,13.07548028503544,0.8939398885963588,-0.3998502,0.3128581733333333,0.7722659999999999,1.4849743733333332,0.9242051686814513,0.6664970993410018,0.6568547003738895,0.6568547003738895
LBP00_S00,LBP00,-1587,64,0,63,-1587,1715222162.52,2024-05-09 02:36:02.520000+00:00,2024-05-09 11:36:02.520000+09:00,2024,5,9,2,36,2,520,,,,,,,,,0.239502,0.31543,1.54126,20.324707,46.630859,4.089355,,,,,,,,,,,0.0,1.0,1.0,0.0,0.0,0.0,0.0,4.0,0.0,0.10955405333333333,0.14850913333333332,0.8757910133333333,4.04947912,1.6503906133333328,-2.663574266666667,11.788990444829846,7.486721213510312,2.6013827953796205,11.062285703911451,-1.3200663655962652,-7.174265433674291,13.250917882069754,0.9321531786975228,13.259176087663892,0.8858837206935399,0.12994794666666665,0.16692086666666667,0.6654689866666668,0.9623378,0.6982821899395647,0.6744009495836671,0.6583890518392849,0.6583890518392849
LBP00_S00,LBP00,-1586,65,0,64,-1586,1715222162.56,2024-05-09 02:36:02.560000+00:00,2024-05-09 11:36:02.560000+09:00,2024,5,9,2,36,2,560,,,,,,,,,-0.656006,-0.097412,-0.249512,48.095703,122.436523,-21.66748,,,,,,,,,,,0.0,1.0,1.0,0.0,0.0,0.0,0.0,4.0,0.0,0.11870445333333333,0.14530926666666666,0.86173828,3.5107421466666664,0.3173827999999996,-2.323405,13.533917040849701,7.613596752859442,4.043038217322173,11.60364238554544,-1.0155224954818876,-7.0125439049814045,13.596013186583349,0.883565145828518,13.431688462741926,0.8834220988884669,-0.7747104533333333,-0.24272126666666666,-1.11125028,2.128682,1.3762147668864362,0.7082287655985651,0.6840256845195402,0.6840256845195402
LBP00_S00,LBP00,-1585,66,0,65,-1585,1715222162.6,2024-05-09 02:36:02.600000+00:00,2024-05-09 11:36:02.600000+09:00,2024,5,9,2,36,2,600,,,,,,,,,0.142334,0.074463,0.240479,-14.282227,-53.955078,17.272949,,,,,,,,,,,0.0,1.0,1.0,0.0,0.0,0.0,0.0,4.0,0.0,0.12355470666666667,0.14488284,0.8593196666666667,3.82649736,-0.3735351733333337,-2.0157878133333336,13.38661429217437,7.1793477660069005,5.377104905157068,12.139106957232414,-0.7283485848416116,-6.797459708775122,13.931757529923866,0.8628157680172311,13.573829758835458,0.8843544100914136,0.018779293333333322,-0.07041984000000001,-0.6188406666666667,0.7080398,0.6231174740321198,0.7095908191477973,0.6819254013992844,0.6819254013992844
LBP00_S00,LBP00,-1584,67,0,66,-1584,1715222162.64,2024-05-09 02:36:02.640000+00:00,2024-05-09 11:36:02.640000+09:00,2024,5,9,2,36,2,640,,,,,,,,,0.275146,-0.251953,0.715576,12.695312,-110.900879,8.300781,,,,,,,,,,,0.0,1.0,1.0,0.0,0.0,0.0,0.0,4.0,0.0,0.13301434666666664,0.14900718666666665,0.8861523466666668,3.5489908399999996,-0.8650716266666669,-1.770833386666667,10.981024452952434,6.342702570923952,6.189759261774488,12.57834793535051,-0.47464048200465353,-6.549869338304142,14.189464708675617,0.8406537676021965,13.665437987660232,0.8861226924104013,0.14213165333333336,-0.40096018666666666,-0.17057634666666677,0.7136681866666668,0.4583304137990211,0.7216912884869351,0.6744722351459422,0.6744722351459422
LBP00_S00,LBP00,-1583,68,0,67,-1583,1715222162.68,2024-05-09 02:36:02.680000+00:00,2024-05-09 11:36:02.680000+09:00,2024,5,9,2,36,2,680,,,,,,,,,0.672607,0.568848,1.073975,64.208984,8.728027,27.832031,,,,,,,,,,,0.0,1.0,1.0,0.0,0.0,0.0,0.0,4.0,0.0,0.13341473333333334,0.15090822666666664,0.9117740933333335,3.9469400533333334,-0.36865236000000046,-1.7187500533333335,6.452933261852956,5.289882579687762,6.140386081760977,12.836465265824629,-0.26304517881714307,-6.304253895033703,14.30341394422565,0.8453981903408819,13.690084728420567,0.8826036358551173,0.5391922666666666,0.4179397733333334,0.16220090666666642,1.1193329466666664,0.7012211410750138,0.6916372843195409,0.6753351030791381,0.6753351030791381
LBP00_S00,LBP00,-1582,69,0,68,-1582,1715222162.72,2024-05-09 02:36:02.720000+00:00,2024-05-09 11:36:02.720000+09:00,2024,5,9,2,36,2,720,,,,,,,,,-0.007568,0.448975,1.443115,-42.785645,76.477051,5.67627,,,,,,,,,,,0.0,1.0,1.0,0.0,0.0,0.0,0.0,4.0,0.0,0.13457683999999998,0.15612306666666667,0.9247395866666667,4.296061146666667,2.880859346666666,-2.052408906666667,0.42955551195837316,4.136518702274286,5.07664614285735,12.853647486302963,-0.0975844307261716,-6.1011880493194095,14.228502100938828,0.8576136522931477,13.639140726188007,0.8734847460730428,-0.14214483999999997,0.29285193333333337,0.5183754133333333,0.9533721866666666,0.6121114927398447,0.6773381825099459,0.6733593652560351,0.6733593652560351
LBP00_S00,LBP00,-1581,70,0,69,-1581,1715222162.76,2024-05-09 02:36:02.760000+00:00,2024-05-09 11:36:02.760000+09:00,2024,5,9,2,36,2,760,,,,,,,,,-0.077148,0.297852,1.749756,-9.82666,-37.597656,10.986328,,,,,,,,,,,0.0,1.0,1.0,0.0,0.0,0.0,0.0,4.0,0.0,0.11748374666666665,0.15275066666666667,0.9045214933333333,4.92431636,4.18050128,-1.9547526533333333,-6.098329402480458,2.9469237875539056,3.090221460816405,12.609714310203744,0.020292520775984632,-5.977579190886753,13.954811347871344,0.9124154992558737,13.514101600256078,0.8634823559711805,-0.19463174666666666,0.14510133333333333,0.8452345066666668,1.1849675866666667,0.8794073487330386,0.6811711475801013,0.6796032435432171,0.6796032435432171
LBP00_S00,LBP00,-1580,71,0,70,-1580,1715222162.8,2024-05-09 02:36:02.800000+00:00,2024-05-09 11:36:02.800000+09:00,2024,5,9,2,36,2,800,,,,,,,,,0.237061,0.163818,1.424561,-4.821777,45.10498,-16.723633,,,,,,,,,,,0.0,1.0,1.0,0.0,0.0,0.0,0.0,4.0,0.0,0.11733074666666667,0.14867514666666665,0.8883951866666666,4.604492146666667,2.7416991999999993,-1.4550781733333333,-11.987913079380899,1.829930512811939,0.49400267239100754,12.130197787028507,0.09348974128846219,-5.9578190839911125,13.514660444188976,0.9001776094060494,13.326724836874295,0.8581240169954342,0.11973025333333333,0.015142853333333345,0.5361658133333334,0.67103892,0.5495802206755024,0.6769843238804435,0.6757790369882842,0.6757790369882842
LBP00_S00,LBP00,-1579,72,0,71,-1579,1715222162.84,2024-05-09 02:36:02.840000+00:00,2024-05-09 11:36:02.840000+09:00,2024,5,9,2,36,2,840,,,,,,,,,-0.658691,-0.025879,-0.403809,-18.188477,106.079102,-14.953613,,,,,,,,,,,0.0,1.0,1.0,0.0,0.0,0.0,0.0,4.0,0.0,0.12550782666666666,0.14505209333333333,0.8754557333333333,4.276529906666667,1.1588541466666664,-0.7698568133333334,-16.183496958226268,1.000396279070547,-2.2632023195643014,11.482857908699456,0.13350559245128407,-6.048347176773684,12.979073659756446,0.8558419298962477,13.097391197096096,0.8553751571641639,-0.7841988266666666,-0.17093109333333334,-1.2792647333333331,2.234394653333333,1.510199820011878,0.7217817614172374,0.6996196307889585,0.6996196307889585
LBP00_S00,LBP00,-1578,73,0,72,-1578,1715222162.88,2024-05-09 02:36:02.880000+00:00,2024-05-09 11:36:02.880000+09:00,2024,5,9,2,36,2,880,,,,,,,,,0.150391,0.006592,0.181885,-37.536621,-67.138672,-6.652832,,,,,,,,,,,0.0,1.0,1.0,0.0,0.0,0.0,0.0,4.0,0.0,0.12900717333333334,0.14556966666666665,0.8769954400000001,4.717610639999999,0.6502278533333329,-0.26611332000000015,-17.926662224174997,0.7202808999635248,-4.704903411971349,10.765791419732457,0.16231682844982506,-6.236543313252538,12.442792457646231,0.8442127193927599,12.852595468835329,0.860313793115729,0.02138382666666666,-0.13897766666666667,-0.6951104400000001,0.8554719333333334,0.7091900899420513,0.7317502803412559,0.6998854768765443,0.6998854768765443
LBP00_S00,LBP00,-1577,74,0,73,-1577,1715222162.92,2024-05-09 02:36:02.920000+00:00,2024-05-09 11:36:02.920000+09:00,2024,5,9,2,36,2,920,,,,,,,,,0.360107,-0.02002,0.717285,-3.112793,-132.873535,15.319824,,,,,,,,,,,0.0,1.0,1.0,0.0,0.0,0.0,0.0,4.0,0.0,0.13505209333333335,0.14864583999999997,0.9030631466666666,3.8728840799999995,0.44433591999999955,-0.1806641066666668,-16.897439117508135,1.1276179485645315,-6.420289018533732,10.089893855032132,0.20742154639240631,-6.493354873993887,12.000526622750485,0.8321292776788995,12.622182152180297,0.8633485164432351,0.22505490666666667,-0.16866583999999998,-0.1857781466666667,0.5794988933333334,0.3370628967663886,0.7179935035302581,0.6900794611978914,0.6900794611978914
LBP00_S00,LBP00,-1576,75,0,74,-1576,1715222162.96,2024-05-09 02:36:02.960000+00:00,2024-05-09 11:36:02.960000+09:00,2024,5,9,2,36,2,960,,,,,,,,,0.662842,0.322998,1.053711,-14.343262,8.666992,-7.873535,,,,,,,,,,,0.0,1.0,1.0,0.0,0.0,0.0,0.0,4.0,0.0,0.13587241333333333,0.14887370666666666,0.92877604,3.48388668,1.214192693333333,-0.007324266666666788,-13.265436649516781,2.0677244448430363,-7.1268536811544525,9.559276389051462,0.2901305241861278,-6.778429021240065,11.72224555276551,0.8299817560710543,12.43628127165581,0.8614182865045809,0.5269695866666667,0.17412429333333335,0.12493496000000004,0.8260288400000001,0.5688804435298087,0.7338591689757972,0.6868900133645209,0.6868900133645209
LBP00_S00,LBP00,-1575,76,0,75,-1575,1715222163.0,2024-05-09 02:36:03+00:00,2024-05-09 11:36:03+09:00,2024,5,9,2,36,3,0,2.0,36.0,3.0,40.540287,141.54274,20.006001,3.0,12.0,0.294189,0.229004,1.29834,-37.04834,61.523438,-20.935059,-231.0,-1.0,402.0,2804.0,0.0,1012.900024,17.549999,-0.000991,2.912482,4.028906,0.0,1.0,1.0,0.0,0.0,0.0,0.0,4.0,0.0,0.13419924,0.14865561333333333,0.9358105466666667,4.036458293333333,4.745279933333333,-0.2718099466666668,-7.646545060464993,3.0747061650199514,-6.707691435192685,9.253414586632863,0.4131187707869258,-7.046736678647772,11.638421132141858,0.8353271697045286,12.321639062226355,0.8535734094196329,0.15998975999999998,0.08034838666666669,0.3625294533333333,0.6028676,0.4043268369511963,0.6950867402359612,0.6796448037128971,0.6796448037128971
LBP00_S00,LBP00,-1574,77,0,76,-1574,1715222163.04,2024-05-09 02:36:03.040000+00:00,2024-05-09 11:36:03.040000+09:00,2024,5,9,2,36,3,40,,,,,,,,,-0.112061,0.373779,1.663818,31.799316,-4.272461,5.126953,,,,,,,,,,,0.0,1.0,1.0,0.0,0.0,0.0,0.0,4.0,0.0,0.12203777333333335,0.15138022666666667,0.9200358133333333,5.096028613333334,4.487304666666666,0.18880203999999987,-0.9762739857239164,3.5613072780405357,-5.232107387445325,9.214363627203905,0.5555710619085472,-7.256020974145585,11.741507426067963,0.8900401271178472,12.297419043147693,0.8465616012823798,-0.23409877333333334,0.2223987733333333,0.7437821866666667,1.2002797333333333,0.8108485624695841,0.6949459185039372,0.6829248976818143,0.6829248976818143
LBP00_S00,LBP00,-1573,78,0,77,-1573,1715222163.08,2024-05-09 02:36:03.080000+00:00,2024-05-09 11:36:03.080000+09:00,2024,5,9,2,36,3,80,,,,,,,,,0.20874,0.027832,1.659424,-12.634277,27.038574,-2.197266,,,,,,,,,,,0.0,1.0,1.0,0.0,0.0,0.0,0.0,4.0,0.0,0.12240561333333334,0.14738608,0.9044043066666667,3.9640299199999998,2.657063773333333,0.6730142799999999,5.674563916180356,3.1247165807374446,-2.9574153294138092,9.44134618385112,0.680559725138045,-7.374317587322137,11.999280777675331,0.8757454236159417,12.371306225946478,0.8443201068172284,0.08633438666666667,-0.11955408000000001,0.7550196933333333,0.96090816,0.769286384701378,0.7091345856814162,0.6850312754139988,0.6850312754139988
LBP00_S00,LBP00,-1572,79,0,78,-1572,1715222163.12,2024-05-09 02:36:03.120000+00:00,2024-05-09 11:36:03.120000+09:00,2024,5,9,2,36,3,120,,,,,,,,,-0.294678,-0.208008,0.31543,36.315918,143.981934,-32.104492,,,,,,,,,,,0.0,1.0,1.0,0.0,0.0,0.0,0.0,4.0,0.0,0.13130209333333334,0.14636069333333335,0.8949153733333335,4.422200493333334,1.123860639999999,1.6414387599999998,11.302672003811916,1.7877205687834157,-0.30111059923507855,9.893453064003596,0.7520685478893816,-7.38636201129154,12.369493295693943,0.8383113529066063,12.537394822744018,0.8438246978420592,-0.4259800933333333,-0.3543686933333333,-0.5794853733333335,1.3598341600000001,0.80177272879434,0.7161940280243262,0.6878108338278165,0.6878108338278165
LBP00_S00,LBP00,-1571,80,0,79,-1571,1715222163.16,2024-05-09 02:36:03.160000+00:00,2024-05-09 11:36:03.160000+09:00,2024,5,9,2,36,3,160,,,,,,,,,0.186768,0.310791,0.171143,25.939941,-66.101074,12.756348,,,,,,,,,,,0.0,1.0,1.0,0.0,0.0,0.0,0.0,4.0,0.0,0.13383138666666666,0.14785809333333333,0.8997135599999999,3.689778613333333,0.8618163599999992,2.002766893333333,15.147683229617472,0.024312173269385826,2.2255079220503013,10.499360393188296,0.753041034820157,-7.297341694409528,12.808389253576806,0.8339667284063946,12.777251831829174,0.8488487520117245,0.05293661333333333,0.16293290666666665,-0.7285705599999999,0.9444400799999999,0.7484413657760807,0.7299574486103713,0.6892208461987064,0.6892208461987064
LBP00_S00,LBP00,-1570,81,0,80,-1570,1715222163.2,2024-05-09 02:36:03.200000+00:00,2024-05-09 11:36:03.200000+09:00,2024,5,9,2,36,3,200,,,,,,,,,0.243164,0.127441,0.493408,-3.417969,-115.905762,27.160645,,,,,,,,,,,0.0,1.0,1.0,0.0,0.0,0.0,0.0,4.0,0.0,0.13955729333333333,0.15295574666666667,0.9255566533333333,3.3081054400000003,0.43945307999999916,2.141927053333333,16.802749430696256,-1.4593726406532777,4.118705081462226,11.171470370416145,0.6946661291940259,-7.13259349115104,13.27246025340236,0.8300595280335182,13.064398132453514,0.8550995264853436,0.10360670666666666,-0.02551474666666667,-0.43214865333333324,0.5612701066666665,0.4451267353704901,0.7223695446692295,0.6836732527707924,0.6836732527707924
LBP00_S00,LBP00,-1569,82,0,81,-1569,1715222163.24,2024-05-09 02:36:03.240000+00:00,2024-05-09 11:36:03.240000+09:00,2024,5,9,2,36,3,240,,,,,,,,,0.6875,0.063721,1.064453,4.882812,-36.621094,12.084961,,,,,,,,,,,0.0,1.0,1.0,0.0,0.0,0.0,0.0,4.0,0.0,0.14207682666666668,0.15679689333333333,0.95014976,2.64973956,1.4339192266666658,2.1777343466666665,16.24678977946986,-2.067728794249858,4.99538639122305,11.821341961594939,0.6119569774240317,-6.932778035502118,13.717945487744286,0.8334269852447332,13.370773042642815,0.8567536638185412,0.5454231733333333,-0.09307589333333333,0.11430324000000014,0.7528023066666668,0.5649909650634238,0.7259598477100779,0.6810358685995175,0.6810358685995175
LBP00_S00,LBP00,-1568,83,0,82,-1568,1715222163.28,2024-05-09 02:36:03.280000+00:00,2024-05-09 11:36:03.280000+09:00,2024,5,9,2,36,3,280,,,,,,,,,0.320068,0.21875,1.469727,20.690918,43.579102,-13.61084,,,,,,,,,,,0.0,1.0,1.0,0.0,0.0,0.0,0.0,4.0,0.0,0.14091797333333334,0.15738607999999998,0.9615429866666667,2.6643879866666667,5.026855426666666,1.8164062266666663,13.810591434704547,-1.5776341741582256,4.6807256316183965,12.373765618983121,0.5488516104577026,-6.745549010237382,14.103678425621638,0.8392586296410689,13.672768841928058,0.852715813982502,0.17915002666666668,0.061363920000000016,0.5081840133333333,0.74869796,0.5423202505346885,0.6945204152204851,0.6780203116850647,0.6780203116850647
LBP00_S00,LBP00,-1567,84,0,83,-1567,1715222163.32,2024-05-09 02:36:03.320000+00:00,2024-05-09 11:36:03.320000+09:00,2024,5,9,2,36,3,320,,,,,,,,,-0.135986,0.409668,1.699951,40.466309,-15.380859,13.183594,,,,,,,,,,,0.0,1.0,1.0,0.0,0.0,0.0,0.0,4.0,0.0,0.13112304,0.16011068,0.9510905066666667,3.117675746666667,5.605468706666666,2.08740232,10.098610879344006,-0.17259452918652504,3.2407119480902162,12.777710054156882,0.5419478292902415,-6.6159205323137735,14.399096713602047,0.8823698193755525,13.95489413609937,0.8515522512460825,-0.26710904,0.24955731999999997,0.7488604933333333,1.2655268533333333,0.833317546731585,0.6941625735149586,0.6813245081754162,0.6813245081754162
LBP00_S00,LBP00,-1566,85,0,84,-1566,1715222163.36,2024-05-09 02:36:03.360000+00:00,2024-05-09 11:36:03.360000+09:00,2024,5,9,2,36,3,360,,,,,,,,,0.46167,0.25415,1.888672,-16.967773,18.859863,11.352539,,,,,,,,,,,0.0,1.0,1.0,0.0,0.0,0.0,0.0,4.0,0.0,0.12711588000000001,0.15852214666666667,0.9404394666666667,1.8505859066666668,3.725585893333332,2.33642576,5.879862022786729,1.7407768836873172,0.9546029999785278,13.012904535068351,0.6115789046377342,-6.577736412314632,14.593708559008917,0.892489500807244,14.210507849021417,0.8517209935625875,0.33455412,0.09562785333333332,0.9482325333333332,1.3784145066666667,1.0100574651047667,0.7222763306253133,0.6881731114447777,0.6881731114447777
LBP00_S00,LBP00,-1565,86,0,85,-1565,1715222163.4,2024-05-09 02:36:03.400000+00:00,2024-05-09 11:36:03.400000+09:00,2024,5,9,2,36,3,400,,,,,,,,,-0.285645,-0.276611,0.553955,-7.568359,165.588379,-30.822754,,,,,,,,,,,0.0,1.0,1.0,0.0,0.0,0.0,0.0,4.0,0.0,0.13774413333333332,0.15791342666666666,0.93673504,2.521972626666667,2.2249348533333326,3.0525716,1.9537115072650155,3.7893995110601395,-1.7562732143632935,13.091052995358952,0.7631548850801398,-6.647987340889164,14.702170234034867,0.8518685430365069,14.440298610253928,0.8529282447313872,-0.4233891333333333,-0.4345244266666667,-0.38278004,1.2406936,0.717349562359348,0.7259113963792789,0.6887685492185444,0.6887685492185444
LBP00_S00,LBP00,-1564,87,0,86,-1564,1715222163.44,2024-05-09 02:36:03.440000+00:00,2024-05-09 11:36:03.440000+09:00,2024,5,9,2,36,3,440,,,,,,,,,0.146973,0.349609,0.201416,31.25,-54.992676,0.549316,,,,,,,,,,,0.0,1.0,1.0,0.0,0.0,0.0,0.0,4.0,0.0,0.14145506666666666,0.16145834666666667,0.9341080933333334,2.62369788,2.995605426666666,3.107910133333333,-0.9959048313493304,5.790532853030484,-4.418716738296208,13.051216802104978,0.9947761992013592,-6.824736010421012,14.761465418920377,0.8496616287574528,14.64974090922981,0.8552550890000499,0.005517933333333336,0.18815065333333333,-0.7326920933333334,0.92636068,0.7564845137682684,0.7340850553774908,0.6901228685095389,0.6901228685095389
LBP00_S00,LBP00,-1563,88,0,87,-1563,1715222163.48,2024-05-09 02:36:03.480000+00:00,2024-05-09 11:36:03.480000+09:00,2024,5,9,2,36,3,480,,,,,,,,,0.256104,0.022705,0.604004,-43.212891,-100.952148,7.507324,,,,,,,,,,,0.0,1.0,1.0,0.0,0.0,0.0,0.0,4.0,0.0,0.13867186666666667,0.16306968,0.9485384266666665,2.5667317333333335,1.790364546666666,3.0607096133333336,-2.5308623998709026,7.719074403441478,-6.594331395035662,12.949982306110142,1.3035391753390182,-7.088509266222439,14.82053371938847,0.8641097962517471,14.846604275149096,0.8600290370300762,0.11743213333333333,-0.14036468,-0.34453442666666656,0.6023312399999998,0.39012372459163364,0.7127217976138981,0.6896094484774499,0.6842405323542857
LBP00_S00,LBP00,-1562,89,0,88,-1562,1715222163.52,2024-05-09 02:36:03.520000+00:00,2024-05-09 11:36:03.520000+09:00,2024,5,9,2,36,3,520,,,,,,,,,0.713379,0.22583,1.182617,1.281738,-26.062012,2.13623,,,,,,,,,,,0.0,1.0,1.0,0.0,0.0,0.0,0.0,4.0,0.0,0.14879557333333332,0.16647137333333334,0.9794173333333334,1.6560872000000002,1.7382812133333327,2.62858072,-2.5424842229477163,9.540613258460962,-7.949853037009094,12.848282937192234,1.6851637056774567,-7.406503387702803,14.925630424914413,0.8399987760716573,15.038968412729497,0.8595302292485236,0.5645834266666667,0.059358626666666664,0.20319966666666667,0.8271417200000001,0.6029659996715176,0.708909150003176,0.6916550497934216,0.6826775605719249
LBP00_S00,LBP00,-1561,90,0,89,-1561,1715222163.56,2024-05-09 02:36:03.560000+00:00,2024-05-09 11:36:03.560000+09:00,2024,5,9,2,36,3,560,,,,,,,,,0.192871,0.050537,1.587158,-4.455566,61.889648,-31.799316,,,,,,,,,,,0.0,1.0,1.0,0.0,0.0,0.0,0.0,4.0,0.0,0.1455273466666667,0.16483725333333335,0.9848991066666667,1.5445963066666666,4.402669239999999,2.2428385333333334,-1.2638532385779127,11.069475456431917,-8.30931593236221,12.797728807649118,2.1279427239347335,-7.738876024997292,15.106296865901875,0.8460392400943911,15.233606674872794,0.8522534116448568,0.04734365333333329,-0.11430025333333335,0.6022588933333334,0.7639028,0.6148347290305766,0.6784539484889417,0.6933413570437534,0.6813975071466164
LBP00_S00,LBP00,-1560,91,0,90,-1560,1715222163.6,2024-05-09 02:36:03.600000+00:00,2024-05-09 11:36:03.600000+09:00,2024,5,9,2,36,3,600,,,,,,,,,-0.081055,0.476562,1.80249,10.986328,-21.057129,0.0,,,,,,,,,,,0.0,1.0,1.0,0.0,0.0,0.0,0.0,4.0,0.0,0.14358073333333335,0.16510093333333334,0.9791504,1.5795897866666666,5.68440752,1.9352213466666663,0.797680073158312,11.9826624516252,-7.6869171340014955,12.82963601057545,2.6072492219997416,-8.046352710357352,15.366883243161174,0.8533279707201433,15.43444262213049,0.8448394923526286,-0.22463573333333337,0.3114610666666666,0.8233396,1.3594363999999999,0.9084917752338224,0.6898689205370099,0.6997298698424036,0.6856029565556389
LBP00_S00,LBP00,-1559,92,0,91,-1559,1715222163.64,2024-05-09 02:36:03.640000+00:00,2024-05-09 11:36:03.640000+09:00,2024,5,9,2,36,3,640,,,,,,,,,0.155762,0.18335,1.607178,-8.850098,76.660156,-16.601562,,,,,,,,,,,0.0,1.0,1.0,0.0,0.0,0.0,0.0,4.0,0.0,0.13543294666666666,0.16497397333333333,0.97129232,1.6813150400000003,4.302571573333333,2.149251293333333,2.9923536639083235,11.98593368167357,-6.289940730105965,12.949330157131783,3.0866865692666843,-8.297950339561591,15.686579146937177,0.8811664655449973,15.64105515367672,0.8393917891270932,0.020329053333333347,0.018376026666666684,0.63588568,0.6745907600000001,0.6364758807641857,0.6969947392156165,0.7093430138512757,0.6847097369957941
LBP00_S00,LBP00,-1558,93,0,92,-1558,1715222163.68,2024-05-09 02:36:03.680000+00:00,2024-05-09 11:36:03.680000+09:00,2024,5,9,2,36,3,680,,,,,,,,,-0.598145,-0.249268,-0.05835,31.12793,118.286133,-15.563965,,,,,,,,,,,0.0,1.0,1.0,0.0,0.0,0.0,0.0,4.0,0.0,0.14568034666666665,0.16105796,0.9693131466666667,-0.0032552666666665194,2.389322879999999,2.39501952,4.686704724050757,11.006976729337726,-4.476969385874538,13.136798346093814,3.5269656384401933,-8.477029114996572,16.027319801425644,0.8342705518255438,15.847629109813946,0.8340939042370176,-0.7438253466666667,-0.41032596,-1.0276631466666666,2.1818144533333332,1.3333173226244919,0.7222785864775956,0.7069579353985682,0.6962920153105924
LBP00_S00,LBP00,-1557,94,0,93,-1557,1715222163.72,2024-05-09 02:36:03.720000+00:00,2024-05-09 11:36:03.720000+09:00,2024,5,9,2,36,3,720,,,,,,,,,0.117188,0.390625,0.082275,20.812988,-48.339844,0.244141,,,,,,,,,,,0.0,1.0,1.0,0.0,0.0,0.0,0.0,4.0,0.0,0.14935873333333333,0.15695965333333334,0.9680566400000001,0.2514647866666667,3.184407519999999,2.0418294266666663,5.403429467405875,9.270921911964894,-2.6682828720510767,13.352935524790048,3.897802514918789,-8.583760429878616,16.34547933503503,0.8096016433388846,16.042995301179445,0.8298848113648225,-0.032170733333333326,0.23366534666666666,-0.8857816400000001,1.1516177200000002,0.9166480044581714,0.7344600469463287,0.7058991147281373,0.7001579098570411
LBP00_S00,LBP00,-1556,95,0,94,-1556,1715222163.76,2024-05-09 02:36:03.760000+00:00,2024-05-09 11:36:03.760000+09:00,2024,5,9,2,36,3,760,,,,,,,,,0.382568,0.251221,0.663818,-27.526855,-118.713379,35.949707,,,,,,,,,,,0.0,1.0,1.0,0.0,0.0,0.0,0.0,4.0,0.0,0.1468392,0.15710288,0.9722428266666666,0.8919270266666666,2.779947879999999,1.7919921866666664,4.906438633372312,7.201187522043818,-1.228094410133327,13.549193070124941,4.185850015800542,-8.632884206283949,16.602068031585883,0.8183503078849614,16.212249617445675,0.8307814145938472,0.23572880000000002,0.09411812000000003,-0.3084248266666666,0.6382717466666666,0.399439809440844,0.7152613453746409,0.6982162464773711,0.6949731150222791
LBP00_S00,LBP00,-1555,96,0,95,-1555,1715222163.8,2024-05-09 02:36:03.800000+00:00,2024-05-09 11:36:03.800000+09:00,2024,5,9,2,36,3,800,,,,,,,,,0.600586,0.016602,1.318604,-2.441406,10.192871,-5.065918,,,,,,,,,,,0.0,1.0,1.0,0.0,0.0,0.0,0.0,4.0,0.0,0.15724936,0.16116537333333333,0.9990429599999999,1.0148111333333334,1.7740885066666654,1.866048186666667,3.219504667834387,5.222715738535361,-0.3590683838899052,13.677973256838317,4.394758645341956,-8.647246941639546,16.768295549497168,0.7973915107811542,16.339879702104543,0.8261546865346965,0.44333663999999995,-0.14456337333333333,0.3195610400000002,0.9074610533333335,0.5653009849291649,0.7158901759447874,0.6964372499126154,0.6927752823088364
LBP00_S00,LBP00,-1554,97,0,96,-1554,1715222163.84,2024-05-09 02:36:03.840000+00:00,2024-05-09 11:36:03.840000+09:00,2024,5,9,2,36,3,840,,,,,,,,,0.037842,0.302002,1.575684,31.12793,47.180176,-5.310059,,,,,,,,,,,0.0,1.0,1.0,0.0,0.0,0.0,0.0,4.0,0.0,0.15680014666666667,0.16046876,1.01062824,1.7000324933333333,4.535318973333333,1.5983072933333333,0.5931750310653366,3.6184831197164082,-0.052490098703881855,13.701700258080932,4.539497970130612,-8.6493465455877,16.827204980292624,0.7966827798566946,16.413617546716978,0.8167985617114969,-0.11895814666666667,0.14153324,0.5650557600000001,0.8255471466666668,0.5945340281198743,0.6792635442691072,0.7005226528431722,0.6911379280723537
LBP00_S00,LBP00,-1553,98,0,97,-1553,1715222163.88,2024-05-09 02:36:03.880000+00:00,2024-05-09 11:36:03.880000+09:00,2024,5,9,2,36,3,880,,,,,,,,,0.070557,0.137451,1.906006,-38.696289,-18.798828,-1.77002,,,,,,,,,,,0.0,1.0,1.0,0.0,0.0,0.0,0.0,4.0,0.0,0.15004558666666667,0.1617448,1.0019824,3.8102213066666666,5.839029906666665,1.74886068,-2.555184725262169,2.533269153146272,-0.11406208277283278,13.599492869070446,4.640828736256463,-8.653909028898614,16.77419563304347,0.8220188675297965,16.427781732652427,0.8046885229591304,-0.07948858666666668,-0.024293800000000004,0.9040236000000001,1.0078059866666669,0.9078366006532588,0.6872094046975554,0.7094798425194057,0.6946903653277784
LBP00_S00,LBP00,-1552,99,0,98,-1552,1715222163.92,2024-05-09 02:36:03.920000+00:00,2024-05-09 11:36:03.920000+09:00,2024,5,9,2,36,3,920,,,,,,,,,0.224609,0.169922,1.267822,7.995605,96.923828,-15.686035,,,,,,,,,,,0.0,1.0,1.0,0.0,0.0,0.0,0.0,4.0,0.0,0.14139650666666667,0.16109701333333334,0.9915331866666666,3.4000650533333334,4.672851519999999,1.8570963600000001,-5.7125913079427795,2.084003480216095,-0.2486446032602858,13.370989216752735,4.7241888754651065,-8.663854813029026,16.618173587576717,0.8489648083619049,16.384967120075792,0.7953872612128465,0.08321249333333333,0.008824986666666645,0.27628881333333344,0.36832629333333344,0.28868271131046014,0.6852741972793184,0.7016338504047881,0.6881418547791119
LBP00_S00,LBP00,-1551,100,0,99,-1551,1715222163.96,2024-05-09 02:36:03.960000+00:00,2024-05-09 11:36:03.960000+09:00,2024,5,9,2,36,3,960,,,,,,,,,-0.453857,-0.143311,-0.213623,30.761719,49.072266,5.981445,,,,,,,,,,,0.0,1.0,1.0,0.0,0.0,0.0,0.0,4.0,0.0,0.15223309333333335,0.15678386666666666,0.9875064933333334,2.465006453333334,2.5821939599999992,2.45279948,-8.351135248391163,2.446373359559375,-0.1631414077653973,13.036943806817089,4.822043809847481,-8.670380469339642,16.38259771249057,0.7997719595028843,16.29554707365548,0.7900384168543039,-0.6060900933333333,-0.3000948666666666,-1.2011294933333334,2.1073144533333332,1.3784462956501726,0.7176568313641328,0.7257580001699651,0.6990990681262718
LBP00_S00,LBP00,-1550,101,0,100,-1550,1715222164.0,2024-05-09 02:36:04+00:00,2024-05-09 11:36:04+09:00,2024,5,9,2,36,4,0,2.0,36.0,4.0,40.540325,141.542603,19.763,3.0,12.0,0.024658,0.138184,0.211914,-23.31543,-63.354492,-15.991211,-234.0,-5.0,407.0,2932.0,0.0,1012.299988,17.629999,-0.006937,7.907859,4.028906,0.0,1.0,1.0,0.0,0.0,0.0,0.0,6.0,0.0,0.16154949333333332,0.15327149333333334,0.9827604000000001,3.3015950000000003,3.708496039999999,2.45361328,-10.021670753141677,3.8103246255749625,0.3519350522369077,12.636076976691422,4.97445679487048,-8.656303067250166,16.104261689285504,0.7597667224881466,16.175263389081902,0.7866990645281241,-0.13689149333333334,-0.01508749333333334,-0.7708464000000002,0.9228253866666668,0.783052415739249,0.732805854515655,0.7139462973758082,0.7004108391827245
LBP00_S00,LBP00,-1549,102,0,101,-1549,1715222164.04,2024-05-09 02:36:04.040000+00:00,2024-05-09 11:36:04.040000+09:00,2024,5,9,2,36,4,40,,,,,,,,,0.585938,0.152588,0.82959,-50.109863,-117.248535,29.663086,,,,,,,,,,,0.0,1.0,1.0,0.0,0.0,0.0,0.0,6.0,0.0,0.15751304,0.14954428,0.98549152,3.301595,3.4155272933333323,2.303059906666667,-10.454674534347685,6.209964068409111,1.3821040625272825,12.217889995317515,5.222855357606844,-8.601018904749074,15.828221006291683,0.7600660780213327,16.04184397357566,0.7852870278428686,0.42842495999999997,0.0030437199999999998,-0.1559015199999999,0.5873701999999998,0.45591939476266014,0.7186086878073781,0.7067773031556577,0.6966494323454927
LBP00_S00,LBP00,-1548,103,0,102,-1548,1715222164.08,2024-05-09 02:36:04.080000+00:00,2024-05-09 11:36:04.080000+09:00,2024,5,9,2,36,4,80,,,,,,,,,0.551025,0.083008,1.402588,-16.418457,37.963867,-0.854492,,,,,,,,,,,0.0,1.0,1.0,0.0,0.0,0.0,0.0,6.0,0.0,0.16934572,0.15466797333333332,1.0114192533333335,3.2438150533333334,2.126464799999999,2.7213541733333333,-9.639647379044826,9.35328925937831,2.8867556597246,11.832304100155723,5.596986927981976,-8.48554867836009,15.599173675659287,0.741257934362705,15.91182877749707,0.778514299614318,0.38167927999999995,-0.07165997333333332,0.39116874666666646,0.8445079999999997,0.5512052366661833,0.7098854418859704,0.7095100137836932,0.6944457324109576
LBP00_S00,LBP00,-1547,104,0,103,-1547,1715222164.12,2024-05-09 02:36:04.120000+00:00,2024-05-09 11:36:04.120000+09:00,2024,5,9,2,36,4,120,,,,,,,,,0.04126,0.118408,1.69458,0.915527,62.927246,-1.098633,,,,,,,,,,,0.0,1.0,1.0,0.0,0.0,0.0,0.0,6.0,0.0,0.16382814666666665,0.1542806,1.01396808,3.7166340666666664,4.821777293333332,2.2273763066666667,-7.838718877504569,12.603465757365829,4.719213043755801,11.51875534505554,6.101125558276609,-8.296780156609858,15.451278870831912,0.7561131997534587,15.798436404056792,0.7664889121181536,-0.12256814666666666,-0.03587259999999999,0.68061192,0.8390526666666667,0.6924899852374385,0.7055141321436942,0.7108540800840103,0.6944165421546366
LBP00_S00,LBP00,-1546,105,0,104,-1546,1715222164.16,2024-05-09 02:36:04.160000+00:00,2024-05-09 11:36:04.160000+09:00,2024,5,9,2,36,4,160,,,,,,,,,0.134521,0.203125,2.067871,-9.58252,-21.484375,1.586914,,,,,,,,,,,0.0,1.0,1.0,0.0,0.0,0.0,0.0,6.0,0.0,0.16186526666666665,0.16171874666666666,1.0056314933333335,4.0812174,5.344238226666665,2.3852539200000002,-5.508238945356497,15.163104587690379,6.656380454099769,11.29842578724128,6.707649741784223,-8.030524938445867,15.39923118585008,0.7849567846231633,15.710556131305657,0.7523826938380821,-0.027344266666666645,0.04140625333333334,1.0622395066666663,1.1309900266666664,1.0633978353645848,0.7181123909272344,0.7240349197688029,0.6998427376430181
LBP00_S00,LBP00,-1545,106,0,105,-1545,1715222164.2,2024-05-09 02:36:04.200000+00:00,2024-05-09 11:36:04.200000+09:00,2024,5,9,2,36,4,200,,,,,,,,,0.377197,0.293457,1.621582,12.634277,93.139648,-3.540039,,,,,,,,,,,0.0,1.0,1.0,0.0,0.0,0.0,0.0,6.0,0.0,0.15500654666666666,0.15433267999999997,0.9951204266666666,2.89388016,3.5465494266666657,2.2037760533333337,-3.149413424903245,16.370099847564624,8.438302854410974,11.172449250245151,7.362453735686809,-7.692992824269427,15.434101394434759,0.7832711439286001,15.652393127573712,0.7412692139728051,0.22219045333333334,0.13912432000000005,0.6264615733333335,0.9877763466666669,0.6791010799808893,0.7274713647116503,0.72492045469044,0.6995421339087844
LBP00_S00,LBP00,-1544,107,0,106,-1544,1715222164.24,2024-05-09 02:36:04.240000+00:00,2024-05-09 11:36:04.240000+09:00,2024,5,9,2,36,4,240,,,,,,,,,-0.646484,0.05957,-0.362793,48.461914,94.909668,12.451172,,,,,,,,,,,0.0,1.0,1.0,0.0,0.0,0.0,0.0,6.0,0.0,0.16559898666666667,0.14746744,0.9880468666666666,2.7075194933333333,0.9749348399999987,2.45198568,-1.1503812100356672,15.941085984655208,9.824329061888143,11.126434001843725,8.000097175073018,-7.300019661793901,15.527053019506727,0.7289554975711869,15.623372353404445,0.7343750828856497,-0.8120829866666666,-0.08789744000000001,-1.3508398666666666,2.250820293333333,1.5785984551392493,0.7680156643146835,0.7469877560123807,0.7121000813549339
LBP00_S00,LBP00,-1543,108,0,107,-1543,1715222164.28,2024-05-09 02:36:04.280000+00:00,2024-05-09 11:36:04.280000+09:00,2024,5,9,2,36,4,280,,,,,,,,,0.0625,0.103027,0.193359,-25.878906,-43.334961,20.446777,,,,,,,,,,,0.0,1.0,1.0,0.0,0.0,0.0,0.0,6.0,0.0,0.17184246666666667,0.1446288933333333,0.9815852799999999,2.8247069866666665,2.045898373333332,2.16959636,0.3110719990339813,14.033496803896623,10.662409033769531,11.138876881805084,8.561437047228882,-6.87352330044312,15.640271898640682,0.7017649925681534,15.618399409966818,0.7300856641777633,-0.10934246666666667,-0.04160189333333332,-0.78822628,0.93917064,0.7968608165974203,0.7781972869571926,0.736358851088839,0.7132938945273634
LBP00_S00,LBP00,-1542,109,0,108,-1542,1715222164.32,2024-05-09 02:36:04.320000+00:00,2024-05-09 11:36:04.320000+09:00,2024,5,9,2,36,4,320,,,,,,,,,0.581543,-0.056885,0.810547,-35.949707,-123.352051,40.649414,,,,,,,,,,,0.0,1.0,1.0,0.0,0.0,0.0,0.0,6.0,0.0,0.17041668,0.14527668000000002,0.98448892,3.4057616666666664,1.9156900399999988,2.3120117333333328,1.2672841772621202,11.108943167424385,10.947945375685661,11.189568248895569,9.005794773925857,-6.435605485415693,15.739370860065364,0.7079026255611891,15.6288772403044,0.7280057965195343,0.41112632000000005,-0.20216168,-0.17394191999999997,0.78722992,0.4900510048866865,0.7644666252833967,0.7293145993991775,0.7101932988379094
LBP00_S00,LBP00,-1541,110,0,109,-1541,1715222164.36,2024-05-09 02:36:04.360000+00:00,2024-05-09 11:36:04.360000+09:00,2024,5,9,2,36,4,360,,,,,,,,,0.500244,0.329834,1.253906,32.836914,38.085938,15.136719,,,,,,,,,,,0.0,1.0,1.0,0.0,0.0,0.0,0.0,6.0,0.0,0.18125651999999998,0.14841796,1.0128059866666665,3.9599608933333337,0.9000650399999988,2.5040690266666665,1.8790926191184092,7.705409358877112,10.836834494120547,11.264731953660306,9.31401114828094,-6.002132105650872,15.800967675171105,0.6886371608501153,15.644667121923897,0.7218811293469196,0.31898748000000005,0.18141604000000003,0.24110001333333342,0.7415035333333335,0.43908314519617536,0.7416276524870531,0.7319519915561831,0.7064794611167898
LBP00_S00,LBP00,-1540,111,0,110,-1540,1715222164.4,2024-05-09 02:36:04.400000+00:00,2024-05-09 11:36:04.400000+09:00,2024,5,9,2,36,4,400,,,,,,,,,-0.1521,0.04126,1.717773,-13.671875,44.677734,-18.676758,,,,,,,,,,,0.0,1.0,1.0,0.0,0.0,0.0,0.0,6.0,0.0,0.18035157333333332,0.14837238666666666,1.02252604,4.11214188,3.3675129599999982,2.3177083466666666,2.3272555607810537,4.273701642416585,10.590658935954785,11.357822176091547,9.484959213977604,-5.57850574821268,15.814053947592866,0.6908254116165925,15.656633542275392,0.7094119750423264,-0.3324515733333333,-0.10711238666666667,0.69524696,1.13481092,0.778052342312829,0.7440557636851923,0.7349835800322356,0.7074466622140335
LBP00_S00,LBP00,-1539,112,0,111,-1539,1715222164.44,2024-05-09 02:36:04.440000+00:00,2024-05-09 11:36:04.440000+09:00,2024,5,9,2,36,4,440,,,,,,,,,0.17627,0.204346,2.030029,-26.550293,-17.150879,2.807617,,,,,,,,,,,0.0,1.0,1.0,0.0,0.0,0.0,0.0,6.0,0.0,0.17473309333333334,0.15183918666666665,1.0116210933333334,5.06591792,4.508463479999999,2.5162760533333337,2.731143134709181,1.1568794322943592,10.469618199725184,11.467067901479915,9.531234391269377,-5.159721020223673,15.778491571915394,0.7171718909424695,15.658907788574705,0.6994073874528173,0.0015369066666666709,0.052506813333333346,1.0184079066666665,1.0724516266666666,1.019761732901223,0.7545868524505106,0.7443359539140006,0.7116108631565293
LBP00_S00,LBP00,-1538,113,0,112,-1538,1715222164.48,2024-05-09 02:36:04.480000+00:00,2024-05-09 11:36:04.480000+09:00,2024,5,9,2,36,4,480,,,,,,,,,0.183838,0.094971,1.095703,28.869629,115.17334,-7.446289,,,,,,,,,,,0.0,1.0,1.0,0.0,0.0,0.0,0.0,6.0,0.0,0.16687501333333332,0.14603189333333333,1.0011556000000001,4.368489533333333,3.166503853333332,2.8312174533333336,3.1209049424851902,-1.3414461428652449,10.62545726364177,11.591904099179322,9.477576545554767,-4.734702729678002,15.703951979035104,0.720459257780415,15.64991606065982,0.6947795075790052,0.01696298666666668,-0.05106089333333333,0.09454739999999995,0.16257127999999996,0.10878496491432788,0.7433333020634183,0.7280275498386581,0.7075173996727726
LBP00_S00,LBP00,-1537,114,0,113,-1537,1715222164.52,2024-05-09 02:36:04.520000+00:00,2024-05-09 11:36:04.520000+09:00,2024,5,9,2,36,4,520,,,,,,,,,-0.289551,0.415039,-0.173584,57.617188,-19.042969,17.39502,,,,,,,,,,,0.0,1.0,1.0,0.0,0.0,0.0,0.0,6.0,0.0,0.17313804,0.14365883999999998,0.9963216133333332,4.479980426666666,1.0310871866666653,3.57177736,3.4573373535999115,-2.922716247989366,11.051478364912128,11.730197593323318,9.360667895635192,-4.2926435950815165,15.609177687026882,0.694866528027311,15.63174094328457,0.6928893474197608,-0.46268904,0.27138016,-1.1699056133333332,1.9039748133333332,1.287014950607253,0.7706952601008478,0.739802205052012,0.7180017865625636
LBP00_S00,LBP00,-1536,115,0,114,-1536,1715222164.56,2024-05-09 02:36:04.560000+00:00,2024-05-09 11:36:04.560000+09:00,2024,5,9,2,36,4,560,,,,,,,,,0.099121,-0.027832,0.268555,-71.472168,-74.462891,11.352539,,,,,,,,,,,0.0,1.0,1.0,0.0,0.0,0.0,0.0,6.0,0.0,0.18021486666666667,0.13903645333333334,0.9931477866666667,4.019368453333334,1.7716470799999986,3.4733073066666664,3.671973161399817,-3.3699590878718833,11.613102640297013,11.87707651977931,9.225869532120317,-3.828119489469636,15.518895389365063,0.6602652415772324,15.60825557951494,0.6916481899450637,-0.08109386666666667,-0.16686845333333333,-0.7245927866666667,0.9725551066666667,0.7479679153668127,0.7760205875542973,0.7272372680216194,0.720901100547268
LBP00_S00,LBP00,-1535,116,0,115,-1535,1715222164.6,2024-05-09 02:36:04.600000+00:00,2024-05-09 11:36:04.600000+09:00,2024,5,9,2,36,4,600,,,,,,,,,0.663818,0.129883,0.806641,31.494141,-100.585938,59.143066,,,,,,,,,,,0.0,1.0,1.0,0.0,0.0,0.0,0.0,6.0,0.0,0.17618817333333334,0.14266276,0.9926822933333334,4.64192704,1.9384765066666652,3.5343424666666667,3.699581677683372,-2.696967017113437,12.133398016734535,12.025059786886645,9.11799085143578,-3.3427835688002547,15.456843857427875,0.683225268033507,15.58302215200728,0.6940349778257552,0.48762982666666665,-0.012779760000000001,-0.1860412933333333,0.68645088,0.5220704291048865,0.7605637337091398,0.7252163271230748,0.720007824464649
LBP00_S00,LBP00,-1534,117,0,116,-1534,1715222164.64,2024-05-09 02:36:04.640000+00:00,2024-05-09 11:36:04.640000+09:00,2024,5,9,2,36,4,640,,,,,,,,,0.409912,0.16626,1.357178,-17.822266,52.490234,14.648438,,,,,,,,,,,0.0,1.0,1.0,0.0,0.0,0.0,0.0,6.0,0.0,0.1822070533333333,0.14735026666666667,1.0152734399999999,4.740397093333333,0.1717121733333319,4.028320333333333,3.495194854415116,-1.242151135860574,12.475441487567254,12.16486758106325,9.068304806001356,-2.8437659092975647,15.437135740357858,0.6826766988330661,15.557748653077828,0.6935117620946349,0.22770494666666669,0.018909733333333317,0.34190456000000014,0.5885192400000001,0.41122481552066015,0.7515536910993987,0.7242742151575076,0.7234132396006501
LBP00_S00,LBP00,-1533,118,0,117,-1533,1715222164.68,2024-05-09 02:36:04.680000+00:00,2024-05-09 11:36:04.680000+09:00,2024,5,9,2,36,4,680,,,,,,,,,-0.165039,0.20166,1.665771,64.331055,38.818359,-6.04248,,,,,,,,,,,0.0,1.0,1.0,0.0,0.0,0.0,0.0,6.0,0.0,0.18032228,0.14591472,1.0257617199999998,4.179687466666667,2.6896158133333317,3.693033866666666,3.0424528515150646,0.40169420365198566,12.568825460359783,12.286565695123853,9.084372574147435,-2.3410128908831735,15.458520724888187,0.6828633909757097,15.531437193011493,0.6872312741185003,-0.34536128,0.05574528000000001,0.6400092800000001,1.0411158400000002,0.7293790704781947,0.7273961610135466,0.7248373737455712,0.7137706772702277
LBP00_S00,LBP00,-1532,119,0,118,-1532,1715222164.72,2024-05-09 02:36:04.720000+00:00,2024-05-09 11:36:04.720000+09:00,2024,5,9,2,36,4,720,,,,,,,,,0.256104,0.485596,1.799561,-38.391113,-6.164551,-4.272461,,,,,,,,,,,0.0,1.0,1.0,0.0,0.0,0.0,0.0,6.0,0.0,0.17575522666666668,0.1460286533333333,1.018401693333333,3.96321612,3.444824146666665,3.60677084,2.3535037826333305,1.6095945592100667,12.370459499807376,12.380705846429187,9.148756356515838,-1.8461945108908786,15.504517222369048,0.6954910508142185,15.499953491839099,0.6821942261040123,0.08034877333333332,0.3395673466666667,0.7811593066666669,1.2010754266666668,0.8555534879189959,0.7249523803519797,0.7297062136491541,0.7122502032694181
LBP00_S00,LBP00,-1531,120,0,119,-1531,1715222164.76,2024-05-09 02:36:04.760000+00:00,2024-05-09 11:36:04.760000+09:00,2024,5,9,2,36,4,760,,,,,,,,,0.0625,0.101562,0.991211,-6.835938,119.384766,-20.324707,,,,,,,,,,,0.0,1.0,1.0,0.0,0.0,0.0,0.0,6.0,0.0,0.16768230666666667,0.14435546666666668,1.0095800799999999,3.0460611733333325,2.5276691999999987,3.677571626666666,1.453492310677367,1.9687554765757531,11.801508963488802,12.438845538856281,9.227506575578868,-1.3741341523513264,15.548633400094504,0.7125050396570297,15.456007351264557,0.6806357842414494,-0.10518230666666667,-0.04279346666666668,-0.018369079999999927,0.16634485333333326,0.1150305243190616,0.7135760089471086,0.7144186771608746,0.7033361673006169
LBP00_S00,LBP00,-1530,121,0,120,-1530,1715222164.8,2024-05-09 02:36:04.800000+00:00,2024-05-09 11:36:04.800000+09:00,2024,5,9,2,36,4,800,,,,,,,,,-0.002686,0.462402,-0.12793,39.916992,-45.166016,33.325195,,,,,,,,,,,0.0,1.0,1.0,0.0,0.0,0.0,0.0,6.0,0.0,0.17438804,0.14193685333333333,1.0055859333333335,2.93212888,1.066894453333332,4.363606786666667,0.35558733025212363,1.3983241130023978,10.722472135993709,12.453069032066367,9.283439540098964,-0.945235266911578,15.561318958298381,0.6855932543053901,15.390111713930875,0.6816423106818934,-0.17707404,0.32046514666666664,-1.1335159333333333,1.63105512,1.1911807155048084,0.7386111981701342,0.7272506870574609,0.7104952326651217
LBP00_S00,LBP00,-1529,122,0,121,-1529,1715222164.84,2024-05-09 02:36:04.840000+00:00,2024-05-09 11:36:04.840000+09:00,2024,5,9,2,36,4,840,,,,,,,,,0.119141,-0.057861,0.339111,-96.984863,-83.251953,10.131836,,,,,,,,,,,0.0,1.0,1.0,0.0,0.0,0.0,0.0,6.0,0.0,0.18345053333333333,0.13976562666666667,1.0009993466666667,2.3795572666666667,1.8953449733333316,4.392903653333334,-0.9479653244901921,0.08786801415810172,8.979875055963719,12.415150419086759,9.286954260665288,-0.5860402646730292,15.515376971252014,0.6543670111811221,15.293213741006804,0.6819259423287207,-0.06430953333333334,-0.19762662666666667,-0.6618883466666667,0.9238245066666667,0.6937493661967056,0.7425798116932074,0.7109216779811574,0.714541705793184
LBP00_S00,LBP00,-1528,123,0,122,-1528,1715222164.88,2024-05-09 02:36:04.880000+00:00,2024-05-09 11:36:04.880000+09:00,2024,5,9,2,36,4,880,,,,,,,,,0.725098,0.124268,1.06543,51.696777,-60.852051,43.273926,,,,,,,,,,,0.0,1.0,1.0,0.0,0.0,0.0,0.0,6.0,0.0,0.17430014666666668,0.1373405066666667,0.9996223866666668,2.3958333066666664,2.1565754399999983,4.133300786666666,-2.4521511276752914,-1.6736222869866106,6.503464177308288,12.317064373979747,9.220009369185824,-0.32590169758069765,15.389114967311196,0.6700887776355365,15.16095826188137,0.6834079402514803,0.5507978533333333,-0.013072506666666692,0.06580761333333329,0.6296779733333333,0.5548691806541319,0.7284611148932424,0.7078352597953991,0.7158069333106846
LBP00_S00,LBP00,-1527,124,0,123,-1527,1715222164.92,2024-05-09 02:36:04.920000+00:00,2024-05-09 11:36:04.920000+09:00,2024,5,9,2,36,4,920,,,,,,,,,0.295898,0.378174,1.400635,11.779785,54.80957,-0.305176,,,,,,,,,,,0.0,1.0,1.0,0.0,0.0,0.0,0.0,6.0,0.0,0.18145510666666667,0.14571941333333333,1.0194856666666667,2.7579752266666664,-0.21565764000000143,4.581705733333333,-4.0610445571322416,-3.633961687407269,3.394075250222332,12.154622591694457,9.074650901689534,-0.19013868757180435,15.169716281281449,0.6792821094016813,14.998339850926607,0.6831642745946869,0.11444289333333332,0.23245458666666668,0.38114933333333334,0.7280468133333333,0.46087647477097377,0.7353488654316629,0.7103115313554906,0.7128721887470797
LBP00_S00,LBP00,-1526,125,0,124,-1526,1715222164.96,2024-05-09 02:36:04.960000+00:00,2024-05-09 11:36:04.960000+09:00,2024,5,9,2,36,4,960,,,,,,,,,-0.124023,0.354248,1.837646,16.784668,6.958008,-8.605957,,,,,,,,,,,0.0,1.0,1.0,0.0,0.0,0.0,0.0,6.0,0.0,0.18154298666666666,0.1431022266666667,1.0298176933333334,1.9498697599999995,2.3046874133333315,4.490559906666666,-5.502683684956736,-5.580026391776251,-0.05336825353751044,11.934515244296188,8.851449846018484,-0.19227341771330478,14.859939016028225,0.6703305059816723,14.822704097422129,0.6787659722821071,-0.3055659866666667,0.21114577333333331,0.8078283066666665,1.3245400666666665,0.8891229852253504,0.71577593301467,0.7167163821894016,0.7224306444515334
LBP00_S00,LBP00,-1525,126,0,125,-1525,1715222165.0,2024-05-09 02:36:05+00:00,2024-05-09 11:36:05+09:00,2024,5,9,2,36,5,0,2.0,36.0,5.0,40.540359,141.54245,19.695999,3.0,12.0,0.320557,0.319824,1.965332,-19.836426,6.835938,-16.601562,-235.0,-1.0,406.0,2695.0,0.0,1012.5,17.68,-0.004955,6.242467,4.028906,0.0,1.0,1.0,0.0,0.0,0.0,0.0,4.0,0.0,0.17698242666666666,0.14419272000000002,1.0232975066666667,2.5740559599999995,2.8409829866666647,4.662272146666667,-6.300177603698218,-7.234147591918682,-3.40630633104165,11.68250814014826,8.562083942341737,-0.32852567095497076,14.487864128187182,0.6860615845017812,14.663400354192419,0.6735859633816463,0.14357457333333332,0.17563127999999997,0.9420344933333333,1.2612403466666666,0.9689628430709184,0.7232123501079368,0.728009102311796,0.717034981619851
LBP00_S00,LBP00,-1524,127,0,126,-1524,1715222165.04,2024-05-09 02:36:05.040000+00:00,2024-05-09 11:36:05.040000+09:00,2024,5,9,2,36,5,40,,,,,,,,,-0.173584,-0.041504,0.492676,-6.103516,122.253418,-24.658203,,,,,,,,,,,0.0,1.0,1.0,0.0,0.0,0.0,0.0,4.0,0.0,0.16966797333333333,0.14159506666666669,1.01327472,1.6788736666666662,1.8733723199999985,4.903971373333333,-5.8468580850881775,-8.173136932236906,-6.199182690861055,11.448633816744733,8.23515846505226,-0.576492978589413,14.114580949103514,0.6974966780606626,14.557870532953192,0.67158092235052,-0.34325197333333335,-0.1830990666666667,-0.5205987200000001,1.04694976,0.6499001559294091,0.7309715805546069,0.7247901341809926,0.7148420622886408
LBP00_S00,LBP00,-1523,128,0,127,-1523,1715222165.08,2024-05-09 02:36:05.080000+00:00,2024-05-09 11:36:05.080000+09:00,2024,5,9,2,36,5,80,,,,,,,,,0.133545,0.128174,0.073486,20.446777,-64.39209,4.577637,,,,,,,,,,,0.0,1.0,1.0,0.0,0.0,0.0,0.0,4.0,0.0,0.1778418,0.14317384,1.00868488,2.067057253333333,0.4720051333333316,5.921223973333334,-3.583208722110872,-7.893310837383264,-8.036170044327518,11.305305467860299,7.919426031556929,-0.8979397803625137,13.832336615340555,0.6804267344077745,14.545601701666484,0.6736939370640531,-0.0442968,-0.014999839999999987,-0.93519888,0.99449552,0.9363675276532821,0.7463780721940907,0.7281317570400305,0.721799366587159
LBP00_S00,LBP00,-1522,129,0,128,-1522,1715222165.12,2024-05-09 02:36:05.120000+00:00,2024-05-09 11:36:05.120000+09:00,2024,5,9,2,36,5,120,,,,,,,,,0.1521,0.135498,0.35083,-3.845215,-124.084473,11.71875,,,,,,,,,,,0.0,1.0,1.0,0.0,0.0,0.0,0.0,4.0,0.0,0.18341146666666666,0.13890626666666667,1.00697264,1.6552733999999993,1.569010346666665,5.833333346666667,0.7768794603843462,-6.038166578607351,-8.658477372697613,11.336380646275673,7.6778993684126355,-1.2442788752704181,13.7481596873243,0.6515080276884211,14.661972050253343,0.6741341135167265,-0.03131146666666665,-0.0034082666666666595,-0.6561426400000001,0.6908623733333334,0.6568981566823419,0.7449543990518869,0.7252342655977906,0.7222208530733024
LBP00_S00,LBP00,-1521,130,0,129,-1521,1715222165.16,2024-05-09 02:36:05.160000+00:00,2024-05-09 11:36:05.160000+09:00,2024,5,9,2,36,5,160,,,,,,,,,0.890381,-0.127197,1.192871,-93.078613,-78.552246,-3.78418,,,,,,,,,,,0.0,1.0,1.0,0.0,0.0,0.0,0.0,4.0,0.0,0.18054688,0.13944988,1.0110579199999998,2.509765586666666,0.5761718133333317,6.35660808,7.053245907610058,-2.664306042836309,-7.9753012984211304,11.618510482580076,7.571327126699183,-1.5632909272072633,13.955595967797382,0.6607049506524219,14.933432692930662,0.6735578053505116,0.70983412,-0.26664688000000003,0.18181308000000018,1.1582940800000001,0.7797570343312046,0.7336087670105517,0.725860578968893,0.7272262021827192
LBP00_S00,LBP00,-1520,131,0,130,-1520,1715222165.2,2024-05-09 02:36:05.200000+00:00,2024-05-09 11:36:05.200000+09:00,2024,5,9,2,36,5,200,,,,,,,,,0.244141,0.074951,1.404053,25.45166,71.044922,-25.939941,,,,,,,,,,,0.0,1.0,1.0,0.0,0.0,0.0,0.0,4.0,0.0,0.19185222666666665,0.14961916,1.0316015466666666,2.5626627199999996,-0.016276106666668396,6.82291668,14.53130662049247,1.648118546201341,-6.07585651554645,12.199762747399776,7.637251868547237,-1.8063251878291213,14.506020745906078,0.6655428439941273,15.374442671369247,0.6722339153120529,0.052288773333333344,-0.07466816,0.3724514533333334,0.49940838666666676,0.38344430498392146,0.7217824960106729,0.7246269303611618,0.7238744684638511
LBP00_S00,LBP00,-1519,132,0,131,-1519,1715222165.24,2024-05-09 02:36:05.240000+00:00,2024-05-09 11:36:05.240000+09:00,2024,5,9,2,36,5,240,,,,,,,,,0.064209,0.158447,1.670898,54.748535,43.701172,-10.986328,,,,,,,,,,,0.0,1.0,1.0,0.0,0.0,0.0,0.0,4.0,0.0,0.18297851999999998,0.14578777333333334,1.0294824133333336,2.4446614266666664,2.6668293599999986,6.306152346666667,22.08235427072026,5.954064512057881,-3.230486374979966,13.083056918228586,7.875414449029552,-1.93554464282832,15.392688658384984,0.6754971583164532,15.985752891105335,0.6688067694770019,-0.11876951999999998,0.012659226666666662,0.6414155866666664,0.772844333333333,0.6524418822544827,0.6847362330952822,0.7263759487049828,0.7262372483733479
LBP00_S00,LBP00,-1518,133,0,132,-1518,1715222165.28,2024-05-09 02:36:05.280000+00:00,2024-05-09 11:36:05.280000+09:00,2024,5,9,2,36,5,280,,,,,,,,,0.209961,0.227783,1.786621,36.865234,19.287109,-0.976562,,,,,,,,,,,0.0,1.0,1.0,0.0,0.0,0.0,0.0,4.0,0.0,0.18029622666666667,0.14336263999999999,1.0232942666666667,1.6056314666666662,3.5042317066666655,6.072591146666667,28.458564869353438,9.302827927354672,0.13224549694742563,14.221399513002723,8.24752756612374,-1.930254822950423,16.55281845317976,0.6744905421622702,16.753395550616712,0.6664759645243694,0.02966477333333334,0.08442036000000003,0.7633267333333333,0.8774118666666667,0.7685535100308797,0.6836039408326207,0.7309006138949067,0.7187738810034329
LBP00_S00,LBP00,-1517,134,0,133,-1517,1715222165.32,2024-05-09 02:36:05.320000+00:00,2024-05-09 11:36:05.320000+09:00,2024,5,9,2,36,5,320,,,,,,,,,0.02417,0.179932,0.904785,53.833008,144.958496,-9.277344,,,,,,,,,,,0.0,1.0,1.0,0.0,0.0,0.0,0.0,4.0,0.0,0.17496745333333336,0.13887370666666668,1.0132486933333336,0.5208332799999996,1.7805988933333319,6.362304693333334,32.654598964378806,11.091610858303063,3.490787600951516,15.527583471577875,8.691192000455862,-1.7906233189123624,17.884322708054647,0.6735190277395305,17.648262675695317,0.6658283839641755,-0.15079745333333336,0.04105829333333333,-0.10846369333333361,0.3003194400000003,0.1902367686720218,0.671611371384034,0.7180389983337153,0.7100801900607964
LBP00_S00,LBP00,-1516,135,0,134,-1516,1715222165.36,2024-05-09 02:36:05.360000+00:00,2024-05-09 11:36:05.360000+09:00,2024,5,9,2,36,5,360,,,,,,,,,-0.178223,0.206055,0.003906,146.30127,-39.001465,39.916992,,,,,,,,,,,0.0,1.0,1.0,0.0,0.0,0.0,0.0,4.0,0.0,0.18417317333333333,0.14112956000000001,1.0073274666666667,0.655110613333333,0.5061848266666649,6.7765299599999995,34.1817107455342,11.214661678046419,6.3368814362889525,16.894851901399242,9.139778467577719,-1.5371480614608042,19.270038800414067,0.6570916055970867,18.62709574893348,0.6693944135424843,-0.3623961733333333,0.06492543999999997,-1.0034214666666668,1.43074308,1.068831576523318,0.6968013086371198,0.7192144805620865,0.7202350972498287
LBP00_S00,LBP00,-1515,136,0,135,-1515,1715222165.4,2024-05-09 02:36:05.400000+00:00,2024-05-09 11:36:05.400000+09:00,2024,5,9,2,36,5,400,,,,,,,,,0.070557,0.156738,0.317871,-43.701172,-90.637207,5.92041,,,,,,,,,,,0.0,1.0,1.0,0.0,0.0,0.0,0.0,4.0,0.0,0.18591470666666665,0.14085286666666666,1.0035644400000001,0.8113606133333331,1.4672850799999981,6.446126320000001,33.13739990387531,9.945360578132169,8.292988818190286,18.220347897554255,9.537592890703005,-1.2054285087331928,20.600966325548058,0.6517901261512714,19.636108699737733,0.6735905138622631,-0.11535770666666666,0.01588513333333333,-0.6856934400000001,0.8169362800000001,0.6955107703029797,0.6934996457567257,0.7187777047209591,0.7211556019403991
LBP00_S00,LBP00,-1514,137,0,136,-1514,1715222165.44,2024-05-09 02:36:05.440000+00:00,2024-05-09 11:36:05.440000+09:00,2024,5,9,2,36,5,440,,,,,,,,,0.797607,-0.141357,1.143066,-76.11084,-79.589844,20.507812,,,,,,,,,,,0.0,1.0,1.0,0.0,0.0,0.0,0.0,4.0,0.0,0.18167967999999998,0.14433918666666667,1.0109244666666666,0.7877603599999997,0.03824862666666481,6.655273453333334,30.05794289585656,7.66293849255365,9.195916626029708,19.422665613388517,9.84411043040515,-0.8375918436920045,21.791007544217305,0.6741886285343376,20.617607514508336,0.6758258053742836,0.61592732,-0.2856961866666667,0.13214153333333334,1.03376504,0.6917009176153677,0.6803772131452915,0.717482032797901,0.7230163736577643
LBP00_S00,LBP00,-1513,138,0,137,-1513,1715222165.48,2024-05-09 02:36:05.480000+00:00,2024-05-09 11:36:05.480000+09:00,2024,5,9,2,36,5,480,,,,,,,,,0.4104,0.20166,1.310059,65.246582,57.189941,4.577637,,,,,,,,,,,0.0,1.0,1.0,0.0,0.0,0.0,0.0,4.0,0.0,0.19173826666666668,0.15220052,1.0354785066666667,0.3946939466666663,0.28238923999999815,6.426595066666667,25.65772395857743,4.633582852550211,9.112498535723143,20.448974571731615,10.029453744507158,-0.47309190226307873,22.781007866126593,0.6739509288058353,21.518345176915346,0.6764644916812466,0.2186617333333333,0.04945948,0.27458049333333334,0.5427017066666666,0.3544765734225393,0.6902048774856201,0.7167690897745191,0.7154199923876454
LBP00_S00,LBP00,-1512,139,0,138,-1512,1715222165.52,2024-05-09 02:36:05.520000+00:00,2024-05-09 11:36:05.520000+09:00,2024,5,9,2,36,5,520,,,,,,,,,-0.063232,0.035889,1.746094,20.324707,24.658203,-7.202148,,,,,,,,,,,0.0,1.0,1.0,0.0,0.0,0.0,0.0,4.0,0.0,0.18059244,0.14745442666666667,1.03080728,0.15380853333333297,3.061523346666665,6.159667986666666,20.608067151379505,0.9990360428523525,8.284446811126807,21.273297257786794,10.069415186221253,-0.1417140298180064,23.536490419705938,0.6871683234715085,22.29725154332122,0.6793455416485451,-0.24382443999999998,-0.11156542666666666,0.7152867199999999,1.0706765866666665,0.7638928549063587,0.6692799936575844,0.719987626879216,0.7162948012538694
LBP00_S00,LBP00,-1511,140,0,139,-1511,1715222165.56,2024-05-09 02:36:05.560000+00:00,2024-05-09 11:36:05.560000+09:00,2024,5,9,2,36,5,560,,,,,,,,,0.231445,0.286865,1.695068,43.762207,25.756836,9.70459,,,,,,,,,,,0.0,1.0,1.0,0.0,0.0,0.0,0.0,4.0,0.0,0.17401690666666664,0.14676757333333335,1.0227148266666668,-0.05533860000000033,3.968098866666665,5.83821616,15.44749128667544,-3.0476587981038676,7.032078033957483,21.89119690925381,9.947508834297098,0.13956909154029296,24.045725475839898,0.7026659538502104,22.930281588123933,0.6827482775884315,0.057428093333333374,0.14009742666666664,0.6723531733333332,0.8698786933333332,0.6891908767198877,0.6669289121117071,0.7214747498330023,0.7071344827183154
LBP00_S00,LBP00,-1510,141,0,140,-1510,1715222165.6,2024-05-09 02:36:05.600000+00:00,2024-05-09 11:36:05.600000+09:00,2024,5,9,2,36,5,600,,,,,,,,,-0.271484,0.04541,0.431641,21.179199,148.193359,-19.775391,,,,,,,,,,,0.0,1.0,1.0,0.0,0.0,0.0,0.0,4.0,0.0,0.17324542666666665,0.14170897333333335,1.0177734133333334,-0.2897136000000003,2.2281900133333323,6.12060548,10.602524965706246,-7.072108563784778,5.661808144140761,22.315297907882062,9.664624491745707,0.36604141730592343,24.32100889361212,0.6878957591143314,23.411245875872236,0.6848859789898395,-0.44472942666666665,-0.09629897333333334,-0.5861324133333334,1.1271608133333335,0.7420302966646805,0.6757273068140991,0.7181455202616194,0.708719987020083
LBP00_S00,LBP00,-1509,142,0,141,-1509,1715222165.64,2024-05-09 02:36:05.640000+00:00,2024-05-09 11:36:05.640000+09:00,2024,5,9,2,36,5,640,,,,,,,,,0.12793,0.305908,0.090332,40.039062,-71.716309,20.141602,,,,,,,,,,,0.0,1.0,1.0,0.0,0.0,0.0,0.0,4.0,0.0,0.18017901333333333,0.14548501333333333,1.0140201599999998,-0.33203130666666697,2.0166014666666654,6.232910173333334,6.4318789764393784,-10.385555021088857,4.413345950923269,22.572573066939636,9.249202290902153,0.5425752553428542,24.40006528245506,0.6818840213860835,23.749081767427317,0.688979048917255,-0.052249013333333344,0.16042298666666668,-0.9236881599999999,1.13636016,0.9389703461609135,0.6968371280397091,0.724195409569554,0.7151285194515747
LBP00_S00,LBP00,-1508,143,0,142,-1508,1715222165.68,2024-05-09 02:36:05.680000+00:00,2024-05-09 11:36:05.680000+09:00,2024,5,9,2,36,5,680,,,,,,,,,0.158203,0.014893,0.285645,-24.841309,-126.098633,14.221191,,,,,,,,,,,0.0,1.0,1.0,0.0,0.0,0.0,0.0,4.0,0.0,0.1751855333333333,0.14792316000000003,1.0092024533333335,0.15950515999999973,2.837727773333332,6.1816406399999995,3.222721556456116,-12.274491719812415,3.4554550104234067,22.701481929197882,8.758222622109656,0.6807934557597906,24.341882117238523,0.7033010418352558,23.96326668356963,0.6925446183834543,-0.0169825333333333,-0.13303016000000004,-0.7235574533333335,0.8735701466666669,0.7358809809896316,0.6970972044601668,0.7122466827368567,0.7155906506504364
LBP00_S00,LBP00,-1507,144,0,143,-1507,1715222165.72,2024-05-09 02:36:05.720000+00:00,2024-05-09 11:36:05.720000+09:00,2024,5,9,2,36,5,720,,,,,,,,,0.786865,-0.065918,0.912598,-56.762695,-116.394043,24.291992,,,,,,,,,,,0.0,1.0,1.0,0.0,0.0,0.0,0.0,4.0,0.0,0.17498697333333335,0.149069,1.0161295333333331,0.032552039999999734,1.006673093333332,6.241048186666667,1.132006520439758,-12.350069278676136,2.9090170114452203,22.746762190015474,8.264219850962611,0.7971541362175993,24.21462315608176,0.7075463871383948,24.07924520116777,0.6945995846753711,0.6118780266666667,-0.214987,-0.10353153333333309,0.9303965599999998,0.6567593989284395,0.6891454409005443,0.7070489106262622,0.7161859560662843
LBP00_S00,LBP00,-1506,145,0,144,-1506,1715222165.76,2024-05-09 02:36:05.760000+00:00,2024-05-09 11:36:05.760000+09:00,2024,5,9,2,36,5,760,,,,,,,,,0.391113,0.084961,1.265137,-1.037598,42.724609,-10.192871,,,,,,,,,,,0.0,1.0,1.0,0.0,0.0,0.0,0.0,4.0,0.0,0.18509113333333332,0.14838216,1.0367708133333333,-0.8976237466666669,1.3777668399999987,5.672200533333333,0.12549730937981818,-10.77967024108345,2.8619775066563196,22.751782082390665,7.833033041319274,0.9116332364838521,24.079681677897124,0.6784686196111667,24.124856196866133,0.6945598256812742,0.20602186666666666,-0.06342116000000002,0.22836618666666664,0.49780921333333333,0.31403561628139925,0.6971056445790379,0.7053408267630731,0.7086476663002623
LBP00_S00,LBP00,-1505,146,0,145,-1505,1715222165.8,2024-05-09 02:36:05.800000+00:00,2024-05-09 11:36:05.800000+09:00,2024,5,9,2,36,5,800,,,,,,,,,0.130127,0.212402,1.642334,38.757324,35.339355,-6.04248,,,,,,,,,,,0.0,1.0,1.0,0.0,0.0,0.0,0.0,4.0,0.0,0.18340818666666667,0.15147136,1.0318619599999999,-1.163737026666667,1.2174478266666653,5.391438813333333,-0.02131535781631476,-8.226603916183135,3.3541773927213723,22.750929468078013,7.503968884671949,1.045800332192707,23.97932524109883,0.6927208254254257,24.12755338145006,0.694262846753553,-0.053281186666666674,0.06093064000000001,0.6104720400000001,0.7246838666666668,0.6158145332526502,0.6740909972889516,0.706351097729543,0.7095307904679576
LBP00_S00,LBP00,-1504,147,0,146,-1504,1715222165.84,2024-05-09 02:36:05.840000+00:00,2024-05-09 11:36:05.840000+09:00,2024,5,9,2,36,5,840,,,,,,,,,0.154297,0.209717,1.719971,23.376465,29.907227,-0.549316,,,,,,,,,,,0.0,1.0,1.0,0.0,0.0,0.0,0.0,4.0,0.0,0.17735676,0.1518034,1.0264518,-1.1360677600000002,1.6748045999999988,5.006510426666667,0.3565485207002112,-5.526816794891106,4.341801968873448,22.76519140890602,7.282896212876304,1.219472410947645,23.93285670564045,0.709844323196331,24.111627193253963,0.6950457447588673,-0.023059760000000012,0.05791359999999998,0.6935191999999999,0.7744925599999999,0.6963150281049931,0.6741936237652831,0.7083867177292453,0.6986789932425326
LBP00_S00,LBP00,-1503,148,0,147,-1503,1715222165.88,2024-05-09 02:36:05.880000+00:00,2024-05-09 11:36:05.880000+09:00,2024,5,9,2,36,5,880,,,,,,,,,0.08252,0.003174,0.910889,-26.123047,117.919922,-20.629883,,,,,,,,,,,0.0,1.0,1.0,0.0,0.0,0.0,0.0,4.0,0.0,0.18148762666666665,0.15044597333333334,1.0248632666666666,-0.6184896400000003,0.3011066799999988,5.222981773333334,0.9250400932447872,-3.3106180403519088,5.675348402499971,22.80219301263581,7.150471491262228,1.4464863470476437,23.940793042107995,0.6945005917250024,24.09508312978478,0.6934581532642183,-0.09896762666666666,-0.14727197333333333,-0.11397426666666666,0.36021386666666666,0.21088802412591187,0.6604343775041542,0.6944477461986983,0.6920349656983175
LBP00_S00,LBP00,-1502,149,0,148,-1502,1715222165.92,2024-05-09 02:36:05.920000+00:00,2024-05-09 11:36:05.920000+09:00,2024,5,9,2,36,5,920,,,,,,,,,-0.061279,0.23999,-0.100586,68.42041,-47.302246,30.212402,,,,,,,,,,,0.0,1.0,1.0,0.0,0.0,0.0,0.0,4.0,0.0,0.19093098666666666,0.15565756,1.0201790266666666,-0.6095378133333337,0.5973306399999988,5.4679362,1.4251909465408532,-1.8009801174747306,7.1218945388830965,22.859200650497446,7.078432286563238,1.7313621286029677,23.992600376689566,0.6867707335305406,24.08687488554602,0.6909727997621122,-0.25220998666666666,0.08433244000000001,-1.1207650266666667,1.4573074533333332,1.1518837106278947,0.6880746669384311,0.7117117661850471,0.7028992432164708
LBP00_S00,LBP00,-1501,150,0,149,-1501,1715222165.96,2024-05-09 02:36:05.960000+00:00,2024-05-09 11:36:05.960000+09:00,2024,5,9,2,36,5,960,,,,,,,,,0.073486,-0.112549,0.268799,-66.650391,-91.97998,15.74707,,,,,,,,,,,0.0,1.0,1.0,0.0,0.0,0.0,0.0,4.0,0.0,0.18556965333333333,0.15545573333333332,1.0178743466666667,-0.4866536933333337,1.2516275199999989,5.322265626666667,1.6754499417264117,-0.8861702670602545,8.433995038013917,22.9262186481665,7.042985475880828,2.0687219301235245,24.072697321679176,0.6996961645729977,24.085830015793583,0.6895447337612169,-0.11208365333333334,-0.2680047333333333,-0.7490753466666666,1.1291637333333333,0.8034321112685283,0.6846470319801583,0.700211482497414,0.7060265987863203
LBP00_S00,LBP00,-1500,151,0,150,-1500,1715222166.0,2024-05-09 02:36:06+00:00,2024-05-09 11:36:06+09:00,2024,5,9,2,36,6,0,2.0,36.0,6.0,40.540394,141.542282,19.757999,3.0,12.0,0.763916,0.051025,0.935791,-28.686523,-98.632812,34.606934,-236.0,-7.0,405.0,2920.0,0.0,1012.700012,17.74,-0.002973,4.577342,4.028906,0.0,1.0,1.0,0.0,0.0,0.0,0.0,4.0,0.0,0.18879881333333332,0.15685872,1.0341406266666666,-1.2556966666666671,-0.7039388933333345,5.290527346666667,1.5253323969509422,-0.37257582416647955,9.433624768452528,22.987231944044538,7.028082442914169,2.4460669208616257,24.161747011651155,0.6957247391674745,24.082165968795223,0.6891729110739142,0.5751171866666667,-0.10583372,-0.09834962666666658,0.7793005333333333,0.592986680924532,0.6696079854943028,0.6964101678011196,0.7085420633726315
LBP00_S00,LBP00,-1499,152,0,151,-1499,1715222166.04,2024-05-09 02:36:06.040000+00:00,2024-05-09 11:36:06.040000+09:00,2024,5,9,2,36,6,40,,,,,,,,,0.418701,0.0271,1.425781,-2.746582,51.269531,-2.258301,,,,,,,,,,,0.0,1.0,1.0,0.0,0.0,0.0,0.0,4.0,0.0,0.19343749333333332,0.15102213333333334,1.0503320266666667,-2.7099610000000003,1.2687173599999988,4.59716796,0.821386388647739,-0.206844440896144,10.064960551983443,23.020087399590448,7.019808665278323,2.848665342940963,24.234624647763216,0.6660081064395941,24.061267290987573,0.686535149816033,0.22526350666666667,-0.12392213333333334,0.37544897333333327,0.7246346133333332,0.4550409587528378,0.6618136176072399,0.6963925990809233,0.7037979619897416
LBP00_S00,LBP00,-1498,153,0,152,-1498,1715222166.08,2024-05-09 02:36:06.080000+00:00,2024-05-09 11:36:06.080000+09:00,2024,5,9,2,36,6,80,,,,,,,,,-0.093262,0.299805,1.624512,34.057617,39.550781,2.380371,,,,,,,,,,,0.0,1.0,1.0,0.0,0.0,0.0,0.0,4.0,0.0,0.19169596,0.15362956000000003,1.0488736933333334,-2.1199544933333336,1.2443033066666656,4.466145826666667,-0.5636710770183564,-0.5018401937985335,10.387279246364855,22.997540556509716,6.999735057526382,3.2641565127955574,24.25979967485096,0.6784475068141954,24.008328278786273,0.6826786689547806,-0.28495796,0.14617543999999996,0.5756383066666666,1.0067717066666666,0.6587319320699601,0.650708193783907,0.698543132988999,0.7023239026213227
LBP00_S00,LBP00,-1497,154,0,153,-1497,1715222166.12,2024-05-09 02:36:06.120000+00:00,2024-05-09 11:36:06.120000+09:00,2024,5,9,2,36,6,120,,,,,,,,,0.156738,0.143555,2.009766,43.701172,11.474609,4.943848,,,,,,,,,,,0.0,1.0,1.0,0.0,0.0,0.0,0.0,4.0,0.0,0.18416992000000001,0.1522819066666667,1.04258788,-2.609863346666667,1.2150064399999991,3.6612955733333337,-2.645098095747018,-1.3696011045609828,10.517306853423143,22.891736632679834,6.9449510133439425,3.6848487869324833,24.204174458557365,0.6932657271294409,23.912284044573294,0.6800018610382914,-0.027431920000000026,-0.0087269066666667,0.96717812,1.0033369466666668,0.9676064204735259,0.6631365243355544,0.7040454616937205,0.7045350185103785
LBP00_S00,LBP00,-1496,155,0,154,-1496,1715222166.16,2024-05-09 02:36:06.160000+00:00,2024-05-09 11:36:06.160000+09:00,2024,5,9,2,36,6,160,,,,,,,,,0.04541,0.203125,0.957764,-16.113281,122.741699,-12.390137,,,,,,,,,,,0.0,1.0,1.0,0.0,0.0,0.0,0.0,4.0,0.0,0.19011393333333332,0.15118816,1.0403906133333334,-2.593587293333334,-0.492350320000001,3.6279296800000007,-5.2491020156392025,-2.7158815877895934,10.560970210389113,22.681772552054266,6.836315749832359,4.107287595348048,24.043041207913532,0.6747503927381394,23.768147047131357,0.6767804435880201,-0.1447039333333333,0.05193684000000001,-0.08262661333333343,0.27926738666666673,0.17453888077520024,0.6389277981933141,0.686268282601933,0.6968829853770334
LBP00_S00,LBP00,-1495,156,0,155,-1495,1715222166.2,2024-05-09 02:36:06.200000+00:00,2024-05-09 11:36:06.200000+09:00,2024,5,9,2,36,6,200,,,,,,,,,-0.099365,0.135986,-0.058594,-19.65332,-59.265137,20.690918,,,,,,,,,,,0.0,1.0,1.0,0.0,0.0,0.0,0.0,4.0,0.0,0.19687174666666665,0.15375001333333332,1.0369694,-2.9899089066666673,-0.06347661333333443,3.562825506666667,-8.014120224529016,-4.172422816732762,10.57700205082825,22.361207743073106,6.6694188371630485,4.530367677381178,23.770338463022313,0.6663432128466145,23.577838391151687,0.6739777401073456,-0.29623674666666666,-0.01776401333333333,-1.0955634,1.40956416,1.135046665853399,0.6689918926280933,0.6953871943193832,0.7060819177834723
LBP00_S00,LBP00,-1494,157,0,156,-1494,1715222166.24,2024-05-09 02:36:06.240000+00:00,2024-05-09 11:36:06.240000+09:00,2024,5,9,2,36,6,240,,,,,,,,,0.082031,-0.061768,0.402832,-63.903809,-105.407715,17.39502,,,,,,,,,,,0.0,1.0,1.0,0.0,0.0,0.0,0.0,4.0,0.0,0.19254557333333333,0.15198242666666667,1.0368456933333334,-2.5089518800000006,0.04475906666666557,3.5742187333333337,-10.482413848635943,-5.232565693557783,10.58970809131755,21.94191118912767,6.460116209420737,4.95395600103388,23.403466583627438,0.6712795145838064,23.35015152257817,0.6720563854945314,-0.11051457333333332,-0.21375042666666666,-0.6340136933333334,0.9582786933333334,0.6781416364988989,0.67001988279787,0.6773780579465761,0.7075905934026119
LBP00_S00,LBP00,-1493,158,0,157,-1493,1715222166.28,2024-05-09 02:36:06.280000+00:00,2024-05-09 11:36:06.280000+09:00,2024,5,9,2,36,6,280,,,,,,,,,0.822998,0.037354,1.170166,12.145996,-65.979004,37.841797,,,,,,,,,,,0.0,1.0,1.0,0.0,0.0,0.0,0.0,4.0,0.0,0.19639647999999998,0.15385744,1.0497298133333333,-2.52766932,-1.0856120266666676,3.7573242,-12.229087311346907,-5.498540000895434,10.632407692999594,21.452747696673793,6.24017460938492,5.379252308753864,22.980350699978203,0.6677325125601108,23.100296587548687,0.6715830222433308,0.62660152,-0.11650344000000001,0.12043618666666678,0.8635411466666668,0.6486196045888162,0.6652225265801874,0.674413233706404,0.7090079181233336
LBP00_S00,LBP00,-1492,159,0,158,-1492,1715222166.32,2024-05-09 02:36:06.320000+00:00,2024-05-09 11:36:06.320000+09:00,2024,5,9,2,36,6,320,,,,,,,,,0.543701,0.246826,1.355957,-0.976562,46.75293,15.380859,,,,,,,,,,,0.0,1.0,1.0,0.0,0.0,0.0,0.0,4.0,0.0,0.19185221333333333,0.14624025333333332,1.05488932,-2.8393555200000007,1.765136679999999,2.892252586666667,-12.96044376544171,-4.861617249072393,10.779694308832658,20.934329946056124,6.045709919422024,5.810440081107171,22.55123040227022,0.6545565590278282,22.848838233092373,0.6678055903025942,0.35184878666666664,0.10058574666666667,0.30106768000000006,0.7535022133333333,0.4738742544725117,0.676568026012207,0.6740896986981205,0.7042153408932126
LBP00_S00,LBP00,-1491,160,0,159,-1491,1715222166.36,2024-05-09 02:36:06.360000+00:00,2024-05-09 11:36:06.360000+09:00,2024,5,9,2,36,6,360,,,,,,,,,-0.224609,0.072266,1.7854,-15.74707,38.452148,-8.117676,,,,,,,,,,,0.0,1.0,1.0,0.0,0.0,0.0,0.0,4.0,0.0,0.19201172,0.15171876,1.0528710933333334,-0.9586589066666672,1.9767252266666662,2.9117838400000005,-12.552654005445142,-3.4919893901696697,11.133287503485093,20.432223785838318,5.906030343815237,6.255771581246575,22.169610761882485,0.6716691297662516,22.61941208284556,0.6647687714338975,-0.41662072,-0.07945276000000001,0.7325289066666667,1.2286023866666667,0.8464538761841651,0.6676729179986409,0.6822371133178804,0.7020339597076046
LBP00_S00,LBP00,-1490,161,0,160,-1490,1715222166.4,2024-05-09 02:36:06.400000+00:00,2024-05-09 11:36:06.400000+09:00,2024,5,9,2,36,6,400,,,,,,,,,0.250977,0.351807,2.043701,19.592285,-12.329102,2.807617,,,,,,,,,,,0.0,1.0,1.0,0.0,0.0,0.0,0.0,4.0,0.0,0.18626953333333332,0.14872721333333333,1.0495670533333332,-2.0426432800000005,1.148274706666666,2.5138346133333336,-11.05052987058136,-1.6674414747677448,11.760946609172896,19.990202591015063,5.8393326848245275,6.72620944561349,21.884878325915945,0.6765111930393329,22.434874871207803,0.6632311732485061,0.06470746666666669,0.20307978666666665,0.9941339466666668,1.2619212000000002,1.0167255086354623,0.6805215075319402,0.6870105766443331,0.7060256389912861
LBP00_S00,LBP00,-1489,162,0,161,-1489,1715222166.44,2024-05-09 02:36:06.440000+00:00,2024-05-09 11:36:06.440000+09:00,2024,5,9,2,36,6,440,,,,,,,,,0.153564,0.15332,0.976318,-29.35791,134.033203,-6.286621,,,,,,,,,,,0.0,1.0,1.0,0.0,0.0,0.0,0.0,4.0,0.0,0.19146485333333332,0.14801757333333335,1.0483561066666667,-1.7732747866666672,0.35970049333333276,2.6765950266666674,-8.662166254966756,0.4119480993346548,12.625839140687065,19.643715940816392,5.855810608797913,7.231243011240973,21.736075297468393,0.6612744739275879,22.312430530885617,0.6643828631298481,-0.03790085333333332,0.005302426666666665,-0.07203810666666666,0.11524138666666664,0.08157253964459035,0.656116372413109,0.6682467927792004,0.6970268126696371
LBP00_S00,LBP00,-1488,163,0,162,-1488,1715222166.48,2024-05-09 02:36:06.480000+00:00,2024-05-09 11:36:06.480000+09:00,2024,5,9,2,36,6,480,,,,,,,,,-0.085938,0.104492,0.11499,3.601074,-60.72998,20.385742,,,,,,,,,,,0.0,1.0,1.0,0.0,0.0,0.0,0.0,4.0,0.0,0.19411783999999999,0.14363932000000001,1.0465559866666667,-2.040201866666667,1.1051431999999994,2.346191386666667,-5.76392967284148,2.6789026344524034,13.555487983471195,19.41315875390273,5.96296671417601,7.77346253057982,21.745216130287822,0.6406731874068297,22.259166410887467,0.6654234246294646,-0.28005584,-0.03914732000000001,-0.9315659866666667,1.2507691466666668,0.9735394053121467,0.6808788856886935,0.6855418815871568,0.7048056884125773
LBP00_S00,LBP00,-1487,164,0,163,-1487,1715222166.52,2024-05-09 02:36:06.520000+00:00,2024-05-09 11:36:06.520000+09:00,2024,5,9,2,36,6,520,,,,,,,,,0.164795,0.031006,0.430908,-65.856934,-98.632812,20.263672,,,,,,,,,,,0.0,1.0,1.0,0.0,0.0,0.0,0.0,4.0,0.0,0.18863606666666666,0.14634765333333333,1.0429980399999998,-0.9847005600000004,0.7877603866666661,2.5748697600000003,-2.8955289911005493,5.089393757946507,14.276118442253296,19.29733759425871,6.16654246449387,8.344507268269952,21.90991295608923,0.6628975384424741,22.26964551400715,0.6679967778437338,-0.02384106666666666,-0.11534165333333332,-0.6120900399999998,0.7512727599999998,0.6233187872354503,0.6752559229818571,0.6722679583197206,0.7050770589134298
LBP00_S00,LBP00,-1486,165,0,164,-1486,1715222166.56,2024-05-09 02:36:06.560000+00:00,2024-05-09 11:36:06.560000+09:00,2024,5,9,2,36,6,560,,,,,,,,,0.805908,0.168945,1.24292,24.658203,-43.212891,44.494629,,,,,,,,,,,0.0,1.0,1.0,0.0,0.0,0.0,0.0,4.0,0.0,0.19453450666666666,0.14976888,1.0537630133333333,-0.8007812800000005,0.3361002266666662,2.6700846,-0.7047291436772922,7.451696411413271,14.497780474517597,19.26914842851162,6.464610320950401,8.924418487250655,22.197669091535975,0.6593744108842251,22.326493947021582,0.6718284647058114,0.6113734933333332,0.01917612000000002,0.1891569866666667,0.8197066,0.6402543537795515,0.6732984620642436,0.6701136870879755,0.705415987243416
LBP00_S00,LBP00,-1485,166,0,165,-1485,1715222166.6,2024-05-09 02:36:06.600000+00:00,2024-05-09 11:36:06.600000+09:00,2024,5,9,2,36,6,600,,,,,,,,,0.33667,0.156494,1.674072,-19.897461,61.218262,-6.591797,,,,,,,,,,,0.0,1.0,1.0,0.0,0.0,0.0,0.0,4.0,0.0,0.18363932,0.14706054666666668,1.04761068,-0.39794924000000065,1.759440066666666,2.4674478800000004,0.18442311044440227,9.362937155028147,14.00670980714671,19.276525352929397,6.8391278071515265,9.484686879536524,22.545895059800472,0.6778601116600349,22.403700181034964,0.6750850469618206,0.15303068000000003,0.009433453333333314,0.62646132,0.7889254533333333,0.6449505132327573,0.6694152707269667,0.6725712887705328,0.7019021037500685
LBP00_S00,LBP00,-1484,167,0,166,-1484,1715222166.64,2024-05-09 02:36:06.640000+00:00,2024-05-09 11:36:06.640000+09:00,2024,5,9,2,36,6,640,,,,,,,,,-0.059082,0.224121,1.913574,55.236816,2.197266,22.644043,,,,,,,,,,,0.0,1.0,1.0,0.0,0.0,0.0,0.0,4.0,0.0,0.18239908,0.14724283999999999,1.04416016,-0.7796224133333339,2.31119788,2.128092413333334,-0.6427262386649226,10.352372814372593,12.722133316862795,19.250816303382802,7.2532227197264305,9.993572212211035,22.870825383645894,0.6816851295799704,22.47138085399018,0.6780841403552075,-0.24148108,0.07687816,0.8694138400000002,1.1877730800000001,0.9055958197046284,0.6680802896687154,0.6824587088542122,0.7054903696026077
LBP00_S00,LBP00,-1483,168,0,167,-1483,1715222166.68,2024-05-09 02:36:06.680000+00:00,2024-05-09 11:36:06.680000+09:00,2024,5,9,2,36,6,680,,,,,,,,,0.249756,0.513428,1.482422,35.095215,73.852539,19.40918,,,,,,,,,,,0.0,1.0,1.0,0.0,0.0,0.0,0.0,4.0,0.0,0.17738605333333335,0.1467806,1.0395540399999998,0.4581705466666661,1.471354133333333,2.4389648133333335,-3.2287898905178434,10.170090135570927,10.700643947217772,19.12166470776209,7.660026325149268,10.421597970099747,23.08514173117508,0.6934660447028028,22.500633581842518,0.6816473595605266,0.07236994666666666,0.36664739999999996,0.44286796000000006,0.8818853066666666,0.5794823164703629,0.6618243430879446,0.6794607737740556,0.6954392361872193
LBP00_S00,LBP00,-1482,169,0,168,-1482,1715222166.72,2024-05-09 02:36:06.720000+00:00,2024-05-09 11:36:06.720000+09:00,2024,5,9,2,36,6,720,,,,,,,,,-0.54834,0.103271,-0.07666,11.962891,152.893066,-38.513184,,,,,,,,,,,0.0,1.0,1.0,0.0,0.0,0.0,0.0,4.0,0.0,0.18253578666666667,0.1508138,1.0376953066666665,0.1936848666666661,1.0473632399999997,2.8792317333333335,-7.197835899281114,9.032455771106314,8.101743700169342,18.833751271790845,8.02132455599352,10.745667718106521,23.11971473241451,0.6928734276486048,22.46767277177603,0.6886247069664646,-0.7308757866666667,-0.047542799999999996,-1.1143553066666665,1.8927738933333331,1.3335019620771538,0.6888940456138931,0.6890197432572188,0.7009972889554725
LBP00_S00,LBP00,-1481,170,0,169,-1481,1715222166.76,2024-05-09 02:36:06.760000+00:00,2024-05-09 11:36:06.760000+09:00,2024,5,9,2,36,6,760,,,,,,,,,0.181396,0.069336,0.199707,-90.454102,-55.908203,18.432617,,,,,,,,,,,0.0,1.0,1.0,0.0,0.0,0.0,0.0,4.0,0.0,0.18178057333333333,0.15377603999999997,1.0367545599999999,-0.9065755466666673,1.3484700133333332,3.027343706666667,-11.86936432432454,7.634296407452503,5.144795653846224,18.358976698817862,8.32669641229162,10.95145954426037,22.941673102016313,0.7042349523263434,22.357035876379648,0.6923527994879976,-0.0003845733333333323,-0.08444003999999998,-0.8370475599999999,0.9218721733333333,0.8412959562209982,0.709984459211477,0.7035450518952575,0.7068887042458745
LBP00_S00,LBP00,-1480,171,0,170,-1480,1715222166.8,2024-05-09 02:36:06.800000+00:00,2024-05-09 11:36:06.800000+09:00,2024,5,9,2,36,6,800,,,,,,,,,0.200928,-0.320068,0.565186,-83.80127,-119.07959,16.662598,,,,,,,,,,,0.0,1.0,1.0,0.0,0.0,0.0,0.0,4.0,0.0,0.18084633333333333,0.1537142,1.03845052,-1.3777669466666673,0.6388345999999998,3.05094396,-16.48286111406621,6.869646141825603,2.0826964175551415,17.699662254255212,8.601482257964644,11.034767400962576,22.56168505546812,0.7065021269732018,22.16371027851624,0.6985901486406878,0.020081666666666664,-0.47378220000000004,-0.4732645200000001,0.9671283866666668,0.6699642917826155,0.7121504495526756,0.6931207234208135,0.7082842150039205
LBP00_S00,LBP00,-1479,172,0,171,-1479,1715222166.84,2024-05-09 02:36:06.840000+00:00,2024-05-09 11:36:06.840000+09:00,2024,5,9,2,36,6,840,,,,,,,,,0.728271,0.471191,1.131592,41.19873,-48.400879,25.756836,,,,,,,,,,,0.0,1.0,1.0,0.0,0.0,0.0,0.0,4.0,0.0,0.18345376,0.15284505333333334,1.0414583333333334,-1.996256533333334,-0.00651045333333362,2.8979491733333336,-20.41153287722805,7.394747963342793,-0.8062316433420923,16.88320093916609,8.897272176498356,11.002518135228891,22.02860257599177,0.6969066659807786,21.893771190537816,0.7019298375906226,0.54481724,0.3183459466666667,0.09013366666666656,0.9532968533333332,0.6374119897108083,0.7097943280169083,0.6919939758910957,0.7088559211584663
LBP00_S00,LBP00,-1478,173,0,172,-1478,1715222166.88,2024-05-09 02:36:06.880000+00:00,2024-05-09 11:36:06.880000+09:00,2024,5,9,2,36,6,880,,,,,,,,,0.201172,0.116699,1.623779,-26.977539,53.283691,-26.550293,,,,,,,,,,,0.0,1.0,1.0,0.0,0.0,0.0,0.0,4.0,0.0,0.18156574666666667,0.15558268,1.0362890666666666,-3.308105493333334,0.16764319999999974,2.5048827733333336,-23.260442584180367,9.285702241267114,-3.2310088746161867,15.952783235798876,9.268700266149041,10.873277780244244,21.41560802962293,0.7104466614662108,21.56315021212869,0.7067481470983882,0.019606253333333323,-0.038883680000000004,0.5874899333333334,0.6459798666666667,0.5891016614372411,0.7249228735093614,0.6926786255067579,0.7046061219689194
LBP00_S00,LBP00,-1477,174,0,173,-1477,1715222166.92,2024-05-09 02:36:06.920000+00:00,2024-05-09 11:36:06.920000+09:00,2024,5,9,2,36,6,920,,,,,,,,,-0.093018,0.431396,1.819824,6.225586,-10.253906,0.0,,,,,,,,,,,0.0,1.0,1.0,0.0,0.0,0.0,0.0,4.0,0.0,0.18177082666666666,0.15247721333333333,1.03408204,-3.369140653333334,0.11800126666666642,2.4015299066666667,-24.838161028673312,11.988235586491488,-4.928290167761426,14.959256794651942,9.748229689608701,10.676146173533787,20.80354400212543,0.7001784636578031,21.194626558846316,0.7112044037125045,-0.27478882666666665,0.2789187866666667,0.7857419600000002,1.3394495733333336,0.8778923718321574,0.713963219957532,0.7010189434479815,0.7124622507758753
LBP00_S00,LBP00,-1476,175,0,174,-1476,1715222166.96,2024-05-09 02:36:06.960000+00:00,2024-05-09 11:36:06.960000+09:00,2024,5,9,2,36,6,960,,,,,,,,,0.300537,0.446289,1.62793,1.281738,67.382812,-11.169434,,,,,,,,,,,0.0,1.0,1.0,0.0,0.0,0.0,0.0,4.0,0.0,0.17537434666666665,0.15385416000000002,1.0273730666666665,-2.544759146666667,-0.8496094133333334,2.399902306666667,-25.077800032575645,14.570775045846704,-5.726455980648864,13.956144793348916,10.33106069144257,10.447087934307833,20.26441311290189,0.7217479024111269,20.813649648423457,0.7143808768640126,0.12516265333333335,0.29243484,0.6005569333333336,1.018154426666667,0.6795972745751736,0.7090098264897978,0.6968284292349779,0.7031442638282086
LBP00_S00,LBP00,-1475,176,0,175,-1475,1715222167.0,2024-05-09 02:36:07+00:00,2024-05-09 11:36:07+09:00,2024,5,9,2,36,7,0,2.0,36.0,7.0,40.540417,141.542114,19.481001,3.0,12.0,-0.811279,-0.217773,-0.138428,-41.381836,145.080566,-36.010742,-240.0,0.0,407.0,2775.0,0.0,1012.5,17.790001,-0.004955,6.242467,4.028906,0.0,1.0,1.0,0.0,0.0,0.0,0.0,6.0,0.0,0.18023437333333334,0.15469726666666667,1.0256445466666666,-3.168131546666667,-1.36067712,2.381998653333334,-23.994828950449943,16.119554446791494,-5.602544823795852,12.996351635330917,10.97584286931423,10.222986141356,19.846504180016225,0.7112570011593826,20.443874524454507,0.7190729537699692,-0.9915133733333333,-0.37247026666666666,-1.1640725466666666,2.5280561866666664,1.5738163053395406,0.7482430114663982,0.7089254984803504,0.7136877823562124
LBP00_S00,LBP00,-1474,177,0,176,-1474,1715222167.04,2024-05-09 02:36:07.040000+00:00,2024-05-09 11:36:07.040000+09:00,2024,5,9,2,36,7,40,,,,,,,,,0.092773,0.101074,0.222656,-65.795898,-49.255371,5.554199,,,,,,,,,,,0.0,1.0,1.0,0.0,0.0,0.0,0.0,6.0,0.0,0.18021809333333333,0.16073893333333333,1.0212662933333334,-3.5009766000000004,-0.6819661866666669,2.3518879733333335,-21.712602974146737,16.06280017301033,-4.697033781747512,12.127847516365048,11.618354876234642,10.035104790086098,19.56461559955462,0.7298682246576271,20.103318629357126,0.723217782580489,-0.08744509333333333,-0.059664933333333336,-0.7986102933333334,0.9457203200000002,0.8055960211146151,0.7622652139608692,0.7120394157840545,0.7183501373742386
LBP00_S00,LBP00,-1473,178,0,177,-1473,1715222167.08,2024-05-09 02:36:07.080000+00:00,2024-05-09 11:36:07.080000+09:00,2024,5,9,2,36,7,80,,,,,,,,,0.493164,-0.296387,1.031982,-33.996582,-92.529297,20.324707,,,,,,,,,,,0.0,1.0,1.0,0.0,0.0,0.0,0.0,6.0,0.0,0.1760579466666667,0.15971354666666668,1.02360028,-4.316406293333334,-1.2809245200000001,2.1663410933333336,-18.51673541405228,14.290607134897774,-3.2729642686087677,11.387178099802956,12.189979161630554,9.904186219341748,19.399905198351313,0.7380286108439658,19.801788588088236,0.7295874717976613,0.3171060533333333,-0.45610054666666666,0.008381720000000037,0.78158832,0.5555665675330306,0.7581385993793921,0.7044233965816495,0.7184082884524634
LBP00_S00,LBP00,-1472,179,0,178,-1472,1715222167.12,2024-05-09 02:36:07.120000+00:00,2024-05-09 11:36:07.120000+09:00,2024,5,9,2,36,7,120,,,,,,,,,0.561279,0.401611,1.413086,-2.258301,47.058105,7.324219,,,,,,,,,,,0.0,1.0,1.0,0.0,0.0,0.0,0.0,6.0,0.0,0.18272134666666667,0.16122070666666666,1.0335384266666667,-4.91943364,-1.8221029066666665,2.18831376,-14.869472186283957,11.082269002789744,-1.6389433289631417,10.792399212351597,12.633269921742142,9.838628486183222,19.30994562818596,0.7246381591636859,19.539727624791503,0.7349953294007359,0.3785576533333333,0.24039029333333334,0.37954757333333333,0.99849552,0.5874944684414894,0.7429341212981107,0.7030353228168325,0.7170083482285172
LBP00_S00,LBP00,-1471,180,0,179,-1471,1715222167.16,2024-05-09 02:36:07.160000+00:00,2024-05-09 11:36:07.160000+09:00,2024,5,9,2,36,7,160,,,,,,,,,-0.23999,0.385986,1.706543,27.282715,40.100098,-2.258301,,,,,,,,,,,0.0,1.0,1.0,0.0,0.0,0.0,0.0,6.0,0.0,0.17443358666666667,0.16257813333333335,1.0262727999999999,-4.948730506666667,-0.32796227999999994,2.2493489066666674,-11.345481921443136,6.953502297783309,-0.07729104137465045,10.338579935493872,12.911410013653475,9.835536844528235,19.243921862326822,0.7511557213859087,19.308305711478233,0.7422160947129127,-0.4144235866666667,0.22340786666666665,0.6802702,1.3181016533333334,0.827300144495488,0.7690445718469221,0.7039861850201181,0.7138603790169293
LBP00_S00,LBP00,-1470,181,0,180,-1470,1715222167.2,2024-05-09 02:36:07.200000+00:00,2024-05-09 11:36:07.200000+09:00,2024,5,9,2,36,7,200,,,,,,,,,0.362305,0.379395,2.141113,3.112793,-44.189453,0.915527,,,,,,,,,,,0.0,1.0,1.0,0.0,0.0,0.0,0.0,6.0,0.0,0.17404621333333334,0.1611523466666667,1.0245182400000001,-5.229492226666667,0.35156246666666674,2.1044921466666673,-8.512231853421175,2.521615842306751,1.1895763903871601,9.998090661357026,13.012274647345745,9.883119900143722,19.15612610449431,0.7479504150784001,19.09074267236371,0.7483751509609887,0.18825878666666665,0.2182426533333333,1.1165947599999997,1.5230961999999997,1.1531934289401045,0.7697704423703903,0.7193811674992417,0.7201816103363855
LBP00_S00,LBP00,-1469,182,0,181,-1469,1715222167.24,2024-05-09 02:36:07.240000+00:00,2024-05-09 11:36:07.240000+09:00,2024,5,9,2,36,7,240,,,,,,,,,0.111328,0.008057,1.185303,-21.30127,122.741699,-30.212402,,,,,,,,,,,0.0,1.0,1.0,0.0,0.0,0.0,0.0,6.0,0.0,0.16992186666666667,0.16148764,1.0232910266666666,-3.619791706666667,0.022786426666666935,2.145996053333334,-6.814587631943504,-1.597005844606201,1.9943461801214115,9.725507156079285,12.948394413561497,9.962893747348579,19.013302163302864,0.760603558152502,18.865150992334133,0.7549061403071649,-0.058593866666666675,-0.15343063999999998,0.1620119733333334,0.37403648000000006,0.23069911574412555,0.7518727415401993,0.7109463121690347,0.7022096191444505
LBP00_S00,LBP00,-1468,183,0,182,-1468,1715222167.28,2024-05-09 02:36:07.280000+00:00,2024-05-09 11:36:07.280000+09:00,2024,5,9,2,36,7,280,,,,,,,,,-0.063721,0.334717,-0.174805,-45.837402,-55.358887,-0.610352,,,,,,,,,,,0.0,1.0,1.0,0.0,0.0,0.0,0.0,6.0,0.0,0.17257161333333335,0.16532553333333336,1.0233951866666668,-3.859863320000001,0.1814778400000001,2.2485351200000006,-6.504344564536896,-4.894024506880635,2.2115711604619723,9.46533337349781,12.75263343328627,10.051356593767057,18.794998396655604,0.7645252374969569,18.60891406570969,0.7602910688356453,-0.23629261333333335,0.16939146666666663,-1.198200186666667,1.6038842666666668,1.2329685135571857,0.7752466978989341,0.7202346122395608,0.7080243884372474
LBP00_S00,LBP00,-1467,184,0,183,-1467,1715222167.32,2024-05-09 02:36:07.320000+00:00,2024-05-09 11:36:07.320000+09:00,2024,5,9,2,36,7,320,,,,,,,,,0.127686,-0.031982,0.404785,-33.874512,-89.050293,11.779785,,,,,,,,,,,0.0,1.0,1.0,0.0,0.0,0.0,0.0,6.0,0.0,0.16926432,0.16480145333333332,1.0235709733333334,-4.7688802400000005,0.31738280000000013,2.013346306666667,-7.607968903588133,-7.092667977667151,1.7684659589294325,9.161014617354285,12.468926714179585,10.122095232124234,18.48932486899271,0.7723861167795714,18.303782145114262,0.7647919915698995,-0.04157832,-0.1967834533333333,-0.6187859733333334,0.8571477466666667,0.6506524148836269,0.7823178243153788,0.7294429251637929,0.7101657405705399
LBP00_S00,LBP00,-1466,185,0,184,-1466,1715222167.36,2024-05-09 02:36:07.360000+00:00,2024-05-09 11:36:07.360000+09:00,2024,5,9,2,36,7,360,,,,,,,,,0.810059,0.228027,1.134766,71.655273,-64.941406,31.37207,,,,,,,,,,,0.0,1.0,1.0,0.0,0.0,0.0,0.0,6.0,0.0,0.16958333333333334,0.16886720000000002,1.02432292,-5.0813802400000005,-0.5428060133333332,1.9628905733333337,-9.904655720924032,-8.233118366446261,0.6845738536251724,8.764828388517323,12.139601979521734,10.149478186269242,18.08878272175666,0.7833384648918871,17.940266412575816,0.7714139216545607,0.6404756666666667,0.059159799999999985,0.11044308000000003,0.8100785466666667,0.6526152277169431,0.7745642783766898,0.7211185981876653,0.7130128350041501
