file_name,test_id,_program_index,program_index,session_id,index,_index,unixtime,datetime_utc,datetime_jst,rtc_year,rtc_month,rtc_day,rtc_hour,rtc_min,rtc_sec,rtc_msec,gps_hour,gps_min,gps_sec,latitude,longitude,altitude,fix_type,SIV,acc_x,acc_y,acc_z,gyro_x,gyro_y,gyro_z,mag_x,mag_y,mag_z,illuminance,atmopress,water_pressure,water_temp,depth,alt_wps,battery_level,behavior_class,camera_command,camera_recording,camera_count,play_audio,speaker_on,audio_file,prev_sd_write_time_ms,delay_occurred_counter,acc_x_ma,acc_y_ma,acc_z_ma,gyro_x_ma,gyro_y_ma,gyro_z_ma,gyro_x_lowpass,gyro_y_lowpass,gyro_z_lowpass,angle_x,angle_y,angle_z,combined_angle_change,gravity_adjusted_angle,smoothed_angle_change,smoothed_gravity_angle,acc_x_dy,acc_y_dy,acc_z_dy,ODBA,VeDBA,smoothed_VeDBA_1s,smoothed_VeDBA_2s,smoothed_VeDBA_3s
LBP00_S01,LBP00,-1650,1,1,0,-1650,1715223086.0,2024-05-09 02:51:26+00:00,2024-05-09 11:51:26+09:00,2024,5,9,2,51,26,0,2.0,51.0,26.0,40.543098,141.507996,15.997,3.0,12.0,-0.273193,0.346924,1.500488,-28.564453,103.210449,-50.598145,-244.0,-59.0,403.0,2180.0,0.0,1014.700012,15.78,0.016847,-12.05827,4.035937,0.0,1.0,1.0,1.0,0.0,0.0,0.0,4.0,0.0,,,,,,,-29.165673807844268,103.18083889460786,-50.904581159037356,-1.1666269523137707,4.127233555784314,-2.036183246361494,4.747748675174391,,8.103024431722313,,,,,,,,,
LBP00_S01,LBP00,-1649,2,1,1,-1649,1715223086.04,2024-05-09 02:51:26.040000+00:00,2024-05-09 11:51:26.040000+09:00,2024,5,9,2,51,26,40,,,,,,,,,-0.244629,0.25708,1.913818,24.536133,-42.602539,19.104004,,,,,,,,,,,0.0,1.0,1.0,1.0,0.0,0.0,0.0,4.0,0.0,,,,,,,-20.835694058784355,64.36097868371145,-33.66314949190725,-2.000054714665145,6.701672703132772,-3.3827092260377842,7.768871062740733,,8.152584400725912,,,,,,,,,
LBP00_S01,LBP00,-1648,3,1,2,-1648,1715223086.08,2024-05-09 02:51:26.080000+00:00,2024-05-09 11:51:26.080000+09:00,2024,5,9,2,51,26,80,,,,,,,,,0.246582,0.089355,1.173584,28.137207,76.049805,-22.766113,,,,,,,,,,,0.0,1.0,1.0,1.0,0.0,0.0,0.0,4.0,0.0,,,,,,,-13.552242932233375,29.954968559297793,-18.27068018705725,-2.5421444319544797,7.899871445504684,-4.113536433520074,9.262378158891726,,8.079036921400888,,,,,,,,,
LBP00_S01,LBP00,-1647,4,1,3,-1647,1715223086.12,2024-05-09 02:51:26.120000+00:00,2024-05-09 11:51:26.120000+09:00,2024,5,9,2,51,26,120,,,,,,,,,-0.704102,0.077393,-0.374756,33.081055,13.916016,2.929688,,,,,,,,,,,0.0,1.0,1.0,1.0,0.0,0.0,0.0,4.0,0.0,,,,,,,-7.984426065955548,3.442072659443244,-6.153603964348896,-2.861521474592702,8.037554351882413,-4.35968059209403,9.581095969360732,,7.949882332751716,,,,,,,,,
LBP00_S01,LBP00,-1646,5,1,4,-1646,1715223086.16,2024-05-09 02:51:26.160000+00:00,2024-05-09 11:51:26.160000+09:00,2024,5,9,2,51,26,160,,,,,,,,,0.156982,0.007812,0.171143,-66.711426,-129.516602,28.869629,,,,,,,,,,,0.0,1.0,1.0,1.0,0.0,0.0,0.0,4.0,0.0,,,,,,,-4.248594835427857,-13.340699281176713,1.9994617954217373,-3.031465268009816,7.5039263806353445,-4.27970212027716,9.155028292443978,,7.8075805952449535,,,,,,,,,
LBP00_S01,LBP00,-1645,6,1,5,-1645,1715223086.2,2024-05-09 02:51:26.200000+00:00,2024-05-09 11:51:26.200000+09:00,2024,5,9,2,51,26,200,,,,,,,,,0.713379,-0.085693,1.074951,0.549316,-119.32373,18.066406,,,,,,,,,,,0.0,1.0,1.0,1.0,0.0,0.0,0.0,4.0,0.0,,,,,,,-1.9465574674950534,-20.48498583654975,6.320942524022314,-3.1093275667096183,6.684526947173355,-4.026864419316268,8.400384245743906,,7.673703495789954,,,,,,,,,
LBP00_S01,LBP00,-1644,7,1,6,-1644,1715223086.24,2024-05-09 02:51:26.240000+00:00,2024-05-09 11:51:26.240000+09:00,2024,5,9,2,51,26,240,,,,,,,,,0.624512,0.505859,1.081055,-11.047363,110.168457,-0.671387,,,,,,,,,,,0.0,1.0,1.0,1.0,0.0,0.0,0.0,4.0,0.0,,,,,,,-0.36937137089036676,-19.79895730998327,7.622984027914395,-3.124102421545233,5.892568654774024,-3.721945058199692,7.637752045450759,,7.836528343782734,,,,,,,,,
LBP00_S01,LBP00,-1643,8,1,7,-1643,1715223086.28,2024-05-09 02:51:26.280000+00:00,2024-05-09 11:51:26.280000+09:00,2024,5,9,2,51,26,280,,,,,,,,,-0.406494,0.196289,1.706543,6.164551,45.898438,-31.921387,,,,,,,,,,,0.0,1.0,1.0,1.0,0.0,0.0,0.0,4.0,0.0,,,,,,,1.238389151764521,-14.16210916417751,7.086551108959329,-3.0745668554746524,5.326084288206924,-3.438483013841319,7.0458002122074985,,7.692150893970525,,,,,,,,,
LBP00_S01,LBP00,-1642,9,1,8,-1642,1715223086.32,2024-05-09 02:51:26.320000+00:00,2024-05-09 11:51:26.320000+09:00,2024,5,9,2,51,26,320,,,,,,,,,-0.067383,0.372559,1.998535,9.338379,-33.752441,-0.305176,,,,,,,,,,,0.0,1.0,1.0,1.0,0.0,0.0,0.0,4.0,0.0,,,,,,,3.446610028741377,-6.673934091219676,5.888679857052867,-2.936702454324997,5.059126924558137,-3.202935819559204,6.669166695190856,,7.3926819427256465,,,,,,,,,
LBP00_S01,LBP00,-1641,10,1,9,-1641,1715223086.36,2024-05-09 02:51:26.360000+00:00,2024-05-09 11:51:26.360000+09:00,2024,5,9,2,51,26,360,,,,,,,,,0.364258,0.19165,1.041016,-15.686035,113.830566,-23.864746,,,,,,,,,,,0.0,1.0,1.0,1.0,0.0,0.0,0.0,4.0,0.0,,,,,,,6.4904691762518345,0.10077292101938176,4.893805279724915,-2.6770836872749237,5.063157841398912,-3.0071836083702075,6.468809600694957,,7.052235774730339,,,,,,,,,
LBP00_S01,LBP00,-1640,11,1,10,-1640,1715223086.4,2024-05-09 02:51:26.400000+00:00,2024-05-09 11:51:26.400000+09:00,2024,5,9,2,51,26,400,,,,,,,,,-0.54248,-0.030273,-0.163086,24.047852,-23.620605,13.061523,,,,,,,,,,,0.0,1.0,1.0,1.0,0.0,0.0,0.0,4.0,0.0,,,,,,,10.222450741386258,4.5613842390212485,4.503323040543331,-2.2681856576194734,5.245613210959761,-2.8270506867484744,6.375997155102194,,6.741298913392512,,,,,,,,,
LBP00_S01,LBP00,-1639,12,1,11,-1639,1715223086.44,2024-05-09 02:51:26.440000+00:00,2024-05-09 11:51:26.440000+09:00,2024,5,9,2,51,26,440,,,,,,,,,0.262207,0.008545,0.165771,-28.320312,-89.660645,13.85498,,,,,,,,,,,0.0,1.0,1.0,1.0,0.0,0.0,0.0,4.0,0.0,,,,,,,14.167536396628844,6.11977433403238,4.687347853985448,-1.7014842017543197,5.490404184321057,-2.6395567725890565,6.325096564618636,,6.490098739763786,,,,,,,,,
LBP00_S01,LBP00,-1638,13,1,12,-1638,1715223086.48,2024-05-09 02:51:26.480000+00:00,2024-05-09 11:51:26.480000+09:00,2024,5,9,2,51,26,480,,,,,,,,,0.650146,0.205078,0.799072,67.260742,-75.805664,61.218262,,,,,,,,,,,0.0,1.0,1.0,1.0,0.0,0.0,0.0,4.0,0.0,,,,,,,17.668491013033147,4.98032717570016,5.147632283356204,-0.9947445612329938,5.689617271349063,-2.4336514812548082,6.267688646442954,,6.299976754360467,,,,,,,,,
LBP00_S01,LBP00,-1637,14,1,13,-1637,1715223086.52,2024-05-09 02:51:26.520000+00:00,2024-05-09 11:51:26.520000+09:00,2024,5,9,2,51,26,520,,,,,,,,,0.410156,0.246582,1.271729,7.263184,92.102051,-15.563965,,,,,,,,,,,0.0,1.0,1.0,1.0,0.0,0.0,0.0,4.0,0.0,,,,,,,20.08551543502339,1.8447176791656361,5.516350178645909,-0.1913239438320582,5.763405978515689,-2.2129974741089717,6.176634289407664,,6.158692749370035,,,,,,,,,
LBP00_S01,LBP00,-1636,15,1,14,-1636,1715223086.56,2024-05-09 02:51:26.560000+00:00,2024-05-09 11:51:26.560000+09:00,2024,5,9,2,51,26,560,,,,,,,,,-0.354736,0.28418,1.587402,25.45166,28.076172,-9.033203,,,,,,,,,,,0.0,1.0,1.0,1.0,0.0,0.0,0.0,4.0,0.0,,,,,,,20.992454901756496,-2.31500823221865,5.502909389894623,0.6483742522382017,5.670805649226943,-1.9928810985131868,6.0456596790657,,6.053639792654412,,,,,,,,,
LBP00_S01,LBP00,-1635,16,1,15,-1635,1715223086.6,2024-05-09 02:51:26.600000+00:00,2024-05-09 11:51:26.600000+09:00,2024,5,9,2,51,26,600,,,,,,,,,0.320312,0.639404,1.821777,66.772461,-32.409668,29.052734,,,,,,,,,,,0.0,1.0,1.0,1.0,0.0,0.0,0.0,4.0,0.0,,,,,,,20.306679883445348,-6.40439568457763,4.9516653647713165,1.4606414475760157,5.414629821843838,-1.7948144839223341,5.888382509456649,,5.978917360632101,,,,,,,,,
LBP00_S01,LBP00,-1634,17,1,16,-1634,1715223086.64,2024-05-09 02:51:26.640000+00:00,2024-05-09 11:51:26.640000+09:00,2024,5,9,2,51,26,640,,,,,,,,,-0.303955,-0.105713,0.454346,-1.220703,127.319336,-50.537109,,,,,,,,,,,0.0,1.0,1.0,1.0,0.0,0.0,0.0,4.0,0.0,,,,,,,18.309903776658025,-9.361082041601126,3.829929943434026,2.193037598642337,5.040186540179793,-1.6416172861849732,5.736532191417548,,5.936805810230332,,,,,,,,,
LBP00_S01,LBP00,-1633,18,1,17,-1633,1715223086.68,2024-05-09 02:51:26.680000+00:00,2024-05-09 11:51:26.680000+09:00,2024,5,9,2,51,26,680,,,,,,,,,0.124023,0.270752,-0.05249,-14.831543,-107.48291,23.986816,,,,,,,,,,,0.0,1.0,1.0,1.0,0.0,0.0,0.0,4.0,0.0,,,,,,,15.557667794538105,-10.383003703423983,2.192270521708191,2.8153443104238614,4.624866392042834,-1.5539264653166456,5.632960162303191,,5.936216379664297,,,,,,,,,
LBP00_S01,LBP00,-1632,19,1,18,-1632,1715223086.72,2024-05-09 02:51:26.720000+00:00,2024-05-09 11:51:26.720000+09:00,2024,5,9,2,51,26,720,,,,,,,,,0.273438,-0.118408,0.463867,-28.808594,-141.174316,10.070801,,,,,,,,,,,0.0,1.0,1.0,1.0,0.0,0.0,0.0,4.0,0.0,,,,,,,12.721066298094945,-9.191945370776944,0.1569995772800412,3.3241869623476594,4.257188577211756,-1.5476464822254439,5.618637128034627,,5.9897823963229,,,,,,,,,
LBP00_S01,LBP00,-1631,20,1,19,-1631,1715223086.76,2024-05-09 02:51:26.760000+00:00,2024-05-09 11:51:26.760000+09:00,2024,5,9,2,51,26,760,,,,,,,,,0.847656,0.405273,1.071777,76.538086,-40.100098,24.841309,,,,,,,,,,,0.0,1.0,1.0,1.0,0.0,0.0,0.0,4.0,0.0,,,,,,,10.428590083088288,-6.189957893298236,-2.0992293920813347,3.741330565671191,4.0095902614798264,-1.6316156579086973,5.721585280471856,,6.110658193549677,,,,,,,,,
LBP00_S01,LBP00,-1630,21,1,20,-1630,1715223086.8,2024-05-09 02:51:26.800000+00:00,2024-05-09 11:51:26.800000+09:00,2024,5,9,2,51,26,800,,,,,,,,,0.103027,0.412598,1.405029,-8.789062,98.388672,-40.100098,,,,,,,,,,,0.0,1.0,1.0,1.0,0.0,0.0,0.0,4.0,0.0,,,,,,,9.15619235309252,-2.3605060185635955,-4.347314705253969,4.1075782597948916,3.915170020737283,-1.805508246118856,5.954881651084494,,6.309750232345701,,,,,,,,,
LBP00_S01,LBP00,-1629,22,1,21,-1629,1715223086.84,2024-05-09 02:51:26.840000+00:00,2024-05-09 11:51:26.840000+09:00,2024,5,9,2,51,26,840,,,,,,,,,-0.439453,0.398438,1.731445,21.606445,35.27832,0.610352,,,,,,,,,,,0.0,1.0,1.0,1.0,0.0,0.0,0.0,4.0,0.0,,,,,,,9.1664113236093,1.1008643236448414,-6.329758753883733,4.474234712739263,3.9592045936830766,-2.0586985962742053,6.31920225895829,,6.5931372201982255,,,,,,,,,
LBP00_S01,LBP00,-1628,23,1,22,-1628,1715223086.88,2024-05-09 02:51:26.880000+00:00,2024-05-09 11:51:26.880000+09:00,2024,5,9,2,51,26,880,,,,,,,,,0.373779,0.458984,1.436523,19.592285,58.288574,-14.770508,,,,,,,,,,,0.0,1.0,1.0,1.0,0.0,0.0,0.0,4.0,0.0,,,,,,,10.469595739607712,3.2568979696387017,-7.799271940004645,4.8930185423235715,4.089480512468625,-2.370669473874391,6.803348813028979,,6.959149593431393,,,,,,,,,
LBP00_S01,LBP00,-1627,24,1,23,-1627,1715223086.92,2024-05-09 02:51:26.920000+00:00,2024-05-09 11:51:26.920000+09:00,2024,5,9,2,51,26,920,,,,,,,,,-0.626953,-0.076416,-0.483154,-21.484375,86.547852,-13.61084,,,,,,,,,,,0.0,1.0,1.0,1.0,0.0,0.0,0.0,4.0,0.0,,,,,,,12.793942970244839,3.7494964122447314,-8.553744047260182,5.404776261133365,4.239460368958414,-2.7128192357647984,7.385392261675426,,7.395703403851374,,,,,,,,,
LBP00_S01,LBP00,-1626,25,1,24,-1626,1715223086.96,2024-05-09 02:51:26.960000+00:00,2024-05-09 11:51:26.960000+09:00,2024,5,9,2,51,26,960,,,,,,,,,0.071289,0.099854,-0.121338,12.878418,-96.923828,12.756348,,,,,,,,,,,0.0,1.0,1.0,1.0,0.0,0.0,0.0,4.0,0.0,,,,,,,15.583085300258825,2.811858536460567,-8.457373774816412,6.028099673143718,4.351934710416837,-3.051114186757455,8.036580067025954,,7.879417197550528,,,,,,,,,
LBP00_S01,LBP00,-1625,26,1,25,-1625,1715223087.0,2024-05-09 02:51:27+00:00,2024-05-09 11:51:27+09:00,2024,5,9,2,51,27,0,2.0,51.0,27.0,40.543121,141.508057,17.051001,3.0,12.0,0.431396,0.063232,0.768799,3.295898,-169.128418,14.709473,-242.0,-54.0,395.0,2270.0,0.0,1015.0,15.78,0.01982,-14.55122,4.035937,0.0,1.0,1.0,1.0,0.0,0.0,0.0,6.0,0.0,,,,,,,18.0563728557447,1.0084257219483606,-7.456653721323858,6.750354587373506,4.392271739294772,-3.3493803356104093,8.722252387981888,,8.377265492249858,,,,,,,,,
LBP00_S01,LBP00,-1624,27,1,26,-1624,1715223087.04,2024-05-09 02:51:27.040000+00:00,2024-05-09 11:51:27.040000+09:00,2024,5,9,2,51,27,40,,,,,,,,,0.824219,0.435791,1.256104,23.376465,51.696777,-15.441895,,,,,,,,,,,0.0,1.0,1.0,1.0,0.0,0.0,0.0,6.0,0.0,,,,,,,19.352094493583973,-1.0961481177023429,-5.60740067201622,7.524438367116865,4.348425814586679,-3.573676362491058,9.396655923749227,,8.850077613245,,,,,,,,,
LBP00_S01,LBP00,-1623,28,1,27,-1623,1715223087.08,2024-05-09 02:51:27.080000+00:00,2024-05-09 11:51:27.080000+09:00,2024,5,9,2,51,27,80,,,,,,,,,-0.393555,-0.024658,1.701416,36.804199,85.449219,-61.462402,,,,,,,,,,,0.0,1.0,1.0,1.0,0.0,0.0,0.0,6.0,0.0,,,,,,,18.733605889352507,-3.123264280777057,-3.1127317015336295,8.273782602690964,4.223495243355597,-3.6981856305524032,9.99849826650299,,9.256943333976475,,,,,,,,,
LBP00_S01,LBP00,-1622,29,1,28,-1622,1715223087.12,2024-05-09 02:51:27.120000+00:00,2024-05-09 11:51:27.120000+09:00,2024,5,9,2,51,27,120,,,,,,,,,0.050293,0.714355,1.931641,66.894531,-37.841797,32.348633,,,,,,,,,,,0.0,1.0,1.0,1.0,0.0,0.0,0.0,6.0,0.0,,,,,,,15.795079474482044,-4.853536477086181,-0.3424570386930639,8.905585781670247,4.02935378427215,-3.711883912100126,10.455775065026183,,9.560111420144816,,,,,,,,,
LBP00_S01,LBP00,-1621,30,1,29,-1621,1715223087.16,2024-05-09 02:51:27.160000+00:00,2024-05-09 11:51:27.160000+09:00,2024,5,9,2,51,27,160,,,,,,,,,0.219482,0.224854,0.972168,10.986328,113.220215,-23.254395,,,,,,,,,,,0.0,1.0,1.0,1.0,0.0,0.0,0.0,6.0,0.0,,,,,,,10.586242350047915,-6.096221378539485,2.206985215685698,9.329035475672164,3.7855049291305702,-3.623604503472698,10.70006822746515,,9.730023928736733,,,,,,,,,
LBP00_S01,LBP00,-1620,31,1,30,-1620,1715223087.2,2024-05-09 02:51:27.200000+00:00,2024-05-09 11:51:27.200000+09:00,2024,5,9,2,51,27,200,,,,,,,,,-0.425537,0.127686,-0.275391,-22.399902,-36.865234,24.719238,,,,,,,,,,,0.0,1.0,1.0,1.0,0.0,0.0,0.0,6.0,0.0,,,,,,,3.604445546206688,-6.6199609427728765,4.025809357010533,9.47321329752043,3.5207064914196553,-3.4625721291922766,10.683002861035915,,9.750109067573339,,,,,,,,,
LBP00_S01,LBP00,-1619,32,1,31,-1619,1715223087.24,2024-05-09 02:51:27.240000+00:00,2024-05-09 11:51:27.240000+09:00,2024,5,9,2,51,27,240,,,,,,,,,0.280518,-0.036865,0.321289,-91.674805,-140.563965,25.57373,,,,,,,,,,,0.0,1.0,1.0,1.0,0.0,0.0,0.0,6.0,0.0,,,,,,,-4.329626291823359,-6.219314718934286,4.743051963379277,9.300028245847496,3.271933902662284,-3.2728500506571057,10.387859466273035,,9.621031132598906,,,,,,,,,
LBP00_S01,LBP00,-1618,33,1,32,-1618,1715223087.28,2024-05-09 02:51:27.280000+00:00,2024-05-09 11:51:27.280000+09:00,2024,5,9,2,51,27,280,,,,,,,,,0.959229,0.099365,1.227051,63.903809,-46.325684,42.541504,,,,,,,,,,,0.0,1.0,1.0,1.0,0.0,0.0,0.0,6.0,0.0,,,,,,,-12.234865379114781,-4.85204229674893,4.251244591516706,8.810633630682904,3.0778522107923267,-3.1028002669964376,9.835029674712375,,9.363094395870686,,,,,,,,,
LBP00_S01,LBP00,-1617,34,1,33,-1617,1715223087.32,2024-05-09 02:51:27.320000+00:00,2024-05-09 11:51:27.320000+09:00,2024,5,9,2,51,27,320,,,,,,,,,0.040771,0.276123,1.551025,-55.236816,139.770508,-50.354004,,,,,,,,,,,0.0,1.0,1.0,1.0,0.0,0.0,0.0,6.0,0.0,,,,,,,-19.0919446816229,-2.7142462192034618,2.743877601402274,8.046955843417988,2.969282362024188,-2.9930451629403465,9.084517347594613,,9.014050167761308,1.0757182604704876,,,,,,,,
LBP00_S01,LBP00,-1616,35,1,34,-1616,1715223087.36,2024-05-09 02:51:27.360000+00:00,2024-05-09 11:51:27.360000+09:00,2024,5,9,2,51,27,360,,,,,,,,,-0.605957,0.122559,1.926758,-6.652832,-17.333984,-1.953125,,,,,,,,,,,0.0,1.0,1.0,1.0,0.0,0.0,0.0,6.0,0.0,,,,,,,-23.906869866265403,-0.18016168914100827,0.6488682282844134,7.090681048767372,2.9620758944585477,-2.96709043380897,8.237431455392018,,8.622004778263943,1.0656167236814347,,,,,,,,
LBP00_S01,LBP00,-1615,36,1,35,-1615,1715223087.4,2024-05-09 02:51:27.400000+00:00,2024-05-09 11:51:27.400000+09:00,2024,5,9,2,51,27,400,,,,,,,,,0.488281,0.605957,2.238281,71.166992,-61.340332,26.977539,,,,,,,,,,,0.0,1.0,1.0,1.0,0.0,0.0,0.0,6.0,0.0,,,,,,,-25.766790634481136,2.344491587057005,-1.506390442144798,6.060009423388127,3.055855557940828,-3.027346051494762,7.431473038237552,,8.239140531695304,1.0624810569103404,,,,,,,,
LBP00_S01,LBP00,-1614,37,1,36,-1614,1715223087.44,2024-05-09 02:51:27.440000+00:00,2024-05-09 11:51:27.440000+09:00,2024,5,9,2,51,27,440,,,,,,,,,-0.351562,-0.079834,0.452148,-38.208008,172.119141,-60.60791,,,,,,,,,,,0.0,1.0,1.0,1.0,0.0,0.0,0.0,6.0,0.0,,,,,,,-23.958157589695304,4.546338081309051,-3.236769520714648,5.101683119800315,3.23770908119319,-3.1568168323233476,6.817288556467031,,7.920697150219934,1.064933683821411,,,,,,,,
LBP00_S01,LBP00,-1613,38,1,37,-1613,1715223087.48,2024-05-09 02:51:27.480000+00:00,2024-05-09 11:51:27.480000+09:00,2024,5,9,2,51,27,480,,,,,,,,,0.262939,0.307373,-0.022217,-90.209961,-133.117676,21.789551,,,,,,,,,,,0.0,1.0,1.0,1.0,0.0,0.0,0.0,6.0,0.0,0.10897789333333333,0.20482096,0.99900712,0.45328785333333327,0.40445962666666674,2.7530924266666665,-18.168682491022338,6.238114046452302,-4.198209765474893,4.374935820159421,3.4872336430512823,-3.3247452229423433,6.508055985409209,1.0757182604704876,7.725110996191837,1.0539698322173698,0.15396110666666665,0.10255204000000001,-1.02122412,1.2777372666666666,1.0378437486172765,1.0378437486172765,1.0378437486172765,1.0378437486172765
LBP00_S01,LBP00,-1612,39,1,38,-1612,1715223087.52,2024-05-09 02:51:27.520000+00:00,2024-05-09 11:51:27.520000+09:00,2024,5,9,2,51,27,520,,,,,,,,,0.419189,-0.239746,1.105469,-135.314941,-76.11084,18.249512,,,,,,,,,,,0.0,1.0,1.0,1.0,0.0,0.0,0.0,6.0,0.0,0.11634442666666667,0.20845052,1.0002245733333333,1.2654623333333332,-0.02115886666666654,3.1835937333333333,-8.70168829789764,7.318983065611753,-4.225544118851832,4.026868288243516,3.7799929656757523,-3.4937669876964166,6.535321170052526,1.0555151868923816,7.708963882878526,1.044002866286193,0.3028445733333333,-0.44819652,0.10524442666666678,0.8562855200000001,0.551063830678402,0.7944537896478392,0.7944537896478392,0.7944537896478392
LBP00_S01,LBP00,-1611,40,1,39,-1611,1715223087.56,2024-05-09 02:51:27.560000+00:00,2024-05-09 11:51:27.560000+09:00,2024,5,9,2,51,27,560,,,,,,,,,0.497803,0.261475,1.305664,71.594238,80.993652,3.540039,,,,,,,,,,,0.0,1.0,1.0,1.0,0.0,0.0,0.0,6.0,0.0,0.11132164000000001,0.19969401333333334,0.97276364,0.27343758666666645,1.3387044133333335,2.5284830533333333,3.4346966436500748,7.734534895226186,-3.3216954546162745,4.164256153989519,4.0893743614848,-3.626634805881068,6.8714257617787595,1.0562097233681524,7.916270034948454,1.0460203351297876,0.38648136,0.061780986666666676,0.3329003599999999,0.7811627066666665,0.5138164863344558,0.7009080218767115,0.7009080218767115,0.7009080218767115
LBP00_S01,LBP00,-1610,41,1,40,-1610,1715223087.6,2024-05-09 02:51:27.600000+00:00,2024-05-09 11:51:27.600000+09:00,2024,5,9,2,51,27,600,,,,,,,,,-0.299072,0.248291,1.594727,133.361816,83.007812,-38.757324,,,,,,,,,,,0.0,1.0,1.0,1.0,0.0,0.0,0.0,6.0,0.0,0.10969404000000002,0.20472332000000001,0.9576887733333332,0.32063810666666653,-0.6722005333333334,2.6904296666666663,16.659180188527092,7.4964473543891135,-1.6252991446748721,4.830623361530603,4.389232255660364,-3.6916467716680628,7.498569046282219,1.0722915645546227,8.366729321099067,1.0494222879341413,-0.40876604000000005,0.04356768,0.6370382266666668,1.0893719466666667,0.7581592975308524,0.7152208407902467,0.7152208407902467,0.7152208407902467
LBP00_S01,LBP00,-1609,42,1,41,-1609,1715223087.64,2024-05-09 02:51:27.640000+00:00,2024-05-09 11:51:27.640000+09:00,2024,5,9,2,51,27,640,,,,,,,,,-0.005371,0.949219,2.027344,38.635254,-52.978516,25.939941,,,,,,,,,,,0.0,1.0,1.0,1.0,0.0,0.0,0.0,6.0,0.0,0.12831384,0.20713868,0.9732356533333334,-1.8448892399999999,-2.37060548,3.02408852,29.128274038012286,6.741988549010569,0.6258132965845644,5.995754323051094,4.658911797620787,-3.66661423980468,8.431997925992066,1.010114425801205,9.047682932069822,1.0491122953309393,-0.13368484,0.74208032,1.0541083466666663,1.9298735066666663,1.2960321154544978,0.831383095723097,0.831383095723097,0.831383095723097
LBP00_S01,LBP00,-1608,43,1,42,-1608,1715223087.68,2024-05-09 02:51:27.680000+00:00,2024-05-09 11:51:27.680000+09:00,2024,5,9,2,51,27,680,,,,,,,,,0.077881,-0.235107,1.069336,-57.067871,129.394531,-44.616699,,,,,,,,,,,0.0,1.0,1.0,1.0,0.0,0.0,0.0,6.0,0.0,0.13183598666666665,0.20521160000000002,0.98965492,-0.95377596,0.48339842666666677,1.8245442533333334,39.08234980359172,5.745242317039221,3.1394924856032183,7.559048315194763,4.8887214903023555,-3.5410345403805517,9.673558541579256,0.994168036630309,9.913079282977943,1.0486575372776406,-0.05395498666666665,-0.4403186,0.07968108000000007,0.5739546666666667,0.4507113096008648,0.7679377980360581,0.7679377980360581,0.7679377980360581
LBP00_S01,LBP00,-1607,44,1,43,-1607,1715223087.72,2024-05-09 02:51:27.720000+00:00,2024-05-09 11:51:27.720000+09:00,2024,5,9,2,51,27,720,,,,,,,,,-0.141357,0.27832,-0.174561,40.771484,-91.064453,49.072266,,,,,,,,,,,0.0,1.0,1.0,1.0,0.0,0.0,0.0,6.0,0.0,0.11771489333333335,0.21234376,0.9977896933333333,-0.24251293333333326,2.4422200400000005,1.5681966,45.11417457456407,4.8161302388534715,5.632908397484443,9.363615298177326,5.081366699856495,-3.3157182044811737,11.157578868293909,1.0581251481913554,10.891692167790428,1.0459154576647267,-0.25907189333333336,0.06597624000000002,-1.1723506933333334,1.4973988266666667,1.202446364009224,0.8300104503179391,0.8300104503179391,0.8300104503179391
LBP00_S01,LBP00,-1606,45,1,44,-1606,1715223087.76,2024-05-09 02:51:27.760000+00:00,2024-05-09 11:51:27.760000+09:00,2024,5,9,2,51,27,760,,,,,,,,,0.265137,-0.087158,0.477539,29.11377,-99.487305,15.258789,,,,,,,,,,,0.0,1.0,1.0,1.0,0.0,0.0,0.0,6.0,0.0,0.11165694666666667,0.2086328266666667,1.0122460666666666,0.5338542533333335,0.30192056,1.9335937333333333,46.35381440573268,4.124391608926628,7.906458803476988,11.217767874406633,5.24634236421356,-2.999459852342094,12.742024316898139,1.0732359575646158,11.902628569804737,1.0398138923313003,0.15348005333333334,-0.2957908266666667,-0.5347070666666667,0.9839779466666667,0.6300476069747618,0.8050150949000419,0.8050150949000419,0.8050150949000419
LBP00_S01,LBP00,-1605,46,1,45,-1605,1715223087.8,2024-05-09 02:51:27.800000+00:00,2024-05-09 11:51:27.800000+09:00,2024,5,9,2,51,27,800,,,,,,,,,0.810059,0.368896,0.968994,120.483398,-14.648438,26.855469,,,,,,,,,,,0.0,1.0,1.0,1.0,0.0,0.0,0.0,6.0,0.0,0.11715498666666667,0.20548178666666667,1.0001301866666668,0.44189461333333346,1.35172524,2.035319,42.61022479273681,3.5741744414571603,9.895063451170929,12.922176866116105,5.389309341871846,-2.603657314295257,14.24100914794512,1.0466323545053253,12.869540064842809,1.0343096022184135,0.6929040133333333,0.16341421333333334,-0.031136186666666732,0.8874544133333334,0.7125936001206675,0.7947460399245558,0.7947460399245558,0.7947460399245558
LBP00_S01,LBP00,-1604,47,1,46,-1604,1715223087.84,2024-05-09 02:51:27.840000+00:00,2024-05-09 11:51:27.840000+09:00,2024,5,9,2,51,27,840,,,,,,,,,0.177979,0.341064,1.371094,15.441895,107.666016,-14.953613,,,,,,,,,,,0.0,1.0,1.0,1.0,0.0,0.0,0.0,6.0,0.0,0.11687178666666666,0.20412110666666666,0.9720019333333333,2.2208659600000002,0.7788085733333332,2.54882812,34.46010313000808,2.847650339174956,11.66131179847404,14.300580991316428,5.5032153554388445,-2.1372048423562955,15.471252065548212,1.0445647147979504,13.726662937926747,1.0326360187676382,0.06110721333333334,0.13694289333333332,0.39909206666666674,0.5971421733333334,0.42633546091328295,0.7579049820234285,0.7579049820234285,0.7579049820234285
LBP00_S01,LBP00,-1603,48,1,47,-1603,1715223087.88,2024-05-09 02:51:27.880000+00:00,2024-05-09 11:51:27.880000+09:00,2024,5,9,2,51,27,880,,,,,,,,,-0.299316,0.383057,1.602783,83.068848,23.193359,28.503418,,,,,,,,,,,0.0,1.0,1.0,1.0,0.0,0.0,0.0,6.0,0.0,0.11529626666666667,0.20316082666666666,0.96337888,2.388509186666667,-2.3974609466666665,2.6082356666666664,23.212293385255446,1.6183137837463903,13.322769950213171,15.229072726726645,5.5679479067887,-1.6042940443477687,16.29418483353407,1.04829746434135,14.41938049545755,1.0390133253110332,-0.41461226666666673,0.17989617333333333,0.63940412,1.23391256,0.7830093189250191,0.7601871944690277,0.7601871944690277,0.7601871944690277
LBP00_S01,LBP00,-1602,49,1,48,-1602,1715223087.92,2024-05-09 02:51:27.920000+00:00,2024-05-09 11:51:27.920000+09:00,2024,5,9,2,51,27,920,,,,,,,,,0.272949,0.496582,1.159424,-3.295898,43.945312,-8.361816,,,,,,,,,,,0.0,1.0,1.0,1.0,0.0,0.0,0.0,6.0,0.0,0.1332682666666667,0.20770834666666665,0.9797167733333333,2.7596029333333334,-2.9500325733333335,2.809244786666667,10.682527060471891,-0.2057251460905753,14.945003599301888,15.65637380914552,5.559718900945077,-1.0064939003756932,16.644685190195617,0.9944995335581156,14.905469983116983,1.044675200313584,0.1396807333333333,0.28887365333333337,0.17970722666666672,0.6082616133333334,0.3677681092358463,0.7274856040329293,0.7274856040329293,0.7274856040329293
LBP00_S01,LBP00,-1601,50,1,49,-1601,1715223087.96,2024-05-09 02:51:27.960000+00:00,2024-05-09 11:51:27.960000+09:00,2024,5,9,2,51,27,960,,,,,,,,,-0.641602,-0.136963,-0.365234,-18.310547,46.142578,-2.319336,,,,,,,,,,,0.0,1.0,1.0,1.0,0.0,0.0,0.0,6.0,0.0,0.13337244,0.21097982666666668,0.9973339733333334,2.35107428,-0.4337565200000002,2.3193359333333334,-1.2095339903326705,-2.385114751063703,16.454310359112007,15.607992449532214,5.4643143109025285,-0.34832148601121293,16.540540712159498,1.001166822239287,15.158596988251507,1.0453471460563852,-0.77497444,-0.34794282666666665,-1.3625679733333333,2.48548524,1.6056902177057102,0.7950398050846815,0.7950398050846815,0.7950398050846815
LBP00_S01,LBP00,-1600,51,1,50,-1600,1715223088.0,2024-05-09 02:51:28+00:00,2024-05-09 11:51:28+09:00,2024,5,9,2,51,28,0,2.0,51.0,28.0,40.543152,141.508133,17.471001,3.0,12.0,0.063477,0.131104,0.084229,-73.059082,-128.051758,19.775391,-244.0,-57.0,392.0,2316.0,0.0,1014.599976,15.82,0.015856,-11.226815,4.035937,0.0,1.0,1.0,1.0,0.0,0.0,0.0,4.0,0.0,0.12100590666666666,0.21702474666666666,1.0091243466666666,1.639811266666667,0.6437174399999996,1.4843749866666667,-10.911195997353254,-4.472434267371317,17.61739050467352,15.171544609638083,5.285416940207676,0.35637413417572783,16.069797777121593,1.055555730046869,15.171654022174767,1.04224653655387,-0.05752890666666666,-0.08592074666666666,-0.9248953466666666,1.0683449999999999,0.9306574837692291,0.8047267821335778,0.8047267821335778,0.8047267821335778
LBP00_S01,LBP00,-1599,52,1,51,-1599,1715223088.04,2024-05-09 02:51:28.040000+00:00,2024-05-09 11:51:28.040000+09:00,2024,5,9,2,51,28,40,,,,,,,,,0.610596,-0.188232,1.01123,-85.693359,-144.226074,45.959473,,,,,,,,,,,0.0,1.0,1.0,1.0,0.0,0.0,0.0,4.0,0.0,0.11691410666666667,0.21907553333333335,1.0196679599999998,0.9195964133333336,-0.773111986666667,1.6512044133333332,-17.60280370499233,-6.064931029859085,18.104278620977244,14.46743246143839,5.042819699013313,1.0805452790148176,15.3591735013001,1.0738874912351541,14.958118493365921,1.0385247737823293,0.49368189333333334,-0.40730753333333336,-0.008437959999999745,0.9094273866666664,0.6400722128668224,0.7937498108491275,0.7937498108491275,0.7937498108491275
LBP00_S01,LBP00,-1598,53,1,52,-1598,1715223088.08,2024-05-09 02:51:28.080000+00:00,2024-05-09 11:51:28.080000+09:00,2024,5,9,2,51,28,80,,,,,,,,,0.802979,0.371094,1.347412,-6.408691,87.82959,27.832031,,,,,,,,,,,0.0,1.0,1.0,1.0,0.0,0.0,0.0,4.0,0.0,0.12265954666666666,0.21752605333333336,1.0119238266666668,0.17415370666666694,0.6811523333333328,1.44287108,-21.30096294048907,-6.9977857361720055,17.610413780357607,13.615393943818827,4.762908269566433,1.784961830229122,14.534453418173577,1.0507867866558185,14.551188261905645,1.0361752817840792,0.6803194533333333,0.15356794666666662,0.33548817333333325,1.1693755733333333,0.7739315132966988,0.7925111672521007,0.7925111672521007,0.7925111672521007
LBP00_S01,LBP00,-1597,54,1,53,-1597,1715223088.12,2024-05-09 02:51:28.120000+00:00,2024-05-09 11:51:28.120000+09:00,2024,5,9,2,51,28,120,,,,,,,,,-0.494873,0.227539,1.572754,1.098633,78.369141,-16.540527,,,,,,,,,,,0.0,1.0,1.0,1.0,0.0,0.0,0.0,4.0,0.0,0.11688806666666667,0.2144010533333333,0.9853645866666667,-1.1629231199999999,0.11149087999999968,1.7317708266666667,-22.64708142402318,-7.338935830825688,15.98652441934778,12.7095106868579,4.469350836333405,2.424422807003033,13.688848919639144,1.064844605619367,14.00059247146039,1.039022674501478,-0.6117610666666666,0.013137946666666678,0.5873894133333333,1.2122884266666665,0.8482042980484309,0.7957872337695319,0.7957872337695319,0.7957872337695319
LBP00_S01,LBP00,-1596,55,1,54,-1596,1715223088.16,2024-05-09 02:51:28.160000+00:00,2024-05-09 11:51:28.160000+09:00,2024,5,9,2,51,28,160,,,,,,,,,0.244873,0.70459,1.941406,116.943359,-48.156738,51.696777,,,,,,,,,,,0.0,1.0,1.0,1.0,0.0,0.0,0.0,4.0,0.0,0.12157556000000001,0.21132488000000002,0.9831835866666667,-1.4388020266666663,-2.525227866666667,2.7832031066666665,-22.486276726271466,-7.213762136520365,13.328143597851383,11.810059617807042,4.18080035087259,2.9575485509170885,12.872594656130705,1.042229862539462,13.366788588604487,1.0469595809074028,0.12329744,0.49326512,0.9582224133333332,1.5747849733333332,1.0847593884053393,0.8118412423604101,0.8118412423604101,0.8118412423604101
LBP00_S01,LBP00,-1595,56,1,55,-1595,1715223088.2,2024-05-09 02:51:28.200000+00:00,2024-05-09 11:51:28.200000+09:00,2024,5,9,2,51,28,200,,,,,,,,,0.151367,0.10376,0.8479,-21.66748,110.595703,-27.22168,,,,,,,,,,,0.0,1.0,1.0,1.0,0.0,0.0,0.0,4.0,0.0,0.13159184,0.21209635999999998,0.9962858,-0.3857421333333332,-2.089029946666667,3.6189778533333334,-21.458109169050992,-6.626922697448243,10.001221165026047,10.951735251045003,3.9157234429746604,3.3575973975181306,12.105653859856707,1.0094147267899187,12.712839821211123,1.05387321604027,0.019775160000000014,-0.10833635999999998,-0.1483858,0.27649732,0.18478682175067354,0.7788383781177924,0.7788383781177924,0.7788383781177924
LBP00_S01,LBP00,-1594,57,1,56,-1594,1715223088.24,2024-05-09 02:51:28.240000+00:00,2024-05-09 11:51:28.240000+09:00,2024,5,9,2,51,28,240,,,,,,,,,-0.253906,0.282959,-0.344482,-33.38623,-43.945312,26.428223,,,,,,,,,,,0.0,1.0,1.0,1.0,0.0,0.0,0.0,4.0,0.0,0.13261072000000002,0.2196126266666667,1.00775064,0.08056646666666686,0.993652333333333,3.6710611866666665,-19.810077256643584,-5.440579952370261,6.601777648223677,10.15933216077926,3.69810024487985,3.6216685034470775,11.40194975094544,1.0210697948154517,12.09540913717009,1.0557861813490674,-0.38651672000000004,0.06334637333333332,-1.35223264,1.8020957333333334,1.407814281265613,0.8102871732751835,0.8102871732751835,0.8102871732751835
LBP00_S01,LBP00,-1593,58,1,57,-1593,1715223088.28,2024-05-09 02:51:28.280000+00:00,2024-05-09 11:51:28.280000+09:00,2024,5,9,2,51,28,280,,,,,,,,,0.157715,-0.161621,0.138672,-141.601562,-109.49707,21.789551,,,,,,,,,,,0.0,1.0,1.0,1.0,0.0,0.0,0.0,4.0,0.0,0.11573246666666667,0.21838541333333333,1.0158691333333334,-1.1889647866666666,1.6813150933333332,3.378092426666666,-17.50042300781398,-3.5346075439363926,3.854285590300514,9.459315240466701,3.556715943122394,3.775839927059098,10.788226929081546,1.0767713915153356,11.5572379414668,1.0518046324551122,0.04198253333333332,-0.3800064133333333,-0.8771971333333334,1.2991860800000001,0.9568919573325749,0.8172683534683924,0.8172683534683924,0.8172683534683924
LBP00_S01,LBP00,-1592,59,1,58,-1592,1715223088.32,2024-05-09 02:51:28.320000+00:00,2024-05-09 11:51:28.320000+09:00,2024,5,9,2,51,28,320,,,,,,,,,0.80542,-0.16333,1.02124,16.357422,-99.914551,29.724121,,,,,,,,,,,0.0,1.0,1.0,1.0,0.0,0.0,0.0,4.0,0.0,0.11936853333333332,0.22383462666666665,1.0175651066666667,-1.0131835466666665,0.570475253333333,3.9607747200000003,-14.476494327942765,-1.0251593692625043,2.4537833457776816,8.88025546734899,3.5157095683518937,3.873991260890205,10.30664636163657,1.073868597617366,11.12330457043434,1.048056839954941,0.6860514666666667,-0.3871646266666666,0.0036748933333332623,1.0768909866666667,0.7877668233039744,0.8159273748245554,0.8159273748245554,0.8159273748245554
LBP00_S01,LBP00,-1591,60,1,59,-1591,1715223088.36,2024-05-09 02:51:28.360000+00:00,2024-05-09 11:51:28.360000+09:00,2024,5,9,2,51,28,360,,,,,,,,,0.401367,0.413086,1.124756,-9.155273,100.036621,-25.695801,,,,,,,,,,,0.0,1.0,1.0,1.0,0.0,0.0,0.0,4.0,0.0,0.11580733333333332,0.21519204000000003,0.9929915466666666,-1.2101236400000002,1.6813151066666663,3.46110024,-10.9294903776444,1.6408906253582616,2.8670006429933452,8.443075852243213,3.581345193366224,3.988671286609939,10.001053038225844,1.0703031735679582,10.80119293955898,1.04558205542468,0.28555966666666666,0.19789395999999998,0.13176445333333353,0.6152180800000002,0.37157531375683667,0.796607719995524,0.796607719995524,0.796607719995524
LBP00_S01,LBP00,-1590,61,1,60,-1590,1715223088.4,2024-05-09 02:51:28.400000+00:00,2024-05-09 11:51:28.400000+09:00,2024,5,9,2,51,28,400,,,,,,,,,-0.18457,0.05957,1.611084,-5.187988,63.232422,-52.368164,,,,,,,,,,,0.0,1.0,1.0,1.0,0.0,0.0,0.0,4.0,0.0,0.11339197333333334,0.21298826666666665,0.97662436,-1.4550780666666667,-0.48421224000000035,3.807779933333333,-7.381625231012199,3.815913134687097,5.138176793528824,8.147810843002725,3.733981718753708,4.194198358351092,9.895490936711258,1.0746853831348426,10.584177651260408,1.0481531372064556,-0.29796197333333335,-0.15341826666666664,0.63445964,1.08583988,0.7175357391019824,0.7933130541249599,0.7933130541249599,0.7933130541249599
LBP00_S01,LBP00,-1589,62,1,61,-1589,1715223088.44,2024-05-09 02:51:28.440000+00:00,2024-05-09 11:51:28.440000+09:00,2024,5,9,2,51,28,440,,,,,,,,,0.055908,0.48999,1.976562,5.737305,-33.935547,13.793945,,,,,,,,,,,0.0,1.0,1.0,1.0,0.0,0.0,0.0,4.0,0.0,0.12693364000000001,0.21659178666666662,0.9931119866666668,-1.7195637466666664,-3.6686198000000005,4.048665346666667,-4.584697142354922,4.938458060762856,8.780576829425106,7.964422957308528,3.931520041184222,4.545421431528096,9.97746154426722,1.034072002295602,10.454922795267375,1.0517818735501119,-0.07102564000000001,0.27339821333333336,0.9834500133333332,1.3278738666666665,1.023213151457995,0.8025090580182812,0.8025090580182812,0.8025090580182812
LBP00_S01,LBP00,-1588,63,1,62,-1588,1715223088.48,2024-05-09 02:51:28.480000+00:00,2024-05-09 11:51:28.480000+09:00,2024,5,9,2,51,28,480,,,,,,,,,0.114258,-0.038086,1.003662,-19.287109,133.789062,-25.817871,,,,,,,,,,,0.0,1.0,1.0,1.0,0.0,0.0,0.0,4.0,0.0,0.13471684,0.21916013333333334,1.0114323066666666,-2.1516926533333334,-1.8701172000000004,3.512369773333333,-3.299828739382551,4.795538860962417,12.834725662144042,7.832429807733226,4.123341595622719,5.058810458013857,10.195119707848988,1.0133088616541064,10.388746287813028,1.0555268166789915,-0.020458840000000006,-0.25724613333333335,-0.00777030666666656,0.2854752799999999,0.25817535690842136,0.771322322349927,0.7815731464371327,0.7815731464371327
LBP00_S01,LBP00,-1587,64,1,63,-1587,1715223088.52,2024-05-09 02:51:28.520000+00:00,2024-05-09 11:51:28.520000+09:00,2024,5,9,2,51,28,520,,,,,,,,,-0.220215,0.558594,-0.247314,68.29834,-77.697754,82.15332,,,,,,,,,,,0.0,1.0,1.0,1.0,0.0,0.0,0.0,4.0,0.0,0.12881841333333333,0.22290037333333332,1.0222526133333334,-2.24202468,1.4973958266666663,2.8474934666666667,-4.0541407216922325,3.604741814705138,16.114472818111278,7.670264178865537,4.2675312682109245,5.703389370738308,10.467732610885534,1.040096760316755,10.356720631691672,1.0532740510927638,-0.3490334133333333,0.3356936266666667,-1.2695666133333334,1.9542936533333335,1.3587913453869238,0.803631422938268,0.8029515982500881,0.8029515982500881
LBP00_S01,LBP00,-1586,65,1,64,-1586,1715223088.56,2024-05-09 02:51:28.560000+00:00,2024-05-09 11:51:28.560000+09:00,2024,5,9,2,51,28,560,,,,,,,,,0.199707,-0.209717,0.507568,-92.590332,-66.040039,27.34375,,,,,,,,,,,0.0,1.0,1.0,1.0,0.0,0.0,0.0,4.0,0.0,0.11985030666666667,0.22137368,1.03179688,-2.95979812,0.4874674399999997,2.9573567599999997,-6.956268773963509,1.8877607140359878,17.56829061965105,7.3920134279069964,4.343041696772364,6.4061209955243505,10.702441773144978,1.06794068035722,10.329236573653635,1.0463793392844445,0.07985669333333333,-0.43109067999999995,-0.5242288799999999,1.0351762533333333,0.6833975303431018,0.8104146646986138,0.7986818101105528,0.7986818101105528
LBP00_S01,LBP00,-1585,66,1,65,-1585,1715223088.6,2024-05-09 02:51:28.600000+00:00,2024-05-09 11:51:28.600000+09:00,2024,5,9,2,51,28,600,,,,,,,,,0.840088,0.216064,1.251953,54.748535,-43.701172,66.040039,,,,,,,,,,,0.0,1.0,1.0,1.0,0.0,0.0,0.0,4.0,0.0,0.12705734666666668,0.22273109333333332,1.0240885466666667,-4.029134053333333,0.757649733333333,3.2657877466666663,-11.623745032867383,0.23584351137174903,16.61481952365602,6.927063626592301,4.352475437227234,7.070713776470591,10.81310529992636,1.0457020902264818,10.280104043617019,1.03973623612603,0.7130306533333333,-0.006667093333333318,0.22786445333333338,0.9475621999999999,0.7485849128985799,0.8100316893133228,0.7969543308963468,0.7969543308963468
LBP00_S01,LBP00,-1584,67,1,66,-1584,1715223088.64,2024-05-09 02:51:28.640000+00:00,2024-05-09 11:51:28.640000+09:00,2024,5,9,2,51,28,640,,,,,,,,,0.081055,0.616943,1.473877,-18.920898,100.952148,-5.92041,,,,,,,,,,,0.0,1.0,1.0,1.0,0.0,0.0,0.0,4.0,0.0,0.12085292,0.21843422666666665,0.9927441466666668,-4.064127533333333,1.3134765599999996,3.2967122266666666,-17.242238057086578,-0.8851449922986052,13.3137842882303,6.237374104308838,4.3170696375352895,7.603265147999803,10.740184676401984,1.0585192261042473,10.190555092941612,1.0385208009667957,-0.03979792,0.39850877333333334,0.48113285333333333,0.9194395466666667,0.6260047439250275,0.7832305944521439,0.7912560113306362,0.7912560113306362
LBP00_S01,LBP00,-1583,68,1,67,-1583,1715223088.68,2024-05-09 02:51:28.680000+00:00,2024-05-09 11:51:28.680000+09:00,2024,5,9,2,51,28,680,,,,,,,,,-0.462158,0.125,1.984619,-14.038086,-35.15625,3.173828,,,,,,,,,,,0.0,1.0,1.0,1.0,0.0,0.0,0.0,4.0,0.0,0.11949876000000001,0.21374346666666663,0.9810253999999999,-5.4785155466666655,-1.4095052133333337,3.8102213466666663,-22.747635844976728,-1.2034545006655852,8.30673001592108,5.327468670509769,4.268931457508666,7.935534348636646,10.467970367867986,1.054243735653058,10.052134754428447,1.0407303855410066,-0.58165676,-0.08874346666666663,1.0035935999999999,1.6739938266666665,1.1633572552275913,0.811736432277213,0.803259277262796,0.803259277262796
LBP00_S01,LBP00,-1582,69,1,68,-1582,1715223088.72,2024-05-09 02:51:28.720000+00:00,2024-05-09 11:51:28.720000+09:00,2024,5,9,2,51,28,720,,,,,,,,,0.429932,0.613281,1.762207,-49.621582,-13.244629,-10.375977,,,,,,,,,,,0.0,1.0,1.0,1.0,0.0,0.0,0.0,4.0,0.0,0.13299810666666667,0.21221025333333332,0.9956282666666666,-4.495442639999999,-2.585449226666667,4.07796224,-27.09529749275668,-0.6077040579825044,2.565114640524614,4.243656770799502,4.244623295189366,8.038138934257631,10.031805781256189,1.0049214795341712,9.867577828042913,1.0421845392242461,0.2969338933333333,0.40107074666666664,0.7665787333333335,1.4645833733333333,0.9146969089489626,0.8002264540748026,0.8067417032529888,0.8067417032529888
LBP00_S01,LBP00,-1581,70,1,69,-1581,1715223088.76,2024-05-09 02:51:28.760000+00:00,2024-05-09 11:51:28.760000+09:00,2024,5,9,2,51,28,760,,,,,,,,,-0.564941,-0.198975,0.089355,-6.408691,136.962891,-59.692383,,,,,,,,,,,0.0,1.0,1.0,1.0,0.0,0.0,0.0,4.0,0.0,0.13705734666666666,0.21827470666666665,1.0062076933333333,-3.3756509733333333,0.3051757733333329,3.7451171999999997,-29.54771541730618,0.9018510803766888,-2.937927587276578,3.0617481541072546,4.280697338404433,7.920621830766568,9.509727737859688,1.0038721419838177,9.649349465586036,1.0430284615393801,-0.7019983466666667,-0.41724970666666666,-0.9168526933333333,2.0361007466666665,1.2278101879805121,0.8241369573150326,0.819501354305338,0.819501354305338
LBP00_S01,LBP00,-1580,71,1,70,-1580,1715223088.8,2024-05-09 02:51:28.800000+00:00,2024-05-09 11:51:28.800000+09:00,2024,5,9,2,51,28,800,,,,,,,,,0.254883,-0.140381,0.235352,-175.78125,-91.064453,-12.390137,,,,,,,,,,,0.0,1.0,1.0,1.0,0.0,0.0,0.0,4.0,0.0,0.120752,0.22027014666666664,1.0119824266666666,-3.780110613333333,1.7423502533333328,3.0053711066666664,-29.880465254801614,3.208132516630331,-7.495513080514629,1.86652954391519,4.409022639069646,7.620801307545983,9.00000142995719,1.0625310315424967,9.416198648617994,1.039018037687074,0.13413100000000003,-0.36065114666666664,-0.7766304266666666,1.2714125733333332,0.8667267126248216,0.8303022818151988,0.8208903354323817,0.8208903354323817
LBP00_S01,LBP00,-1579,72,1,71,-1579,1715223088.84,2024-05-09 02:51:28.840000+00:00,2024-05-09 11:51:28.840000+09:00,2024,5,9,2,51,28,840,,,,,,,,,0.325195,-0.14209,0.746582,-7.629395,-101.806641,9.155273,,,,,,,,,,,0.0,1.0,1.0,1.0,0.0,0.0,0.0,4.0,0.0,0.12194341333333333,0.21903317333333333,1.01694988,-2.841796813333333,-0.17659506666666724,3.4659830933333327,-28.406294883853604,6.019319457094977,-10.780320228754086,0.7302777485610459,4.649795417353445,7.189588498395819,8.593258159135564,1.0561678480377128,9.188448843860426,1.0348557536286322,0.20325158666666668,-0.3611231733333333,-0.2703678800000001,0.8347426400000001,0.494792829714163,0.833040576567234,0.8115732638404325,0.8115732638404325
LBP00_S01,LBP00,-1578,73,1,72,-1578,1715223088.88,2024-05-09 02:51:28.880000+00:00,2024-05-09 11:51:28.880000+09:00,2024,5,9,2,51,28,880,,,,,,,,,0.689209,0.849609,1.12207,97.473145,42.907715,37.597656,,,,,,,,,,,0.0,1.0,1.0,1.0,0.0,0.0,0.0,4.0,0.0,0.13128912,0.22090817333333335,1.0013574266666665,-2.5927733733333334,1.5584309733333328,3.0078125199999994,-25.77746834948902,8.831106224974917,-12.792689709356244,-0.3008209854185149,5.003039666352442,6.677880910021569,8.349550443993653,1.0278503984865008,8.982821242443883,1.0305621242469731,0.5579198799999999,0.6287008266666666,0.1207125733333334,1.30733328,0.8491824581980716,0.8356875021381562,0.8126179636837002,0.8126179636837002
LBP00_S01,LBP00,-1577,74,1,73,-1577,1715223088.92,2024-05-09 02:51:28.920000+00:00,2024-05-09 11:51:28.920000+09:00,2024,5,9,2,51,28,920,,,,,,,,,-0.177002,0.358154,1.62915,-49.682617,89.782715,-29.968262,,,,,,,,,,,0.0,1.0,1.0,1.0,0.0,0.0,0.0,4.0,0.0,0.12223313333333333,0.21585609333333333,0.9702181066666666,-3.0428059199999993,1.3509114399999993,2.7807617333333328,-22.639325590457894,10.995072134094164,-13.71365628568254,-1.2063940090368306,5.4428425517162085,6.129334658594267,8.285448986316762,1.0485359834680967,8.807671900488447,1.0295050238044223,-0.2992351333333333,0.14229790666666664,0.6589318933333335,1.1004649333333334,0.737551082511974,0.8504788210692013,0.8105891290574373,0.8105891290574373
LBP00_S01,LBP00,-1576,75,1,74,-1576,1715223088.96,2024-05-09 02:51:28.960000+00:00,2024-05-09 11:51:28.960000+09:00,2024,5,9,2,51,28,960,,,,,,,,,-0.190186,-0.039307,2.166992,-4.821777,-34.179688,-8.666992,,,,,,,,,,,0.0,1.0,1.0,1.0,0.0,0.0,0.0,4.0,0.0,0.12867193333333332,0.21659828,0.9669401200000001,-3.222656173333333,-2.4438476800000006,3.7304687599999995,-19.303727363219263,11.903490231894795,-13.762162539987767,-1.9785431035656011,5.918982160992,5.578848156994757,8.37093360346457,1.0278364418341543,8.65992864495925,1.030791663918535,-0.31885793333333334,-0.25590528,1.20005188,1.7748150933333333,1.2677864207637723,0.8369626691915237,0.8226206367339198,0.8226206367339198
LBP00_S01,LBP00,-1575,76,1,75,-1575,1715223089.0,2024-05-09 02:51:29+00:00,2024-05-09 11:51:29+09:00,2024,5,9,2,51,29,0,2.0,51.0,29.0,40.54319,141.508194,18.372999,3.0,12.0,0.279297,0.619141,1.591797,32.348633,71.289062,-18.310547,-241.0,-49.0,399.0,2245.0,0.0,1014.400024,15.9,0.013874,-9.564723,4.035937,0.0,1.0,1.0,1.0,0.0,0.0,0.0,4.0,0.0,0.13549810666666665,0.21599932,0.97802736,-1.479492106666666,-2.3730468933333344,3.961588546666666,-15.60975215272313,11.199917620166998,-13.121218519880296,-2.6029331896745265,6.366978865798679,5.053999416199545,8.535607252350683,1.0040792496420683,8.5253998630209,1.0295263215792538,0.14379889333333337,0.40314168000000006,0.6137696399999999,1.1607102133333334,0.7482743526694225,0.8296673439475315,0.820714321757907,0.820714321757907
LBP00_S01,LBP00,-1574,77,1,76,-1574,1715223089.04,2024-05-09 02:51:29.040000+00:00,2024-05-09 11:51:29.040000+09:00,2024,5,9,2,51,29,40,,,,,,,,,-0.621338,-0.399658,-0.145752,-49.865723,59.387207,-30.029297,,,,,,,,,,,0.0,1.0,1.0,1.0,0.0,0.0,0.0,4.0,0.0,0.13491217333333333,0.22087562666666666,0.9787369866666668,-0.11800122666666596,-0.2042643333333342,3.3374023466666665,-11.042604937689973,8.895376227396312,-11.937096018300975,-3.0446373871821253,6.722793914894532,4.576515575467506,8.68390866223654,1.0155829322876548,8.383613125534575,1.0247139500062803,-0.7562501733333333,-0.6205336266666667,-1.1244889866666667,2.501272786666667,1.490453550978832,0.8636825974720118,0.8374578024884303,0.8374578024884303
LBP00_S01,LBP00,-1573,78,1,77,-1573,1715223089.08,2024-05-09 02:51:29.080000+00:00,2024-05-09 11:51:29.080000+09:00,2024,5,9,2,51,29,80,,,,,,,,,0.124512,0.466553,0.042969,31.677246,-74.768066,-10.620117,,,,,,,,,,,0.0,1.0,1.0,1.0,0.0,0.0,0.0,4.0,0.0,0.12521816000000002,0.21862301333333334,0.9824446666666667,0.051269613333334026,-0.4028320400000009,2.6928710933333333,-5.062204046973288,5.330596103333792,-10.355201943713086,-3.2471255490610567,6.936017759027884,4.162307497718983,8.716476948313632,1.0436727312275493,8.21636353524285,1.0191885426337526,-0.0007061600000000251,0.24792998666666666,-0.9394756666666667,1.1881118133333333,0.9716400080324281,0.8715909372614409,0.8407305392090156,0.8407305392090156
LBP00_S01,LBP00,-1572,79,1,78,-1572,1715223089.12,2024-05-09 02:51:29.120000+00:00,2024-05-09 11:51:29.120000+09:00,2024,5,9,2,51,29,120,,,,,,,,,0.692383,0.258545,0.79126,-129.333496,-113.464355,27.954102,,,,,,,,,,,0.0,1.0,1.0,1.0,0.0,0.0,0.0,4.0,0.0,0.13175135999999998,0.21661779999999997,0.9852832,-1.3631183999999992,-1.0034179733333342,3.134765626666666,2.496450075959603,1.0231401299809724,-8.55156991897496,-3.1472675460226727,6.976943364227123,3.820244700959984,8.554373225964207,1.0177878806752994,8.015967774917067,1.0159725376376958,0.56063164,0.04192720000000005,-0.19402320000000006,0.7965820400000001,0.5947358472525174,0.8614521992296045,0.8348735227338608,0.8348735227338608
LBP00_S01,LBP00,-1571,80,1,79,-1571,1715223089.16,2024-05-09 02:51:29.160000+00:00,2024-05-09 11:51:29.160000+09:00,2024,5,9,2,51,29,160,,,,,,,,,0.421143,-0.136719,1.402588,0.12207,84.533691,-61.096191,,,,,,,,,,,0.0,1.0,1.0,1.0,0.0,0.0,0.0,4.0,0.0,0.13281906666666668,0.20550126666666668,0.9694108,-0.2986652799999996,1.563313799999999,2.723795586666666,11.130697225052044,-3.490880763300998,-6.735773520488169,-2.702039657020591,6.837308133695083,3.550813760140457,8.164439918476203,0.9912187185910036,7.786736341028901,1.011182188526917,0.2883239333333333,-0.3422202666666667,0.43317719999999993,1.0637214,0.6228064611498895,0.8429740821393865,0.8299417306040009,0.8299417306040009
LBP00_S01,LBP00,-1570,81,1,80,-1570,1715223089.2,2024-05-09 02:51:29.200000+00:00,2024-05-09 11:51:29.200000+09:00,2024,5,9,2,51,29,200,,,,,,,,,-0.345703,0.449219,1.685059,53.894043,27.587891,-1.159668,,,,,,,,,,,0.0,1.0,1.0,1.0,0.0,0.0,0.0,4.0,0.0,0.1269336533333333,0.20702469333333334,0.9535677066666667,1.3590495600000003,-0.643717440000001,3.2885742266666664,19.6384258698503,-7.723602113866236,-5.118396288945559,-1.916502622226579,6.528364049140433,3.3460779085826347,7.582134055093945,1.0144073158127636,7.5371551811495205,1.0089575927845644,-0.47263665333333327,0.24219430666666664,0.7314912933333334,1.4463222533333333,0.903948560747985,0.871740551699279,0.8316237040163643,0.8316237040163643
LBP00_S01,LBP00,-1569,82,1,81,-1569,1715223089.24,2024-05-09 02:51:29.240000+00:00,2024-05-09 11:51:29.240000+09:00,2024,5,9,2,51,29,240,,,,,,,,,0.170166,0.227539,2.165283,47.180176,-50.354004,26.733398,,,,,,,,,,,0.0,1.0,1.0,1.0,0.0,0.0,0.0,4.0,0.0,0.12925136,0.20440750666666666,0.9549349066666667,0.8430990400000002,-0.5761718666666676,2.9239908933333325,26.394925136113663,-11.209946894147707,-3.846922109355601,-0.8607056167820326,6.079966173374524,3.1922010242084107,6.920762256218301,1.0009137743124354,7.271793147567719,1.0073991583388455,0.04091464,0.023131493333333336,1.2103480933333333,1.2743942266666666,1.2112603274217293,0.8638783935455235,0.8400600734253724,0.8400600734253724
LBP00_S01,LBP00,-1568,83,1,82,-1568,1715223089.28,2024-05-09 02:51:29.280000+00:00,2024-05-09 11:51:29.280000+09:00,2024,5,9,2,51,29,280,,,,,,,,,0.005859,-0.040039,0.797852,-0.732422,124.633789,-24.291992,,,,,,,,,,,0.0,1.0,1.0,1.0,0.0,0.0,0.0,4.0,0.0,0.13233078666666667,0.20689773333333333,0.9574642,0.7657878400000003,-1.4200846266666678,3.321940106666666,29.846826749820284,-13.481852027846855,-2.927366759812041,0.3331674532107787,5.54069209226065,3.075106353815929,6.345592840735824,0.9956903485259323,6.993427191275392,1.0037523171236336,-0.12647178666666667,-0.24693673333333332,-0.15961219999999998,0.53302072,0.3200764244377218,0.8384057722297296,0.8287560810560757,0.8287560810560757
LBP00_S01,LBP00,-1567,84,1,83,-1567,1715223089.32,2024-05-09 02:51:29.320000+00:00,2024-05-09 11:51:29.320000+09:00,2024,5,9,2,51,29,320,,,,,,,,,-0.088623,0.270508,-0.111084,142.76123,-76.721191,38.208008,,,,,,,,,,,0.0,1.0,1.0,1.0,0.0,0.0,0.0,4.0,0.0,0.12992193333333332,0.205345,0.9581608133333332,-0.8219400133333329,-0.8650716000000012,2.9874674533333327,29.03681428645786,-14.136094561446093,-2.167308346167183,1.4946400246690932,4.975248309802806,2.9884140199692415,5.993134647435116,1.0006324923603085,6.713149973502529,0.9965478169533727,-0.2185449333333333,0.06516300000000003,-1.0692448133333332,1.3529527466666664,1.0932943680888993,0.8506268740211265,0.8343845552482634,0.8343845552482634
LBP00_S01,LBP00,-1566,85,1,84,-1566,1715223089.36,2024-05-09 02:51:29.360000+00:00,2024-05-09 11:51:29.360000+09:00,2024,5,9,2,51,29,360,,,,,,,,,0.246094,0.119629,0.394287,-3.112793,-124.389648,-19.40918,,,,,,,,,,,0.0,1.0,1.0,1.0,0.0,0.0,0.0,4.0,0.0,0.12717778666666668,0.20319331999999998,0.9597265600000001,-0.027669186666666217,-1.3680012933333345,2.851562506666666,23.96400840955476,-13.001459394044259,-1.182510491500822,2.453200361051284,4.4551899340410355,2.9411136003092087,5.875122004670755,1.0055904844106285,6.458935025826923,0.9918553314284827,0.11891621333333333,-0.08356431999999998,-0.5654395600000002,0.7679200933333334,0.5838201412966112,0.8591166671227175,0.8291644632909373,0.8291644632909373
LBP00_S01,LBP00,-1565,86,1,85,-1565,1715223089.4,2024-05-09 02:51:29.400000+00:00,2024-05-09 11:51:29.400000+09:00,2024,5,9,2,51,29,400,,,,,,,,,0.80542,0.310791,1.062256,51.879883,-65.063477,28.137207,,,,,,,,,,,0.0,1.0,1.0,1.0,0.0,0.0,0.0,4.0,0.0,0.1319629333333333,0.20292313333333334,0.9614778666666666,-0.7194009599999996,-1.3639322800000009,2.447916666666666,15.647993962717267,-10.302534431862759,0.5085712105260516,3.0791201195599744,4.043088556766525,2.961456448730251,5.881986916532665,0.9884949051848805,6.274275216028228,0.9919336391725923,0.6734570666666667,0.10786786666666665,0.10077813333333352,0.8821030666666669,0.6894462484201651,0.8579930874954448,0.8263130711507174,0.8263130711507174
LBP00_S01,LBP00,-1564,87,1,86,-1564,1715223089.44,2024-05-09 02:51:29.440000+00:00,2024-05-09 11:51:29.440000+09:00,2024,5,9,2,51,29,440,,,,,,,,,0.27002,0.253906,1.487061,-58.959961,99.060059,-22.888184,,,,,,,,,,,0.0,1.0,1.0,1.0,0.0,0.0,0.0,4.0,0.0,0.13248377333333333,0.19945958666666666,0.9622298133333334,-1.1051431466666664,-0.5818684666666676,2.2599283733333326,5.870188232007235,-6.6777845399377185,3.313521493421334,3.313927648840264,3.7759771751690168,3.093997308467104,5.900249099313268,0.9791145201355356,6.204202773887203,0.9897920428864335,0.13753622666666665,0.05444641333333336,0.5248311866666666,0.7168138266666666,0.5452782776422607,0.8388756925428155,0.8206923752805483,0.8206923752805483
LBP00_S01,LBP00,-1563,88,1,87,-1563,1715223089.48,2024-05-09 02:51:29.480000+00:00,2024-05-09 11:51:29.480000+09:00,2024,5,9,2,51,29,480,,,,,,,,,-0.277344,0.658447,1.68335,13.916016,5.004883,-1.403809,,,,,,,,,,,0.0,1.0,1.0,1.0,0.0,0.0,0.0,4.0,0.0,0.13347010666666667,0.19763016,0.9619042933333333,-0.8430988799999997,-0.5655924266666676,2.24039712,-3.3187251863026948,-2.990565990124057,7.36679407336982,3.181178641388156,3.6563545355640543,3.388669071401897,5.913704770585003,0.9716277295249391,6.276004665795824,0.9866470890963918,-0.4108141066666666,0.46081684,0.7214457066666666,1.5930766533333331,0.9495284608328931,0.8665298166997942,0.8189260695248606,0.8232185730364766
LBP00_S01,LBP00,-1562,89,1,88,-1562,1715223089.52,2024-05-09 02:51:29.520000+00:00,2024-05-09 11:51:29.520000+09:00,2024,5,9,2,51,29,520,,,,,,,,,0.103271,0.400391,2.0625,-46.75293,-14.160156,-3.051758,,,,,,,,,,,0.0,1.0,1.0,1.0,0.0,0.0,0.0,4.0,0.0,0.13396814666666668,0.19804682666666665,0.9615397066666668,-0.18229158666666626,0.13020835999999916,1.954752586666666,-10.158520084485623,-0.018472294640241485,12.377247179161156,2.774837838008731,3.655615643778445,3.883758958568343,6.012223749208152,0.9708630254263997,6.486670329173731,0.9838418090840768,-0.030697146666666675,0.20234417333333335,1.1009602933333333,1.3340016133333334,1.119820988726343,0.8569710024333709,0.8303012126858195,0.8289224656458972
LBP00_S01,LBP00,-1561,90,1,89,-1561,1715223089.56,2024-05-09 02:51:29.560000+00:00,2024-05-09 11:51:29.560000+09:00,2024,5,9,2,51,29,560,,,,,,,,,0.076172,0.167969,1.006592,-30.456543,137.145996,-24.658203,,,,,,,,,,,0.0,1.0,1.0,1.0,0.0,0.0,0.0,4.0,0.0,0.13183272,0.20436844,0.9570507866666667,0.9798177866666671,0.3491211199999994,2.137044253333333,-13.629656510962496,1.806901074617119,17.597467202743047,2.2296515775702312,3.7278916867631295,4.587657646678065,6.317841820489241,0.9920017960320993,6.8045807629921296,0.9813221222553852,-0.05566071999999998,-0.036399440000000005,0.04954121333333328,0.14160137333333328,0.08292989088242451,0.8329522968549439,0.8216834807767789,0.8148471340465864
LBP00_S01,LBP00,-1560,91,1,90,-1560,1715223089.6,2024-05-09 02:51:29.600000+00:00,2024-05-09 11:51:29.600000+09:00,2024,5,9,2,51,29,600,,,,,,,,,-0.112549,0.405029,-0.170166,-33.508301,-75.134277,50.720215,,,,,,,,,,,0.0,1.0,1.0,1.0,0.0,0.0,0.0,4.0,0.0,0.12881188,0.20002273333333334,0.9561849066666668,0.921224026666667,-0.17822262666666716,1.654459626666666,-13.666507404030567,2.473769459883414,21.957323097759282,1.6829912814090084,3.826842465158466,5.465950570588436,6.881409633683706,0.992991352951175,7.18469382598038,0.9780260755874768,-0.24136088,0.20500626666666663,-1.1263509066666668,1.5727180533333334,1.170020943708189,0.8498097380873283,0.8299207137003256,0.8214244268180976
LBP00_S01,LBP00,-1559,92,1,91,-1559,1715223089.64,2024-05-09 02:51:29.640000+00:00,2024-05-09 11:51:29.640000+09:00,2024,5,9,2,51,29,640,,,,,,,,,0.047607,-0.336426,0.290771,-21.911621,-70.43457,28.320312,,,,,,,,,,,0.0,1.0,1.0,1.0,0.0,0.0,0.0,4.0,0.0,0.13484052000000002,0.19877598666666665,0.9545800933333334,2.51953132,-0.20182289333333378,1.7952473866666658,-11.085448560861634,2.26049791290102,24.343260410829835,1.2395733389745431,3.9172623816745067,6.43968098702163,7.638781175304513,0.9694642364120178,7.585439586888671,0.9780352571188713,-0.08723352000000002,-0.5352019866666666,-0.6638090933333334,1.2862446,0.8571425587004529,0.8590552506783453,0.8211429225652448,0.8220738473977768
LBP00_S01,LBP00,-1558,93,1,92,-1558,1715223089.68,2024-05-09 02:51:29.680000+00:00,2024-05-09 11:51:29.680000+09:00,2024,5,9,2,51,29,680,,,,,,,,,0.875244,0.328613,0.930176,64.147949,-74.768066,86.669922,,,,,,,,,,,0.0,1.0,1.0,1.0,0.0,0.0,0.0,4.0,0.0,0.13068688,0.1917447333333333,0.9526920799999999,1.7024740266666671,0.5932617333333327,1.2410481733333327,-7.2677300383919965,1.5103946211358112,23.937445717414505,0.9488641374388633,3.977678166519939,7.39717881571821,8.452249474514893,0.9676375484027848,7.9750686323446445,0.9821556669846052,0.7445571200000001,0.13686826666666668,-0.02251607999999994,0.9039414666666667,0.7573672829094208,0.8428156517856185,0.8272760420314158,0.8209183730319133
LBP00_S01,LBP00,-1557,94,1,93,-1557,1715223089.72,2024-05-09 02:51:29.720000+00:00,2024-05-09 11:51:29.720000+09:00,2024,5,9,2,51,29,720,,,,,,,,,0.349854,0.445312,1.32373,6.164551,90.026855,13.977051,,,,,,,,,,,0.0,1.0,1.0,1.0,0.0,0.0,0.0,4.0,0.0,0.13105472,0.19565424,0.95791344,2.3974610000000007,0.568847666666666,1.6577148399999992,-3.713730905464006,0.47167029859745135,20.492492136783923,0.800314901220303,3.996544978463837,8.216878501189566,9.172238985619108,0.9754356240733911,8.328304471340324,0.9837368880558328,0.21879927999999998,0.24965775999999998,0.36581656000000007,0.8342736000000001,0.49398773023929415,0.8259872846372318,0.8131068693560173,0.815182747719762
LBP00_S01,LBP00,-1556,95,1,94,-1556,1715223089.76,2024-05-09 02:51:29.760000+00:00,2024-05-09 11:51:29.760000+09:00,2024,5,9,2,51,29,760,,,,,,,,,-0.418213,0.313232,1.680664,-18.676758,11.474609,2.868652,,,,,,,,,,,0.0,1.0,1.0,1.0,0.0,0.0,0.0,4.0,0.0,0.12686851999999998,0.18807937333333333,0.9598795866666667,2.985839906666667,1.3924153733333324,1.389973946666666,-1.619715494929006,-0.7039248816338677,14.43703056560908,0.7355262814231428,3.9683879831984825,8.79435972381393,9.67625263455326,0.9726300177315443,8.621428879148954,0.9850408432304757,-0.54508152,0.12515262666666668,0.7207844133333332,1.39101856,0.9123087273019774,0.8133672262100905,0.8187520917625615,0.8168573335746278
LBP00_S01,LBP00,-1555,96,1,95,-1555,1715223089.8,2024-05-09 02:51:29.800000+00:00,2024-05-09 11:51:29.800000+09:00,2024,5,9,2,51,29,800,,,,,,,,,0.375732,0.821289,1.532227,4.394531,15.075684,3.601074,,,,,,,,,,,0.0,1.0,1.0,1.0,0.0,0.0,0.0,4.0,0.0,0.12551109333333335,0.19282221333333333,0.9588607066666667,4.973144586666667,1.8611653733333324,1.532389306666666,-1.5993162518228088,-1.8500420127418413,6.7793256954041805,0.6715536313502305,3.894386302688809,9.065532751630096,9.889444525615573,0.9885867204988256,8.832536562326192,0.9838250699870204,0.25022090666666663,0.6284667866666667,0.5733662933333333,1.4520539866666666,0.8867524515934648,0.8141682557688361,0.8222352687920175,0.8180419965918961
LBP00_S01,LBP00,-1554,97,1,96,-1554,1715223089.84,2024-05-09 02:51:29.840000+00:00,2024-05-09 11:51:29.840000+09:00,2024,5,9,2,51,29,840,,,,,,,,,-0.706543,-0.249756,-0.111572,6.835938,118.591309,-36.865234,,,,,,,,,,,0.0,1.0,1.0,1.0,0.0,0.0,0.0,4.0,0.0,0.12137046666666668,0.20046218666666665,0.9519889599999999,4.1569010933333335,1.2467447999999994,2.2135416533333325,-3.600196080867083,-2.7010941037482343,-1.1423475782789347,0.5275457881155472,3.7863425385388796,9.019838848498939,9.796539553872998,1.0203186187928734,8.948137895550145,0.9819559342862048,-0.8279134666666668,-0.4502181866666667,-1.0635609599999998,2.341692613333333,1.4210204219255826,0.8512173594572928,0.8421289680122633,0.8280916370141242
LBP00_S01,LBP00,-1553,98,1,97,-1553,1715223089.88,2024-05-09 02:51:29.880000+00:00,2024-05-09 11:51:29.880000+09:00,2024,5,9,2,51,29,880,,,,,,,,,0.192627,0.293701,0.208984,1.220703,-104.125977,11.230469,,,,,,,,,,,0.0,1.0,1.0,1.0,0.0,0.0,0.0,4.0,0.0,0.12468752,0.19104486666666667,0.9559668266666665,4.192708373333334,0.5957031333333327,2.2558593599999996,-6.999927696946969,-2.9445223342374964,-7.969414874733403,0.2475486802376684,3.6685616451693797,8.701062253509603,9.446063160541797,0.9874399402372174,8.969296151181254,0.9816313840078349,0.06793948,0.10265613333333332,-0.7469828266666665,0.9175784399999998,0.7570583847950861,0.8475323965211734,0.8416099493296647,0.8269271574695499
LBP00_S01,LBP00,-1552,99,1,98,-1552,1715223089.92,2024-05-09 02:51:29.920000+00:00,2024-05-09 11:51:29.920000+09:00,2024,5,9,2,51,29,920,,,,,,,,,0.388672,0.193848,0.753418,-41.320801,-152.282715,4.455566,,,,,,,,,,,0.0,1.0,1.0,1.0,0.0,0.0,0.0,4.0,0.0,0.1263216266666667,0.19206700000000002,0.9553939066666667,6.497395866666667,0.725097666666666,2.774251279999999,-10.82894851540709,-2.398492416638674,-12.60654390395351,-0.1856092603786152,3.5726219485038326,8.196800497351463,8.943467827294445,0.983902577172829,8.91083237439057,0.9843483145343341,0.26235037333333333,0.001780999999999977,-0.20197590666666665,0.46610727999999996,0.331096900050365,0.8312742292227091,0.8408765251459552,0.8189298952531116
LBP00_S01,LBP00,-1551,100,1,99,-1551,1715223089.96,2024-05-09 02:51:29.960000+00:00,2024-05-09 11:51:29.960000+09:00,2024,5,9,2,51,29,960,,,,,,,,,0.655029,0.29248,1.252686,-19.53125,37.963867,-27.46582,,,,,,,,,,,0.0,1.0,1.0,1.0,0.0,0.0,0.0,4.0,0.0,0.12688804,0.19121087999999997,0.95111332,7.745768253333334,1.427408866666666,3.1160481599999996,-14.05208088615769,-1.1809522000731354,-14.42838825070917,-0.7476924958249227,3.525383860500907,7.619664967323096,8.428918652261633,0.9798440635975445,8.796060663030662,0.9866721799338339,0.52814096,0.10126912000000005,0.3015726799999999,0.9309827599999999,0.6165503950348895,0.8052247881935537,0.8210937286925387,0.8157175222337746
LBP00_S01,LBP00,-1550,101,1,100,-1550,1715223090.0,2024-05-09 02:51:30+00:00,2024-05-09 11:51:30+09:00,2024,5,9,2,51,30,0,2.0,51.0,30.0,40.543236,141.508255,19.301001,3.0,12.0,-0.010986,0.34375,1.580322,-3.479004,83.435059,-35.15625,-240.0,-48.0,400.0,2230.0,0.0,1013.5,15.97,0.004955,-2.079991,4.035937,0.0,1.0,1.0,1.0,0.0,0.0,0.0,4.0,0.0,0.12929689333333333,0.19249017333333335,0.9559766,8.250325546666666,1.2109375199999994,3.2397460799999993,-15.83417431919824,0.2820153467325943,-13.388463791513699,-1.3810594685928523,3.5366644743702107,7.084126415662547,8.03742296592323,0.9742999959430195,8.651939711655933,0.9844045371970704,-0.14028289333333333,0.15125982666666665,0.6243454,0.91588812,0.6575454386020494,0.8015956316308588,0.8156314877891951,0.8132460834270289
LBP00_S01,LBP00,-1549,102,1,101,-1549,1715223090.04,2024-05-09 02:51:30.040000+00:00,2024-05-09 11:51:30.040000+09:00,2024,5,9,2,51,30,40,,,,,,,,,0.151611,0.321289,1.971924,-30.456543,-24.047852,-7.202148,,,,,,,,,,,0.0,1.0,1.0,1.0,0.0,0.0,0.0,4.0,0.0,0.12263348,0.17911777333333334,0.9581087599999999,7.185058613333334,3.0403645999999998,1.6707356666666662,-15.726300367954229,1.4418623936250947,-10.017123588592895,-2.0101114833110216,3.5943389701152144,6.683441472118831,7.850363731615604,0.96621873362832,8.505295410047678,0.9784940963639851,0.028977519999999993,0.14217122666666665,1.01381524,1.1849639866666666,1.0241453486754273,0.7829433035387227,0.8233129505053672,0.8164906875077734
LBP00_S01,LBP00,-1548,103,1,102,-1548,1715223090.08,2024-05-09 02:51:30.080000+00:00,2024-05-09 11:51:30.080000+09:00,2024,5,9,2,51,30,80,,,,,,,,,0.146973,0.077148,1.123291,-43.395996,105.712891,-38.330078,,,,,,,,,,,0.0,1.0,1.0,1.0,0.0,0.0,0.0,4.0,0.0,0.12073244,0.18798495999999998,0.9515560266666667,7.405598973333334,3.0558268399999995,1.874999986666666,-13.73649417601678,1.8858262603884386,-5.297822040471514,-2.5595712503516928,3.669772020530752,6.471528590499971,7.867611706608036,0.9948068536677773,8.37875373608447,0.9698827842690074,0.026240559999999996,-0.11083695999999998,0.17173497333333332,0.30881249333333327,0.2060735299764526,0.7523206444164836,0.8119557908389623,0.8072419426966929
LBP00_S01,LBP00,-1547,104,1,103,-1547,1715223090.12,2024-05-09 02:51:30.120000+00:00,2024-05-09 11:51:30.120000+09:00,2024,5,9,2,51,30,120,,,,,,,,,-0.415039,0.39209,-0.419189,64.27002,3.845215,34.667969,,,,,,,,,,,0.0,1.0,1.0,1.0,0.0,0.0,0.0,4.0,0.0,0.11745769333333334,0.18442050666666668,0.9446354533333334,4.818522146666667,1.9759114799999997,2.2574869599999996,-10.28028964463717,1.4948786174703312,-0.4312165894222817,-2.9707828361371797,3.729567165229565,6.454279926923079,8.024521872020037,0.998674278068389,8.286197597951105,0.9631525783213284,-0.5324966933333333,0.20766949333333332,-1.3638244533333335,2.10399064,1.478748283644726,0.787681141872172,0.8245666705508883,0.8172644253974098
LBP00_S01,LBP00,-1546,105,1,104,-1546,1715223090.16,2024-05-09 02:51:30.160000+00:00,2024-05-09 11:51:30.160000+09:00,2024,5,9,2,51,30,160,,,,,,,,,0.11792,-0.126953,0.093262,-95.092773,-91.003418,15.258789,,,,,,,,,,,0.0,1.0,1.0,1.0,0.0,0.0,0.0,4.0,0.0,0.12333008,0.17387364,0.94239912,6.103515626666667,1.5584310133333328,2.545572893333333,-6.0321246837588,0.41414764053919473,3.4630599856718676,-3.2120678234875317,3.746133070851133,6.592802326349954,8.235043120805976,0.9499535903639097,8.228972345705154,0.9615144866851295,-0.005410079999999998,-0.30082664000000003,-0.8491371200000001,1.1553738400000002,0.9008661303774221,0.7988035286412734,0.82088880539033,0.8184938622353511
LBP00_S01,LBP00,-1545,106,1,105,-1545,1715223090.2,2024-05-09 02:51:30.200000+00:00,2024-05-09 11:51:30.200000+09:00,2024,5,9,2,51,30,200,,,,,,,,,0.586914,0.012695,0.819824,51.330566,-125.061035,44.799805,,,,,,,,,,,0.0,1.0,1.0,1.0,0.0,0.0,0.0,4.0,0.0,0.12932291999999998,0.17454421333333334,0.9368001599999999,7.985026039999999,2.86458336,2.2493489333333327,-1.7168497324991316,-1.106114698134355,5.620014240989584,-3.2807418127874968,3.701888482925759,6.817602895989538,8.423001509533018,0.9294823121679703,8.194605531148875,0.9623995501091589,0.45759108000000004,-0.16184921333333332,-0.11697615999999988,0.7364164533333333,0.49926765002404355,0.7826162922123158,0.8271784219557972,0.8138673953917089
LBP00_S01,LBP00,-1544,107,1,106,-1544,1715223090.24,2024-05-09 02:51:30.240000+00:00,2024-05-09 11:51:30.240000+09:00,2024,5,9,2,51,30,240,,,,,,,,,0.584961,0.417969,1.114746,-7.69043,76.23291,0.610352,,,,,,,,,,,0.0,1.0,1.0,1.0,0.0,0.0,0.0,4.0,0.0,0.12573242666666667,0.17136388,0.9371256800000002,9.094238279999999,3.341471386666666,2.798665346666666,2.109346354140892,-2.846674042063774,5.7866812229963385,-3.196367958621861,3.5880215212432076,7.0490701449093915,8.531122814240915,0.9342054978430981,8.159889421577454,0.9621681919664977,0.4592285733333333,0.24660511999999998,0.17762031999999983,0.8834540133333331,0.5506849787790524,0.7561932782666085,0.8100358359060661,0.8101076465829568
LBP00_S01,LBP00,-1543,108,1,107,-1543,1715223090.28,2024-05-09 02:51:30.280000+00:00,2024-05-09 11:51:30.280000+09:00,2024,5,9,2,51,30,280,,,,,,,,,-0.263672,0.249023,1.660156,33.569336,61.462402,-12.939453,,,,,,,,,,,0.0,1.0,1.0,1.0,0.0,0.0,0.0,4.0,0.0,0.1371582,0.18154291999999997,0.9540560266666666,9.6142578,2.625325546666666,3.6254882666666663,5.233355411299493,-4.616517272777764,4.213186265842399,-2.9870337421698814,3.403360830332097,7.217597595543087,8.520501779208168,0.9201378807604257,8.099615479856615,0.9577909689458227,-0.4008302,0.06748008000000003,0.7060999733333334,1.1744102533333334,0.8147365112539026,0.7759796817392558,0.8071927269844926,0.8101728418600124
LBP00_S01,LBP00,-1542,109,1,108,-1542,1715223090.32,2024-05-09 02:51:30.320000+00:00,2024-05-09 11:51:30.320000+09:00,2024,5,9,2,51,30,320,,,,,,,,,0.130127,0.18335,1.923584,15.136719,-4.150391,-15.808105,,,,,,,,,,,0.0,1.0,1.0,1.0,0.0,0.0,0.0,4.0,0.0,0.12564778666666668,0.18417638666666666,0.94728844,11.533203106666667,5.345052106666666,3.6564127466666667,7.858445854425224,-6.140085521939025,1.498426059783593,-2.6726959079928725,3.157757409454536,7.277534637934431,8.371215304834914,0.9675216608108409,7.999887046158207,0.9496875144518748,0.004479213333333315,-0.0008263866666666508,0.97629556,0.9816011599999999,0.9763061849351984,0.7713001544131077,0.8109635142171172,0.8124802494027232
LBP00_S01,LBP00,-1541,110,1,109,-1541,1715223090.36,2024-05-09 02:51:30.360000+00:00,2024-05-09 11:51:30.360000+09:00,2024,5,9,2,51,30,360,,,,,,,,,0.094971,0.263184,0.757324,12.023926,112.792969,-36.315918,,,,,,,,,,,0.0,1.0,1.0,1.0,0.0,0.0,0.0,4.0,0.0,0.12366212,0.1900618,0.93751956,10.435384106666667,5.651041693333332,4.300130199999999,10.536317098673184,-6.98647755731262,-1.6286002719532835,-2.251243224045945,2.8782983071620314,7.212390627056299,8.08525050669886,0.988694697837838,7.8710747845444216,0.9419704613409063,-0.02869112,0.07312219999999997,-0.18019556000000003,0.28200888,0.19657180963558332,0.7558102211466666,0.8074634441346921,0.8040431474881049
LBP00_S01,LBP00,-1540,111,1,110,-1540,1715223090.4,2024-05-09 02:51:30.400000+00:00,2024-05-09 11:51:30.400000+09:00,2024,5,9,2,51,30,400,,,,,,,,,-0.190918,0.227051,-0.097168,37.414551,-76.904297,9.94873,,,,,,,,,,,0.0,1.0,1.0,1.0,0.0,0.0,0.0,4.0,0.0,0.11848633333333332,0.17526037333333333,0.9338509466666667,7.973632800000001,3.514811226666666,4.8160807199999995,13.959038029095005,-6.677432540384867,-4.497528330230239,-1.6928817028821448,2.611201005546637,7.032489493847089,7.690261870209012,0.9719864145164087,7.751710857537864,0.9383237112945538,-0.30940433333333334,0.05179062666666667,-1.0310189466666666,1.3922139066666666,1.0776889063554533,0.7713399274640781,0.8146665074797614,0.8077410631484745
LBP00_S01,LBP00,-1539,112,1,111,-1539,1715223090.44,2024-05-09 02:51:30.440000+00:00,2024-05-09 11:51:30.440000+09:00,2024,5,9,2,51,30,440,,,,,,,,,0.131348,-0.02417,0.206299,-51.696777,-112.487793,10.620117,,,,,,,,,,,0.0,1.0,1.0,1.0,0.0,0.0,0.0,4.0,0.0,0.12992838666666667,0.17275712000000001,0.9292643599999999,8.701985666666667,2.4731445599999997,5.863443999999999,18.665798171653954,-4.966410271286815,-6.600280501397061,-0.9462497760159866,2.4125445946951642,6.768478273791207,7.247624314407222,0.9224465034215702,7.696214342235583,0.9396879481527998,0.0014196133333333194,-0.19692712,-0.7229653599999999,0.9213120933333332,0.7493071584159864,0.7795010826950272,0.8091883876189212,0.8069619444187079
LBP00_S01,LBP00,-1538,113,1,112,-1538,1715223090.48,2024-05-09 02:51:30.480000+00:00,2024-05-09 11:51:30.480000+09:00,2024,5,9,2,51,30,480,,,,,,,,,0.774902,0.262451,0.809326,40.527344,-127.807617,39.123535,,,,,,,,,,,0.0,1.0,1.0,1.0,0.0,0.0,0.0,4.0,0.0,0.13493165333333332,0.17621741333333332,0.9226107199999999,9.50358072,3.8728841466666664,5.871582013333333,24.76378803975378,-2.116270789838047,-7.617661329639171,0.044301745574164664,2.3278937631016423,6.46377182060564,6.870327369623953,0.913772308728297,7.754498379510302,0.9423442923282792,0.6399703466666666,0.08623358666666667,-0.1132847199999999,0.8394886533333332,0.6556155152736467,0.7677445648726574,0.8171371907862259,0.8018655679741262
LBP00_S01,LBP00,-1537,114,1,113,-1537,1715223090.52,2024-05-09 02:51:30.520000+00:00,2024-05-09 11:51:30.520000+09:00,2024,5,9,2,51,30,520,,,,,,,,,0.375244,0.125977,1.158691,-33.203125,86.547852,-28.564453,,,,,,,,,,,0.0,1.0,1.0,1.0,0.0,0.0,0.0,4.0,0.0,0.13120769333333332,0.17414058666666668,0.9255729600000001,9.875488266666666,3.212076866666666,6.467285146666666,31.77544893168295,1.0534468142011755,-7.419153509587844,1.3153197028414825,2.3700316356696893,6.167005680222126,6.73639925588219,0.9215037469587051,7.959492532704743,0.9455106799971892,0.2440363066666667,-0.048163586666666675,0.2331180399999998,0.5253179333333332,0.34090683569788743,0.7365879987515191,0.7967795005924451,0.7990634747077194
LBP00_S01,LBP00,-1536,115,1,114,-1536,1715223090.56,2024-05-09 02:51:30.560000+00:00,2024-05-09 11:51:30.560000+09:00,2024,5,9,2,51,30,560,,,,,,,,,-0.229248,0.092529,1.58374,84.289551,66.101074,-44.799805,,,,,,,,,,,0.0,1.0,1.0,1.0,0.0,0.0,0.0,4.0,0.0,0.14213217333333333,0.18558914666666668,0.9440006933333335,10.055338533333334,3.7825521333333327,6.600748693333332,38.68982005051281,3.45892439044698,-6.076596364717148,2.8629125048619946,2.5083886112875686,5.92394182563344,7.041403850740391,0.9134860899003845,8.325119050010267,0.9395777938467804,-0.37138017333333334,-0.09306014666666668,0.6397393066666665,1.1041796266666664,0.7455533545877621,0.7630929372997326,0.7980226170773383,0.8021532996177635
LBP00_S01,LBP00,-1535,116,1,115,-1535,1715223090.6,2024-05-09 02:51:30.600000+00:00,2024-05-09 11:51:30.600000+09:00,2024,5,9,2,51,30,600,,,,,,,,,0.190918,0.0979,1.807617,27.282715,37.963867,-5.615234,,,,,,,,,,,0.0,1.0,1.0,1.0,0.0,0.0,0.0,4.0,0.0,0.1329362,0.18490879999999998,0.9350781600000001,8.9111328,5.260416706666667,7.016601559999999,44.218793541311975,4.264254169482059,-3.88329358608475,4.6316642465144735,2.678958778066851,5.76861008219005,7.8680363565102205,0.9431246807504309,8.84897811174512,0.9332282249092383,0.0579818,-0.08700879999999998,0.8725388399999999,1.01752944,0.8787812285871982,0.7514433486948932,0.8006265433911106,0.803761592031848
LBP00_S01,LBP00,-1534,117,1,116,-1534,1715223090.64,2024-05-09 02:51:30.640000+00:00,2024-05-09 11:51:30.640000+09:00,2024,5,9,2,51,30,640,,,,,,,,,0.074707,0.115479,0.836914,118.469238,139.526367,-4.882812,,,,,,,,,,,0.0,1.0,1.0,1.0,0.0,0.0,0.0,4.0,0.0,0.12563475999999998,0.18150059999999998,0.9265560266666665,9.323730453333333,5.933431026666666,7.1158854133333325,47.17244974286399,3.325842131385036,-1.3311868733912828,6.518562236229033,2.8119924633222526,5.715362607254399,9.113963186988096,0.9607689395978913,9.516199580427042,0.9296587540529672,-0.05092775999999999,-0.06602159999999999,-0.08964202666666643,0.2065913866666664,0.12242622819512547,0.72205469547468,0.7905549730765125,0.7881135135350564
LBP00_S01,LBP00,-1533,118,1,117,-1533,1715223090.68,2024-05-09 02:51:30.680000+00:00,2024-05-09 11:51:30.680000+09:00,2024,5,9,2,51,30,680,,,,,,,,,-0.363525,-0.12085,-0.118896,67.260742,-36.132812,-2.258301,,,,,,,,,,,0.0,1.0,1.0,1.0,0.0,0.0,0.0,4.0,0.0,0.12797525333333334,0.18134761333333332,0.9212500400000001,9.108886706666665,3.48551436,8.811035146666665,46.81520312318085,1.3002800171779043,0.9909126137807139,8.391170361156266,2.8640036640093687,5.754999111805627,10.570443311152566,0.9518017574495269,10.302942738134899,0.929444037656415,-0.49150025333333336,-0.30219761333333334,-1.0401460400000002,1.833843906666667,1.1894535220254618,0.7393381450393217,0.7910768984124701,0.7979634097007178
LBP00_S01,LBP00,-1532,119,1,118,-1532,1715223090.72,2024-05-09 02:51:30.720000+00:00,2024-05-09 11:51:30.720000+09:00,2024,5,9,2,51,30,720,,,,,,,,,0.032471,0.082031,-0.072021,2.075195,-85.998535,21.728516,,,,,,,,,,,0.0,1.0,1.0,1.0,0.0,0.0,0.0,4.0,0.0,0.13879230666666664,0.17919591999999998,0.9175065466666669,8.187662746666666,3.822428413333333,8.79964192,43.0763046605098,-0.6634521460719046,2.5652361080960326,10.11422254757666,2.8374655781664924,5.857608556129468,12.027480477890162,0.9081927993067519,11.177880527308192,0.9326647134395157,-0.10632130666666664,-0.09716491999999997,-0.9895275466666669,1.1930137733333335,0.9999550027586573,0.7595768359400961,0.7927820602886639,0.7952635248840435
LBP00_S01,LBP00,-1531,120,1,119,-1531,1715223090.76,2024-05-09 02:51:30.760000+00:00,2024-05-09 11:51:30.760000+09:00,2024,5,9,2,51,30,760,,,,,,,,,0.496094,0.099609,0.667236,23.31543,-162.780762,45.10498,,,,,,,,,,,0.0,1.0,1.0,1.0,0.0,0.0,0.0,4.0,0.0,0.13516926666666665,0.18096024,0.9126400133333334,7.797037746666667,5.105794306666666,8.496907546666666,36.56055163900925,-1.4832690073156531,3.117485525986089,11.576644613137029,2.778134817873866,5.982307977168912,13.32384112404739,0.9251990084624176,12.10110862360768,0.9365985516922949,0.3609247333333333,-0.08135123999999999,-0.2454040133333334,0.6876799866666667,0.443968261412212,0.7408432173045054,0.7771052217572979,0.7927824669432095
LBP00_S01,LBP00,-1530,121,1,120,-1530,1715223090.8,2024-05-09 02:51:30.800000+00:00,2024-05-09 11:51:30.800000+09:00,2024,5,9,2,51,30,800,,,,,,,,,0.629395,0.252441,1.02124,1.403809,26.977539,1.77002,,,,,,,,,,,0.0,1.0,1.0,1.0,0.0,0.0,0.0,4.0,0.0,0.13820964,0.18955398666666665,0.9301009466666667,8.141276026666668,3.154296906666666,9.090169266666667,28.393430423791163,-0.6397481655751623,2.7158572025536527,12.712381830088676,2.7525448912508597,6.090942265271058,14.362476557028222,0.9362917059536956,13.025481789210266,0.9386448669534142,0.49118536,0.06288701333333338,0.09113905333333328,0.6452114266666666,0.5035118284279055,0.725513592377883,0.7698409240733597,0.789994709987306
LBP00_S01,LBP00,-1529,122,1,121,-1529,1715223090.84,2024-05-09 02:51:30.840000+00:00,2024-05-09 11:51:30.840000+09:00,2024,5,9,2,51,30,840,,,,,,,,,-0.027832,0.179688,1.488525,75.012207,69.946289,-25.146484,,,,,,,,,,,0.0,1.0,1.0,1.0,0.0,0.0,0.0,4.0,0.0,0.14129232,0.18718418666666667,0.9487370133333334,6.150716133333333,5.918782573333333,8.277994786666666,19.980655358210168,1.6599886799077244,1.7453442167292341,13.511608044417082,2.8189444384471685,6.160756033940227,15.115055891485799,0.9202993394560487,13.908038836534194,0.933442688676128,-0.16912432,-0.007496186666666682,0.5397879866666667,0.7164084933333335,0.565712205082812,0.6913012637041723,0.7712593115807326,0.791853066576233
LBP00_S01,LBP00,-1528,123,1,122,-1528,1715223090.88,2024-05-09 02:51:30.880000+00:00,2024-05-09 11:51:30.880000+09:00,2024,5,9,2,51,30,880,,,,,,,,,0.05957,0.362793,1.734131,31.188965,23.498535,-1.77002,,,,,,,,,,,0.0,1.0,1.0,1.0,0.0,0.0,0.0,4.0,0.0,0.13597981333333334,0.19038730666666667,0.94109704,5.782877586666666,7.002766946666665,8.958333333333332,12.745872074155427,4.699218921138506,0.7648267397144537,14.0214429273833,3.0069131952927086,6.191349103528805,15.61970526135687,0.9459790665593056,14.725861479889085,0.9269002753478309,-0.07640981333333334,0.1724056933333333,0.79303396,1.0418494666666667,0.8151472531884432,0.6936248184399066,0.77057860748054,0.792281572366412
LBP00_S01,LBP00,-1527,124,1,123,-1527,1715223090.92,2024-05-09 02:51:30.920000+00:00,2024-05-09 11:51:30.920000+09:00,2024,5,9,2,51,30,920,,,,,,,,,0.312012,0.236816,1.21582,-32.226562,102.600098,-22.460938,,,,,,,,,,,0.0,1.0,1.0,1.0,0.0,0.0,0.0,4.0,0.0,0.12783202666666668,0.18473952,0.9338704800000002,2.78889972,6.66341148,8.965657546666666,7.8732669015539765,7.666189553614244,0.3119179208846965,14.336373603445459,3.3135607774372784,6.203825820364193,15.968680218877072,0.960842129486495,15.482227080740255,0.9215895144167329,0.18417997333333333,0.05207648000000001,0.28194951999999973,0.5182059733333331,0.3407781597674476,0.6940120688285899,0.7626431490256497,0.7919217063735001
LBP00_S01,LBP00,-1526,125,1,124,-1526,1715223090.96,2024-05-09 02:51:30.960000+00:00,2024-05-09 11:51:30.960000+09:00,2024,5,9,2,51,30,960,,,,,,,,,-0.567627,-0.27417,-0.389648,1.342773,47.363281,-3.78418,,,,,,,,,,,0.0,1.0,1.0,1.0,0.0,0.0,0.0,4.0,0.0,0.13498045333333333,0.18409825333333332,0.9315234666666666,4.6793619600000005,4.6752929866666655,10.356445306666666,6.076695609415742,9.99803365114096,0.7399582633829351,14.579441427822088,3.7134821234829167,6.23342415089951,16.285135506766267,0.9339492425115772,16.201805414787266,0.9205934354877314,-0.7026074533333333,-0.4582682533333333,-1.3211714666666667,2.482047173333333,1.5649795748912787,0.7319492360228455,0.7685870121081996,0.791378897802641
LBP00_S01,LBP00,-1525,126,1,125,-1525,1715223091.0,2024-05-09 02:51:31+00:00,2024-05-09 11:51:31+09:00,2024,5,9,2,51,31,0,2.0,51.0,31.0,40.54327,141.508316,19.728001,3.0,12.0,0.10083,0.162354,0.056885,-23.498535,-75.866699,-1.647949,-242.0,-55.0,391.0,2330.0,0.0,1014.400024,16.040001,0.013874,-9.564723,4.035937,0.0,1.0,1.0,1.0,0.0,0.0,0.0,5.0,0.0,0.14318032,0.17829095999999997,0.9318034133333333,4.404296853333333,5.659179706666666,10.21728516,7.44534299661463,11.480426856364565,2.1445564971049023,14.877255147686673,4.172699197737499,6.319206410783706,16.693606829749484,0.8911028979775695,16.92180604985318,0.9203506365320715,-0.04235032,-0.015936959999999972,-0.8749184133333333,0.9332056933333333,0.8760877617498498,0.7406909289487575,0.7711432802898082,0.7906513015090493
LBP00_S01,LBP00,-1524,127,1,126,-1524,1715223091.04,2024-05-09 02:51:31.040000+00:00,2024-05-09 11:51:31.040000+09:00,2024,5,9,2,51,31,40,,,,,,,,,0.450439,0.285889,0.674561,1.464844,-127.807617,59.631348,,,,,,,,,,,0.0,1.0,1.0,1.0,0.0,0.0,0.0,5.0,0.0,0.1412499866666667,0.17745110666666666,0.9300358400000001,5.997721333333334,6.095377626666667,10.487467453333332,11.431685422813068,12.11941007754839,4.385477674506666,15.334522564599196,4.657475600839435,6.494625517763973,17.292189620537,0.8953448063149215,17.683374056272534,0.9200371567584836,0.30918901333333326,0.10843789333333334,-0.2554748400000001,0.6731017466666667,0.415480464702779,0.7163443335898515,0.7496438185642872,0.7876567448668621
LBP00_S01,LBP00,-1523,128,1,127,-1523,1715223091.08,2024-05-09 02:51:31.080000+00:00,2024-05-09 11:51:31.080000+09:00,2024,5,9,2,51,31,80,,,,,,,,,0.576416,0.045166,1.282471,-10.803223,48.278809,-8.361816,,,,,,,,,,,0.0,1.0,1.0,1.0,0.0,0.0,0.0,5.0,0.0,0.14413409333333335,0.18239250666666668,0.9399088799999998,6.826171853333333,4.6923828400000005,10.861002613333332,17.01539098101989,11.957311815508538,7.16458197071632,16.015138203839992,5.135768073459777,6.781208796592626,18.1340993196643,0.8986941481385446,18.52426021896091,0.9186931466907863,0.43228190666666666,-0.1372265066666667,0.3425621200000001,0.9120705333333334,0.568372735994787,0.730836301830585,0.7415784731235342,0.7849159611695032
LBP00_S01,LBP00,-1522,129,1,128,-1522,1715223091.12,2024-05-09 02:51:31.120000+00:00,2024-05-09 11:51:31.120000+09:00,2024,5,9,2,51,31,120,,,,,,,,,-0.042725,0.134033,1.452393,120.97168,76.599121,-5.981445,,,,,,,,,,,0.0,1.0,1.0,1.0,0.0,0.0,0.0,5.0,0.0,0.13995441333333333,0.17684889333333334,0.9443913066666666,7.435709613333334,7.510579453333333,9.809570319999999,23.005326149035124,11.015637669376547,10.10758323788473,16.935351249801396,5.576393580234838,7.185512126108015,19.223263818360277,0.8982320100167388,19.472650125413637,0.9102541919297412,-0.18267941333333332,-0.04281589333333333,0.5080016933333334,0.7334970000000001,0.5415447250294997,0.693348159485976,0.7405146506790738,0.7808271668625841
LBP00_S01,LBP00,-1521,130,1,129,-1521,1715223091.16,2024-05-09 02:51:31.160000+00:00,2024-05-09 11:51:31.160000+09:00,2024,5,9,2,51,31,160,,,,,,,,,-0.06665,0.177246,1.799805,55.664062,11.474609,10.131836,,,,,,,,,,,0.0,1.0,1.0,1.0,0.0,0.0,0.0,5.0,0.0,0.13995768,0.18640618666666667,0.9401920933333332,7.197265600000001,7.557779973333333,9.812825533333331,28.368603642479673,9.407326171966611,12.822402932075152,18.070095395500584,5.952686627113502,7.698408243391021,20.523847474706542,0.9227710189058171,20.542281068851686,0.8996939811701512,-0.20660768000000002,-0.009160186666666681,0.8596129066666669,1.0753807733333336,0.8841408212285339,0.6926791471200202,0.7457413378806469,0.77815225263356
LBP00_S01,LBP00,-1520,131,1,130,-1520,1715223091.2,2024-05-09 02:51:31.200000+00:00,2024-05-09 11:51:31.200000+09:00,2024,5,9,2,51,31,200,,,,,,,,,0.178955,0.396973,1.239502,30.456543,108.764648,4.02832,,,,,,,,,,,0.0,1.0,1.0,1.0,0.0,0.0,0.0,5.0,0.0,0.13197265333333333,0.17959629333333335,0.93795576,5.237630186666667,6.835937520000001,9.300130213333334,32.447957961100784,7.493170279813691,14.944500105647048,19.368013713944613,6.25241343830605,8.296188247616902,21.97815662122175,0.9331569082178182,21.729621548053135,0.8905598958531609,0.046982346666666674,0.21737670666666667,0.3015462400000001,0.5659052933333334,0.3746866802512341,0.687695908329108,0.7351561002707118,0.7806842507469008
LBP00_S01,LBP00,-1519,132,1,131,-1519,1715223091.24,2024-05-09 02:51:31.240000+00:00,2024-05-09 11:51:31.240000+09:00,2024,5,9,2,51,31,240,,,,,,,,,-0.567871,-0.285156,-0.197021,10.742188,17.822266,6.347656,,,,,,,,,,,0.0,1.0,1.0,1.0,0.0,0.0,0.0,5.0,0.0,0.13838866666666666,0.1781054133333333,0.9366504266666665,5.342610653333334,5.387369813333333,9.669596359999998,34.98087108525353,5.904458744063985,16.19406864956444,20.767248557354755,6.488591788068609,8.94395099359948,23.523917518369547,0.906859238779076,23.014130385747414,0.8859287789244317,-0.7062596666666667,-0.4632614133333333,-1.1336714266666665,2.3031925066666665,1.4137272571058903,0.7222175994621816,0.739205438864395,0.7807630904247712
LBP00_S01,LBP00,-1518,133,1,132,-1518,1715223091.28,2024-05-09 02:51:31.280000+00:00,2024-05-09 11:51:31.280000+09:00,2024,5,9,2,51,31,280,,,,,,,,,0.055908,0.194092,0.062256,7.446289,-74.34082,32.470703,,,,,,,,,,,0.0,1.0,1.0,1.0,0.0,0.0,0.0,5.0,0.0,0.1467415333333333,0.17175125333333333,0.9380534266666666,5.673014306666667,6.433105493333334,9.336751306666665,35.947550010758455,5.348564164974873,16.451053426386462,22.205150557785093,6.702534354667604,9.601993130654938,25.103604325884117,0.8615895189488543,24.362104444049084,0.8838145925940181,-0.09083353333333331,0.02234074666666666,-0.8757974266666666,0.9889717066666666,0.8807786170743459,0.7248592836949992,0.7504194827171274,0.7797482458879947
LBP00_S01,LBP00,-1517,134,1,133,-1517,1715223091.32,2024-05-09 02:51:31.320000+00:00,2024-05-09 11:51:31.320000+09:00,2024,5,9,2,51,31,320,,,,,,,,,0.494873,0.409668,0.505859,-44.86084,-145.996094,80.810547,,,,,,,,,,,0.0,1.0,1.0,1.0,0.0,0.0,0.0,5.0,0.0,0.14358073333333335,0.16580398666666665,0.9424219066666666,6.136067693333333,6.861979186666666,9.367675786666666,35.37701440721958,6.281219798582772,15.820322311967773,23.620231134073876,6.953783146610915,10.234806023133649,26.664989653257614,0.8552400218905952,25.733514926467336,0.8821596898434683,0.3512922666666667,0.24386401333333332,-0.43656290666666664,1.0317191866666666,0.6111162615215646,0.7102516867584537,0.7407759205857808,0.7773929050642294
LBP00_S01,LBP00,-1516,135,1,134,-1516,1715223091.36,2024-05-09 02:51:31.360000+00:00,2024-05-09 11:51:31.360000+09:00,2024,5,9,2,51,31,360,,,,,,,,,0.650146,-0.293213,1.423096,-6.469727,51.208496,-22.521973,,,,,,,,,,,0.0,1.0,1.0,1.0,0.0,0.0,0.0,5.0,0.0,0.15644206666666666,0.17604488,0.9673568,6.406249973333334,6.479492199999999,9.87386068,33.26062334142043,8.651091523579234,14.6394173295996,24.950656067730694,7.299826807554084,10.820382716317633,28.158540298780707,0.8426083893416738,27.089979875302873,0.8762199854365983,0.49370393333333334,-0.46925788,0.4557391999999999,1.418701013333333,0.8195393524093513,0.7351703884694045,0.7454903048080355,0.7833657589129295
LBP00_S01,LBP00,-1515,136,1,135,-1515,1715223091.4,2024-05-09 02:51:31.400000+00:00,2024-05-09 11:51:31.400000+09:00,2024,5,9,2,51,31,400,,,,,,,,,-0.062012,0.13623,1.568115,167.663574,72.937012,-13.48877,,,,,,,,,,,0.0,1.0,1.0,1.0,0.0,0.0,0.0,5.0,0.0,0.15314453333333333,0.17308264,0.9762174800000001,6.5999348666666675,9.767252626666666,9.46858724,29.640954585526043,11.899576217989788,13.397787590901613,26.136294251151735,7.775809856273676,11.356294219953698,29.538695206692253,0.8447917286902767,28.40129405905983,0.8662576818639234,-0.21515653333333334,-0.03685264000000002,0.5918975199999998,0.8439066933333332,0.6308669630699785,0.7172975107379855,0.744318719101032,0.7822101752325029
LBP00_S01,LBP00,-1514,137,1,136,-1514,1715223091.44,2024-05-09 02:51:31.440000+00:00,2024-05-09 11:51:31.440000+09:00,2024,5,9,2,51,31,440,,,,,,,,,0.098389,0.425781,1.655518,99.365234,18.737793,39.428711,,,,,,,,,,,0.0,1.0,1.0,1.0,0.0,0.0,0.0,5.0,0.0,0.14804688000000002,0.17788406666666667,0.9672916933333333,8.238118466666666,10.805664093333332,10.003255213333333,24.801938192896124,15.23184601356744,12.586219976776688,27.12837177886758,8.385083696816373,11.859743019024766,30.771930203553715,0.8742029430107865,29.64839263778516,0.8579516192544275,-0.049657880000000015,0.24789693333333335,0.6882263066666667,0.9857811200000001,0.7331945470270537,0.7166530062824282,0.7480770444887278,0.778343260506757
LBP00_S01,LBP00,-1513,138,1,137,-1513,1715223091.48,2024-05-09 02:51:31.480000+00:00,2024-05-09 11:51:31.480000+09:00,2024,5,9,2,51,31,480,,,,,,,,,0.294922,0.057861,1.368408,18.554688,117.553711,-16.540527,,,,,,,,,,,0.0,1.0,1.0,1.0,0.0,0.0,0.0,5.0,0.0,0.14165690666666667,0.17300777333333334,0.9595280133333334,6.7700195066666655,8.948567746666667,10.821126306666665,19.37953436154622,17.990889578106746,12.541126702933916,27.90355315332943,9.104719279940642,12.361388087142123,31.84820414384684,0.8821451206330464,30.822311602215205,0.8496304241108328,0.15326509333333335,-0.11514677333333334,0.4088799866666667,0.6772918533333334,0.4515880996440085,0.7084919096572427,0.7381182372649501,0.7809220970765648
LBP00_S01,LBP00,-1512,139,1,138,-1512,1715223091.52,2024-05-09 02:51:31.520000+00:00,2024-05-09 11:51:31.520000+09:00,2024,5,9,2,51,31,520,,,,,,,,,-0.719971,-0.444336,-0.087402,-11.59668,59.509277,-35.522461,,,,,,,,,,,0.0,1.0,1.0,1.0,0.0,0.0,0.0,5.0,0.0,0.15253256,0.17028968,0.9565918133333334,7.176920546666667,7.392578159999999,11.98404948,14.240882933833964,19.905279936301636,13.355175341191218,28.47318847068279,9.900930477392707,12.895595100789771,32.78791330671564,0.8388349659480391,31.92069485955733,0.8490338475742293,-0.8725035600000001,-0.6146256800000001,-1.0439938133333335,2.5311230533333338,1.492966935670851,0.7545743136561613,0.7455811562038401,0.7827111049470171
LBP00_S01,LBP00,-1511,140,1,139,-1511,1715223091.56,2024-05-09 02:51:31.560000+00:00,2024-05-09 11:51:31.560000+09:00,2024,5,9,2,51,31,560,,,,,,,,,0.057129,0.455322,0.016113,-76.049805,-64.880371,42.663574,,,,,,,,,,,0.0,1.0,1.0,1.0,0.0,0.0,0.0,5.0,0.0,0.15272462666666667,0.16505856,0.9546386800000001,8.369140600000001,8.898925826666666,11.665039053333333,10.146009572725093,21.075484273461697,14.893649468432878,28.879028853591795,10.743949848331175,13.491341079527086,33.63698931227612,0.8231479831790669,32.94433670106523,0.8515487243787974,-0.09559562666666667,0.29026344000000004,-0.93852568,1.3243847466666667,0.9870267678527714,0.7642332501867617,0.763663093743247,0.7867594947804794
LBP00_S01,LBP00,-1510,141,1,140,-1510,1715223091.6,2024-05-09 02:51:31.600000+00:00,2024-05-09 11:51:31.600000+09:00,2024,5,9,2,51,31,600,,,,,,,,,0.594482,-0.05127,0.73291,-139.282227,-124.694824,94.726562,,,,,,,,,,,0.0,1.0,1.0,1.0,0.0,0.0,0.0,5.0,0.0,0.15107422666666667,0.17263344,0.9655208399999999,9.956868466666666,7.778320346666666,12.22167968,7.38673549902965,21.74121447972464,16.902507048093458,29.17449827355298,11.613598427520161,14.167441361450823,34.44914240847502,0.85009628212286,33.89552409960197,0.8531666304183962,0.44340777333333325,-0.22390344,-0.23261083999999999,0.8999220533333332,0.548498866709644,0.7510219557116593,0.7512326522032763,0.7840916808312937
LBP00_S01,LBP00,-1509,142,1,141,-1509,1715223091.64,2024-05-09 02:51:31.640000+00:00,2024-05-09 11:51:31.640000+09:00,2024,5,9,2,51,31,640,,,,,,,,,0.521484,-0.174072,1.306152,77.453613,69.641113,15.686035,,,,,,,,,,,0.0,1.0,1.0,1.0,0.0,0.0,0.0,5.0,0.0,0.16119466666666665,0.1744010133333333,0.99611328,9.452311173333333,8.7386068,11.713053373333333,5.646968210308471,22.01869662342215,19.140121651037738,29.40037700196532,12.494346292457047,14.933046227492333,35.26310716267002,0.8236472873431294,34.77819269859772,0.8520502163054186,0.3602893333333333,-0.3484730133333333,0.31003872,1.0188010666666667,0.5893775128342017,0.7697000070972225,0.7458773512859511,0.7836033177500825
LBP00_S01,LBP00,-1508,143,1,142,-1508,1715223091.68,2024-05-09 02:51:31.680000+00:00,2024-05-09 11:51:31.680000+09:00,2024,5,9,2,51,31,680,,,,,,,,,-0.012695,0.175293,1.564697,127.075195,62.805176,-19.042969,,,,,,,,,,,0.0,1.0,1.0,1.0,0.0,0.0,0.0,5.0,0.0,0.15076824,0.174235,0.99572916,10.894368453333334,11.680501333333334,10.946451813333333,4.197492372713695,21.805899065488582,21.447983819008307,29.56827669687387,13.36658225507659,15.790965580252665,36.087436899305374,0.8556237535828191,35.59842920266589,0.8496791431492016,-0.16346324,0.0010580000000000034,0.56896784,0.73348908,0.5919845886081522,0.74580124976053,0.7425696973999258,0.7759850155284901
LBP00_S01,LBP00,-1507,144,1,143,-1507,1715223091.72,2024-05-09 02:51:31.720000+00:00,2024-05-09 11:51:31.720000+09:00,2024,5,9,2,51,31,720,,,,,,,,,0.160645,0.374756,1.786621,33.569336,22.521973,30.822754,,,,,,,,,,,0.0,1.0,1.0,1.0,0.0,0.0,0.0,5.0,0.0,0.14576824,0.17737302666666668,0.9871223866666666,9.003906213333334,12.36490888,10.72428384,2.312530099567245,20.912866734764595,23.723328747787832,29.66077790085656,14.203096924467173,16.739898730164178,36.901408068336664,0.880388789936274,36.36365686168556,0.8476326791404734,0.014876760000000017,0.1973829733333333,0.7994986133333334,1.0117583466666666,0.8236378991231085,0.7387485656151082,0.7491627007776022,0.7747708953974787
LBP00_S01,LBP00,-1506,145,1,144,-1506,1715223091.76,2024-05-09 02:51:31.760000+00:00,2024-05-09 11:51:31.760000+09:00,2024,5,9,2,51,31,760,,,,,,,,,0.291992,0.564453,1.359131,32.592773,83.251953,2.319336,,,,,,,,,,,0.0,1.0,1.0,1.0,0.0,0.0,0.0,5.0,0.0,0.14488933333333334,0.1685090933333333,0.9862369733333335,8.4480794,9.86490888,11.38346352,-0.3558440502654305,19.299347231788193,25.83474634320404,29.64654413884594,14.975070813738702,17.773288583892338,37.670414284148066,0.8587874497376635,37.08005843773639,0.8486754671407226,0.14710266666666663,0.3959439066666667,0.3728940266666666,0.9159405999999999,0.5634365331522151,0.7435272964847084,0.7421852568946069,0.765912579999768
LBP00_S01,LBP00,-1505,146,1,145,-1505,1715223091.8,2024-05-09 02:51:31.800000+00:00,2024-05-09 11:51:31.800000+09:00,2024,5,9,2,51,31,800,,,,,,,,,-0.608398,0.057129,-0.272217,-31.860352,112.915039,-10.070801,,,,,,,,,,,0.0,1.0,1.0,1.0,0.0,0.0,0.0,5.0,0.0,0.15431641333333335,0.1704166533333333,0.9831705733333335,8.397623666666666,9.757487013333332,11.830240866666667,-3.668103206356781,17.228065972722227,27.562991715076514,29.49982001059167,15.664193452647591,18.8758082524954,38.36538119664974,0.8336275875605,37.749513204024666,0.8540686555592772,-0.7627144133333333,-0.11328765333333331,-1.2553875733333335,2.13138964,1.473283858590713,0.7823181776912206,0.7539158850345519,0.7740000086126466
LBP00_S01,LBP00,-1504,147,1,146,-1504,1715223091.84,2024-05-09 02:51:31.840000+00:00,2024-05-09 11:51:31.840000+09:00,2024,5,9,2,51,31,840,,,,,,,,,0.17627,0.299316,0.013916,-89.96582,-78.857422,57.434082,,,,,,,,,,,0.0,1.0,1.0,1.0,0.0,0.0,0.0,5.0,0.0,0.15177084000000002,0.17355791999999998,0.9812011733333332,8.492838506666667,10.649414106666667,12.125651013333332,-7.183162134480923,15.205105662450066,28.626387624874454,29.212493525212434,16.272397679145595,20.02086375749038,38.97429524423544,0.8504922114486166,38.36815820836812,0.8574267064355124,0.024499159999999992,0.12575808000000005,-0.9672851733333332,1.1175424133333332,0.9757335241122386,0.7987190304523978,0.7450101470782851,0.7804125512046209
LBP00_S01,LBP00,-1503,148,1,147,-1503,1715223091.88,2024-05-09 02:51:31.880000+00:00,2024-05-09 11:51:31.880000+09:00,2024,5,9,2,51,31,880,,,,,,,,,0.301025,-0.260498,0.846924,-87.158203,-117.30957,76.293945,,,,,,,,,,,0.0,1.0,1.0,1.0,0.0,0.0,0.0,5.0,0.0,0.15156576,0.17738604,0.99819988,8.957519493333333,9.2797852,12.692057266666668,-10.478983857786826,13.72733018021878,28.78770240070575,28.793334170900962,16.821490886354347,21.17237185351861,39.500480734043514,0.8616804805457653,38.927885609807404,0.86165470725615,0.14945924,-0.43788404000000003,-0.15127588000000003,0.73861916,0.48679039511670075,0.7855847561295279,0.7396047872847172,0.7755806570302026
LBP00_S01,LBP00,-1502,149,1,148,-1502,1715223091.92,2024-05-09 02:51:31.920000+00:00,2024-05-09 11:51:31.920000+09:00,2024,5,9,2,51,31,920,,,,,,,,,0.681152,0.17041,1.285156,4.943848,11.657715,48.583984,,,,,,,,,,,0.0,1.0,1.0,1.0,0.0,0.0,0.0,5.0,0.0,0.15448568,0.17619137333333332,1.0152832133333334,7.841796840000001,11.929524786666667,11.949055973333332,-13.382271011089664,13.000797167637964,27.97833767494531,28.258043330457376,17.341522773059864,22.29150536051642,39.951929067223936,0.8492628459505314,39.420245084195045,0.8613827445319456,0.52666632,-0.005781373333333312,0.2698727866666666,0.8023204799999999,0.5918126036873446,0.7956261338863239,0.7448191013574568,0.773637477312541
LBP00_S01,LBP00,-1501,150,1,149,-1501,1715223091.96,2024-05-09 02:51:31.960000+00:00,2024-05-09 11:51:31.960000+09:00,2024,5,9,2,51,31,960,,,,,,,,,0.185059,0.220215,1.667969,55.297852,70.800781,-8.056641,,,,,,,,,,,0.0,1.0,1.0,1.0,0.0,0.0,0.0,5.0,0.0,0.15096028000000003,0.18244137333333332,1.0094270933333334,6.48356116,12.4039714,12.1150716,-15.971579533738682,12.828304692092836,26.356659897412065,27.61918014910783,17.854654960743577,23.345771756412905,40.331536975158826,0.8770798673646131,39.840735249563316,0.860562417521985,0.03409871999999997,0.03777362666666667,0.6585419066666667,0.7304142533333333,0.6605051191424332,0.75944715565637,0.7456981958396078,0.765540393290923
LBP00_S01,LBP00,-1500,151,1,150,-1500,1715223092.0,2024-05-09 02:51:32+00:00,2024-05-09 11:51:32+09:00,2024,5,9,2,51,32,0,2.0,51.0,32.0,40.543312,141.508362,19.127001,3.0,12.0,0.0,0.463379,1.813965,60.241699,21.728516,26.367188,-231.0,-53.0,382.0,2195.0,0.0,1014.299988,16.1,0.012883,-8.733069,4.035937,0.0,1.0,1.0,1.0,0.0,0.0,0.0,3.0,0.0,0.14211913333333334,0.17405921333333335,1.0031868666666666,3.7052408399999996,12.62369796,12.02311196,-18.392147552470536,12.745524494570253,24.25944765704106,26.883494247009008,18.364475940526386,24.316149662694546,40.63559245190968,0.883676790885212,40.19137936756763,0.8633042590945008,-0.14211913333333334,0.28931978666666663,0.8107781333333335,1.2422170533333334,0.8725049962652065,0.7593038450369842,0.7499973869928709,0.7671968018722003
LBP00_S01,LBP00,-1499,152,1,151,-1499,1715223092.04,2024-05-09 02:51:32.040000+00:00,2024-05-09 11:51:32.040000+09:00,2024,5,9,2,51,32,40,,,,,,,,,0.197998,0.458984,1.236328,-36.376953,102.172852,-20.019531,,,,,,,,,,,0.0,1.0,1.0,1.0,0.0,0.0,0.0,3.0,0.0,0.14841145333333333,0.17520178666666666,1.0040071866666664,5.62581376,10.412597693333334,13.401692693333334,-20.65035126429697,12.305029782216465,22.0785018796448,26.05748019643713,18.856677131815044,25.19928973788034,40.860381177062834,0.8659272955495064,40.48072795522215,0.8693762949445828,0.049586546666666675,0.2837822133333333,0.23232081333333365,0.5656895733333336,0.37008665272143043,0.7574880925577304,0.736916213073791,0.7522585765621015
LBP00_S01,LBP00,-1498,153,1,152,-1498,1715223092.08,2024-05-09 02:51:32.080000+00:00,2024-05-09 11:51:32.080000+09:00,2024,5,9,2,51,32,80,,,,,,,,,-0.565186,0.415527,-0.626221,-54.138184,36.071777,20.568848,,,,,,,,,,,0.0,1.0,1.0,1.0,0.0,0.0,0.0,3.0,0.0,0.15610025333333333,0.17941402666666667,1.00405276,4.541015586666667,10.78369144,13.951009106666664,-22.545996866386716,11.313189152619767,20.13942323019671,25.15564032178166,19.309204697919835,26.00486666708821,41.01103164318172,0.8529041263407752,40.72203234195838,0.8733315109267645,-0.7212862533333333,0.2361129733333333,-1.6302737600000001,2.587672986666667,1.7982757652730803,0.806684213728862,0.7687602577797235,0.7632803866586435
LBP00_S01,LBP00,-1497,154,1,153,-1497,1715223092.12,2024-05-09 02:51:32.120000+00:00,2024-05-09 11:51:32.120000+09:00,2024,5,9,2,51,32,120,,,,,,,,,0.144775,0.00293,0.1521,-98.388672,-62.988281,35.400391,,,,,,,,,,,0.0,1.0,1.0,1.0,0.0,0.0,0.0,3.0,0.0,0.1513802,0.18108721333333333,1.0079232,4.269205693333332,10.530599,14.062499986666666,-23.77197000843252,9.877812182556603,18.64496999284458,24.20476152144436,19.7043171852221,26.75066546680199,41.10630972201938,0.8721855198366664,40.931150046992364,0.8759290794008511,-0.0066052000000000055,-0.17815721333333334,-0.8558232,1.0405856133333333,0.8741950417315228,0.8199902263969429,0.7566691929414594,0.767006509251697
LBP00_S01,LBP00,-1496,155,1,154,-1496,1715223092.16,2024-05-09 02:51:32.160000+00:00,2024-05-09 11:51:32.160000+09:00,2024,5,9,2,51,32,160,,,,,,,,,0.59668,-0.148193,1.004639,-15.991211,-99.060059,66.040039,,,,,,,,,,,0.0,1.0,1.0,1.0,0.0,0.0,0.0,3.0,0.0,0.1550227733333333,0.19102535999999998,1.0181510666666667,3.133951786666667,9.376627653333333,14.281412746666668,-24.079341634176757,8.270447661342349,17.689562636137666,23.24158785607729,20.03513509167579,27.4582479722475,41.17685546419119,0.8862058654628209,41.1252934069194,0.8792970481592832,0.4416572266666667,-0.33921835999999994,-0.0135120666666666,0.7943876533333332,0.5570572480217678,0.8069068834686725,0.7497930152943462,0.7661298530766554
LBP00_S01,LBP00,-1495,156,1,155,-1495,1715223092.2,2024-05-09 02:51:32.200000+00:00,2024-05-09 11:51:32.200000+09:00,2024,5,9,2,51,32,200,,,,,,,,,0.465576,0.287842,1.404297,-15.197754,52.856445,-2.01416,,,,,,,,,,,0.0,1.0,1.0,1.0,0.0,0.0,0.0,3.0,0.0,0.15345701333333334,0.19236,1.0182682533333332,2.1313476266666664,11.491699266666664,14.159342439999998,-23.37613879905977,6.735838067985856,17.30013991109774,22.306542304114902,20.304568614395226,28.150253568691408,41.258867073195006,0.8943479460613208,41.322544845352986,0.881033847592567,0.31211898666666665,0.09548199999999998,0.38602874666666676,0.7936297333333334,0.5055227664654327,0.8121403269172403,0.7499181176231741,0.7608175091528879
LBP00_S01,LBP00,-1494,157,1,156,-1494,1715223092.24,2024-05-09 02:51:32.240000+00:00,2024-05-09 11:51:32.240000+09:00,2024,5,9,2,51,32,240,,,,,,,,,-0.101562,0.359863,1.800293,17.883301,45.898438,4.02832,,,,,,,,,,,0.0,1.0,1.0,1.0,0.0,0.0,0.0,3.0,0.0,0.15521808,0.19282549333333332,1.0194271066666667,1.0042317466666668,11.610514373333332,14.19433592,-21.706351752350464,5.396207400604466,17.451036540548976,21.438288234020884,20.520416910419403,28.848295030313366,41.38733911159774,0.8900443712704337,41.54121581084938,0.8818546300404874,-0.25678008,0.16703750666666667,0.7808658933333332,1.20468348,0.8388021706513925,0.7891433234590604,0.7556804614606211,0.7558514003959502
LBP00_S01,LBP00,-1493,158,1,157,-1493,1715223092.28,2024-05-09 02:51:32.280000+00:00,2024-05-09 11:51:32.280000+09:00,2024,5,9,2,51,32,280,,,,,,,,,0.233887,0.604492,2.107422,25.085449,-21.728516,20.202637,,,,,,,,,,,0.0,1.0,1.0,1.0,0.0,0.0,0.0,3.0,0.0,0.15250649333333333,0.18846026666666668,1.0205957333333333,-0.5533854399999999,11.608072973333334,14.260253893333331,-19.163206690160024,4.2943843538210835,18.03950266070593,20.671759966414484,20.692192284572247,29.569875136741604,41.591657784383365,0.8876561652866305,41.79829671878808,0.8839271166759927,0.08138050666666669,0.4160317333333333,1.0868262666666668,1.5842385066666669,1.1665746971035613,0.8005751666602291,0.7627172251776141,0.7671380440314947
LBP00_S01,LBP00,-1492,159,1,158,-1492,1715223092.32,2024-05-09 02:51:32.320000+00:00,2024-05-09 11:51:32.320000+09:00,2024,5,9,2,51,32,320,,,,,,,,,0.142578,0.092773,1.286621,-6.530762,130.615234,-22.705078,,,,,,,,,,,0.0,1.0,1.0,1.0,0.0,0.0,0.0,3.0,0.0,0.15471677333333334,0.18932290666666665,1.0240137066666668,-0.1342773733333333,11.43229172,14.573567693333334,-15.840111160199731,3.4963019316503536,18.856052657137266,20.038155520006494,20.83204436183826,30.324117243027096,41.89336266649428,0.8829425335348529,42.10716885580753,0.8894724061304874,-0.012138773333333325,-0.09654990666666666,0.2626072933333332,0.3712959733333332,0.28005682424686495,0.7873327891692409,0.7487922379638475,0.7562948767802676
LBP00_S01,LBP00,-1491,160,1,159,-1491,1715223092.36,2024-05-09 02:51:32.360000+00:00,2024-05-09 11:51:32.360000+09:00,2024,5,9,2,51,32,360,,,,,,,,,-0.152344,0.359863,-0.178711,-30.700684,-43.09082,31.616211,,,,,,,,,,,0.0,1.0,1.0,1.0,0.0,0.0,0.0,3.0,0.0,0.15363278666666666,0.1926074,1.0252181333333332,-0.5851237333333333,11.704101613333334,14.33593748,-11.881517476077676,3.1351834788997786,19.598459984533523,19.562894820963386,20.957451700994252,31.108055642408438,42.304051359494665,0.894447861697451,42.475595265960024,0.891865497945442,-0.30597678666666667,0.16725559999999998,-1.2039291333333333,1.6771615199999999,1.2534119784807267,0.804687694212096,0.7699290413407502,0.7652227679427224
LBP00_S01,LBP00,-1490,161,1,160,-1490,1715223092.4,2024-05-09 02:51:32.400000+00:00,2024-05-09 11:51:32.400000+09:00,2024,5,9,2,51,32,400,,,,,,,,,0.194336,-0.112793,0.520264,-172.668457,-90.515137,28.686523,,,,,,,,,,,0.0,1.0,1.0,1.0,0.0,0.0,0.0,3.0,0.0,0.15345049333333333,0.19132158666666665,1.0306901333333334,-0.79589848,11.626790413333335,14.099934880000001,-7.596788033698244,3.3456958664762713,19.95043885453484,19.259023299615457,21.091279535653303,31.90607319658983,42.82230210687355,0.8918846153644154,42.90512488390773,0.889746807753483,0.04088550666666668,-0.3041145866666667,-0.5104261333333334,0.8554262266666668,0.5955603613979404,0.8032754301452145,0.7602864704415999,0.7639709561157595
LBP00_S01,LBP00,-1489,162,1,161,-1489,1715223092.44,2024-05-09 02:51:32.440000+00:00,2024-05-09 11:51:32.440000+09:00,2024,5,9,2,51,32,440,,,,,,,,,0.806152,0.205811,1.311035,82.824707,-50.048828,81.420898,,,,,,,,,,,0.0,1.0,1.0,1.0,0.0,0.0,0.0,3.0,0.0,0.15373694666666665,0.18955726666666667,1.03909508,-0.9912109866666666,11.208496133333334,13.81835936,-3.5190506840950615,4.146381107969544,19.697007013211525,19.118261272251655,21.257134779972084,32.69395347711829,43.43119025644993,0.8866521619045592,43.3923645262283,0.8884906528672994,0.6524150533333333,0.016253733333333326,0.2719399199999999,0.9406087066666665,0.7070084198599148,0.8022279850585289,0.7594404956704787,0.7661273580119948
LBP00_S01,LBP00,-1488,163,1,162,-1488,1715223092.48,2024-05-09 02:51:32.480000+00:00,2024-05-09 11:51:32.480000+09:00,2024,5,9,2,51,32,480,,,,,,,,,0.337646,0.2229,1.704346,-6.713867,78.796387,-11.84082,,,,,,,,,,,0.0,1.0,1.0,1.0,0.0,0.0,0.0,3.0,0.0,0.15381181333333332,0.19859698666666664,1.0382031466666668,-1.4176432666666665,10.853678426666667,13.979492173333334,-0.3038744541080223,5.390246942416438,18.812838148391215,19.106106294087333,21.47274465766874,33.44646700305394,44.09975301337617,0.9083570208857228,43.93155388409967,0.8883702441115087,0.18383418666666668,0.024303013333333345,0.6661428533333331,0.8742800533333331,0.6914708567188856,0.811823295341524,0.7601576024993832,0.7626865899571413
LBP00_S01,LBP00,-1487,164,1,163,-1487,1715223092.52,2024-05-09 02:51:32.520000+00:00,2024-05-09 11:51:32.520000+09:00,2024,5,9,2,51,32,520,,,,,,,,,-0.041504,0.337402,1.929932,72.753906,18.554688,17.211914,,,,,,,,,,,0.0,1.0,1.0,1.0,0.0,0.0,0.0,3.0,0.0,0.15589189333333334,0.19613604,1.03895184,-3.77929692,10.747884146666665,14.434407533333333,1.5233513366045246,6.853338326928493,17.467839377435634,19.167040347551513,21.746878190745882,34.14518057815137,44.7905738235443,0.8961164379862134,44.517194855164554,0.8896692976756111,-0.19739589333333335,0.14126595999999997,0.89098016,1.2296420133333332,0.9234537647728834,0.7890427685056054,0.7718085410808833,0.7600683603044286
LBP00_S01,LBP00,-1486,165,1,164,-1486,1715223092.56,2024-05-09 02:51:32.560000+00:00,2024-05-09 11:51:32.560000+09:00,2024,5,9,2,51,32,560,,,,,,,,,0.29248,0.538574,1.74707,31.677246,31.921387,3.356934,,,,,,,,,,,0.0,1.0,1.0,1.0,0.0,0.0,0.0,3.0,0.0,0.15588213333333334,0.18368486666666664,1.04605144,-5.122884159999999,10.852050813333333,14.191080706666668,1.8359219004281015,8.405894726961563,15.94534153482946,19.240477223568636,22.083113979824343,34.78299423954455,45.472151643668305,0.8650189635432317,45.14559757199996,0.8911680149782697,0.13659786666666668,0.3548891333333334,0.7010185599999998,1.1925055599999999,0.7975163293628804,0.7814623509660098,0.7728478005763856,0.7695961794841679
LBP00_S01,LBP00,-1485,166,1,165,-1485,1715223092.6,2024-05-09 02:51:32.600000+00:00,2024-05-09 11:51:32.600000+09:00,2024,5,9,2,51,32,600,,,,,,,,,-0.426025,-0.010742,0.166016,12.207031,136.230469,-28.137207,,,,,,,,,,,0.0,1.0,1.0,1.0,0.0,0.0,0.0,3.0,0.0,0.15733396,0.19204749333333332,1.0460384133333334,-3.76546228,10.803222680000001,14.944661426666665,1.0222549612560312,10.123804111707074,14.523987184966414,19.281367422018878,22.488066144292628,35.36395372694321,46.1312634964007,0.8817863971994828,45.815004920668,0.8907697264279149,-0.58335896,-0.20278949333333332,-0.8800224133333334,1.6661708666666666,1.0751142742925963,0.8025269672693278,0.7767744614904936,0.7683307572252933
LBP00_S01,LBP00,-1484,167,1,166,-1484,1715223092.64,2024-05-09 02:51:32.640000+00:00,2024-05-09 11:51:32.640000+09:00,2024,5,9,2,51,32,640,,,,,,,,,0.047852,0.380371,-0.02417,-39.794922,-66.894531,28.564453,,,,,,,,,,,0.0,1.0,1.0,1.0,0.0,0.0,0.0,3.0,0.0,0.15532876,0.19240557333333336,1.0503645733333333,-5.921224,10.433756533333334,14.48242184,-0.13274171051874423,12.225944997693857,13.391721857488173,19.276057753598128,22.977103944200383,35.89962260124273,46.77923269031139,0.8888402837125281,46.524845382158375,0.8899199233114088,-0.10747676,0.18796542666666666,-1.0745345733333334,1.3699767600000001,1.0961326584180986,0.8227971730926836,0.7962485900949531,0.7715172918881953
LBP00_S01,LBP00,-1483,168,1,167,-1483,1715223092.68,2024-05-09 02:51:32.680000+00:00,2024-05-09 11:51:32.680000+09:00,2024,5,9,2,51,32,680,,,,,,,,,0.276367,-0.182129,0.762451,-82.824707,-128.90625,48.217773,,,,,,,,,,,0.0,1.0,1.0,1.0,0.0,0.0,0.0,3.0,0.0,0.15816404,0.20091794666666668,1.0551334533333334,-5.709635453333334,10.151367213333334,14.507649706666667,-0.7466823244866455,14.849295768960086,12.628811952617172,19.246190460618664,23.571075774958786,36.40477507934742,47.44806749503221,0.900646700927654,47.27502767020475,0.8869988778768685,0.11820295999999997,-0.3830469466666667,-0.2926824533333334,0.7939323600000001,0.4963465740716226,0.8189716525112225,0.7823864511358762,0.768037015770358
LBP00_S01,LBP00,-1482,169,1,168,-1482,1715223092.72,2024-05-09 02:51:32.720000+00:00,2024-05-09 11:51:32.720000+09:00,2024,5,9,2,51,32,720,,,,,,,,,0.831055,0.333496,1.22583,14.038086,-18.615723,41.687012,,,,,,,,,,,0.0,1.0,1.0,1.0,0.0,0.0,0.0,3.0,0.0,0.15731117333333333,0.19867185333333331,1.0539713466666667,-6.8619792,10.381673213333334,13.85742184,-0.16435048210148753,17.815145628616573,12.242014511696134,19.239616441334604,24.28368160010345,36.894455659815264,48.17738983484836,0.8979297065614372,48.06583859287544,0.884357970166332,0.6737438266666667,0.1348241466666667,0.17185865333333328,0.9804266266666666,0.7082680927596449,0.8143568602566839,0.7765527129358961,0.7708940872706294
LBP00_S01,LBP00,-1481,170,1,169,-1481,1715223092.76,2024-05-09 02:51:32.760000+00:00,2024-05-09 11:51:32.760000+09:00,2024,5,9,2,51,32,760,,,,,,,,,0.208252,-0.16333,1.785889,6.103516,89.904785,-22.094727,,,,,,,,,,,0.0,1.0,1.0,1.0,0.0,0.0,0.0,3.0,0.0,0.16310544,0.20284502666666665,1.0543196533333332,-7.847493533333333,9.335123733333335,13.660481733333333,1.8483142790334444,20.583692226795048,12.197375803314937,19.31354901249594,25.10702928917525,37.38235069194786,48.9981248461751,0.8904649761939044,48.89823389268682,0.8835901562522752,0.04514656,-0.3661750266666667,0.7315693466666668,1.1428909333333335,0.8193388011173774,0.8245929509752905,0.7840601237299992,0.7696544882548347
LBP00_S01,LBP00,-1480,171,1,170,-1480,1715223092.8,2024-05-09 02:51:32.800000+00:00,2024-05-09 11:51:32.800000+09:00,2024,5,9,2,51,32,800,,,,,,,,,0.138672,0.375244,1.859863,39.123535,47.241211,5.92041,,,,,,,,,,,0.0,1.0,1.0,1.0,0.0,0.0,0.0,3.0,0.0,0.16325518666666666,0.20000973333333336,1.05645832,-9.003092493333332,9.007975293333333,13.016764293333333,5.104985826676894,22.478304271340605,12.414708218283996,19.517748445563015,26.006161460028874,37.878939020679226,49.92070672177732,0.8833865841993541,49.77369425803647,0.8857277737807104,-0.024583186666666673,0.17523426666666667,0.8034046800000001,1.0032221333333333,0.8226605989876963,0.7985680205911697,0.790443099141195,0.7687999302200912
LBP00_S01,LBP00,-1479,172,1,171,-1479,1715223092.84,2024-05-09 02:51:32.840000+00:00,2024-05-09 11:51:32.840000+09:00,2024,5,9,2,51,32,840,,,,,,,,,0.258057,0.518311,1.758545,27.099609,89.904785,1.098633,,,,,,,,,,,0.0,1.0,1.0,1.0,0.0,0.0,0.0,3.0,0.0,0.17011716,0.19742834666666667,1.0645410133333333,-8.78011072,9.745279986666668,12.709960906666666,9.14262596796011,23.060578542539737,12.737234831091165,19.883453484281418,26.928584601730464,38.388428413922874,50.93301313691366,0.8574417075591552,50.692873731538654,0.888356910626387,0.08793983999999999,0.3208826533333333,0.6940039866666667,1.10282648,0.7696366845328338,0.7903241470079935,0.7945215887301955,0.7601148137215211
LBP00_S01,LBP00,-1478,173,1,172,-1478,1715223092.88,2024-05-09 02:51:32.880000+00:00,2024-05-09 11:51:32.880000+09:00,2024,5,9,2,51,32,880,,,,,,,,,-0.054688,0.071533,0.873535,15.74707,142.456055,-19.165039,,,,,,,,,,,0.0,1.0,1.0,1.0,0.0,0.0,0.0,3.0,0.0,0.16615557333333333,0.20296545333333335,1.0662369733333334,-8.493652386666666,9.96907556,12.567545546666665,13.39470510147404,22.413545943523207,12.925733256378352,20.419241688340378,27.825126439471394,38.90545774417801,52.00786224008297,0.8819479437803579,51.653062166248425,0.8890163893427653,-0.22084357333333332,-0.13143245333333337,-0.1927019733333335,0.5449780000000002,0.32121709823484645,0.7837012151327194,0.7846429856311237,0.7543035965673845
LBP00_S01,LBP00,-1477,174,1,173,-1477,1715223092.92,2024-05-09 02:51:32.920000+00:00,2024-05-09 11:51:32.920000+09:00,2024,5,9,2,51,32,920,,,,,,,,,0.006348,0.553955,0.083984,81.542969,-74.401855,44.555664,,,,,,,,,,,0.0,1.0,1.0,1.0,0.0,0.0,0.0,3.0,0.0,0.16611,0.2057030933333333,1.07085612,-10.743815146666666,9.602050813333333,12.392578106666667,17.299115686204466,21.13577679364335,12.715352512311867,21.111206315788557,28.670557511217126,39.41407184467048,53.11452682165818,0.888438298845647,52.64546742789351,0.8857930493482791,-0.15976200000000002,0.34825190666666667,-0.9868721199999999,1.4948860266666666,1.0586405756319106,0.802374334010502,0.7990002339484128,0.7640041789084718
LBP00_S01,LBP00,-1476,175,1,174,-1476,1715223092.96,2024-05-09 02:51:32.960000+00:00,2024-05-09 11:51:32.960000+09:00,2024,5,9,2,51,32,960,,,,,,,,,0.175781,-0.073242,0.67041,-129.638672,-101.318359,33.874512,,,,,,,,,,,0.0,1.0,1.0,1.0,0.0,0.0,0.0,3.0,0.0,0.16796546666666667,0.20712888,1.0718815066666667,-11.40706384,9.916992213333334,11.594238266666666,20.316873904086943,20.03016972847685,11.925600428512329,21.923881271952034,29.4717643003562,39.891095861810975,54.226755297164814,0.8863951388275838,53.65373013238161,0.882180160722503,0.007815533333333319,-0.28037088,-0.40147150666666676,0.68965792,0.48974307915320486,0.795543852410933,0.7774955040336515,0.7623134146967161
LBP00_S01,LBP00,-1475,176,1,175,-1475,1715223093.0,2024-05-09 02:51:33+00:00,2024-05-09 11:51:33+09:00,2024,5,9,2,51,33,0,2.0,51.0,33.0,40.543385,141.508392,17.174,3.0,12.0,0.804688,0.139893,1.360107,27.038574,-33.26416,52.062988,-231.0,-45.0,394.0,2356.0,0.0,1014.400024,16.16,0.013874,-9.564723,4.035937,0.0,1.0,1.0,1.0,0.0,0.0,0.0,5.0,0.0,0.15813798666666665,0.20408852,1.0574609333333334,-11.543782600000002,10.00569664,11.171061173333333,21.914174910109416,19.671323361630876,10.565725509177955,22.800448268356412,30.258617234821433,40.31372488217809,55.32305823142259,0.9080777656562474,54.65458919705925,0.8832144004423226,0.6465500133333333,-0.06419552,0.3026460666666666,1.0133915999999998,0.7167584155056766,0.7893139891805518,0.7743089171087679,0.7631029210554311
LBP00_S01,LBP00,-1474,177,1,176,-1474,1715223093.04,2024-05-09 02:51:33.040000+00:00,2024-05-09 11:51:33.040000+09:00,2024,5,9,2,51,33,40,,,,,,,,,0.166016,-0.071045,1.825439,58.959961,88.928223,-31.12793,,,,,,,,,,,0.0,1.0,1.0,1.0,0.0,0.0,0.0,5.0,0.0,0.16966142666666664,0.21334308,1.0586458266666667,-12.38850916,7.973632839999999,11.76106768,21.591498687782835,20.115759309914452,8.865719264678207,23.664108215867724,31.06324760721801,40.66835365276522,56.38111703740904,0.895435070876311,55.620573658533985,0.8851245284981996,-0.0036454266666666457,-0.28438808,0.7667931733333333,1.05482668,0.8178396174386955,0.8072241077692422,0.7823561001634863,0.7603521779722748
LBP00_S01,LBP00,-1473,178,1,177,-1473,1715223093.08,2024-05-09 02:51:33.080000+00:00,2024-05-09 11:51:33.080000+09:00,2024,5,9,2,51,33,80,,,,,,,,,0.023193,0.645264,1.939453,75.683594,21.66748,3.417969,,,,,,,,,,,0.0,1.0,1.0,1.0,0.0,0.0,0.0,5.0,0.0,0.17133785333333335,0.20348630666666667,1.0637630133333333,-12.62532556,6.8001302400000005,11.511230439999999,18.996426782117158,20.914390664833185,7.202581665665708,24.42396528715241,31.899823233811336,40.95645691939185,57.372120111483035,0.868413300982793,56.523711529916284,0.8891617537581216,-0.14814485333333335,0.4417776933333333,0.8756899866666668,1.4656125333333334,0.9919412183412596,0.7749707258919695,0.7908274698104159,0.7708304138171388
LBP00_S01,LBP00,-1472,179,1,178,-1472,1715223093.12,2024-05-09 02:51:33.120000+00:00,2024-05-09 11:51:33.120000+09:00,2024,5,9,2,51,33,120,,,,,,,,,0.343994,0.524658,1.875244,26.428223,75.866699,-3.479004,,,,,,,,,,,0.0,1.0,1.0,1.0,0.0,0.0,0.0,5.0,0.0,0.17631506666666666,0.20655272,1.0720930933333332,-9.610188840000001,7.924804719999999,10.81949868,14.065103143018732,21.38074104408521,5.95732682034626,24.98656941287316,32.75505287557475,41.1947499922057,58.26001687972943,0.8618008203036754,57.33907940249283,0.8930220637807503,0.16767893333333336,0.31810527999999993,0.8031509066666667,1.28893512,0.8799764614619936,0.7752019826811883,0.7975961045390657,0.7628467895213691
LBP00_S01,LBP00,-1471,180,1,179,-1471,1715223093.16,2024-05-09 02:51:33.160000+00:00,2024-05-09 11:51:33.160000+09:00,2024,5,9,2,51,33,160,,,,,,,,,-0.664062,-0.139404,0.064453,13.061523,129.638672,-42.236328,,,,,,,,,,,0.0,1.0,1.0,1.0,0.0,0.0,0.0,5.0,0.0,0.16942705333333333,0.2154492,1.07617188,-10.519205760000002,8.413085973333331,9.645996079999998,7.091594353304833,20.922426589614467,5.38142745441068,25.270233187005353,33.59194993915933,41.41000709038213,59.00671549295141,0.900807373392101,58.04758081954873,0.8931829069197785,-0.8334890533333333,-0.3548532,-1.0117188799999999,2.2000611333333335,1.3580132133838723,0.8072402212956724,0.8070735523821725,0.7689420839614551
LBP00_S01,LBP00,-1470,181,1,180,-1470,1715223093.2,2024-05-09 02:51:33.200000+00:00,2024-05-09 11:51:33.200000+09:00,2024,5,9,2,51,33,200,,,,,,,,,0.211914,0.248047,0.174316,-90.454102,-73.730469,28.137207,,,,,,,,,,,0.0,1.0,1.0,1.0,0.0,0.0,0.0,5.0,0.0,0.16817053333333334,0.2145768,1.0829915466666666,-11.19384768,8.008626333333334,9.733072906666667,-1.3246076301755143,19.246340828231837,5.542462888197923,25.217248881798334,34.3618035722886,41.63170560591005,59.5805513365248,0.9024878647581233,58.63803589291513,0.8905905455464886,0.04374346666666665,0.03347019999999998,-0.9086755466666666,0.9858892133333332,0.9103433386772395,0.8234330441841448,0.8177866855506924,0.7744230931434977
LBP00_S01,LBP00,-1469,182,1,181,-1469,1715223093.24,2024-05-09 02:51:33.240000+00:00,2024-05-09 11:51:33.240000+09:00,2024,5,9,2,51,33,240,,,,,,,,,0.519043,-0.246826,1.04834,-49.377441,-111.26709,50.048828,,,,,,,,,,,0.0,1.0,1.0,1.0,0.0,0.0,0.0,5.0,0.0,0.17061193333333333,0.21559242666666667,1.07730796,-11.653645853333332,8.700358093333334,8.92822264,-10.40493075889896,16.372289199750274,6.36637012240464,24.801051651442375,35.016695140278614,41.88636041080623,59.96439185073655,0.8978139601583757,59.10879006348201,0.8865252105016476,0.3484310666666667,-0.46241842666666666,-0.028967959999999904,0.8398174533333332,0.579719028707794,0.8130697185064009,0.8011065209827305,0.7748102138092143
LBP00_S01,LBP00,-1468,183,1,182,-1468,1715223093.28,2024-05-09 02:51:33.280000+00:00,2024-05-09 11:51:33.280000+09:00,2024,5,9,2,51,33,280,,,,,,,,,0.443359,0.39209,1.430176,29.785156,53.405762,20.568848,,,,,,,,,,,0.0,1.0,1.0,1.0,0.0,0.0,0.0,5.0,0.0,0.15852860000000002,0.210166,1.0543912933333333,-12.031250013333333,8.374023453333333,8.701985653333333,-19.295682809417805,12.536057186744497,7.731180316015206,24.029224339065664,35.51813742774839,42.19560762344684,60.161540965848374,0.9205510440066454,59.468558536601755,0.8869645367028005,0.2848304,0.181924,0.37578470666666663,0.8425391066666666,0.5054095807409201,0.7866231138518951,0.7935991402560622,0.7706858547357078
LBP00_S01,LBP00,-1467,184,1,183,-1467,1715223093.32,2024-05-09 02:51:33.320000+00:00,2024-05-09 11:51:33.320000+09:00,2024,5,9,2,51,33,320,,,,,,,,,-0.060791,0.418945,1.775879,22.277832,62.744141,6.347656,,,,,,,,,,,0.0,1.0,1.0,1.0,0.0,0.0,0.0,5.0,0.0,0.16787104,0.20865558666666667,1.0579883066666667,-13.281250013333333,5.63395184,8.767903626666666,-27.103234440216877,8.115421234759003,9.535804584471443,22.945094961456988,35.84275427713875,42.577039806825695,60.199540992217266,0.8900467302359292,59.735797956270275,0.8915843840304953,-0.22866204,0.21028941333333334,0.7178906933333333,1.1568421466666667,0.7822244009692187,0.8067098169207894,0.7970213030450153,0.7680980976161614
LBP00_S01,LBP00,-1466,185,1,184,-1466,1715223093.36,2024-05-09 02:51:33.360000+00:00,2024-05-09 11:51:33.360000+09:00,2024,5,9,2,51,33,360,,,,,,,,,0.07959,0.550293,2.032227,46.875,10.070801,6.164551,,,,,,,,,,,0.0,1.0,1.0,1.0,0.0,0.0,0.0,5.0,0.0,0.1721614,0.2010839733333333,1.0698079733333332,-12.591145853333334,4.547526066666666,8.279622373333332,-32.916045534377645,3.629888982879974,11.693028889121816,21.62845314008188,35.98794983645395,43.04476096239057,60.13130603082879,0.8604715250946853,59.93615932842131,0.8947592737567769,-0.0925714,0.34920902666666676,0.9624190266666666,1.4041994533333333,1.0279916299724694,0.7976930029804591,0.8011903485962776,0.7791836952206532
