file_name,test_id,_program_index,program_index,session_id,index,_index,unixtime,datetime_utc,datetime_jst,rtc_year,rtc_month,rtc_day,rtc_hour,rtc_min,rtc_sec,rtc_msec,gps_hour,gps_min,gps_sec,latitude,longitude,altitude,fix_type,SIV,acc_x,acc_y,acc_z,gyro_x,gyro_y,gyro_z,mag_x,mag_y,mag_z,illuminance,atmopress,water_pressure,water_temp,depth,alt_wps,battery_level,behavior_class,camera_command,camera_recording,camera_count,play_audio,speaker_on,audio_file,prev_sd_write_time_ms,delay_occurred_counter,acc_x_ma,acc_y_ma,acc_z_ma,gyro_x_ma,gyro_y_ma,gyro_z_ma,gyro_x_lowpass,gyro_y_lowpass,gyro_z_lowpass,angle_x,angle_y,angle_z,combined_angle_change,gravity_adjusted_angle,smoothed_angle_change,smoothed_gravity_angle,acc_x_dy,acc_y_dy,acc_z_dy,ODBA,VeDBA,smoothed_VeDBA_1s,smoothed_VeDBA_2s,smoothed_VeDBA_3s
LBP00_S02,LBP00,-1650,1,2,0,-1650,1715225057.0,2024-05-09 03:24:17+00:00,2024-05-09 12:24:17+09:00,2024,5,9,3,24,17,0,3.0,24.0,17.0,40.555965,141.519302,4.66,3.0,13.0,0.158936,0.519287,1.410889,10.437012,21.911621,-45.166016,-259.0,-57.0,401.0,741.0,0.0,1015.400024,18.76,0.023783,-17.874563,4.021875,0.0,1.0,1.0,2.0,0.0,0.0,0.0,6.0,0.0,,,,,,,10.194515803275314,22.49410484461186,-45.27649083204123,0.40778063213101257,0.8997641937844745,-1.8110596332816493,2.062958468719149,,3.646706399447948,,,,,,,,,
LBP00_S02,LBP00,-1649,2,2,1,-1649,1715225057.04,2024-05-09 03:24:17.040000+00:00,2024-05-09 12:24:17.040000+09:00,2024,5,9,3,24,17,40,,,,,,,,,0.038818,0.352783,1.518311,-8.178711,18.859863,-25.817871,,,,,,,,,,,0.0,1.0,1.0,2.0,0.0,0.0,0.0,6.0,0.0,,,,,,,8.771022604434055,14.288999069076858,-29.752997268802776,0.7586215363083748,1.4713241565475488,-3.0011795240337604,3.427445104516007,,3.693374630478653,,,,,,,,,
LBP00_S02,LBP00,-1648,3,2,2,-1648,1715225057.08,2024-05-09 03:24:17.080000+00:00,2024-05-09 12:24:17.080000+09:00,2024,5,9,3,24,17,80,,,,,,,,,0.201172,0.327393,1.171631,-25.512695,61.279297,-27.404785,,,,,,,,,,,0.0,1.0,1.0,2.0,0.0,0.0,0.0,6.0,0.0,,,,,,,7.517642336078577,6.692961513573785,-15.494713544989198,1.059327229751518,1.7390426170905002,-3.6209680658333285,4.154257230544921,,3.6876338607874657,,,,,,,,,
LBP00_S02,LBP00,-1647,4,2,3,-1647,1715225057.12,2024-05-09 03:24:17.120000+00:00,2024-05-09 12:24:17.120000+09:00,2024,5,9,3,24,17,120,,,,,,,,,-0.33667,-0.4021,0.243896,43.334961,79.956055,-25.939941,,,,,,,,,,,0.0,1.0,1.0,2.0,0.0,0.0,0.0,6.0,0.0,,,,,,,6.630983332329273,0.4460435910854659,-3.7003026302673034,1.324566563044689,1.7568843607339188,-3.7689801710440207,4.364210211097818,,3.6689992574716523,,,,,,,,,
LBP00_S02,LBP00,-1646,5,2,4,-1646,1715225057.16,2024-05-09 03:24:17.160000+00:00,2024-05-09 12:24:17.160000+09:00,2024,5,9,3,24,17,160,,,,,,,,,-0.01001,0.626465,-0.111084,93.75,-48.156738,18.798828,,,,,,,,,,,0.0,1.0,1.0,2.0,0.0,0.0,0.0,6.0,0.0,,,,,,,6.290599449791265,-3.815286883223043,4.817806039221883,1.5761905410363397,1.6042728854049972,-3.5762679294751454,4.224660982361844,,3.6651066939064156,,,,,,,,,
LBP00_S02,LBP00,-1645,6,2,5,-1645,1715225057.2,2024-05-09 03:24:17.200000+00:00,2024-05-09 12:24:17.200000+09:00,2024,5,9,3,24,17,200,,,,,,,,,0.294434,0.377197,0.343994,-91.85791,-121.21582,74.890137,,,,,,,,,,,0.0,1.0,1.0,2.0,0.0,0.0,0.0,6.0,0.0,,,,,,,6.613225189479199,-5.76128639582209,9.784688543711413,1.8407195486155077,1.3738214295721136,-3.1848803877266887,3.9267157856321795,,3.689491866110628,,,,,,,,,
LBP00_S02,LBP00,-1644,7,2,6,-1644,1715225057.24,2024-05-09 03:24:17.240000+00:00,2024-05-09 12:24:17.240000+09:00,2024,5,9,3,24,17,240,,,,,,,,,0.639648,-0.00708,1.049561,-18.615723,-31.738281,18.493652,,,,,,,,,,,0.0,1.0,1.0,2.0,0.0,0.0,0.0,6.0,0.0,,,,,,,7.583587758240168,-5.5655407448497956,11.506646783978209,2.1440630589451146,1.1511997997781218,-2.72461451636756,3.6531892426403405,,3.912584517725226,,,,,,,,,
LBP00_S02,LBP00,-1643,8,2,7,-1643,1715225057.28,2024-05-09 03:24:17.280000+00:00,2024-05-09 12:24:17.280000+09:00,2024,5,9,3,24,17,280,,,,,,,,,0.315918,0.424072,1.230225,27.648926,21.240234,-10.131836,,,,,,,,,,,0.0,1.0,1.0,2.0,0.0,0.0,0.0,6.0,0.0,,,,,,,9.001719777988669,-3.9343862307809685,10.762165949094054,2.5041318500646614,0.9938243505468831,-2.294127878403798,3.5385570342609585,,4.042093832313287,,,,,,,,,
LBP00_S02,LBP00,-1642,9,2,8,-1642,1715225057.32,2024-05-09 03:24:17.320000+00:00,2024-05-09 12:24:17.320000+09:00,2024,5,9,3,24,17,320,,,,,,,,,0.143799,0.183105,1.679443,-1.403809,16.906738,-24.230957,,,,,,,,,,,0.0,1.0,1.0,2.0,0.0,0.0,0.0,6.0,0.0,,,,,,,10.505709806568547,-1.885276512271856,8.55293800675119,2.9243602423274035,0.9184132900560089,-1.9520103581337505,3.6339661853845238,,4.141767616188871,,,,,,,,,
LBP00_S02,LBP00,-1641,10,2,9,-1641,1715225057.36,2024-05-09 03:24:17.360000+00:00,2024-05-09 12:24:17.360000+09:00,2024,5,9,3,24,17,360,,,,,,,,,0.06958,0.414551,1.484619,47.973633,44.372559,-24.108887,,,,,,,,,,,0.0,1.0,1.0,2.0,0.0,0.0,0.0,6.0,0.0,,,,,,,11.686279251478645,-0.35007006667940777,5.8059794594364105,3.3918114123865495,0.9044104873888326,-1.719771179756294,3.9089584159485375,,4.261049959533638,,,,,,,,,
LBP00_S02,LBP00,-1640,11,2,10,-1640,1715225057.4,2024-05-09 03:24:17.400000+00:00,2024-05-09 12:24:17.400000+09:00,2024,5,9,3,24,17,400,,,,,,,,,0.053467,0.202148,0.934082,9.765625,94.970703,-26.489258,,,,,,,,,,,0.0,1.0,1.0,2.0,0.0,0.0,0.0,6.0,0.0,,,,,,,12.240819417248249,0.19877618936906985,3.1552620310171386,3.8814441890764795,0.9123615349635954,-1.5935606985156086,4.293884984865135,,4.431612085045302,,,,,,,,,
LBP00_S02,LBP00,-1639,12,2,11,-1639,1715225057.44,2024-05-09 03:24:17.440000+00:00,2024-05-09 12:24:17.440000+09:00,2024,5,9,3,24,17,440,,,,,,,,,-0.219971,0.250488,0.024414,89.172363,-0.366211,25.45166,,,,,,,,,,,0.0,1.0,1.0,2.0,0.0,0.0,0.0,6.0,0.0,,,,,,,12.080973556605077,-0.10169077746058802,0.8926531135492188,4.364683131340683,0.9082939038651718,-1.5578545739736398,4.7225382503966165,,4.665165430152698,,,,,,,,,
LBP00_S02,LBP00,-1638,13,2,12,-1638,1715225057.48,2024-05-09 03:24:17.480000+00:00,2024-05-09 12:24:17.480000+09:00,2024,5,9,3,24,17,480,,,,,,,,,-0.007324,0.401367,0.254395,-54.56543,-77.270508,54.199219,,,,,,,,,,,0.0,1.0,1.0,2.0,0.0,0.0,0.0,6.0,0.0,,,,,,,11.33221919417147,-0.66403618056181,-0.9162501712975649,4.817971899107541,0.8817324566426994,-1.5945045808255425,5.15099506930076,,4.954005178508055,,,,,,,,,
LBP00_S02,LBP00,-1637,14,2,13,-1637,1715225057.52,2024-05-09 03:24:17.520000+00:00,2024-05-09 12:24:17.520000+09:00,2024,5,9,3,24,17,520,,,,,,,,,0.599365,-0.312744,1.163818,-65.368652,-89.96582,22.705078,,,,,,,,,,,0.0,1.0,1.0,2.0,0.0,0.0,0.0,6.0,0.0,,,,,,,10.23009472835908,-0.8312630229209504,-2.248367238949372,5.227175688241904,0.8484819357258614,-1.6844392703835174,5.557033644545486,,5.275638198949624,,,,,,,,,
LBP00_S02,LBP00,-1636,15,2,14,-1636,1715225057.56,2024-05-09 03:24:17.560000+00:00,2024-05-09 12:24:17.560000+09:00,2024,5,9,3,24,17,560,,,,,,,,,0.433594,0.464355,1.143555,51.696777,-5.249023,0.854492,,,,,,,,,,,0.0,1.0,1.0,2.0,0.0,0.0,0.0,6.0,0.0,,,,,,,8.984919938081696,-0.26034427185833864,-3.0006646614492962,5.586572485765172,0.8380681648515278,-1.8044658568414893,5.930282237478479,,5.601290700148806,,,,,,,,,
LBP00_S02,LBP00,-1635,16,2,15,-1635,1715225057.6,2024-05-09 03:24:17.600000+00:00,2024-05-09 12:24:17.600000+09:00,2024,5,9,3,24,17,600,,,,,,,,,0.109863,0.449219,1.523193,37.231445,9.094238,-30.578613,,,,,,,,,,,0.0,1.0,1.0,2.0,0.0,0.0,0.0,6.0,0.0,,,,,,,7.701240712802716,0.9086338031882153,-3.0066754131681064,5.894622114277281,0.8744135169790564,-1.9247328733682136,6.262249236706145,,5.904576569789308,,,,,,,,,
LBP00_S02,LBP00,-1634,17,2,16,-1634,1715225057.64,2024-05-09 03:24:17.640000+00:00,2024-05-09 12:24:17.640000+09:00,2024,5,9,3,24,17,640,,,,,,,,,0.103516,0.209229,1.631592,-1.647949,27.709961,-41.992188,,,,,,,,,,,0.0,1.0,1.0,2.0,0.0,0.0,0.0,6.0,0.0,,,,,,,6.383530323113455,2.175286860959035,-2.168169618936877,6.149963327201819,0.9614249914174179,-2.0114596581256885,6.54158672619391,,6.165912482032033,,,,,,,,,
LBP00_S02,LBP00,-1633,18,2,17,-1633,1715225057.68,2024-05-09 03:24:17.680000+00:00,2024-05-09 12:24:17.680000+09:00,2024,5,9,3,24,17,680,,,,,,,,,0.090332,0.239014,1.007568,-3.173828,94.543457,-42.480469,,,,,,,,,,,0.0,1.0,1.0,2.0,0.0,0.0,0.0,6.0,0.0,,,,,,,4.99053615092539,2.9920690462797572,-0.5962219701846196,6.349584773238835,1.0811077532686082,-2.0353085369330732,6.7548872386766465,,6.372336206815047,,,,,,,,,
LBP00_S02,LBP00,-1632,19,2,18,-1632,1715225057.72,2024-05-09 03:24:17.720000+00:00,2024-05-09 12:24:17.720000+09:00,2024,5,9,3,24,17,720,,,,,,,,,-0.384033,0.351562,-0.022217,68.969727,52.246094,22.766113,,,,,,,,,,,0.0,1.0,1.0,2.0,0.0,0.0,0.0,6.0,0.0,,,,,,,3.480912356572565,3.063382472812657,1.3517199541222564,6.488821267501738,1.2036430521811146,-1.981239738768183,6.890491197376348,,6.515172214205495,,,,,,,,,
LBP00_S02,LBP00,-1631,20,2,19,-1631,1715225057.76,2024-05-09 03:24:17.760000+00:00,2024-05-09 12:24:17.760000+09:00,2024,5,9,3,24,17,760,,,,,,,,,0.063477,-0.038086,0.41748,-98.754883,-68.481445,40.222168,,,,,,,,,,,0.0,1.0,1.0,2.0,0.0,0.0,0.0,6.0,0.0,,,,,,,1.8236991654242813,2.45465441565734,3.181438464865366,6.561769234118709,1.3018292288074083,-1.8539822001735684,6.941817112353548,,6.587903215547253,,,,,,,,,
LBP00_S02,LBP00,-1630,21,2,20,-1630,1715225057.8,2024-05-09 03:24:17.800000+00:00,2024-05-09 12:24:17.800000+09:00,2024,5,9,3,24,17,800,,,,,,,,,0.451416,0.063965,0.932373,12.817383,-66.040039,47.851562,,,,,,,,,,,0.0,1.0,1.0,2.0,0.0,0.0,0.0,6.0,0.0,,,,,,,-0.011211783533466853,1.4710906660345098,4.459368309565516,6.56132076277737,1.3606728554487886,-1.6756074677909478,6.907244107292384,,6.585529670167676,,,,,,,,,
LBP00_S02,LBP00,-1629,22,2,21,-1629,1715225057.84,2024-05-09 03:24:17.840000+00:00,2024-05-09 12:24:17.840000+09:00,2024,5,9,3,24,17,840,,,,,,,,,0.443115,0.516357,1.067383,18.432617,-8.117676,20.202637,,,,,,,,,,,0.0,1.0,1.0,2.0,0.0,0.0,0.0,6.0,0.0,,,,,,,-2.0477313101444223,0.41989765513457245,4.977045799033091,6.479411510371594,1.3774687616541714,-1.4765256358296242,6.786775498226757,,6.505399881009517,,,,,,,,,
LBP00_S02,LBP00,-1628,23,2,22,-1628,1715225057.88,2024-05-09 03:24:17.880000+00:00,2024-05-09 12:24:17.880000+09:00,2024,5,9,3,24,17,880,,,,,,,,,0.101562,0.14624,1.602539,10.131836,-13.48877,-30.700684,,,,,,,,,,,0.0,1.0,1.0,2.0,0.0,0.0,0.0,6.0,0.0,,,,,,,-4.265711691489842,-0.5659950050224744,4.784404677029995,6.308783042712,1.3548289614532725,-1.2851494487484243,6.579355143205253,,6.348593870037606,,,,,,,,,
LBP00_S02,LBP00,-1627,24,2,23,-1627,1715225057.92,2024-05-09 03:24:17.920000+00:00,2024-05-09 12:24:17.920000+09:00,2024,5,9,3,24,17,920,,,,,,,,,0.100098,0.56958,1.557617,12.878418,8.605957,-27.648926,,,,,,,,,,,0.0,1.0,1.0,2.0,0.0,0.0,0.0,6.0,0.0,,,,,,,-6.554677349200478,-1.5316979405786957,4.084658525077817,6.046595948743981,1.2935610438301246,-1.1217631077453116,6.284343657963052,,6.120815601004299,,,,,,,,,
LBP00_S02,LBP00,-1626,25,2,24,-1626,1715225057.96,2024-05-09 03:24:17.960000+00:00,2024-05-09 12:24:17.960000+09:00,2024,5,9,3,24,17,960,,,,,,,,,0.121094,0.178711,1.168701,-6.835938,88.928223,-33.996582,,,,,,,,,,,0.0,1.0,1.0,2.0,0.0,0.0,0.0,6.0,0.0,,,,,,,-8.70717816424904,-2.5571622230049083,3.0761431351018333,5.6983088221740195,1.1912745549099282,-0.9987173823412383,5.906546783682717,,5.832214803794061,,,,,,,,,
LBP00_S02,LBP00,-1625,26,2,25,-1625,1715225058.0,2024-05-09 03:24:18+00:00,2024-05-09 12:24:18+09:00,2024,5,9,3,24,18,0,3.0,24.0,18.0,40.555939,141.519409,4.087,3.0,13.0,-0.408203,0.418457,-0.088867,-24.230957,40.466309,8.728027,-263.0,-53.0,396.0,777.0,0.0,1015.200012,18.74,0.021802,-16.213024,4.021875,0.0,1.0,1.0,2.0,0.0,0.0,0.0,4.0,0.0,,,,,,,-10.47707160446798,-3.597265598529801,1.8547648901000364,5.2792259579953,1.047383930968736,-0.9245267867372369,5.460951345124547,,5.496259521796689,,,,,,,,,
LBP00_S02,LBP00,-1624,27,2,26,-1624,1715225058.04,2024-05-09 03:24:18.040000+00:00,2024-05-09 12:24:18.040000+09:00,2024,5,9,3,24,18,40,,,,,,,,,0.045654,-0.389404,0.511719,-96.069336,-56.70166,28.869629,,,,,,,,,,,0.0,1.0,1.0,2.0,0.0,0.0,0.0,4.0,0.0,,,,,,,-11.67664728499166,-4.442266780723536,0.4372444914837547,4.812160066595634,0.8696932597397946,-0.9070370070778867,4.973526616474807,,5.128286141259464,,,,,,,,,
LBP00_S02,LBP00,-1623,28,2,27,-1623,1715225058.08,2024-05-09 03:24:18.080000+00:00,2024-05-09 12:24:18.080000+09:00,2024,5,9,3,24,18,80,,,,,,,,,0.376709,0.58667,0.796875,84.899902,-69.702148,60.668945,,,,,,,,,,,0.0,1.0,1.0,2.0,0.0,0.0,0.0,4.0,0.0,,,,,,,-12.250928282596783,-4.841086240491674,-1.1289472662661861,4.322122935291763,0.6760498101201277,-0.9521948977285342,4.477104548343584,,4.744382829592196,,,,,,,,,
LBP00_S02,LBP00,-1622,29,2,28,-1622,1715225058.12,2024-05-09 03:24:18.120000+00:00,2024-05-09 12:24:18.120000+09:00,2024,5,9,3,24,18,120,,,,,,,,,0.448242,0.029053,1.213135,-79.040527,-20.935059,-7.385254,,,,,,,,,,,0.0,1.0,1.0,2.0,0.0,0.0,0.0,4.0,0.0,,,,,,,-12.279263993691023,-4.69873352264881,-2.66973484573324,3.8309523755441224,0.48810046921417527,-1.0589842915578638,4.0044832252739635,,4.360956449375658,,,,,,,,,
LBP00_S02,LBP00,-1621,30,2,29,-1621,1715225058.16,2024-05-09 03:24:18.160000+00:00,2024-05-09 12:24:18.160000+09:00,2024,5,9,3,24,18,160,,,,,,,,,0.086914,0.424805,1.321289,30.334473,-19.836426,-24.841309,,,,,,,,,,,0.0,1.0,1.0,2.0,0.0,0.0,0.0,4.0,0.0,,,,,,,-11.90486819016084,-4.193258087993425,-3.8937721727858863,3.3547576479376886,0.3203701456944382,-1.2147351784692992,3.582264292379825,,3.994812195578627,,,,,,,,,
LBP00_S02,LBP00,-1620,31,2,30,-1620,1715225058.2,2024-05-09 03:24:18.200000+00:00,2024-05-09 12:24:18.200000+09:00,2024,5,9,3,24,18,200,,,,,,,,,0.190186,0.38501,1.608154,21.789551,-1.220703,-26.489258,,,,,,,,,,,0.0,1.0,1.0,2.0,0.0,0.0,0.0,4.0,0.0,,,,,,,-11.24042673455327,-3.7099245364691043,-4.518994674668682,2.905140578555558,0.17197316423567405,-1.3954949654560465,3.2275103019201232,,3.662861069999585,,,,,,,,,
LBP00_S02,LBP00,-1619,32,2,31,-1619,1715225058.24,2024-05-09 03:24:18.240000+00:00,2024-05-09 12:24:18.240000+09:00,2024,5,9,3,24,18,240,,,,,,,,,0.225342,0.281738,1.305176,-41.992188,59.265137,-38.452148,,,,,,,,,,,0.0,1.0,1.0,2.0,0.0,0.0,0.0,4.0,0.0,,,,,,,-10.309222546490533,-3.6179051386886023,-4.439235605570353,2.4927716766959365,0.02725695868812994,-1.5730643896788605,2.9477423815540806,,3.3805449771497296,,,,,,,,,
LBP00_S02,LBP00,-1618,33,2,32,-1618,1715225058.28,2024-05-09 03:24:18.280000+00:00,2024-05-09 12:24:18.280000+09:00,2024,5,9,3,24,18,280,,,,,,,,,-0.515625,0.057617,0.157227,-1.77002,111.328125,-33.26416,,,,,,,,,,,0.0,1.0,1.0,2.0,0.0,0.0,0.0,4.0,0.0,,,,,,,-9.055915164412898,-4.0276517424551885,-3.818720256804423,2.1305350701194206,-0.1338491110100776,-1.7258131999510375,2.745091341039892,,3.159490381703641,,,,,,,,,
LBP00_S02,LBP00,-1617,34,2,33,-1617,1715225058.32,2024-05-09 03:24:18.320000+00:00,2024-05-09 12:24:18.320000+09:00,2024,5,9,3,24,18,320,,,,,,,,,0.083008,-0.043701,0.26001,-15.625,-57.556152,31.433105,,,,,,,,,,,0.0,1.0,1.0,2.0,0.0,0.0,0.0,4.0,0.0,,,,,,,-7.418387544666728,-4.6940097544167845,-3.0428500177887114,1.8337995683327515,-0.32160950118674897,-1.847527200662586,2.622901119992728,,3.006031613828647,0.9903043203934412,,,,,,,,
LBP00_S02,LBP00,-1616,35,2,34,-1616,1715225058.36,2024-05-09 03:24:18.360000+00:00,2024-05-09 12:24:18.360000+09:00,2024,5,9,3,24,18,360,,,,,,,,,0.202148,0.407959,0.479736,-11.901855,-93.139648,58.71582,,,,,,,,,,,0.0,1.0,1.0,2.0,0.0,0.0,0.0,4.0,0.0,,,,,,,-5.4169684164925345,-5.144898864834029,-2.5426913816021695,1.61712083167305,-0.5274054557801101,-1.9492348559266728,2.587035527892309,,2.9213265176721146,0.9857553785800258,,,,,,,,
LBP00_S02,LBP00,-1615,36,2,35,-1615,1715225058.4,2024-05-09 03:24:18.400000+00:00,2024-05-09 12:24:18.400000+09:00,2024,5,9,3,24,18,400,,,,,,,,,0.508789,-0.099609,1.106689,-37.597656,-40.893555,13.122559,,,,,,,,,,,0.0,1.0,1.0,2.0,0.0,0.0,0.0,4.0,0.0,,,,,,,-3.208469225324449,-4.961485063528733,-2.5927736119533997,1.488782062660072,-0.7258648583212595,-2.052945800404809,2.6377904166259802,,2.9024565901295922,0.9816325025764506,,,,,,,,
LBP00_S02,LBP00,-1614,37,2,36,-1614,1715225058.44,2024-05-09 03:24:18.440000+00:00,2024-05-09 12:24:18.440000+09:00,2024,5,9,3,24,18,440,,,,,,,,,0.21582,0.601562,1.088379,35.400391,5.615234,-25.146484,,,,,,,,,,,0.0,1.0,1.0,2.0,0.0,0.0,0.0,4.0,0.0,,,,,,,-1.0703804235471177,-4.0257930316667885,-3.2007559314646286,1.4459668457181873,-0.886896579587931,-2.180976037663394,2.7629806620139226,,2.9438562920678057,0.9784313453971134,,,,,,,,
LBP00_S02,LBP00,-1613,38,2,37,-1613,1715225058.48,2024-05-09 03:24:18.480000+00:00,2024-05-09 12:24:18.480000+09:00,2024,5,9,3,24,18,480,,,,,,,,,0.259521,0.20752,1.535156,6.164551,-8.789062,-26.794434,,,,,,,,,,,0.0,1.0,1.0,2.0,0.0,0.0,0.0,4.0,0.0,0.16674478666666664,0.2595442266666667,0.9535969733333334,2.995605466666667,0.18066409333333425,-0.7771810533333332,0.6858861408158532,-2.5769852047976856,-4.145431379339924,1.4734022913508216,-0.9899759877798384,-2.346793292836991,2.9425168695936486,0.9903043203934412,3.0388074312018505,0.9761423794538597,0.09277621333333336,-0.0520242266666667,0.5815590266666666,0.7263594666666666,0.5912062646980473,0.5912062646980473,0.5912062646980473,0.5912062646980473
LBP00_S02,LBP00,-1612,39,2,38,-1612,1715225058.52,2024-05-09 03:24:18.520000+00:00,2024-05-09 12:24:18.520000+09:00,2024,5,9,3,24,18,520,,,,,,,,,0.202637,0.545654,1.459229,-20.874023,24.047852,-23.010254,,,,,,,,,,,0.0,1.0,1.0,2.0,0.0,0.0,0.0,4.0,0.0,0.16701170666666665,0.25457352,0.9489062133333335,2.9980468666666664,0.10416669333333427,-0.2620443333333332,1.8395710513687786,-1.0526013658202682,-5.121949491977565,1.5469851334055726,-1.032080042412649,-2.5516712725160935,3.1574322637086376,0.9812064367666105,3.180593831954627,0.9721995302613684,0.03562529333333336,0.29108048,0.5103227866666666,0.83702856,0.5885799469514303,0.5898931058247388,0.5898931058247388,0.5898931058247388
LBP00_S02,LBP00,-1611,40,2,39,-1611,1715225058.56,2024-05-09 03:24:18.560000+00:00,2024-05-09 12:24:18.560000+09:00,2024,5,9,3,24,18,560,,,,,,,,,0.108154,0.167236,0.98584,9.643555,102.111816,-34.973145,,,,,,,,,,,0.0,1.0,1.0,2.0,0.0,0.0,0.0,4.0,0.0,0.16939452,0.2537890133333333,0.9423079066666668,3.0623372266666666,-0.056152306666665756,0.03173821333333343,2.3718342779376345,0.1716621019877564,-5.892870977513116,1.641858504523078,-1.0252135583331388,-2.7873861116166183,3.393565016954599,0.9733867505693001,3.362932552313198,0.9696768945686562,-0.06124051999999999,-0.08655301333333332,0.0435320933333333,0.1913256266666666,0.11461617929826755,0.4314674636492484,0.4314674636492484,0.4314674636492484
LBP00_S02,LBP00,-1610,41,2,40,-1610,1715225058.6,2024-05-09 03:24:18.600000+00:00,2024-05-09 12:24:18.600000+09:00,2024,5,9,3,24,18,600,,,,,,,,,-0.271484,0.363525,-0.125,76.23291,11.59668,10.131836,,,,,,,,,,,0.0,1.0,1.0,2.0,0.0,0.0,0.0,4.0,0.0,0.16973305333333333,0.25166661333333334,0.9418619466666667,3.4431966,-0.8504231466666656,0.4272460266666668,2.516179448391894,0.9747590036667907,-6.3565092579111155,1.7425056824587537,-0.9862231981864671,-3.041646481933063,3.641507321302261,0.968827873859102,3.5802159813721524,0.9705396584612451,-0.44121705333333333,0.11185838666666664,-1.0668619466666667,1.6199373866666666,1.1599048237097769,0.6135768036643805,0.6135768036643805,0.6135768036643805
LBP00_S02,LBP00,-1609,42,2,41,-1609,1715225058.64,2024-05-09 03:24:18.640000+00:00,2024-05-09 12:24:18.640000+09:00,2024,5,9,3,24,18,640,,,,,,,,,0.083496,0.169678,0.4375,-49.560547,-67.871094,28.686523,,,,,,,,,,,0.0,1.0,1.0,2.0,0.0,0.0,0.0,4.0,0.0,0.17676105333333333,0.26127925333333335,0.9521972399999998,3.0444335733333334,-1.814778613333333,0.7609048800000001,2.7169691578990345,1.4962529724996172,-6.51009485052611,1.851184448774715,-0.9263730792864824,-3.302050275954107,3.8972537728945316,0.9669865156808453,3.8286201069559467,0.9712437225237827,-0.09326505333333333,-0.09160125333333335,-0.5146972399999998,0.6995635466666665,0.5310389897635808,0.5970692408842206,0.5970692408842206,0.5970692408842206
LBP00_S02,LBP00,-1608,43,2,42,-1608,1715225058.68,2024-05-09 03:24:18.680000+00:00,2024-05-09 12:24:18.680000+09:00,2024,5,9,3,24,18,680,,,,,,,,,0.384033,0.142578,1.019531,3.173828,-51.147461,20.751953,,,,,,,,,,,0.0,1.0,1.0,2.0,0.0,0.0,0.0,4.0,0.0,0.17914386666666665,0.25615881333333335,0.9670768,2.20947264,-1.1246744533333326,0.4703775333333335,3.493469394715921,1.962573099825111,-6.357186695614728,1.990923224563352,-0.847870155293478,-3.556337743778696,4.162955348567658,0.9524852842989111,4.107841225300756,0.9720815212076538,0.20488913333333336,-0.11358081333333334,0.052454200000000006,0.37092414666666673,0.24006582683336244,0.5375686718757442,0.5375686718757442,0.5375686718757442
LBP00_S02,LBP00,-1607,44,2,43,-1607,1715225058.72,2024-05-09 03:24:18.720000+00:00,2024-05-09 12:24:18.720000+09:00,2024,5,9,3,24,18,720,,,,,,,,,0.358154,0.362305,1.144043,-7.019043,-5.310059,-23.071289,,,,,,,,,,,0.0,1.0,1.0,2.0,0.0,0.0,0.0,4.0,0.0,0.17764321333333336,0.25504228,0.97625324,3.7768554533333334,0.4736328400000005,-0.5851237733333331,5.250252425291897,2.465904612784272,-5.841295281811016,2.200933321575028,-0.7492339707821071,-3.789989555051137,4.446288323578434,0.9545410804123835,4.421827367273213,0.9701158981757987,0.18051078666666662,0.10726271999999998,0.1677897599999999,0.45556326666666647,0.26878027971872265,0.4991703301390268,0.4991703301390268,0.4991703301390268
LBP00_S02,LBP00,-1606,45,2,44,-1606,1715225058.76,2024-05-09 03:24:18.760000+00:00,2024-05-09 12:24:18.760000+09:00,2024,5,9,3,24,18,760,,,,,,,,,0.294434,0.357178,1.43042,-25.390625,-17.150879,-10.681152,,,,,,,,,,,0.0,1.0,1.0,2.0,0.0,0.0,0.0,4.0,0.0,0.17156249333333332,0.25870763999999996,0.9765266666666665,3.7809244666666664,0.837402373333334,-0.8398438266666665,8.111496058552985,2.8594267676662164,-4.861087508713495,2.5253931639171476,-0.6348569000754585,-3.9844330553996765,4.759869818481855,0.9765790057093671,4.777515920081678,0.9685142719345151,0.12287150666666666,0.09847036000000003,0.4538933333333335,0.6752352000000001,0.4804299917714452,0.4968277878430791,0.4968277878430791,0.4968277878430791
LBP00_S02,LBP00,-1605,46,2,45,-1605,1715225058.8,2024-05-09 03:24:18.800000+00:00,2024-05-09 12:24:18.800000+09:00,2024,5,9,3,24,18,800,,,,,,,,,0.204102,0.41748,1.595703,19.897461,20.996094,-14.831543,,,,,,,,,,,0.0,1.0,1.0,2.0,0.0,0.0,0.0,4.0,0.0,0.17023437333333333,0.25683264,0.9737760133333334,3.6531575333333333,0.5566406533333338,-0.6909180399999999,11.85435015610616,2.8467524113379015,-3.358614540448267,2.999567170161394,-0.5209868036219424,-4.118777637017607,5.121831672463923,0.9768762350240825,5.182047039022559,0.9660575267389682,0.03386762666666668,0.16064736000000002,0.6219269866666667,0.8164419733333333,0.6432322808716012,0.5130949537351371,0.5130949537351371,0.5130949537351371
LBP00_S02,LBP00,-1604,47,2,46,-1604,1715225058.84,2024-05-09 03:24:18.840000+00:00,2024-05-09 12:24:18.840000+09:00,2024,5,9,3,24,18,840,,,,,,,,,0.205566,0.182861,1.231689,8.117676,88.867188,-29.846191,,,,,,,,,,,0.0,1.0,1.0,2.0,0.0,0.0,0.0,4.0,0.0,0.17097005333333334,0.2597232666666667,0.9646614400000001,4.1349283733333335,0.35888674666666714,-0.3678386133333332,15.97085222808971,2.206903942385785,-1.4185199860765145,3.638401259284983,-0.432710645926511,-4.175518436460668,5.555191845462011,0.9796217093624945,5.639537138457692,0.9630166124643994,0.034595946666666655,-0.07686226666666668,0.26702755999999994,0.3784857733333333,0.2800150091735338,0.48978695927897686,0.48978695927897686,0.48978695927897686
LBP00_S02,LBP00,-1603,48,2,47,-1603,1715225058.88,2024-05-09 03:24:18.880000+00:00,2024-05-09 12:24:18.880000+09:00,2024,5,9,3,24,18,880,,,,,,,,,-0.310791,0.011719,0.180664,109.863281,71.960449,-5.737305,,,,,,,,,,,0.0,1.0,1.0,2.0,0.0,0.0,0.0,4.0,0.0,0.17340494666666667,0.25822261333333335,0.9589452933333333,3.1079101466666663,-0.19775387999999955,0.0073241466666668364,19.824276409816775,0.9994196616701947,0.6936229216545622,4.431372315677654,-0.3927338594597032,-4.147773519594486,6.082378289318224,0.9706480900748903,6.148456931959563,0.9630782787076612,-0.48419594666666665,-0.24650361333333334,-0.7782812933333334,1.5089808533333335,0.9491741240190996,0.5315494288008061,0.5315494288008061,0.5315494288008061
LBP00_S02,LBP00,-1602,49,2,48,-1602,1715225058.92,2024-05-09 03:24:18.920000+00:00,2024-05-09 12:24:18.920000+09:00,2024,5,9,3,24,18,920,,,,,,,,,-0.08252,0.564453,0.049316,24.291992,-55.847168,13.427734,,,,,,,,,,,0.0,1.0,1.0,2.0,0.0,0.0,0.0,4.0,0.0,0.17598957333333334,0.25892899999999996,0.9613216,2.7604166533333334,-1.4420572666666664,0.3312173733333335,22.819840290497737,-0.40416242301198946,2.591808195673355,5.3441659272975635,-0.40890035638018274,-4.044101191767552,6.714317791793281,0.9651901743537757,6.700379292442358,0.9647203067425074,-0.25850957333333335,0.305524,-0.9120056,1.4760391733333333,0.9959549831756163,0.5702498916653737,0.5702498916653737,0.5702498916653737
LBP00_S02,LBP00,-1601,50,2,49,-1601,1715225058.96,2024-05-09 03:24:18.960000+00:00,2024-05-09 12:24:18.960000+09:00,2024,5,9,3,24,18,960,,,,,,,,,0.510742,-0.362549,1.123291,-92.102051,-86.303711,37.536621,,,,,,,,,,,0.0,1.0,1.0,2.0,0.0,0.0,0.0,4.0,0.0,0.18244790666666666,0.25881181333333336,0.9756803199999999,1.4420572799999998,-1.1995442399999994,0.02522778666666684,24.51469917463695,-1.5076047957358782,3.910019530117191,6.324753894283042,-0.4692045482096179,-3.887700410562864,7.438876206363416,0.9488192986138291,7.28032531639189,0.965431021111782,0.32829409333333337,-0.6213608133333334,0.1476106800000001,1.097265586666667,0.7180913485858741,0.5816223114284891,0.5816223114284891,0.5816223114284891
LBP00_S02,LBP00,-1600,51,2,50,-1600,1715225059.0,2024-05-09 03:24:19+00:00,2024-05-09 12:24:19+09:00,2024,5,9,3,24,19,0,3.0,24.0,19.0,40.555904,141.519501,3.413,3.0,13.0,0.371826,0.381104,0.903564,93.017578,-15.563965,24.169922,-260.0,-49.0,401.0,750.0,0.0,1015.599976,18.77,0.025765,-19.53533,4.021875,0.0,1.0,1.0,2.0,0.0,0.0,0.0,4.0,0.0,0.18558917333333333,0.25723304,0.9860481466666667,2.366536453333333,0.06347660000000072,-0.7071940933333332,24.650386804464432,-1.9875406843037096,4.453163123731795,7.310769366461619,-0.5487061755817663,-3.709573885613592,8.216408315653593,0.9384187311134154,7.868316149486107,0.9640856387690848,0.18623682666666666,0.12387095999999997,-0.0824841466666667,0.3925919333333333,0.23839422138449545,0.5571060192824896,0.5571060192824896,0.5571060192824896
LBP00_S02,LBP00,-1599,52,2,51,-1599,1715225059.04,2024-05-09 03:24:19.040000+00:00,2024-05-09 12:24:19.040000+09:00,2024,5,9,3,24,19,40,,,,,,,,,0.207275,0.464111,1.075195,-18.798828,-19.53125,5.737305,,,,,,,,,,,0.0,1.0,1.0,2.0,0.0,0.0,0.0,4.0,0.0,0.18001625333333332,0.26632484,0.98322588,3.390299466666667,1.539713573333334,-1.1840821066666665,23.149979427366784,-1.9067643449333826,4.275504522034826,8.236768543556291,-0.6249767493791015,-3.538553704732199,8.986451707913243,0.9676031781134615,8.441443784925864,0.9633336845300153,0.027258746666666667,0.19778616,0.0919691199999999,0.31701402666666656,0.21981975204916754,0.5346202681336014,0.5346202681336014,0.5346202681336014
LBP00_S02,LBP00,-1598,53,2,52,-1598,1715225059.08,2024-05-09 03:24:19.080000+00:00,2024-05-09 12:24:19.080000+09:00,2024,5,9,3,24,19,80,,,,,,,,,0.209961,0.35498,1.415039,73.852539,-1.281738,-10.009766,,,,,,,,,,,0.0,1.0,1.0,2.0,0.0,0.0,0.0,4.0,0.0,0.17697588,0.26245114666666663,0.9821874666666668,2.7221679599999997,1.759440133333334,-1.1735026799999997,20.123356891932573,-1.6982671296645977,3.6402068299693258,9.041702819233594,-0.6929074345656854,-3.392945431533426,9.682178953395598,0.9689055646473735,8.975920959742293,0.9607929037418421,0.03298512000000001,0.09252885333333338,0.43285153333333315,0.5583655066666665,0.4438581493558652,0.5289476357099929,0.5289476357099929,0.5289476357099929
LBP00_S02,LBP00,-1597,54,2,53,-1597,1715225059.12,2024-05-09 03:24:19.120000+00:00,2024-05-09 12:24:19.120000+09:00,2024,5,9,3,24,19,120,,,,,,,,,0.208496,0.405518,1.384521,25.939941,26.428223,-21.362305,,,,,,,,,,,0.0,1.0,1.0,2.0,0.0,0.0,0.0,4.0,0.0,0.1790462,0.26128251999999996,0.9798632533333334,2.686360666666666,2.438964880000001,-1.0555013866666665,15.876328489608953,-1.9179138921081496,2.8806806120333404,9.676755958817951,-0.7696239902500114,-3.2777182070520925,10.245748563073752,0.9616482241051307,9.44893781249345,0.9564570901351415,0.029449799999999998,0.14423548000000003,0.40465774666666654,0.5783430266666666,0.4306031309085136,0.5231626648393176,0.5231626648393176,0.5231626648393176
LBP00_S02,LBP00,-1596,55,2,54,-1596,1715225059.16,2024-05-09 03:24:19.160000+00:00,2024-05-09 12:24:19.160000+09:00,2024,5,9,3,24,19,160,,,,,,,,,0.168457,0.35376,1.041504,-0.732422,82.15332,-23.376465,,,,,,,,,,,0.0,1.0,1.0,2.0,0.0,0.0,0.0,4.0,0.0,0.17742836,0.2598176666666666,0.9688899466666667,3.4448242,3.288574253333334,-1.1181641466666665,10.886017770234474,-2.9007849479861254,2.2404923961855436,10.11219666962733,-0.8856553881694564,-3.1880985112046707,10.639778149424032,0.9631251822823953,9.840525982023017,0.9533707105296731,-0.008971360000000012,0.0939423333333334,0.07261405333333326,0.17552774666666668,0.11907328849854149,0.5007132550426079,0.5007132550426079,0.5007132550426079
LBP00_S02,LBP00,-1595,56,2,55,-1595,1715225059.2,2024-05-09 03:24:19.200000+00:00,2024-05-09 12:24:19.200000+09:00,2024,5,9,3,24,19,200,,,,,,,,,-0.217285,0.206543,0.282227,-22.338867,58.71582,-1.586914,,,,,,,,,,,0.0,1.0,1.0,2.0,0.0,0.0,0.0,4.0,0.0,0.17375974666666666,0.25804032000000005,0.9554264133333331,3.8069661200000002,1.4925130533333337,-0.4272461733333332,5.721867023156709,-4.516273895009075,1.7794721648039926,10.341071350553598,-1.0663063439698195,-3.116919624612511,10.85310802686149,0.9693566926333886,10.13574975803473,0.9530672193140605,-0.39104474666666666,-0.05149732000000004,-0.6731994133333331,1.1157414799999998,0.7802342071295796,0.5154248840998169,0.5154248840998169,0.5154248840998169
LBP00_S02,LBP00,-1594,57,2,56,-1594,1715225059.24,2024-05-09 03:24:19.240000+00:00,2024-05-09 12:24:19.240000+09:00,2024,5,9,3,24,19,240,,,,,,,,,0.088379,-0.1875,0.362793,-37.597656,-79.040527,17.944336,,,,,,,,,,,0.0,1.0,1.0,2.0,0.0,0.0,0.0,4.0,0.0,0.17942054666666668,0.25765621333333333,0.9586686000000001,2.4479166399999994,-0.7503254933333328,0.14811190666666676,0.9363841489413914,-6.173021903718862,1.3934872955938615,10.378526716511253,-1.313227220118574,-3.0611801327887562,10.899963593626302,0.95421390148076,10.32715793711582,0.9538274039001378,-0.09104154666666668,-0.44515621333333333,-0.5958756000000001,1.1320733600000001,0.7493466141673633,0.5271209706031942,0.5271209706031942,0.5271209706031942
LBP00_S02,LBP00,-1593,58,2,57,-1593,1715225059.28,2024-05-09 03:24:19.280000+00:00,2024-05-09 12:24:19.280000+09:00,2024,5,9,3,24,19,280,,,,,,,,,0.443359,0.55957,0.800781,83.679199,-75.012207,43.823242,,,,,,,,,,,0.0,1.0,1.0,2.0,0.0,0.0,0.0,4.0,0.0,0.18767249333333336,0.2539648133333333,0.96827472,1.8017577866666663,-1.2312825333333328,0.5208332666666668,-3.025481461760363,-7.08871775150649,0.9276843800682278,10.257507458040838,-1.5967759301788336,-3.024072757586027,10.812546816829782,0.927289954007884,10.416783998390384,0.951210946907046,0.25568650666666665,0.3056051866666667,-0.16749372000000007,0.7287854133333335,0.4322317272579721,0.5226024352058027,0.5226024352058027,0.5226024352058027
LBP00_S02,LBP00,-1592,59,2,58,-1592,1715225059.32,2024-05-09 03:24:19.320000+00:00,2024-05-09 12:24:19.320000+09:00,2024,5,9,3,24,19,320,,,,,,,,,0.473389,0.217529,1.119873,-45.471191,-27.709961,2.563477,,,,,,,,,,,0.0,1.0,1.0,2.0,0.0,0.0,0.0,4.0,0.0,0.18776038666666667,0.25809566666666667,0.9702376133333334,2.88818356,-0.33528643999999963,0.09114577333333349,-5.868501947728698,-6.682375736413973,0.3085812099300332,10.02276738013169,-1.8640709596353924,-3.0117295091888256,10.630199487088971,0.9343263782990928,10.416705853907468,0.9496378281566612,0.28562861333333334,-0.04056666666666667,0.14963538666666654,0.4758306666666665,0.32499247397755243,0.5136201642408822,0.5136201642408822,0.5136201642408822
LBP00_S02,LBP00,-1591,60,2,59,-1591,1715225059.36,2024-05-09 03:24:19.360000+00:00,2024-05-09 12:24:19.360000+09:00,2024,5,9,3,24,19,360,,,,,,,,,0.217773,0.15918,1.378418,-27.587891,-6.04248,-15.74707,,,,,,,,,,,0.0,1.0,1.0,2.0,0.0,0.0,0.0,4.0,0.0,0.18343421333333332,0.25849281333333335,0.9743814933333335,3.0582682,0.1521810133333337,-0.4524740266666665,-7.449048712915094,-4.874613657792588,-0.3857686270861203,9.724805431615087,-2.059055505947096,-3.0271602542722706,10.391113966480548,0.9457843864577021,10.3475751127616,0.9465199089496314,0.034338786666666676,-0.09931281333333336,0.40403650666666646,0.5376881066666666,0.41747776693055594,0.5094400600099985,0.5094400600099985,0.5094400600099985
LBP00_S02,LBP00,-1590,61,2,60,-1590,1715225059.4,2024-05-09 03:24:19.400000+00:00,2024-05-09 12:24:19.400000+09:00,2024,5,9,3,24,19,400,,,,,,,,,0.240723,0.597168,1.34375,25.20752,5.310059,-6.713867,,,,,,,,,,,0.0,1.0,1.0,2.0,0.0,0.0,0.0,4.0,0.0,0.18420245333333335,0.25975583999999996,0.9738085733333333,3.1958007466666665,0.7421875333333338,-0.4508464133333332,-7.7607527996146475,-2.1446386634143755,-0.9533301512220824,9.414375319630501,-2.144841052483671,-3.065293460321154,10.130490106464485,0.9460205769741897,10.235326780430551,0.9433629264528138,0.05652054666666664,0.33741216000000007,0.36994142666666674,0.7638741333333334,0.5038831184665084,0.5092085207790197,0.5092085207790197,0.5092085207790197
LBP00_S02,LBP00,-1589,62,2,61,-1589,1715225059.44,2024-05-09 03:24:19.440000+00:00,2024-05-09 12:24:19.440000+09:00,2024,5,9,3,24,19,440,,,,,,,,,0.230225,0.134521,1.400879,-9.338379,24.597168,-12.390137,,,,,,,,,,,0.0,1.0,1.0,2.0,0.0,0.0,0.0,4.0,0.0,0.18459307999999996,0.25772458666666664,0.9655078000000001,2.9882812133333334,1.482747426666667,-0.5419922399999998,-6.918146743798467,0.6660247502207894,-1.1678636819795194,9.137649449878563,-2.1182000624748394,-3.112008007600335,9.88271232065889,0.9414386081825438,10.10693825768524,0.9380928378454897,0.04563192000000005,-0.12320358666666664,0.43537119999999985,0.6042067066666665,0.45476310061377795,0.50703070397241,0.50703070397241,0.50703070397241
LBP00_S02,LBP00,-1588,63,2,62,-1588,1715225059.48,2024-05-09 03:24:19.480000+00:00,2024-05-09 12:24:19.480000+09:00,2024,5,9,3,24,19,480,,,,,,,,,0.175049,0.339355,0.960693,-9.399414,31.25,-5.67627,,,,,,,,,,,0.0,1.0,1.0,2.0,0.0,0.0,0.0,4.0,0.0,0.17812171999999998,0.25518226666666666,0.9523014266666666,3.11930336,1.126302106666667,-0.2775065599999999,-5.142288867869308,2.6928752343175772,-0.8903953771806586,8.93195789516379,-2.010485053102136,-3.1476238226875615,9.681397508566421,0.9531743771435245,9.986290625271515,0.9356519434958483,-0.0030727199999999733,0.08417273333333336,0.008391573333333402,0.09563702666666674,0.08464578635709849,0.4867682848387721,0.490785130217975,0.490785130217975
LBP00_S02,LBP00,-1587,64,2,63,-1587,1715225059.52,2024-05-09 03:24:19.520000+00:00,2024-05-09 12:24:19.520000+09:00,2024,5,9,3,24,19,520,,,,,,,,,0.206055,0.12207,0.952148,-12.939453,15.136719,-1.831055,,,,,,,,,,,0.0,1.0,1.0,2.0,0.0,0.0,0.0,4.0,0.0,0.18432614666666666,0.25116208,0.95701496,2.6603189866666668,-0.3963215999999997,0.04394526666666673,-2.748628687268637,3.37621038485378,-0.137438062639727,8.822012747673046,-1.875436637707985,-3.1531213451931506,9.554441151615086,0.9304690320348328,9.891016760554944,0.9362387526320999,0.021728853333333326,-0.12909208,-0.004866959999999976,0.1556878933333333,0.1309984560426172,0.46846502520241956,0.4774596978411099,0.4774596978411099
LBP00_S02,LBP00,-1586,65,2,64,-1586,1715225059.56,2024-05-09 03:24:19.560000+00:00,2024-05-09 12:24:19.560000+09:00,2024,5,9,3,24,19,560,,,,,,,,,0.150146,0.355713,0.877441,7.873535,6.347656,5.79834,,,,,,,,,,,0.0,1.0,1.0,2.0,0.0,0.0,0.0,4.0,0.0,0.18902016,0.2583821333333333,0.9578906133333334,3.405761693333333,-0.9920247333333331,0.42643224,-0.12985541247590432,2.6508264035160516,0.9185398203013307,8.81681853117401,-1.7694035815673428,-3.116379752381097,9.517294826113543,0.9315553573142195,9.830920717736602,0.9365486236792508,-0.03887415999999999,0.09733086666666668,-0.08044961333333334,0.21665464,0.13212357173219655,0.4691653208997767,0.46512626476579155,0.46512626476579155
LBP00_S02,LBP00,-1585,66,2,65,-1585,1715225059.6,2024-05-09 03:24:19.600000+00:00,2024-05-09 12:24:19.600000+09:00,2024,5,9,3,24,19,600,,,,,,,,,0.196289,0.165039,0.969971,-23.681641,-9.765625,9.155273,,,,,,,,,,,0.0,1.0,1.0,2.0,0.0,0.0,0.0,4.0,0.0,0.19266273333333334,0.25486650666666666,0.9634244666666666,2.3413085733333334,-0.2506510399999999,-0.1407878133333333,2.2810290871389167,0.9423571570321451,2.0079112431936124,8.908059694659565,-1.7317092952860569,-3.0360633026533526,9.56922279940836,0.9166558065601474,9.808127046104467,0.9362659005033491,0.0036262666666666554,-0.08982750666666667,0.0065465333333334375,0.10000030666666676,0.09013871456023914,0.42637467653379524,0.45219565958628977,0.45219565958628977
LBP00_S02,LBP00,-1584,67,2,66,-1584,1715225059.64,2024-05-09 03:24:19.640000+00:00,2024-05-09 12:24:19.640000+09:00,2024,5,9,3,24,19,640,,,,,,,,,0.218994,0.183594,1.018555,16.967773,-11.962891,4.943848,,,,,,,,,,,0.0,1.0,1.0,2.0,0.0,0.0,0.0,4.0,0.0,0.18952145333333334,0.25798498666666664,0.9685774533333333,3.4513346133333336,0.47444662666666676,-0.55582688,4.077401774339767,-1.0060266152594601,2.8518544635304144,9.071155765633156,-1.7719503598964352,-2.921989124112136,9.693487269489054,0.9298049579843471,9.81864914173722,0.9349396935331281,0.029472546666666655,-0.07439098666666663,0.04997754666666676,0.15384108000000005,0.09434195818975707,0.4089067952708423,0.44026720287307197,0.44026720287307197
LBP00_S02,LBP00,-1583,68,2,67,-1583,1715225059.68,2024-05-09 03:24:19.680000+00:00,2024-05-09 12:24:19.680000+09:00,2024,5,9,3,24,19,680,,,,,,,,,0.169922,0.376953,0.901123,29.174805,-10.192871,3.723145,,,,,,,,,,,0.0,1.0,1.0,2.0,0.0,0.0,0.0,4.0,0.0,0.18901689333333335,0.25917638666666665,0.9729199066666666,3.93147784,0.9733073066666669,-0.48583989333333333,4.9679481589201595,-2.3968793566588955,3.2442544140572167,9.269873691989963,-1.867825534162791,-2.7922189475498476,9.85980816966408,0.9331580453703995,9.85483484016596,0.9346572396621626,-0.019094893333333363,0.11777661333333334,-0.0717969066666666,0.2086684133333333,0.13925064239199375,0.40487418789318746,0.4305569912446501,0.4305569912446501
LBP00_S02,LBP00,-1582,69,2,68,-1582,1715225059.72,2024-05-09 03:24:19.720000+00:00,2024-05-09 12:24:19.720000+09:00,2024,5,9,3,24,19,720,,,,,,,,,0.274902,0.251465,0.973389,-16.174316,-18.981934,8.789062,,,,,,,,,,,0.0,1.0,1.0,2.0,0.0,0.0,0.0,4.0,0.0,0.18907548000000002,0.26177404,0.97059244,3.40169268,1.8595377733333336,-0.30029301333333336,4.860729192956546,-2.63444673155765,3.1014829483724955,9.464302859708225,-1.973203403425097,-2.668159629614948,10.029239058905548,0.9374250887706018,9.908182231356784,0.9298675458432817,0.08582651999999996,-0.010309039999999992,0.002796559999999948,0.0989321199999999,0.08648866162027016,0.39758252316924936,0.4198048559438882,0.4198048559438882
LBP00_S02,LBP00,-1581,70,2,69,-1581,1715225059.76,2024-05-09 03:24:19.760000+00:00,2024-05-09 12:24:19.760000+09:00,2024,5,9,3,24,19,760,,,,,,,,,0.243652,0.248047,1.031982,30.151367,-7.324219,-1.098633,,,,,,,,,,,0.0,1.0,1.0,2.0,0.0,0.0,0.0,4.0,0.0,0.18368485333333334,0.2573372,0.9605598799999999,4.011230453333334,2.6123046933333334,-0.2644857333333333,3.9070985380626038,-1.4936310182677446,2.4700373533428377,9.62058680123073,-2.0329486441558067,-2.5693581354812345,10.163177250159197,0.9429571546986854,9.971988726663414,0.9300282197967839,0.059967146666666665,-0.009290199999999998,0.07142212000000003,0.1406794666666667,0.09372025245738466,0.38211413359668694,0.40992350432308505,0.40992350432308505
LBP00_S02,LBP00,-1580,71,2,70,-1580,1715225059.8,2024-05-09 03:24:19.800000+00:00,2024-05-09 12:24:19.800000+09:00,2024,5,9,3,24,19,800,,,,,,,,,0.26001,0.294922,1.008301,-5.67627,10.070801,-3.479004,,,,,,,,,,,0.0,1.0,1.0,2.0,0.0,0.0,0.0,4.0,0.0,0.18978512,0.26015621333333333,0.9586686000000001,4.80061848,0.51513672,0.6730142666666666,2.480668253156364,0.8386106633704419,1.4974575733295208,9.719813531356984,-1.999404217620989,-2.5094598325480537,10.235711062792022,0.9327585072719791,10.043124241483337,0.9308760487923008,0.07022488000000002,0.03476578666666669,0.0496323999999998,0.1546230666666665,0.09275542476495141,0.36009505935242103,0.4005950313949047,0.4005950313949047
LBP00_S02,LBP00,-1579,72,2,71,-1579,1715225059.84,2024-05-09 03:24:19.840000+00:00,2024-05-09 12:24:19.840000+09:00,2024,5,9,3,24,19,840,,,,,,,,,0.268799,0.294922,1.001953,-4.211426,12.207031,-2.319336,,,,,,,,,,,0.0,1.0,1.0,2.0,0.0,0.0,0.0,4.0,0.0,0.19282873333333334,0.2679622,0.9610318799999998,4.2244466,-0.09358723999999995,1.4257811999999999,1.0897436811747332,3.8444024519335747,0.3825990452211945,9.763403278603972,-1.845628119543646,-2.4941558707392057,10.244569304946296,0.9386140694728894,10.122369769048072,0.9336073606125559,0.07597026666666667,0.026959800000000034,0.040921120000000255,0.14385118666666696,0.09040381792545527,0.3525106117024979,0.39173242529577756,0.39173242529577756
LBP00_S02,LBP00,-1578,73,2,72,-1578,1715225059.88,2024-05-09 03:24:19.880000+00:00,2024-05-09 12:24:19.880000+09:00,2024,5,9,3,24,19,880,,,,,,,,,0.233887,0.276611,0.987793,1.403809,14.160156,-1.586914,,,,,,,,,,,0.0,1.0,1.0,2.0,0.0,0.0,0.0,4.0,0.0,0.20029618666666665,0.25857744,0.9753482933333334,3.5424804533333334,0.8666992133333334,0.7495116666666666,0.24515160798994257,6.836503161069858,-0.675189164575279,9.77320934292357,-1.5721679931008516,-2.5211634373222167,10.214871420474646,0.9052774389547137,10.213494389583541,0.9358293131163398,0.03359081333333336,0.018033560000000004,0.012444706666666638,0.06406908,0.04010514618708955,0.31614785258921746,0.3819650008760918,0.3819650008760918
LBP00_S02,LBP00,-1577,74,2,73,-1577,1715225059.92,2024-05-09 03:24:19.920000+00:00,2024-05-09 12:24:19.920000+09:00,2024,5,9,3,24,19,920,,,,,,,,,0.249512,0.275146,1.014648,-10.803223,7.019043,-0.427246,,,,,,,,,,,0.0,1.0,1.0,2.0,0.0,0.0,0.0,4.0,0.0,0.19547522666666667,0.26760738666666667,0.9806152266666667,4.392903626666667,1.8530273466666665,0.11067702666666653,0.32062805037954006,9.142433894923036,-1.5132390672969949,9.786034464938751,-1.2064706373039302,-2.5816930000140963,10.19250610468139,0.932075771569857,10.321899080107098,0.9384176271183321,0.05403677333333334,0.007538613333333333,0.03403277333333332,0.09560816,0.064304223998316,0.27888182222212543,0.37337957447398973,0.37337957447398973
LBP00_S02,LBP00,-1576,75,2,74,-1576,1715225059.96,2024-05-09 03:24:19.960000+00:00,2024-05-09 12:24:19.960000+09:00,2024,5,9,3,24,19,960,,,,,,,,,0.23584,0.338623,1.05835,-2.807617,8.178711,5.371094,,,,,,,,,,,0.0,1.0,1.0,2.0,0.0,0.0,0.0,4.0,0.0,0.19195309333333335,0.2672981466666666,0.9880891866666667,4.716796853333333,1.8986002666666666,0.16601555999999987,1.4459273630013492,10.261703537197002,-2.024619896032392,9.843871559458805,-0.7960024958160501,-2.6626777958553918,10.22864997431277,0.9400336472693865,10.453462475563853,0.9387900524457086,0.04388690666666664,0.07132485333333338,0.07026081333333323,0.18547257333333325,0.10931549373282692,0.2545307880280036,0.36643051971764334,0.36643051971764334
LBP00_S02,LBP00,-1575,76,2,75,-1575,1715225060.0,2024-05-09 03:24:20+00:00,2024-05-09 12:24:20+09:00,2024,5,9,3,24,20,0,3.0,24.0,20.0,40.55587,141.519608,2.765,3.0,13.0,0.178955,0.146484,1.059082,10.620117,16.174316,-6.530762,-261.0,-50.0,398.0,770.0,0.0,1015.099976,18.809999,0.020811,-15.381901,4.021875,1.0,1.0,1.0,2.0,0.0,0.0,0.0,4.0,0.0,0.19138669333333333,0.2688704,0.9869596266666667,4.596354146666667,2.72135416,0.17008457333333327,3.4631712807690107,9.968201770581485,-2.163813922899648,9.982398410689566,-0.39727442499279064,-2.7492303527713777,10.361678075055718,0.9439689247627006,10.613511931628679,0.9361877342647453,-0.012431693333333327,-0.1223864,0.07212237333333338,0.2069404666666667,0.1425994903193092,0.25069899878539614,0.3606912625535835,0.3606912625535835
LBP00_S02,LBP00,-1574,77,2,76,-1574,1715225060.04,2024-05-09 03:24:20.040000+00:00,2024-05-09 12:24:20.040000+09:00,2024,5,9,3,24,20,40,,,,,,,,,0.217529,0.293945,1.023438,-3.356934,6.835938,-3.78418,,,,,,,,,,,1.0,1.0,1.0,2.0,0.0,0.0,0.0,4.0,0.0,0.18396806666666665,0.26298173333333336,0.97202472,5.106608053333334,3.684082013333333,0.08463535999999985,5.959026241434937,8.34961133378747,-1.94651168584821,10.220759460346963,-0.06328997164129185,-2.827090820205306,10.60473347484374,0.9520244830221858,10.805564636829274,0.9347198898848232,0.03356093333333335,0.030963266666666656,0.05141328000000012,0.11593748000000012,0.06876325682538581,0.24465673897644485,0.35339306241037854,0.35339306241037854
LBP00_S02,LBP00,-1573,78,2,77,-1573,1715225060.08,2024-05-09 03:24:20.080000+00:00,2024-05-09 12:24:20.080000+09:00,2024,5,9,3,24,20,80,,,,,,,,,0.226562,0.168213,1.138184,3.051758,1.708984,2.258301,,,,,,,,,,,1.0,1.0,1.0,2.0,0.0,0.0,0.0,4.0,0.0,0.18139645333333332,0.26348304000000006,0.9587564933333332,5.140787733333333,1.7659505066666663,1.101887973333333,8.366053549036916,5.787110552360978,-1.447497870701064,10.55540160230844,0.16819445045314727,-2.8849907350333486,10.94385507489966,0.9590411853903228,11.02991563624261,0.933532267117217,0.045165546666666695,-0.09527004000000006,0.17942750666666685,0.3198630933333336,0.2081118383848387,0.2352268865376038,0.34984961792195074,0.34984961792195074
LBP00_S02,LBP00,-1572,79,2,78,-1572,1715225060.12,2024-05-09 03:24:20.120000+00:00,2024-05-09 12:24:20.120000+09:00,2024,5,9,3,24,20,120,,,,,,,,,0.19043,0.318848,1.019043,13.427734,7.629395,-0.915527,,,,,,,,,,,1.0,1.0,1.0,2.0,0.0,0.0,0.0,4.0,0.0,0.18740881333333334,0.2616210666666666,0.9653743333333333,3.0175781066666665,0.2758788933333333,1.86442052,10.110748199377786,2.8841854322480565,-0.7956899451788348,10.959831530283552,0.2835618677430695,-2.916818332840502,11.344873013473086,0.941149342044366,11.282769339606679,0.9361836602464424,0.0030211866666666476,0.057226933333333396,0.05366866666666659,0.11391678666666663,0.0785135354533879,0.22114330271939878,0.3433892350060326,0.3433892350060326
LBP00_S02,LBP00,-1571,80,2,79,-1571,1715225060.16,2024-05-09 03:24:20.160000+00:00,2024-05-09 12:24:20.160000+09:00,2024,5,9,3,24,20,160,,,,,,,,,0.168701,0.242432,1.004883,31.12793,3.601074,-2.990723,,,,,,,,,,,1.0,1.0,1.0,2.0,0.0,0.0,0.0,4.0,0.0,0.19567378666666665,0.2590461866666667,0.9737044133333332,2.3714192533333334,0.2579752533333334,1.9466145333333331,10.773159520550422,0.3565347984467334,-0.16301274531764157,11.390757911105569,0.29782325968093887,-2.9233388426532074,11.763671810807459,0.9169339728890525,11.55681170755459,0.9365584812845924,-0.026972786666666665,-0.01661418666666667,0.03117858666666673,0.07476556000000006,0.04444847225373673,0.21815831006960656,0.3364371242443513,0.3364371242443513
LBP00_S02,LBP00,-1570,81,2,80,-1570,1715225060.2,2024-05-09 03:24:20.200000+00:00,2024-05-09 12:24:20.200000+09:00,2024,5,9,3,24,20,200,,,,,,,,,0.181885,0.293457,1.032227,25.695801,-1.342773,-4.272461,,,,,,,,,,,1.0,1.0,1.0,2.0,0.0,0.0,0.0,4.0,0.0,0.19544918666666666,0.2593652,0.97802408,2.2786458133333336,1.2849934800000002,1.288248653333333,10.213832782410227,-1.10298743781043,0.2565607685765593,11.799311222401977,0.25370376216852164,-2.913076411910145,12.156238114797974,0.9180800634727568,11.843596898059369,0.9377622092566902,-0.013564186666666672,0.034091800000000005,0.05420292000000004,0.10185890666666672,0.06545375866743318,0.1895670921311207,0.33027841139033043,0.33027841139033043
LBP00_S02,LBP00,-1569,82,2,81,-1569,1715225060.24,2024-05-09 03:24:20.240000+00:00,2024-05-09 12:24:20.240000+09:00,2024,5,9,3,24,20,240,,,,,,,,,0.183594,0.267822,1.070068,-18.310547,-4.455566,-0.610352,,,,,,,,,,,1.0,1.0,1.0,2.0,0.0,0.0,0.0,4.0,0.0,0.19219398666666668,0.25982092000000007,0.9844238133333333,3.19580076,1.6894531200000003,1.1979166266666663,8.62596694765411,-0.9678815983044827,0.2809333908068525,12.144349900308141,0.21498849823634233,-2.901839076277871,12.488079299079642,0.926737841796828,12.13693558637171,0.9372244489177552,-0.00859998666666667,0.008001079999999938,0.08564418666666673,0.10224525333333334,0.08644595861940627,0.16305106590920243,0.32485991243986545,0.32485991243986545
LBP00_S02,LBP00,-1568,83,2,82,-1568,1715225060.28,2024-05-09 03:24:20.280000+00:00,2024-05-09 12:24:20.280000+09:00,2024,5,9,3,24,20,280,,,,,,,,,0.216309,0.283447,1.023926,18.066406,0.183105,1.037598,,,,,,,,,,,1.0,1.0,1.0,2.0,0.0,0.0,0.0,4.0,0.0,0.19012691999999998,0.25984696,0.98531248,3.7377929466666666,2.527669266666667,1.0498046399999998,6.491387773826417,0.9913689926039292,-0.21332489103261235,12.404005411261197,0.2546432579404995,-2.9103720719191752,12.743408454115356,0.9317913702469672,12.435285294103938,0.9321536105585594,0.026182080000000024,0.02360003999999999,0.038613519999999846,0.08839563999999986,0.05228257002021217,0.14785309961969204,0.31893431803943817,0.31893431803943817
LBP00_S02,LBP00,-1567,84,2,83,-1567,1715225060.32,2024-05-09 03:24:20.320000+00:00,2024-05-09 12:24:20.320000+09:00,2024,5,9,3,24,20,320,,,,,,,,,0.198975,0.399902,0.99585,34.729004,2.075195,0.0,,,,,,,,,,,1.0,1.0,1.0,2.0,0.0,0.0,0.0,4.0,0.0,0.18716793333333334,0.25808264,0.9746061066666666,4.031575493333333,3.73779296,0.8837890133333329,4.449722920283147,4.615654156122868,-1.2387298622979854,12.581994328072524,0.43926942418541426,-2.9599212664110945,12.932929784160509,0.9358239819513567,12.74121813822103,0.9285328107561466,0.011807066666666671,0.14181936,0.02124389333333343,0.1748703200000001,0.14388690245480568,0.14060887675878217,0.3152099049418928,0.3152099049418928
LBP00_S02,LBP00,-1566,85,2,84,-1566,1715225060.36,2024-05-09 03:24:20.360000+00:00,2024-05-09 12:24:20.360000+09:00,2024,5,9,3,24,20,360,,,,,,,,,0.252197,0.302002,1.055908,-29.052734,2.624512,4.02832,,,,,,,,,,,1.0,1.0,1.0,2.0,0.0,0.0,0.0,4.0,0.0,0.18210934666666667,0.2604068666666667,0.95665364,4.577636693333333,2.3933919066666665,1.839192653333333,3.1145373635313973,9.33103481428211,-2.655077021442314,12.706575822613779,0.8125108167566986,-3.066124347268787,13.096501879360538,0.9520709269903669,13.057993210617486,0.9275070401006046,0.07008765333333333,0.04159513333333331,0.0992543600000001,0.21093714666666674,0.12842843238863,0.12904690337710512,0.3113186242636999,0.3113186242636999
LBP00_S02,LBP00,-1565,86,2,85,-1565,1715225060.4,2024-05-09 03:24:20.400000+00:00,2024-05-09 12:24:20.400000+09:00,2024,5,9,3,24,20,400,,,,,,,,,0.247314,0.255127,1.112305,-16.296387,1.647949,-2.197266,,,,,,,,,,,1.0,1.0,1.0,2.0,0.0,0.0,0.0,4.0,0.0,0.18797197333333332,0.2609928,0.9581477866666668,2.0605468533333338,0.36946613333333345,2.7286783333333333,2.8851478703876037,14.20848176628133,-4.15836019545437,12.821981737429283,1.3808500874079517,-3.2324587550869617,13.295064958179141,0.9385913213733488,13.38558828986227,0.9292956351708812,0.059342026666666686,-0.005865800000000032,0.15415721333333332,0.21936504000000004,0.1652886268357452,0.1155031237118746,0.30833842023455793,0.30833842023455793
LBP00_S02,LBP00,-1564,87,2,86,-1564,1715225060.44,2024-05-09 03:24:20.440000+00:00,2024-05-09 12:24:20.440000+09:00,2024,5,9,3,24,20,440,,,,,,,,,0.264404,0.241699,1.101318,-9.70459,17.822266,2.502441,,,,,,,,,,,1.0,1.0,1.0,2.0,0.0,0.0,0.0,4.0,0.0,0.19872068,0.25429683999999997,0.9706933600000001,0.40852862666666645,0.05289712000000009,3.233235626666666,3.8128350263781217,18.11761268868823,-5.317523366741863,12.974495138484407,2.105554594955481,-3.445159689756636,13.588230552166007,0.9013160994302281,13.718923806247577,0.9310997009638674,0.06568331999999996,-0.012597839999999971,0.13062463999999996,0.2089057999999999,0.1467508114935573,0.10318263214706577,0.3051066680597379,0.3051066680597379
LBP00_S02,LBP00,-1563,88,2,87,-1563,1715225060.48,2024-05-09 03:24:20.480000+00:00,2024-05-09 12:24:20.480000+09:00,2024,5,9,3,24,20,480,,,,,,,,,0.228271,0.282959,1.031982,14.770508,17.456055,-0.732422,,,,,,,,,,,1.0,1.0,1.0,2.0,0.0,0.0,0.0,4.0,0.0,0.19690102666666665,0.2641764,0.9722526000000001,2.1069335733333334,1.500651026666667,2.5887043733333335,5.574889388766273,19.96262376707759,-5.665021698629864,13.197490714035059,2.9040595456385847,-3.671760557701831,14.003183516070589,0.9228331873661945,14.049181896587902,0.9336679402376535,0.031369973333333356,0.018782600000000038,0.05972939999999982,0.10988197333333322,0.07003186784638851,0.10259807540663739,0.2946831801227047,0.30049735825163304
LBP00_S02,LBP00,-1562,89,2,88,-1562,1715225060.52,2024-05-09 03:24:20.520000+00:00,2024-05-09 12:24:20.520000+09:00,2024,5,9,3,24,20,520,,,,,,,,,0.181396,0.369141,0.952148,11.413574,20.751953,-13.061523,,,,,,,,,,,1.0,1.0,1.0,2.0,0.0,0.0,0.0,4.0,0.0,0.19263345333333332,0.26287756,0.9822981733333334,1.16210936,1.875813786666667,1.7358397866666664,7.5757946532996465,18.962313372923926,-4.829780435898741,13.500522500167044,3.6625520805555416,-3.8649517751377807,14.512623737437659,0.9308916354889453,14.366817075921455,0.935074487240988,-0.011237453333333314,0.10626343999999999,-0.030150173333333363,0.14765106666666666,0.11102806847857206,0.10179925990407555,0.28513214255324754,0.29685371806368954
LBP00_S02,LBP00,-1561,90,2,89,-1561,1715225060.56,2024-05-09 03:24:20.560000+00:00,2024-05-09 12:24:20.560000+09:00,2024,5,9,3,24,20,560,,,,,,,,,0.205566,0.173828,1.065674,1.586914,11.230469,1.647949,,,,,,,,,,,1.0,1.0,1.0,2.0,0.0,0.0,0.0,4.0,0.0,0.19128254666666666,0.2632226133333333,0.9890852933333332,1.00585936,2.3242187333333337,1.28987624,9.143723879435196,14.909426827212382,-2.6809337293097584,13.866271455344451,4.258929153644037,-3.972189124310171,15.03962260325529,0.9348199235918194,14.66367969397795,0.9327296599729887,0.014283453333333335,-0.08939461333333329,0.07658870666666684,0.18026677333333346,0.11858011604402494,0.10125752167654872,0.28521142128816274,0.293490065195394
LBP00_S02,LBP00,-1560,91,2,90,-1560,1715225060.6,2024-05-09 03:24:20.600000+00:00,2024-05-09 12:24:20.600000+09:00,2024,5,9,3,24,20,600,,,,,,,,,0.265137,0.361572,1.348877,34.545898,60.058594,-21.728516,,,,,,,,,,,1.0,1.0,1.0,2.0,0.0,0.0,0.0,4.0,0.0,0.18910806666666666,0.2609537333333334,0.9820898533333333,0.16845701333333343,3.6759439866666668,1.0856119199999996,9.751229669139269,8.325646334655065,0.5665297598347284,14.256320642110023,4.59195500703024,-3.9495279339167815,15.489593278651036,0.9361207214026199,14.932388603062861,0.9293162192626898,0.07602893333333335,0.10061826666666662,0.3667871466666668,0.5434343466666668,0.3878624050493729,0.11316646929611406,0.26977057291495465,0.2952377011186158
LBP00_S02,LBP00,-1559,92,2,91,-1559,1715225060.64,2024-05-09 03:24:20.640000+00:00,2024-05-09 12:24:20.640000+09:00,2024,5,9,3,24,20,640,,,,,,,,,-0.017822,0.099365,0.808594,55.236816,91.430664,-46.691895,,,,,,,,,,,1.0,1.0,1.0,2.0,0.0,0.0,0.0,4.0,0.0,0.18165363999999998,0.25988601333333333,0.9619270933333333,0.5729166533333334,3.518880186666667,1.930338493333333,9.177116200154156,0.42670280178043757,4.339200608048538,14.623405290116189,4.609023119101457,-3.7759599095948397,15.7906602024829,0.9524202345346883,15.163506017872155,0.928178634846145,-0.19947563999999998,-0.16052101333333335,-0.15333309333333323,0.5133297466666665,0.29844356951715084,0.1213305337492098,0.265118664510026,0.2952959896349528
LBP00_S02,LBP00,-1558,93,2,92,-1558,1715225060.68,2024-05-09 03:24:20.680000+00:00,2024-05-09 12:24:20.680000+09:00,2024,5,9,3,24,20,680,,,,,,,,,-0.184814,0.105713,-0.002197,23.986816,-40.161133,9.338379,,,,,,,,,,,1.0,1.0,1.0,2.0,0.0,0.0,0.0,4.0,0.0,0.18159504,0.2560546266666667,0.95238608,-0.8398437599999998,1.5901692533333334,2.9410806799999993,7.543016507974227,-7.1537849469780115,7.824745715162815,14.925125950435158,4.322871721222337,-3.462970080988327,15.91976024745087,0.9458568402803134,15.34350379522952,0.9328789722324151,-0.36640904,-0.15034162666666667,-0.95458308,1.4713337466666667,1.033482968376735,0.15709982678859943,0.2809870073408935,0.3084778999696275
LBP00_S02,LBP00,-1557,94,2,93,-1557,1715225060.72,2024-05-09 03:24:20.720000+00:00,2024-05-09 12:24:20.720000+09:00,2024,5,9,3,24,20,720,,,,,,,,,0.040527,0.322754,0.220947,-32.958984,-115.966797,65.917969,,,,,,,,,,,1.0,1.0,1.0,2.0,0.0,0.0,0.0,4.0,0.0,0.19273436000000002,0.25257154666666665,0.9620214933333333,-1.564941413333333,-0.20670574666666644,3.6124674,5.2070721619119915,-12.841807451715542,10.2140086514935,15.133408836911638,3.809199423153715,-3.054409734928587,15.901555964725476,0.9123757092713636,15.456537157524812,0.9361115168956576,-0.15220736,0.07018245333333334,-0.7410744933333333,0.9634643066666666,0.7597921175317046,0.18403196502505687,0.29080724409715314,0.31639569326019024
LBP00_S02,LBP00,-1556,95,2,94,-1556,1715225060.76,2024-05-09 03:24:20.760000+00:00,2024-05-09 12:24:20.760000+09:00,2024,5,9,3,24,20,760,,,,,,,,,0.682373,-0.314941,1.137939,-147.216797,-104.553223,68.17627,,,,,,,,,,,1.0,1.0,1.0,2.0,0.0,0.0,0.0,4.0,0.0,0.19625324000000002,0.2604166,0.9734635466666667,-0.44840495999999974,1.0595702933333335,3.0794270399999997,2.573881789245141,-15.63525804180382,10.984217444606365,15.236364108481444,3.1837891014815622,-2.6150410371443322,15.783590970209639,0.9179365198873762,15.490131344394502,0.9393670739896395,0.48611976,-0.5753576,0.16447545333333335,1.2259528133333335,0.770974035677871,0.21112211635387626,0.2966181249752816,0.3242332508880813
LBP00_S02,LBP00,-1555,96,2,95,-1555,1715225060.8,2024-05-09 03:24:20.800000+00:00,2024-05-09 12:24:20.800000+09:00,2024,5,9,3,24,20,800,,,,,,,,,0.458008,0.373779,1.07959,94.299316,1.159668,15.625,,,,,,,,,,,1.0,1.0,1.0,2.0,0.0,0.0,0.0,4.0,0.0,0.19007485333333332,0.2571386133333333,0.9850748800000001,-0.6437174533333331,2.082519506666667,1.8961588133333331,-0.059879284375546515,-15.413740818383816,10.091698495762174,15.233968937106422,2.5672394687462097,-2.2113730973138455,15.606239106272053,0.9272154772079025,15.441629121942508,0.9429155116491055,0.2679331466666667,0.11664038666666665,0.09451511999999995,0.4790886533333333,0.3071258028773639,0.21969693147837277,0.2898959954153969,0.32394329414213696
LBP00_S02,LBP00,-1554,97,2,96,-1554,1715225060.84,2024-05-09 03:24:20.840000+00:00,2024-05-09 12:24:20.840000+09:00,2024,5,9,3,24,20,840,,,,,,,,,0.118652,0.546143,1.378174,31.188965,28.442383,-20.568848,,,,,,,,,,,1.0,1.0,1.0,2.0,0.0,0.0,0.0,4.0,0.0,0.18517250666666668,0.26236322666666667,0.9921451866666666,0.19124348000000022,2.595214826666667,1.5608723466666663,-2.526954904197434,-12.88197368163272,7.968689706873955,15.132890740938524,2.051960521480901,-1.8926255090388873,15.388208325739672,0.9483194732929286,15.321574585744116,0.9446352434899097,-0.06652050666666669,0.2837797733333334,0.3860288133333334,0.7363290933333335,0.48370877838204435,0.23542912989663636,0.2939698707995671,0.32660605221280203
LBP00_S02,LBP00,-1553,98,2,97,-1553,1715225060.88,2024-05-09 03:24:20.880000+00:00,2024-05-09 12:24:20.880000+09:00,2024,5,9,3,24,20,880,,,,,,,,,0.15918,0.240967,1.55957,20.446777,30.761719,-30.578613,,,,,,,,,,,1.0,1.0,1.0,2.0,0.0,0.0,0.0,4.0,0.0,0.18309894666666665,0.26342442666666666,0.9865820399999999,1.03352864,3.9933267999999997,1.3395181733333328,-4.688972685457614,-9.176531185376263,5.3222467330224354,14.94533183352022,1.6848992740658504,-1.67973563971799,15.133517139023542,0.9551586339986186,15.152212775662274,0.9442210756112261,-0.023918946666666663,-0.02245742666666667,0.57298796,0.6193643333333333,0.5739265234566993,0.2567819849874208,0.2864649187883191,0.33066048616762006
LBP00_S02,LBP00,-1552,99,2,98,-1552,1715225060.92,2024-05-09 03:24:20.920000+00:00,2024-05-09 12:24:20.920000+09:00,2024,5,9,3,24,20,920,,,,,,,,,0.129395,0.417236,0.935059,-2.685547,64.147949,-34.484863,,,,,,,,,,,1.0,1.0,1.0,2.0,0.0,0.0,0.0,4.0,0.0,0.1760384,0.25791336000000004,0.9672461066666664,1.8066406133333335,4.110514293333333,1.844889266666666,-6.325514309267608,-5.348302723417906,2.845067559080299,14.692311261149515,1.470967165129134,-1.565932937354778,14.848565606134535,0.963447206428765,14.962021085685413,0.94509266475435,-0.0466434,0.15932263999999996,-0.032187106666666465,0.23815314666666643,0.16910150861450335,0.26097387637206826,0.26992784929709684,0.32805469620708594
LBP00_S02,LBP00,-1551,100,2,99,-1551,1715225060.96,2024-05-09 03:24:20.960000+00:00,2024-05-09 12:24:20.960000+09:00,2024,5,9,3,24,20,960,,,,,,,,,-0.364258,-0.011963,0.178223,2.990723,62.194824,-14.160156,,,,,,,,,,,1.0,1.0,1.0,2.0,0.0,0.0,0.0,4.0,0.0,0.17355466666666663,0.2583398,0.9503873866666667,1.4697265466666667,2.8930663733333337,2.620442653333333,-7.1252414972585845,-1.9864403769850605,0.9894947768686182,14.40730160125917,1.3915095500497316,-1.5263531462800333,14.554600378735364,0.970304300186479,14.77903792814179,0.9509414130347406,-0.5378126666666667,-0.2703028,-0.7721643866666666,1.5802798533333333,0.9790525563784922,0.29576335887789484,0.2751470734529492,0.338387995574886
LBP00_S02,LBP00,-1550,101,2,100,-1550,1715225061.0,2024-05-09 03:24:21+00:00,2024-05-09 12:24:21+09:00,2024,5,9,3,24,21,0,3.0,24.0,21.0,40.555851,141.519714,1.836,3.0,13.0,0.057129,0.116943,0.264648,-58.654785,-73.730469,32.836914,-263.0,-54.0,394.0,785.0,0.0,1015.400024,18.870001,0.023783,-17.874563,4.021875,1.0,1.0,1.0,2.0,0.0,0.0,0.0,5.0,0.0,0.17867510666666667,0.2561425466666667,0.9465885599999999,0.9708658666666665,0.9114583066666667,3.5750325066666666,-6.8027611078421835,0.8466489610352421,-0.09661197904325247,14.135191156945483,1.4253755084911413,-1.5302176254417634,14.289047916667114,0.953318039810662,14.62591002763521,0.9569030574219461,-0.12154610666666667,-0.13919954666666667,-0.6819405599999999,0.9426862133333332,0.7065358428354104,0.31832081297853887,0.2845099058819675,0.3441403056883317
LBP00_S02,LBP00,-1549,102,2,101,-1549,1715225061.04,2024-05-09 03:24:21.040000+00:00,2024-05-09 12:24:21.040000+09:00,2024,5,9,3,24,21,40,,,,,,,,,0.397705,0.1521,0.577393,-40.161133,-101.379395,57.556152,,,,,,,,,,,1.0,1.0,1.0,2.0,0.0,0.0,0.0,5.0,0.0,0.18241533333333335,0.2586913733333333,0.9497851866666668,1.5299478933333333,0.7104491866666667,3.583984333333333,-5.268766347819587,3.3838053686060228,-0.4798926167507912,13.924440503032699,1.5607277232353822,-1.5494133301117952,14.097042101664488,0.948278555747854,14.518015259564743,0.9623704418845611,0.21528966666666663,-0.1065913733333333,-0.37239218666666674,0.6942732266666667,0.4431560697236494,0.3332965254944694,0.2889766322354571,0.3456636251350289
LBP00_S02,LBP00,-1548,103,2,102,-1548,1715225061.08,2024-05-09 03:24:21.080000+00:00,2024-05-09 12:24:21.080000+09:00,2024,5,9,3,24,21,80,,,,,,,,,0.649902,0.322998,1.211914,5.065918,-14.099121,18.127441,,,,,,,,,,,1.0,1.0,1.0,2.0,0.0,0.0,0.0,5.0,0.0,0.18013018666666666,0.2589257466666667,0.9584277733333333,1.55436196,0.9651692400000002,2.822265586666666,-2.7421808281485966,5.808691197545128,-0.29514302201190323,13.814753269906754,1.7930753711371874,-1.5612190509922712,14.017843347682243,0.9545727317115502,14.46390086658443,0.9661581837483155,0.4697718133333333,0.06407225333333333,0.25348622666666665,0.7873302933333333,0.5376300562277035,0.34647725420818404,0.2908520703728939,0.34857220742431183
LBP00_S02,LBP00,-1547,104,2,103,-1547,1715225061.12,2024-05-09 03:24:21.120000+00:00,2024-05-09 12:24:21.120000+09:00,2024,5,9,3,24,21,120,,,,,,,,,0.212646,0.262939,1.599609,4.211426,33.447266,-38.513184,,,,,,,,,,,1.0,1.0,1.0,2.0,0.0,0.0,0.0,5.0,0.0,0.17835283999999998,0.2659374666666667,0.9662695600000001,1.8391926933333331,1.0310872133333333,2.469889293333333,0.27231996840607436,8.031247029893997,0.3445065952045532,13.825646068642998,2.1143252523329474,-1.5474387871840891,14.071724389289258,0.9708631920752688,14.466265800361185,0.9691740053252845,0.03429316000000002,-0.0029984666666666993,0.63333944,0.6706310666666667,0.6342742765433975,0.3687076838517844,0.2949254932855916,0.3528364174111639
LBP00_S02,LBP00,-1546,105,2,104,-1546,1715225061.16,2024-05-09 03:24:21.160000+00:00,2024-05-09 12:24:21.160000+09:00,2024,5,9,3,24,21,160,,,,,,,,,0.049072,0.51416,1.646973,66.345215,17.578125,-19.592285,,,,,,,,,,,1.0,1.0,1.0,2.0,0.0,0.0,0.0,5.0,0.0,0.17749997333333334,0.26872391999999995,0.9681347866666667,1.5096028533333332,2.3811848799999997,2.035318973333333,3.135553494753494,9.711341761547073,1.3346823938612111,13.951068208433137,2.5027789227948305,-1.4940514914296408,14.252311965143864,0.9775529637594335,14.522247988616092,0.9698190581656956,-0.12842797333333333,0.24543608,0.6788382133333333,1.0527022666666666,0.7331806964056445,0.39625697281786076,0.30720764144373364,0.3584297156316709
LBP00_S02,LBP00,-1545,106,2,105,-1545,1715225061.2,2024-05-09 03:24:21.200000+00:00,2024-05-09 12:24:21.200000+09:00,2024,5,9,3,24,21,200,,,,,,,,,0.19458,0.579834,1.433594,-17.944336,65.246582,-12.573242,,,,,,,,,,,1.0,1.0,1.0,2.0,0.0,0.0,0.0,5.0,0.0,0.17154294666666664,0.2620344666666667,0.9619433866666666,0.8675130000000002,3.8557942533333334,1.5275064666666662,5.272838648413965,10.481347279286442,2.510639451931797,14.161981754369695,2.9220328139662883,-1.393625913352369,14.527291425567366,0.98188932183405,14.622888194230418,0.970623413799444,0.023037053333333363,0.3177995333333333,0.47165061333333347,0.8124872000000001,0.5691937721645212,0.4164065733577442,0.3029868327444325,0.3614842671756253
LBP00_S02,LBP00,-1544,107,2,106,-1544,1715225061.24,2024-05-09 03:24:21.240000+00:00,2024-05-09 12:24:21.240000+09:00,2024,5,9,3,24,21,240,,,,,,,,,-0.178955,-0.051025,0.552734,3.723145,115.722656,-35.766602,,,,,,,,,,,1.0,1.0,1.0,2.0,0.0,0.0,0.0,5.0,0.0,0.16893878666666665,0.2606119333333333,0.9515885599999999,0.43375647999999994,3.4147135333333334,1.8204752266666662,6.321396199015817,10.194122274292502,3.613402921312551,14.414837602330328,3.3297977049379885,-1.2490897964998668,14.847064395936549,0.9861968919304721,14.752469682898099,0.9743015694303502,-0.34789378666666665,-0.3116369333333333,-0.39885455999999997,1.05838528,0.6141926611833376,0.4375164414603015,0.30028375368475196,0.3650943870900212
LBP00_S02,LBP00,-1543,108,2,107,-1543,1715225061.28,2024-05-09 03:24:21.280000+00:00,2024-05-09 12:24:21.280000+09:00,2024,5,9,3,24,21,280,,,,,,,,,-0.058105,0.269043,0.015381,57.434082,-45.959473,37.04834,,,,,,,,,,,1.0,1.0,1.0,2.0,0.0,0.0,0.0,5.0,0.0,0.16945311999999998,0.2609830266666666,0.9446647333333332,-0.6689453466666667,2.22167968,2.644856733333333,6.169293019470015,9.022166193644715,4.350713903395201,14.66160932310913,3.6906843526837774,-1.0750612403640587,15.157166476791055,0.9853168497683107,14.888821721529684,0.9786809111377069,-0.22755811999999997,0.008059973333333359,-0.9292837333333333,1.1649018266666666,0.9567737027040438,0.4736960867676548,0.3107745931936734,0.3734278985775426
LBP00_S02,LBP00,-1542,109,2,108,-1542,1715225061.32,2024-05-09 03:24:21.320000+00:00,2024-05-09 12:24:21.320000+09:00,2024,5,9,3,24,21,320,,,,,,,,,0.311279,0.541748,0.437256,-58.837891,-103.210449,87.890625,,,,,,,,,,,1.0,1.0,1.0,2.0,0.0,0.0,0.0,5.0,0.0,0.17471353333333334,0.2599022933333333,0.949209,-0.4524739866666666,1.92708332,2.73437496,4.895307920871683,7.346558021605319,4.532417960810189,14.857421639943997,3.98454667354799,-0.8937645219316511,15.40838748868363,0.9698977348328752,15.005570848889008,0.9836985932774738,0.13656546666666664,0.2818457066666667,-0.511953,0.9303641733333333,0.6001524833417897,0.4919467100031341,0.3162777933809581,0.3765768511437127
LBP00_S02,LBP00,-1541,110,2,109,-1541,1715225061.36,2024-05-09 03:24:21.360000+00:00,2024-05-09 12:24:21.360000+09:00,2024,5,9,3,24,21,360,,,,,,,,,0.762207,-0.295898,1.553467,-63.049316,-21.118164,7.995605,,,,,,,,,,,1.0,1.0,1.0,2.0,0.0,0.0,0.0,5.0,0.0,0.17347654666666665,0.262998,0.9566080933333332,-1.0791015866666664,2.1736653599999998,2.23388668,2.6713529648461916,5.528806568466841,4.189494867716123,14.964275758537845,4.205698936286664,-0.7261847272230062,15.561002434878613,0.9783478565239616,15.076592685605476,0.9874324712293957,0.5887304533333333,-0.5588960000000001,0.5968589066666667,1.74448536,1.0075757241842427,0.5271126016749587,0.32807975252603183,0.3852206713223501
LBP00_S02,LBP00,-1540,111,2,110,-1540,1715225061.4,2024-05-09 03:24:21.400000+00:00,2024-05-09 12:24:21.400000+09:00,2024,5,9,3,24,21,400,,,,,,,,,0.147217,0.577637,1.501709,26.184082,33.081055,-34.790039,,,,,,,,,,,1.0,1.0,1.0,2.0,0.0,0.0,0.0,5.0,0.0,0.17005206666666667,0.2646288666666667,0.9670117333333333,-1.53645836,2.0092773466666665,1.8839517866666666,-0.29364980791578155,3.7437154074338266,3.579836749726374,14.952529766221213,4.3554475525840175,-0.5829912572339513,15.584862803343915,0.9900995961197256,15.081729021341872,0.9900339664835883,-0.02283506666666668,0.31300813333333327,0.5346972666666666,0.8705404666666665,0.6199973377227463,0.5453009501104387,0.33040203691115666,0.38839332897640955
LBP00_S02,LBP00,-1539,112,2,111,-1539,1715225061.44,2024-05-09 03:24:21.440000+00:00,2024-05-09 12:24:21.440000+09:00,2024,5,9,3,24,21,440,,,,,,,,,-0.04834,0.578369,1.648926,59.692383,9.033203,-20.996094,,,,,,,,,,,1.0,1.0,1.0,2.0,0.0,0.0,0.0,5.0,0.0,0.16989256,0.2655403333333334,0.9717480666666667,-1.0913086133333332,2.736002613333333,1.6520181866666663,-3.7241270624890466,1.9944598881817774,3.057514805950064,14.803564683721651,4.435225948111289,-0.46069066499594874,15.460562487980345,0.9920719728214209,15.011785317667028,0.9911953933166673,-0.21823256,0.31282866666666664,0.6771779333333332,1.2082391599999998,0.7772111542728928,0.5705193638216122,0.336850997984339,0.3935775666470293
LBP00_S02,LBP00,-1538,113,2,112,-1538,1715225061.48,2024-05-09 03:24:21.480000+00:00,2024-05-09 12:24:21.480000+09:00,2024,5,9,3,24,21,480,,,,,,,,,0.217041,0.325439,1.450439,-2.868652,52.91748,-26.489258,,,,,,,,,,,1.0,1.0,1.0,2.0,0.0,0.0,0.0,5.0,0.0,0.16118813333333334,0.2591210666666666,0.96071616,-0.9147135599999999,3.83951824,1.2133788666666663,-7.197713038913084,0.2803717203307885,2.8831119365097533,14.515656162165127,4.446440816924521,-0.3453661875355586,15.185334621275478,1.0047495531092199,14.870653722450143,0.9924596689472022,0.05585286666666667,0.06631793333333336,0.48972284,0.61189364,0.49733899004014803,0.5876116487093624,0.34510486205799995,0.392326002984924
LBP00_S02,LBP00,-1537,114,2,113,-1537,1715225061.52,2024-05-09 03:24:21.520000+00:00,2024-05-09 12:24:21.520000+09:00,2024,5,9,3,24,21,520,,,,,,,,,-0.35376,0.104004,0.339111,17.39502,96.252441,-29.418945,,,,,,,,,,,1.0,1.0,1.0,2.0,0.0,0.0,0.0,5.0,0.0,0.15958657333333331,0.2586686,0.9503580933333332,-1.2939453333333333,2.7840169466666667,1.611328093333333,-10.115176888488334,-1.2317888876744216,3.098598236661173,14.111049086625593,4.397169261417544,-0.22142225806911167,14.781942756453928,1.0082019715944874,14.67348871900395,0.9949927185429758,-0.5133465733333333,-0.15466460000000004,-0.6112470933333332,1.2792582666666665,0.8130614072471303,0.6156929822601048,0.3587461210820902,0.3953190891222
LBP00_S02,LBP00,-1536,115,2,114,-1536,1715225061.56,2024-05-09 03:24:21.560000+00:00,2024-05-09 12:24:21.560000+09:00,2024,5,9,3,24,21,560,,,,,,,,,-0.084717,0.204834,-0.009277,12.207031,-41.748047,41.320801,,,,,,,,,,,1.0,1.0,1.0,2.0,0.0,0.0,0.0,5.0,0.0,0.16074869333333333,0.25784829333333337,0.94491212,-1.2345377733333331,1.123860693333333,2.6302083066666664,-11.807525623600212,-2.187208318791134,3.546628538628119,13.638748061681586,4.309680928665899,-0.07955711652398689,14.303675322507827,1.0035679163013613,14.44170184546121,0.9992579699040551,-0.24546569333333335,-0.05301429333333338,-0.95418912,1.2526691066666666,0.9866817109015558,0.650417046054406,0.3758372838654773,0.40694662954357713
LBP00_S02,LBP00,-1535,116,2,115,-1535,1715225061.6,2024-05-09 03:24:21.600000+00:00,2024-05-09 12:24:21.600000+09:00,2024,5,9,3,24,21,600,,,,,,,,,0.179443,0.223877,0.371338,-83.007812,-100.158691,67.321777,,,,,,,,,,,1.0,1.0,1.0,2.0,0.0,0.0,0.0,5.0,0.0,0.16585937333333334,0.2601334533333333,0.9466894533333334,-0.7617187599999998,1.057942733333333,2.68229164,-11.777548113449575,-2.219276188204584,4.015621750957052,13.167646137143603,4.2209098811377155,0.08106775351429521,13.82785438881892,0.9935035901648395,14.196981648240888,1.0046510461180904,0.013583626666666654,-0.03625645333333333,-0.5753514533333335,0.6251915333333334,0.5766527032577846,0.6579686579827425,0.3855675636394283,0.3991699346042173
LBP00_S02,LBP00,-1534,117,2,116,-1534,1715225061.64,2024-05-09 03:24:21.640000+00:00,2024-05-09 12:24:21.640000+09:00,2024,5,9,3,24,21,640,,,,,,,,,0.703369,-0.023438,1.062256,-98.022461,-69.213867,34.851074,,,,,,,,,,,1.0,1.0,1.0,2.0,0.0,0.0,0.0,5.0,0.0,0.16475910666666665,0.26152342666666667,0.9532324266666667,-0.8902994799999997,1.4689127733333331,1.9938150666666665,-9.968027307278826,-1.2164169014845891,4.405288548057488,12.76892504485245,4.172253205078332,0.2572792954365947,13.435748443767727,0.9988396482358185,13.956683682729718,1.0096431671471267,0.5386098933333334,-0.2849614266666667,0.10902357333333335,0.9325948933333335,0.6190232398115725,0.6707918447945194,0.39606118927186457,0.40034305793819047
LBP00_S02,LBP00,-1533,118,2,117,-1533,1715225061.68,2024-05-09 03:24:21.680000+00:00,2024-05-09 12:24:21.680000+09:00,2024,5,9,3,24,21,680,,,,,,,,,0.367188,0.166504,1.343506,-3.78418,25.878906,-28.625488,,,,,,,,,,,1.0,1.0,1.0,2.0,0.0,0.0,0.0,5.0,0.0,0.16255858666666667,0.26509763999999997,0.9624056,-1.5234375066666666,1.2923177199999998,1.738281213333333,-6.8971165208652465,0.5155880236243299,4.79217054992547,12.49304038401784,4.192876726023305,0.44896611743361353,13.185516442329133,1.010647345726048,13.731773717107519,1.0131293235792271,0.20462941333333334,-0.09859363999999995,0.3811004000000001,0.6843234533333334,0.44365686913396696,0.6471988008248087,0.40214931380670405,0.40305760516886524
LBP00_S02,LBP00,-1532,119,2,118,-1532,1715225061.72,2024-05-09 03:24:21.720000+00:00,2024-05-09 12:24:21.720000+09:00,2024,5,9,3,24,21,720,,,,,,,,,0.114014,0.396484,1.624023,61.767578,25.024414,-29.846191,,,,,,,,,,,1.0,1.0,1.0,2.0,0.0,0.0,0.0,5.0,0.0,0.1627604,0.2666048,0.9662011733333334,-1.7553711066666664,2.1044921866666666,1.4957681866666666,-3.5483593839077394,2.335841083749227,5.347754949961124,12.351106008661532,4.286310369373274,0.6628763154320585,13.090518753256212,1.0125502484436681,13.5269007314481,1.013565388646991,-0.048746399999999995,0.12987920000000003,0.6578218266666666,0.8364474266666666,0.6722903939107489,0.6436987318799704,0.4138653484525136,0.4084377400247589
LBP00_S02,LBP00,-1531,120,2,119,-1531,1715225061.76,2024-05-09 03:24:21.760000+00:00,2024-05-09 12:24:21.760000+09:00,2024,5,9,3,24,21,760,,,,,,,,,0.139404,0.359131,1.49707,15.258789,45.715332,-21.789551,,,,,,,,,,,1.0,1.0,1.0,2.0,0.0,0.0,0.0,5.0,0.0,0.15244138666666668,0.26128578666666663,0.95116212,-1.0847981866666665,3.40983072,1.3240559466666666,-1.0365179013432793,3.5692154721568983,6.171973994849979,12.3096452926078,4.429078988259549,0.9097552752260576,13.113800462675389,1.032278618664315,13.341277625833792,1.0144357942089177,-0.013037386666666678,0.09784521333333335,0.5459078799999999,0.65679048,0.5547603740980749,0.6350501854167786,0.4230861508853274,0.40942881178911394
LBP00_S02,LBP00,-1530,121,2,120,-1530,1715225061.8,2024-05-09 03:24:21.800000+00:00,2024-05-09 12:24:21.800000+09:00,2024,5,9,3,24,21,800,,,,,,,,,-0.017822,0.285156,0.792725,41.931152,111.755371,-27.282715,,,,,,,,,,,1.0,1.0,1.0,2.0,0.0,0.0,0.0,5.0,0.0,0.15043292,0.2627929466666667,0.9386816533333333,-1.4233398533333332,2.494303386666666,1.901041613333333,-0.2040992334990339,3.848513750495726,7.1677849348512535,12.30148132326784,4.583019538279379,1.1964666726201076,13.181883148232224,1.0400208064100886,13.169434137014814,1.0172591616011744,-0.16825492,0.022363053333333327,-0.1459566533333333,0.3365746266666666,0.22385970810054842,0.631719541625706,0.4257082365520394,0.4038371774854999
LBP00_S02,LBP00,-1529,122,2,121,-1529,1715225061.84,2024-05-09 03:24:21.840000+00:00,2024-05-09 12:24:21.840000+09:00,2024,5,9,3,24,21,840,,,,,,,,,-0.173828,0.357178,-0.114746,49.072266,-11.962891,41.809082,,,,,,,,,,,1.0,1.0,1.0,2.0,0.0,0.0,0.0,5.0,0.0,0.15322913333333332,0.259541,0.9333072933333332,-2.8580729333333332,0.877278653333333,2.931315053333333,-1.3409915391808924,3.288509544534082,8.052539558724146,12.247841661700605,4.714559920060742,1.5185682549690735,13.211462831758336,1.026933537142425,13.002043491951264,1.0213462734956262,-0.3270571333333333,0.09763699999999997,-1.048053293333333,1.4727474266666665,1.1022318530599917,0.6564604646128238,0.44594479725473013,0.4148000687373194
LBP00_S02,LBP00,-1528,123,2,122,-1528,1715225061.88,2024-05-09 03:24:21.880000+00:00,2024-05-09 12:24:21.880000+09:00,2024,5,9,3,24,21,880,,,,,,,,,0.128906,0.055664,0.292725,-78.918457,-79.833984,60.974121,,,,,,,,,,,1.0,1.0,1.0,2.0,0.0,0.0,0.0,5.0,0.0,0.15859046666666668,0.2577278533333333,0.9350227866666667,-1.8855794533333332,0.7747395866666664,2.9248046399999996,-4.141124750247494,2.385586849540779,8.504654698741554,12.082196671690705,4.809983394042373,1.8587544429187357,13.136604764681302,1.0091102037868587,12.827736477692886,1.0261208386107827,-0.029684466666666687,-0.20206385333333332,-0.6422977866666667,0.8740461066666667,0.6739862128724134,0.6604628521894524,0.4586224185884366,0.41113089658869695
LBP00_S02,LBP00,-1527,124,2,123,-1527,1715225061.92,2024-05-09 03:24:21.920000+00:00,2024-05-09 12:24:21.920000+09:00,2024,5,9,3,24,21,920,,,,,,,,,0.723633,0.062256,0.990234,-99.609375,-79.589844,51.269531,,,,,,,,,,,1.0,1.0,1.0,2.0,0.0,0.0,0.0,5.0,0.0,0.15708005333333333,0.25991534666666666,0.9393782533333332,-1.3948568000000001,1.1490885466666665,2.2403970933333337,-7.874252650668615,1.7098073596328869,8.348178673142382,11.76722656566396,4.878375688427688,2.192681589844431,12.925711700310844,1.0169060272137553,12.636425882649627,1.0309812871320714,0.5665529466666667,-0.19765934666666665,0.0508557466666667,0.81506804,0.6021941262337258,0.6777865568942214,0.4693802166331447,0.40588075182947164
LBP00_S02,LBP00,-1526,125,2,124,-1526,1715225061.96,2024-05-09 03:24:21.960000+00:00,2024-05-09 12:24:21.960000+09:00,2024,5,9,3,24,21,960,,,,,,,,,0.374268,0.378418,1.240234,35.27832,22.277832,-10.803223,,,,,,,,,,,1.0,1.0,1.0,2.0,0.0,0.0,0.0,5.0,0.0,0.15422523999999999,0.26425129333333336,0.9464550800000001,-1.1189778933333334,1.0432942666666665,1.74967444,-11.643859453348444,1.586519249884909,7.649229162998988,11.301472187530022,4.941836458423085,2.4986507563643903,12.585240434318074,1.0318015902239268,12.423589398703122,1.0347110757135423,0.22004276,0.11416670666666662,0.29377891999999994,0.6279883866666666,0.38439420778140854,0.6540002229503379,0.47488179091411636,0.40143145661874546
LBP00_S02,LBP00,-1525,126,2,125,-1525,1715225062.0,2024-05-09 03:24:22+00:00,2024-05-09 12:24:22+09:00,2024,5,9,3,24,22,0,3.0,24.0,22.0,40.555836,141.519821,1.574,3.0,13.0,0.051758,0.283691,1.656982,22.155762,12.573242,-39.794922,-259.0,-50.0,398.0,765.0,0.0,1015.599976,18.92,0.025765,-19.53533,4.021875,0.0,1.0,1.0,2.0,0.0,0.0,0.0,4.0,0.0,0.15308266666666667,0.26382811999999994,0.9483138133333332,-1.0074870133333333,1.8269856666666666,1.3785806933333329,-14.592251371909914,1.9581539921915136,6.660263301606499,10.717782132653625,5.020162618110746,2.76506128842865,12.1539479381834,1.0343747091093585,12.194128865400724,1.0345238902704281,-0.10132466666666667,0.019862880000000083,0.7086681866666668,0.8298557333333335,0.7161506970396854,0.6543848171185089,0.48635281504852396,0.40780154296081467
LBP00_S02,LBP00,-1524,127,2,126,-1524,1715225062.04,2024-05-09 03:24:22.040000+00:00,2024-05-09 12:24:22.040000+09:00,2024,5,9,3,24,22,40,,,,,,,,,0.105957,0.48999,1.584229,-30.517578,14.099121,-27.709961,,,,,,,,,,,0.0,1.0,1.0,2.0,0.0,0.0,0.0,4.0,0.0,0.14461588,0.25627277333333337,0.9376074400000001,-0.2799479466666666,2.4194335866666665,1.3907877199999998,-16.000391517826333,2.482661965204279,5.658095887862163,10.07776647194057,5.119469096718917,2.9913851239431364,11.692678301183943,1.046585299387385,11.96431043326655,1.0331542919841734,-0.03865888000000001,0.2337172266666666,0.64662156,0.9189976666666666,0.688649179844459,0.6642045415233414,0.4987505335089054,0.4140526019980852
LBP00_S02,LBP00,-1523,128,2,127,-1523,1715225062.08,2024-05-09 03:24:22.080000+00:00,2024-05-09 12:24:22.080000+09:00,2024,5,9,3,24,22,80,,,,,,,,,0.046875,0.184814,0.890381,11.047363,100.097656,-25.32959,,,,,,,,,,,0.0,1.0,1.0,2.0,0.0,0.0,0.0,4.0,0.0,0.14170898666666665,0.25911782666666666,0.9251530133333333,-0.2254232,1.4778645733333333,1.7879231333333332,-15.32970874512849,2.7707149376868494,4.796247813858313,9.464578122135432,5.230297694226391,3.183235036497469,11.272410491896558,1.0592518309389327,11.760714086001217,1.0334898395183065,-0.09483398666666665,-0.07430382666666666,-0.03477201333333335,0.20390982666666665,0.1253939256728852,0.6477150963011487,0.49709617525466626,0.4098064123489788
LBP00_S02,LBP00,-1522,129,2,128,-1522,1715225062.12,2024-05-09 03:24:22.120000+00:00,2024-05-09 12:24:22.120000+09:00,2024,5,9,3,24,22,120,,,,,,,,,-0.350586,0.325439,-0.127686,56.274414,14.648438,41.992188,,,,,,,,,,,0.0,1.0,1.0,2.0,0.0,0.0,0.0,4.0,0.0,0.14397786666666665,0.25749022666666666,0.9148437733333332,-1.58935548,-0.7527669466666669,3.3260090799999995,-12.282763300660744,2.5937266495950873,4.07478866652721,8.973267590109002,5.334046760210195,3.346226583158557,10.962153913791143,1.0498481342583754,11.615858071462663,1.0388431685632673,-0.49456386666666663,0.06794877333333332,-1.0425297733333332,1.6050424133333332,1.1558887413139036,0.6685796748919688,0.5186436793718766,0.419476887154384
LBP00_S02,LBP00,-1521,130,2,129,-1521,1715225062.16,2024-05-09 03:24:22.160000+00:00,2024-05-09 12:24:22.160000+09:00,2024,5,9,3,24,22,160,,,,,,,,,0.164062,0.066406,0.325928,-106.689453,-62.5,52.429199,,,,,,,,,,,0.0,1.0,1.0,2.0,0.0,0.0,0.0,4.0,0.0,0.15192382666666665,0.2595865866666667,0.9206250266666666,-1.9189453200000002,-2.0393880400000004,4.039713519999999,-6.913229235282051,1.939317590309003,3.4365956763613204,8.69673842069772,5.411619463822555,3.48369041021301,10.819195129651424,1.0304067642331747,11.561285705249452,1.0452369681769131,0.012138173333333363,-0.19318058666666665,-0.5946970266666666,0.8000157866666666,0.6254043714613142,0.6642686218941957,0.5302627973560282,0.42622796826055437
LBP00_S02,LBP00,-1520,131,2,130,-1520,1715225062.2,2024-05-09 03:24:22.200000+00:00,2024-05-09 12:24:22.200000+09:00,2024,5,9,3,24,22,200,,,,,,,,,0.618164,-0.054688,1.004883,-76.721191,-76.049805,48.76709,,,,,,,,,,,0.0,1.0,1.0,2.0,0.0,0.0,0.0,4.0,0.0,0.1558561066666667,0.26370768,0.9414746266666668,-2.04427084,-1.1132812666666667,3.1852213333333332,0.2611870200813692,0.912667450317474,2.8998753590111166,8.707185901500974,5.448126161835255,3.5996854245734546,10.8836988268905,1.026324823547541,11.620078925566196,1.050196013167307,0.46230789333333333,-0.31839568,0.06340837333333316,0.8441119466666666,0.5649115143894188,0.6640973315831915,0.5402519524704679,0.42335699902401885
LBP00_S02,LBP00,-1519,132,2,131,-1519,1715225062.24,2024-05-09 03:24:22.240000+00:00,2024-05-09 12:24:22.240000+09:00,2024,5,9,3,24,22,240,,,,,,,,,0.352295,0.400879,1.220947,46.142578,15.930176,-22.033691,,,,,,,,,,,0.0,1.0,1.0,2.0,0.0,0.0,0.0,4.0,0.0,0.15632812,0.2668391866666667,0.9613021066666666,-1.2329101733333332,0.39550779999999996,1.9694010133333333,8.242412434804315,-0.40228175687635076,2.6076057824536614,9.036882398893146,5.432034891560201,3.703989655871601,11.175499359104988,1.0302890124837587,11.801019748713204,1.0543909174195156,0.19596688000000004,0.1340398133333333,0.2596448933333334,0.5896515866666667,0.35183115303998785,0.6536028712574575,0.5455596563588796,0.4180567928756539
LBP00_S02,LBP00,-1518,133,2,132,-1518,1715225062.28,2024-05-09 03:24:22.280000+00:00,2024-05-09 12:24:22.280000+09:00,2024,5,9,3,24,22,280,,,,,,,,,-0.02002,0.313721,1.671631,69.030762,1.708984,-44.921875,,,,,,,,,,,0.0,1.0,1.0,2.0,0.0,0.0,0.0,4.0,0.0,0.14958333333333335,0.27602212,0.9673340133333332,0.6534830533333337,2.3201497333333334,0.6673176799999999,15.709568298465134,-1.9871119074621257,2.739262378743326,9.665265130831752,5.352550415261716,3.813560151021334,11.68804461929575,1.0626434942364638,12.095715669867932,1.054692077936965,-0.16960333333333336,0.037698880000000046,0.7042969866666668,0.9115992000000003,0.7254107399665236,0.6443483527479568,0.5590222197578057,0.42196584637843454
LBP00_S02,LBP00,-1517,134,2,133,-1517,1715225062.32,2024-05-09 03:24:22.320000+00:00,2024-05-09 12:24:22.320000+09:00,2024,5,9,3,24,22,320,,,,,,,,,0.105713,0.609375,1.650146,17.150879,10.742188,-22.583008,,,,,,,,,,,0.0,1.0,1.0,2.0,0.0,0.0,0.0,4.0,0.0,0.14114582666666667,0.27214192,0.9608170799999999,-0.6901041866666664,3.933919266666667,-0.0724284133333335,21.327381692786474,-3.7949955240804165,3.3410081560575784,10.518360398543212,5.200750594298499,3.947200477263637,12.379988038178736,1.0808440233502141,12.478892089897519,1.0525105037026539,-0.03543282666666667,0.33723308,0.68932892,1.0619948266666666,0.76821611243207,0.6510708979115679,0.571508803957351,0.42787549489116145
LBP00_S02,LBP00,-1516,135,2,134,-1516,1715225062.36,2024-05-09 03:24:22.360000+00:00,2024-05-09 12:24:22.360000+09:00,2024,5,9,3,24,22,360,,,,,,,,,0.062256,0.23877,0.961182,35.583496,98.815918,-32.348633,,,,,,,,,,,0.0,1.0,1.0,2.0,0.0,0.0,0.0,4.0,0.0,0.13990885333333333,0.2702897066666667,0.9434928533333332,-1.0400390799999997,2.7766927066666667,0.8382161199999998,24.082930298331274,-5.600045493168787,4.2019842487395085,11.481677610476464,4.976748774571747,4.115279847213217,13.173172637485518,1.081392040127866,12.911431926108836,1.0523886314855455,-0.07765285333333333,-0.031519706666666675,0.017689146666666766,0.12686170666666677,0.08565257409416098,0.6141939719079647,0.5706532867914617,0.4234511589866761
LBP00_S02,LBP00,-1515,136,2,135,-1515,1715225062.4,2024-05-09 03:24:22.400000+00:00,2024-05-09 12:24:22.400000+09:00,2024,5,9,3,24,22,400,,,,,,,,,-0.288818,0.183838,-0.106445,83.190918,14.099121,31.188965,,,,,,,,,,,0.0,1.0,1.0,2.0,0.0,0.0,0.0,4.0,0.0,0.14122394666666666,0.26963866666666664,0.9298274933333335,-2.3201497466666665,0.9847005200000003,2.0857747066666663,23.5120325262945,-6.933906266863965,4.882194891189243,12.422158911528243,4.699392523897188,4.310567642860787,13.963356169653474,1.0763237516314457,13.345402150342476,1.0552012710089866,-0.4300419466666667,-0.08580066666666664,-1.0362724933333334,1.5521151066666667,1.1252370908979956,0.6344035620349747,0.5898522560727067,0.43173587861909596
LBP00_S02,LBP00,-1514,137,2,136,-1514,1715225062.44,2024-05-09 03:24:22.440000+00:00,2024-05-09 12:24:22.440000+09:00,2024,5,9,3,24,22,440,,,,,,,,,0.043945,0.166504,0.136475,-34.606934,-66.711426,45.776367,,,,,,,,,,,0.0,1.0,1.0,2.0,0.0,0.0,0.0,4.0,0.0,0.14802406666666668,0.2646451866666667,0.9349153733333333,-2.0694987066666664,-0.12451171999999985,2.60660804,19.74234062932609,-7.208944126606115,4.898778135854088,13.211852536701286,4.411034758832944,4.50651876829495,14.639637512731225,1.0495969045618794,13.730033841014423,1.0609108285174127,-0.10407906666666668,-0.09814118666666669,-0.7984403733333333,1.0006606266666667,0.8111542235649264,0.635761284806656,0.603140324314134,0.43648776025844466
LBP00_S02,LBP00,-1513,138,2,137,-1513,1715225062.48,2024-05-09 03:24:22.480000+00:00,2024-05-09 12:24:22.480000+09:00,2024,5,9,3,24,22,480,,,,,,,,,0.559082,0.174561,0.675781,-46.813965,-117.370605,65.917969,,,,,,,,,,,0.0,1.0,1.0,2.0,0.0,0.0,0.0,4.0,0.0,0.15562824,0.2704134133333333,0.9523112000000001,-1.8391927199999993,-0.7120768266666664,2.1207681866666666,13.371972732161735,-5.998005179533136,3.9701925680126147,13.746731445987756,4.171114551651619,4.6653264710154545,15.104174692192421,1.03743608859582,14.017736916624461,1.0673310947404544,0.40345376,-0.0958524133333333,-0.27653020000000017,0.7758363733333334,0.49842910540216434,0.6358048894211367,0.6117082690652496,0.4420048711790454
LBP00_S02,LBP00,-1512,139,2,138,-1512,1715225062.52,2024-05-09 03:24:22.520000+00:00,2024-05-09 12:24:22.520000+09:00,2024,5,9,3,24,22,520,,,,,,,,,0.486572,0.313232,1.191895,28.991699,0.061035,-1.159668,,,,,,,,,,,0.0,1.0,1.0,2.0,0.0,0.0,0.0,4.0,0.0,0.15472004,0.27603516,0.97150392,-0.9301757999999997,0.08544921333333351,1.2353515199999996,5.271511946961627,-3.3103013550836375,2.1727840260460667,13.957591923866222,4.0387024974482735,4.752237832057297,15.287552275904313,1.0486294120872923,14.16978997489682,1.0695317478053135,0.33185196,0.03719684000000001,0.22039107999999996,0.58943988,0.400101932518944,0.6192865104320091,0.617489746346057,0.44559291753206326
LBP00_S02,LBP00,-1511,140,2,139,-1511,1715225062.56,2024-05-09 03:24:22.560000+00:00,2024-05-09 12:24:22.560000+09:00,2024,5,9,3,24,22,560,,,,,,,,,-0.02124,0.373291,1.525635,9.70459,25.45166,-51.330566,,,,,,,,,,,0.0,1.0,1.0,2.0,0.0,0.0,0.0,4.0,0.0,0.15234373333333331,0.27819336,0.9856933733333333,-0.03499350666666639,2.036946613333334,0.16601558666666652,-3.5906476995902157,0.32296790170583933,-0.08653398126211508,13.813966015882613,4.051621213516507,4.748776472806813,15.158897371987853,1.0585331594675844,14.161514405928932,1.06677677938799,-0.17358373333333332,0.09509763999999998,0.5399416266666668,0.8086230000000001,0.57507550271156,0.6028222621044094,0.6266196540794077,0.4514989432784547
LBP00_S02,LBP00,-1510,141,2,140,-1510,1715225062.6,2024-05-09 03:24:22.600000+00:00,2024-05-09 12:24:22.600000+09:00,2024,5,9,3,24,22,600,,,,,,,,,0.062988,0.690918,1.558105,-2.319336,-4.821777,-17.272949,,,,,,,,,,,0.0,1.0,1.0,2.0,0.0,0.0,0.0,4.0,0.0,0.14034178666666666,0.2720670533333333,0.9769987066666668,0.360514306666667,4.023437493333334,-0.7218424800000002,-12.25082205852607,4.028329368113761,-2.2642975334157116,13.323933133541571,4.212754388241057,4.6582045714701845,14.730015733609958,1.0834203986318025,13.98605149066348,1.0639668364000965,-0.07735378666666666,0.4188509466666667,0.5811062933333333,1.0773110266666666,0.7204888951169484,0.608575709778776,0.6332721838807592,0.4599036123525442
LBP00_S02,LBP00,-1509,142,2,141,-1509,1715225062.64,2024-05-09 03:24:22.640000+00:00,2024-05-09 12:24:22.640000+09:00,2024,5,9,3,24,22,640,,,,,,,,,0.155029,0.392578,1.158447,-7.751465,89.294434,-27.648926,,,,,,,,,,,0.0,1.0,1.0,2.0,0.0,0.0,0.0,4.0,0.0,0.13791992,0.2753385466666667,0.9562467600000001,1.156412746666667,3.014322906666667,0.2010090933333332,-19.80162738614933,6.94422234727545,-3.9243219254499384,12.531868038095597,4.4905232821320755,4.501231694452187,14.052530115205345,1.094491674714176,13.655347961152511,1.0623237106390928,0.01710908,0.1172394533333333,0.20220023999999992,0.3365487733333332,0.2343560263624616,0.5931890212408115,0.6319904330176654,0.461770466594847
LBP00_S02,LBP00,-1508,143,2,142,-1508,1715225062.68,2024-05-09 03:24:22.680000+00:00,2024-05-09 12:24:22.680000+09:00,2024,5,9,3,24,22,680,,,,,,,,,-0.276855,-0.124756,0.436768,-18.981934,100.402832,-34.362793,,,,,,,,,,,0.0,1.0,1.0,2.0,0.0,0.0,0.0,4.0,0.0,0.1402474,0.27334310666666667,0.94116212,-0.38655599999999957,1.6357421733333335,1.4607747199999999,-25.444391338730135,8.55521283096271,-4.894719116939829,11.514092384546391,4.8327317953705835,4.3054429297745935,13.20857520201937,1.0846500248850544,13.197698071596857,1.0634269745576135,-0.4171024,-0.3980991066666667,-0.50439412,1.3195956266666666,0.7660748913162031,0.606085742128101,0.6266422714764548,0.4701281232471697
LBP00_S02,LBP00,-1507,144,2,143,-1507,1715225062.72,2024-05-09 03:24:22.720000+00:00,2024-05-09 12:24:22.720000+09:00,2024,5,9,3,24,22,720,,,,,,,,,0.07959,0.144775,0.196777,-48.706055,-52.062988,30.761719,,,,,,,,,,,0.0,1.0,1.0,2.0,0.0,0.0,0.0,4.0,0.0,0.14661458666666666,0.2643587333333333,0.9395865999999999,-0.5924479199999996,0.44026692000000023,1.8538411199999996,-28.572909442272017,8.8280050562557,-5.265512514642918,10.37117600685551,5.185851997620811,4.094822429188877,12.297232348499863,1.0532943391769813,12.652701716728743,1.070222093146032,-0.06702458666666666,-0.11958373333333333,-0.7428096,0.9294179199999999,0.7553533387415026,0.6094082599213312,0.6265534959006507,0.47904631894211946
LBP00_S02,LBP00,-1506,145,2,144,-1506,1715225062.76,2024-05-09 03:24:22.760000+00:00,2024-05-09 12:24:22.760000+09:00,2024,5,9,3,24,22,760,,,,,,,,,0.282227,0.275879,0.512695,-52.55127,-96.801758,60.72998,,,,,,,,,,,0.0,1.0,1.0,2.0,0.0,0.0,0.0,4.0,0.0,0.15089844,0.2723404933333333,0.9503190266666667,-0.2058919333333329,-0.5777994799999997,1.8082682133333332,-28.8767818119963,8.094220560971497,-5.253919328908154,9.216104734375659,5.509620820059671,3.884665656032551,11.418543484830947,1.0532926102489293,12.0654065295161,1.0753527779741678,0.13132856,0.003538506666666663,-0.43762402666666667,0.5724910933333334,0.45691848333926155,0.6054945842909786,0.6202723848538786,0.4838889620205445
LBP00_S02,LBP00,-1505,146,2,145,-1505,1715225062.8,2024-05-09 03:24:22.800000+00:00,2024-05-09 12:24:22.800000+09:00,2024,5,9,3,24,22,800,,,,,,,,,0.654541,0.213867,1.349121,10.559082,-12.023926,3.234863,,,,,,,,,,,0.0,1.0,1.0,2.0,0.0,0.0,0.0,4.0,0.0,0.15059896,0.2759960933333333,0.97175132,-0.3833007866666661,0.163574226666667,1.027018213333333,-26.423341102585635,6.784864753599171,-5.040034274287255,8.159171090272233,5.781015410203637,3.683064285061061,10.656320874543823,1.0598924940214085,11.48098895195399,1.0775185430989929,0.5039420400000001,-0.0621290933333333,0.37736968000000004,0.9434408133333334,0.632633763959122,0.6218455465253215,0.6267825440755137,0.49108733987646674
LBP00_S02,LBP00,-1504,147,2,146,-1504,1715225062.84,2024-05-09 03:24:22.840000+00:00,2024-05-09 12:24:22.840000+09:00,2024,5,9,3,24,22,840,,,,,,,,,0.176025,0.5271,1.556885,-51.208496,30.700684,-39.855957,,,,,,,,,,,0.0,1.0,1.0,2.0,0.0,0.0,0.0,4.0,0.0,0.14890950666666666,0.2730436133333333,0.98494468,0.6746419200000006,2.102864586666667,-0.36702476000000017,-21.676968661299487,5.2068770299402285,-4.681857973326638,7.292092343820253,5.989290491401246,3.495789966127995,10.063138617174689,1.0606295437470836,10.940247621707863,1.0750568127900813,0.027115493333333324,0.2540563866666667,0.5719403200000001,0.8531122000000001,0.6264149002271062,0.6028128684120061,0.629636666512415,0.4982341543071554
LBP00_S02,LBP00,-1503,148,2,147,-1503,1715225062.88,2024-05-09 03:24:22.880000+00:00,2024-05-09 12:24:22.880000+09:00,2024,5,9,3,24,22,880,,,,,,,,,-0.022949,0.398926,1.768066,-32.897949,1.831055,-27.832031,,,,,,,,,,,0.0,1.0,1.0,2.0,0.0,0.0,0.0,4.0,0.0,0.13388997333333333,0.27449217333333337,0.96869468,1.5348307200000004,3.6352539066666667,-1.0009765733333336,-15.436528686372577,3.4944162968403325,-4.149527258666501,6.67463119636535,6.12906714327486,3.3298088757813353,9.654211143511269,1.1053872744800082,10.47565564143412,1.068894213865753,-0.15683897333333333,0.12443382666666664,0.7993713199999999,1.0806441199999999,0.8240611312358485,0.6088158651465434,0.6346393586679979,0.5086869007744722
LBP00_S02,LBP00,-1502,149,2,148,-1502,1715225062.92,2024-05-09 03:24:22.920000+00:00,2024-05-09 12:24:22.920000+09:00,2024,5,9,3,24,22,920,,,,,,,,,0.237549,0.343506,1.369873,22.583008,61.523438,-17.822266,,,,,,,,,,,0.0,1.0,1.0,2.0,0.0,0.0,0.0,4.0,0.0,0.13308268,0.26907550666666663,0.9509961066666667,0.6835937466666672,2.2273762933333336,-0.1879882933333335,-8.697368390894109,1.719761518585739,-3.4264128658874498,6.326736460729586,6.19785760401829,3.1927523611458373,9.41460040377789,1.099936260368649,10.108116991086485,1.0641203065431841,0.10446632,0.07443049333333335,0.4188768933333332,0.5977737066666666,0.438076434107988,0.6022511574615139,0.6400188571778677,0.5136705302426011
LBP00_S02,LBP00,-1501,150,2,149,-1501,1715225062.96,2024-05-09 03:24:22.960000+00:00,2024-05-09 12:24:22.960000+09:00,2024,5,9,3,24,22,960,,,,,,,,,-0.416992,-0.142822,0.230957,10.437012,90.942383,-27.526855,,,,,,,,,,,0.0,1.0,1.0,2.0,0.0,0.0,0.0,4.0,0.0,0.13631510666666666,0.26227864,0.93439128,-0.666503906666666,0.5200195200000005,0.9220377466666666,-2.4654202080406233,0.03296201092907142,-2.5822410741374244,6.228119652407962,6.199176084455452,3.0894627181803402,9.31472159636674,1.0801908107158344,9.84519813136164,1.0627717847901075,-0.5533071066666666,-0.40510064,-0.7034342800000001,1.6618420266666667,0.9823823436398713,0.6261706828958524,0.6400854529230952,0.5253114215746951
LBP00_S02,LBP00,-1500,151,2,150,-1500,1715225063.0,2024-05-09 03:24:23+00:00,2024-05-09 12:24:23+09:00,2024,5,9,3,24,23,0,3.0,24.0,23.0,40.555809,141.519913,2.213,3.0,13.0,0.058838,0.112549,0.282227,-17.822266,-62.988281,23.31543,-263.0,-47.0,400.0,762.0,0.0,1015.200012,18.969999,0.021802,-16.213024,4.021875,0.0,1.0,1.0,2.0,0.0,0.0,0.0,4.0,0.0,0.14305338666666667,0.2613932266666667,0.9264550933333332,-0.8593749999999994,-0.9676106799999995,1.7260742133333333,2.433330389323327,-1.3073166209806042,-1.7573227531837567,6.325452867980895,6.146883419616228,3.01916980805299,9.322602431148683,1.0588030955426877,9.68169167767435,1.0646123076806626,-0.08421538666666667,-0.1488442266666667,-0.6442280933333332,0.8772877066666666,0.6665408250087282,0.6241862880146143,0.6392855525665616,0.5322973060372207
LBP00_S02,LBP00,-1499,152,2,151,-1499,1715225063.04,2024-05-09 03:24:23.040000+00:00,2024-05-09 12:24:23.040000+09:00,2024,5,9,3,24,23,40,,,,,,,,,0.304688,0.232422,0.61499,1.098633,-117.675781,72.631836,,,,,,,,,,,0.0,1.0,1.0,2.0,0.0,0.0,0.0,4.0,0.0,0.15261068000000003,0.26210937333333334,0.9406673333333333,-1.648763026666666,-1.8448893199999998,1.648763013333333,5.5027918021689946,-2.0516593920931494,-1.0736983396200719,6.545564540067654,6.064817043932502,2.976221874468187,9.406610312467938,1.0328656854708929,9.602823111107204,1.0676958448736387,0.15207732,-0.02968737333333335,-0.32567733333333326,0.5074420266666666,0.3606585321892804,0.6110666621084071,0.6376356018158742,0.5361892430420726
LBP00_S02,LBP00,-1498,153,2,152,-1498,1715225063.08,2024-05-09 03:24:23.080000+00:00,2024-05-09 12:24:23.080000+09:00,2024,5,9,3,24,23,80,,,,,,,,,0.609863,0.3396,1.271484,38.513184,-3.234863,6.164551,,,,,,,,,,,0.0,1.0,1.0,2.0,0.0,0.0,0.0,4.0,0.0,0.15398438666666667,0.2669368533333333,0.96129884,-1.4412434933333327,-1.0042317599999997,0.6901041599999999,6.656189859197781,-2.1343805484310865,-0.5510543419607051,6.8118121344355655,5.979441821995258,2.9541797007897586,9.533188698542995,1.0369109516593658,9.589516272487508,1.0699631793211626,0.45587861333333335,0.07266314666666673,0.31018516000000007,0.8387269200000002,0.5561655117520773,0.6282975255515748,0.6380063109263616,0.5408299586869691
LBP00_S02,LBP00,-1497,154,2,153,-1497,1715225063.12,2024-05-09 03:24:23.120000+00:00,2024-05-09 12:24:23.120000+09:00,2024,5,9,3,24,23,120,,,,,,,,,0.10791,0.423096,1.509766,3.78418,38.452148,-52.55127,,,,,,,,,,,0.0,1.0,1.0,2.0,0.0,0.0,0.0,4.0,0.0,0.15372722666666666,0.2681543066666667,0.97740236,-0.5411783999999994,0.7641601600000004,-0.5069987066666668,6.213189650107827,-1.7522429323156852,-0.10563358476965205,7.060339720439878,5.909352104702631,2.9499543573989726,9.668043751251421,1.039809121646215,9.624160096244923,1.0648990542712058,-0.045817226666666655,0.15494169333333335,0.5323636399999999,0.73312256,0.5563426927591257,0.6043156836093836,0.6364476792506762,0.5472010141177123
LBP00_S02,LBP00,-1496,155,2,154,-1496,1715225063.16,2024-05-09 03:24:23.160000+00:00,2024-05-09 12:24:23.160000+09:00,2024,5,9,3,24,23,160,,,,,,,,,0.003662,0.510498,1.692871,-16.357422,-9.643555,-22.155762,,,,,,,,,,,0.0,1.0,1.0,2.0,0.0,0.0,0.0,4.0,0.0,0.14341798666666666,0.2701269733333333,0.9725195466666667,1.0872395733333342,3.225097653333334,-1.4282226666666669,4.814572433943746,-1.2655450523577336,0.3577073508350776,7.252922617797628,5.858730302608321,2.9642626514323758,9.783478947958047,1.0716978391544798,9.694841958196696,1.058828612225295,-0.13975598666666667,0.2403710266666667,0.7203514533333333,1.1004784666666667,0.7721503626816517,0.6101855232581971,0.6372270725761964,0.5569037059900844
LBP00_S02,LBP00,-1495,156,2,155,-1495,1715225063.2,2024-05-09 03:24:23.200000+00:00,2024-05-09 12:24:23.200000+09:00,2024,5,9,3,24,23,200,,,,,,,,,0.197021,0.406494,1.316895,8.300781,59.570312,-22.460938,,,,,,,,,,,0.0,1.0,1.0,2.0,0.0,0.0,0.0,4.0,0.0,0.13756186666666667,0.27190106666666664,0.9536816533333333,1.552734373333334,2.3413086,-0.6176758000000001,3.267603729272751,-0.9807525315233158,0.8338174702188557,7.383626766968538,5.819500201347388,2.99761535024113,9.867635208872377,1.0907278659511703,9.796704199619708,1.0544982323093328,0.05945913333333333,0.1345929333333334,0.3632133466666666,0.5572654133333333,0.3918859291130805,0.6032644998471436,0.6336809157151676,0.5612561349293598
LBP00_S02,LBP00,-1494,157,2,156,-1494,1715225063.24,2024-05-09 03:24:23.240000+00:00,2024-05-09 12:24:23.240000+09:00,2024,5,9,3,24,23,240,,,,,,,,,-0.590332,-0.131104,-0.057861,31.982422,93.444824,-13.48877,,,,,,,,,,,0.0,1.0,1.0,2.0,0.0,0.0,0.0,4.0,0.0,0.13749025333333334,0.2667904,0.9364192933333334,0.5273437466666674,0.7104492266666671,0.5362955466666665,2.3520715337544886,-0.9663282874395867,1.1843521290157109,7.477709628318718,5.780847069849805,3.0449894354017584,9.930070230977718,1.0833028882223246,9.930602237891685,1.0530723700816225,-0.7278222533333333,-0.3978944,-0.9942802933333335,2.119996946666667,1.2948507588558578,0.6409852840797784,0.647294077668618,0.5773681989325125
LBP00_S02,LBP00,-1493,158,2,157,-1493,1715225063.28,2024-05-09 03:24:23.280000+00:00,2024-05-09 12:24:23.280000+09:00,2024,5,9,3,24,23,280,,,,,,,,,0.065674,0.396484,0.087891,-7.324219,-68.481445,44.311523,,,,,,,,,,,0.0,1.0,1.0,2.0,0.0,0.0,0.0,4.0,0.0,0.14580405333333335,0.26392906666666666,0.9297786666666668,-0.2473958399999993,-1.027832026666666,1.2573242,2.626868506592509,-1.034022900447808,1.2245851888928483,7.582784368582418,5.739486153831892,3.093972842957472,10.000649381085422,1.0547460239804376,10.100352155824616,1.0563222325457844,-0.08013005333333335,0.13255493333333335,-0.8418876666666668,1.0545726533333335,0.856017803017935,0.6462095666018348,0.6452789596748958,0.5880846687058154
LBP00_S02,LBP00,-1492,159,2,158,-1492,1715225063.32,2024-05-09 03:24:23.320000+00:00,2024-05-09 12:24:23.320000+09:00,2024,5,9,3,24,23,320,,,,,,,,,0.408691,0.156006,0.592773,-72.875977,-119.20166,77.270508,,,,,,,,,,,0.0,1.0,1.0,2.0,0.0,0.0,0.0,4.0,0.0,0.1512142,0.26374352,0.9366471466666667,-0.48502603999999927,-2.153320306666666,1.1132812266666665,4.2802629546379825,-0.9041097180372848,0.8763428123682715,7.753994886767938,5.703321765110401,3.129026555452203,10.121419023295617,1.0392318399095428,10.309897278631132,1.0616500972204403,0.25747680000000006,-0.10773752,-0.3438741466666667,0.7090884666666668,0.44288949468204664,0.633196501891834,0.6421336999017009,0.592071369935512
LBP00_S02,LBP00,-1491,160,2,159,-1491,1715225063.36,2024-05-09 03:24:23.360000+00:00,2024-05-09 12:24:23.360000+09:00,2024,5,9,3,24,23,360,,,,,,,,,0.654297,0.166016,1.18457,43.884277,-5.065918,3.540039,,,,,,,,,,,0.0,1.0,1.0,2.0,0.0,0.0,0.0,4.0,0.0,0.15297526666666664,0.2651172133333333,0.9589518266666668,-0.7250976533333326,-1.8237304533333327,0.026855439999999932,7.069824543464313,-0.43671722195678847,0.27240135046710484,8.03678786850651,5.685853076232129,3.139922609470887,10.333344010596871,1.036887011556214,10.561096395646384,1.0661234705755729,0.5013217333333334,-0.09910121333333333,0.22561817333333312,0.8260411199999999,0.5586126483841435,0.6521149048634333,0.633154438385699,0.5978071594821188
LBP00_S02,LBP00,-1490,161,2,160,-1490,1715225063.4,2024-05-09 03:24:23.400000+00:00,2024-05-09 12:24:23.400000+09:00,2024,5,9,3,24,23,400,,,,,,,,,0.134033,0.419189,1.438965,20.507812,29.724121,-53.527832,,,,,,,,,,,0.0,1.0,1.0,2.0,0.0,0.0,0.0,4.0,0.0,0.15219076,0.26845379999999996,0.9780436133333332,0.42154948000000075,-0.8365885333333327,-1.02050784,10.385931770647161,0.24503630230745774,-0.2805888288829307,8.452225139332397,5.695654528324427,3.1286990563155697,10.661582813868447,1.044544473265581,10.852207530907584,1.0651799719602475,-0.018157759999999995,0.1507352,0.4609213866666668,0.6298143466666668,0.4852827314607234,0.6265167304859424,0.6304601462604584,0.6020737475437853
LBP00_S02,LBP00,-1489,162,2,161,-1489,1715225063.44,2024-05-09 03:24:23.440000+00:00,2024-05-09 12:24:23.440000+09:00,2024,5,9,3,24,23,440,,,,,,,,,0.050293,0.566895,1.63208,10.986328,9.887695,-34.301758,,,,,,,,,,,0.0,1.0,1.0,2.0,0.0,0.0,0.0,4.0,0.0,0.14588868,0.27050132,0.9807226533333333,1.8098958400000007,1.346842453333334,-2.1972656533333335,13.429733417597186,0.8336560973581527,-0.4750124010482647,8.989414476036284,5.729000772218753,3.109698560273639,11.104109491797248,1.065364310112512,11.176865131804096,1.0607732305214206,-0.09559567999999999,0.29639368000000005,0.6513573466666667,1.0433467066666666,0.7219793214734374,0.6229497344022827,0.6293555096044695,0.6097434610101836
LBP00_S02,LBP00,-1488,163,2,162,-1488,1715225063.48,2024-05-09 03:24:23.480000+00:00,2024-05-09 12:24:23.480000+09:00,2024,5,9,3,24,23,480,,,,,,,,,0.142578,0.251221,1.171387,23.132324,76.23291,-28.564453,,,,,,,,,,,0.0,1.0,1.0,2.0,0.0,0.0,0.0,4.0,0.0,0.13449870666666666,0.26498048,0.96305664,1.5722656400000006,1.7399088533333338,-2.0751953333333333,15.443999571078688,1.0558430419595168,-0.20087083012990328,9.607174458879431,5.771234493897134,3.1016637270684426,11.628639926608162,1.0901895984059258,11.523453321887192,1.0554157015705334,0.008079293333333348,-0.01375947999999999,0.20833035999999994,0.23016913333333328,0.2089405110752006,0.6113701906292043,0.6235875400251705,0.6115955762532345
LBP00_S02,LBP00,-1487,164,2,163,-1487,1715225063.52,2024-05-09 03:24:23.520000+00:00,2024-05-09 12:24:23.520000+09:00,2024,5,9,3,24,23,520,,,,,,,,,-0.453613,-0.19751,0.14917,65.979004,65.185547,-12.145996,,,,,,,,,,,0.0,1.0,1.0,2.0,0.0,0.0,0.0,4.0,0.0,0.13515300000000002,0.2627343866666667,0.9435254,0.8813476666666672,0.6030273466666672,-1.1767578266666667,15.913193821404713,0.8662747008108571,0.3666439304046648,10.24370221173562,5.805885481929568,3.116329484284629,12.180034921403939,1.084542855197542,11.875095778980656,1.0546243092340002,-0.588766,-0.46024438666666667,-0.7943553999999999,1.8433657866666666,1.0906286259416338,0.6389912583661118,0.6291388843990604,0.6246569170194086
LBP00_S02,LBP00,-1486,165,2,164,-1486,1715225063.56,2024-05-09 03:24:23.560000+00:00,2024-05-09 12:24:23.560000+09:00,2024,5,9,3,24,23,560,,,,,,,,,-0.012451,0.387207,0.131592,5.67627,-59.387207,31.433105,,,,,,,,,,,0.0,1.0,1.0,2.0,0.0,0.0,0.0,4.0,0.0,0.14025717333333335,0.2581868666666667,0.9315527333333333,1.285807306666667,-1.1336262933333325,-0.1017252800000001,14.66854770614062,0.4728760878715642,0.8548645890181682,10.830444119981244,5.824800525444431,3.150524067845356,12.694590300570038,1.062262853001224,12.21072701027195,1.0575268940074316,-0.15270817333333334,0.12902013333333334,-0.7999607333333334,1.08168904,0.8245624026617749,0.6489707343641204,0.625896498234265,0.6340700141743119
LBP00_S02,LBP00,-1485,166,2,165,-1485,1715225063.6,2024-05-09 03:24:23.600000+00:00,2024-05-09 12:24:23.600000+09:00,2024,5,9,3,24,23,600,,,,,,,,,0.435303,0.239502,0.575684,-67.749023,-107.23877,93.62793,,,,,,,,,,,0.0,1.0,1.0,2.0,0.0,0.0,0.0,4.0,0.0,0.14743816,0.26162112,0.9347395866666667,1.219075533333334,-2.3608398266666657,0.18066403999999991,11.88076294453715,0.17386973623580748,0.9037311073865623,11.305674637762731,5.831755314893863,3.1866733121408184,13.114211217837497,1.046660451562902,12.507645259529589,1.0631497663828045,0.28786484,-0.022119119999999992,-0.3590555866666667,0.6690395466666668,0.4607345612110559,0.6385805610078847,0.6235781353933303,0.6350416429231344
LBP00_S02,LBP00,-1484,167,2,166,-1484,1715225063.64,2024-05-09 03:24:23.640000+00:00,2024-05-09 12:24:23.640000+09:00,2024,5,9,3,24,23,640,,,,,,,,,0.578125,0.256592,1.242188,30.517578,-5.065918,6.835938,,,,,,,,,,,0.0,1.0,1.0,2.0,0.0,0.0,0.0,4.0,0.0,0.15302736,0.26063154666666666,0.9573046933333332,-0.23030597333333266,-2.145182279999999,-0.9407552400000001,7.976598007354904,0.12856456659944526,0.3628878789338781,11.624738558056928,5.836897897557841,3.2011888272981737,13.39595213180867,1.0297275987134524,12.745555847848639,1.06757910977278,0.42509764,-0.004039546666666671,0.28488330666666684,0.7140204933333335,0.511744877735162,0.6496761150627927,0.621432568151802,0.6378856603660412
LBP00_S02,LBP00,-1483,168,2,167,-1483,1715225063.68,2024-05-09 03:24:23.680000+00:00,2024-05-09 12:24:23.680000+09:00,2024,5,9,3,24,23,680,,,,,,,,,0.110107,0.414795,1.561523,14.587402,29.296875,-54.748535,,,,,,,,,,,0.0,1.0,1.0,2.0,0.0,0.0,0.0,4.0,0.0,0.15130210666666666,0.2683756933333333,0.9744140666666667,1.3435872533333342,-1.2231445199999993,-1.7643229466666666,3.542844222001705,0.23719523747639903,-0.6506380054849467,11.766452326936996,5.846385707056897,3.1751633070787757,13.517073952020077,1.0468321006151073,12.911478670489677,1.0676398704064272,-0.04119510666666666,0.14641930666666675,0.5871089333333332,0.7747233466666666,0.6064920030617302,0.6432927995326138,0.6246892708303574,0.6321924474951744
LBP00_S02,LBP00,-1482,169,2,168,-1482,1715225063.72,2024-05-09 03:24:23.720000+00:00,2024-05-09 12:24:23.720000+09:00,2024,5,9,3,24,23,720,,,,,,,,,0.075928,0.557617,1.708008,27.893066,-2.807617,-25.268555,,,,,,,,,,,0.0,1.0,1.0,2.0,0.0,0.0,0.0,4.0,0.0,0.14591147999999998,0.2725912,0.9777343733333334,2.5870768266666673,0.9790039200000009,-2.53662112,-0.7439433817721434,0.22367099727601175,-1.8616540011146312,11.73669459166611,5.855332546947937,3.1006971470341904,13.477731336208564,1.0682576876438543,13.004157520845457,1.0630668605948244,-0.06998347999999999,0.28502580000000005,0.7302736266666666,1.0852829066666667,0.7870431779409797,0.6445603931005928,0.626984326510962,0.6325557949672981
LBP00_S02,LBP00,-1481,170,2,169,-1481,1715225063.76,2024-05-09 03:24:23.760000+00:00,2024-05-09 12:24:23.760000+09:00,2024,5,9,3,24,23,760,,,,,,,,,0.176514,0.373779,1.590332,-5.737305,39.794922,-29.47998,,,,,,,,,,,0.0,1.0,1.0,2.0,0.0,0.0,0.0,4.0,0.0,0.13389976,0.26580734666666667,0.9608105466666668,2.4845377600000007,1.9482422000000008,-2.3046875333333334,-4.176813409144074,-0.1345165800298848,-3.0227987394361846,11.569622055300346,5.849951883746742,2.979785197456743,13.302526503173246,1.093115735309942,13.036244042942155,1.0580934408402176,0.04261424,0.1079716533333333,0.6295214533333333,0.7801073466666666,0.6401336669643484,0.6518890004455963,0.6286917923682875,0.6308112567177845
LBP00_S02,LBP00,-1480,171,2,170,-1480,1715225063.8,2024-05-09 03:24:23.800000+00:00,2024-05-09 12:24:23.800000+09:00,2024,5,9,3,24,23,800,,,,,,,,,-0.174805,0.082764,0.59082,-6.469727,122.192383,-39.855957,,,,,,,,,,,0.0,1.0,1.0,2.0,0.0,0.0,0.0,4.0,0.0,0.13496096,0.26534510666666666,0.9411165333333334,1.3891601466666674,1.1417643466666676,-1.0611979466666666,-6.106620247069875,-0.7884835464190834,-4.041097157508673,11.325357245417552,5.818412541889979,2.818141311156396,13.040688697058938,1.0888379071653378,13.033079709448225,1.056190850285031,-0.30976596,-0.18258110666666666,-0.35029653333333344,0.8426436000000002,0.5019944937463932,0.6466634296370873,0.6342544880812043,0.6334095059293716
LBP00_S02,LBP00,-1479,172,2,171,-1479,1715225063.84,2024-05-09 03:24:23.840000+00:00,2024-05-09 12:24:23.840000+09:00,2024,5,9,3,24,23,840,,,,,,,,,0.025879,0.407227,0.078857,4.943848,-58.349609,47.729492,,,,,,,,,,,0.0,1.0,1.0,2.0,0.0,0.0,0.0,4.0,0.0,0.14013673333333335,0.26044601333333334,0.92816732,0.4272460800000006,-0.5037434666666657,0.28645830666666666,-6.073262056951808,-1.3677900530054259,-4.963274793613572,11.082426763139479,5.763700939769762,2.619610319411853,12.76333771820765,1.065971916448985,13.02821961472352,1.0570752183315288,-0.11425773333333335,0.14678098666666667,-0.8493103200000001,1.11034904,0.8694409165272898,0.6563844702890945,0.6295986693505503,0.6385526011046415
LBP00_S02,LBP00,-1478,173,2,172,-1478,1715225063.88,2024-05-09 03:24:23.880000+00:00,2024-05-09 12:24:23.880000+09:00,2024,5,9,3,24,23,880,,,,,,,,,0.257812,0.192139,0.534668,-75.561523,-103.637695,62.988281,,,,,,,,,,,0.0,1.0,1.0,2.0,0.0,0.0,0.0,4.0,0.0,0.14713217333333334,0.25965498666666664,0.9327539066666666,0.07893878666666727,-1.5592447733333323,0.7503254933333333,-3.9464242520169233,-1.3501225081724337,-5.845847943485536,10.9245697930588,5.709696039442864,2.3857764016724317,12.55542843016595,1.0444595002898969,13.057117647955057,1.0624831204948628,0.11067982666666665,-0.06751598666666664,-0.39808590666666654,0.5762817199999999,0.4186655247009943,0.6401686460277004,0.624492255587122,0.6364824544545654
LBP00_S02,LBP00,-1477,174,2,173,-1477,1715225063.92,2024-05-09 03:24:23.920000+00:00,2024-05-09 12:24:23.920000+09:00,2024,5,9,3,24,23,920,,,,,,,,,0.639404,0.042725,1.31665,16.113281,-19.042969,4.577637,,,,,,,,,,,0.0,1.0,1.0,2.0,0.0,0.0,0.0,4.0,0.0,0.15096029333333333,0.2601660533333333,0.9560058533333333,-0.39713542666666596,-1.2776692533333325,-0.5395508133333334,-0.01140353619357737,-0.35674867352690537,-6.621025335953243,10.924113651611057,5.695426092501788,2.120935388234302,12.500900142370941,1.034808657651476,13.15085385331391,1.0657069020201984,0.48844370666666664,-0.2174410533333333,0.3606441466666668,1.0665289066666668,0.6449202018714489,0.6484423967382388,0.6253467770998764,0.6428267036979914
LBP00_S02,LBP00,-1476,175,2,174,-1476,1715225063.96,2024-05-09 03:24:23.960000+00:00,2024-05-09 12:24:23.960000+09:00,2024,5,9,3,24,23,960,,,,,,,,,0.206055,0.420654,1.48291,20.263672,18.127441,-50.598145,,,,,,,,,,,0.0,1.0,1.0,2.0,0.0,0.0,0.0,4.0,0.0,0.15035808,0.2642285466666667,0.97650064,-0.046386719999999285,-0.4516601333333323,-1.6292318000000001,5.056023991272047,1.6109692193219676,-7.072217020203396,11.126354611261938,5.759864861274667,1.838046707426166,12.662946965630733,1.043236947449357,13.331246812101773,1.0640956687411034,0.05569691999999998,0.1564254533333333,0.5064093599999999,0.7185317333333332,0.5329366840851122,0.6304645703560484,0.6283176266259505,0.636878492067413
LBP00_S02,LBP00,-1475,176,2,175,-1475,1715225064.0,2024-05-09 03:24:24+00:00,2024-05-09 12:24:24+09:00,2024,5,9,3,24,24,0,3.0,24.0,24.0,40.555798,141.520004,2.355,3.0,13.0,-0.010986,0.538574,1.704102,9.521484,-13.916016,-33.569336,-260.0,-48.0,400.0,747.0,0.0,1015.200012,19.01,0.021802,-16.213024,4.021875,0.0,1.0,1.0,2.0,0.0,0.0,0.0,6.0,0.0,0.14635092,0.2646647333333333,0.9863671733333332,0.3442382800000008,1.946614600000001,-2.84749352,10.33468277488185,4.138748841440949,-6.948063789633957,11.539741922257212,5.925414814932305,1.5601241558408077,13.065610270590417,1.0555041320278802,13.607686755146128,1.0576446910684847,-0.15733692,0.2739092666666667,0.7177348266666668,1.1489810133333336,0.7841712020797421,0.6351697854388889,0.6296780367267516,0.6379136301906707
LBP00_S02,LBP00,-1474,177,2,176,-1474,1715225064.04,2024-05-09 03:24:24.040000+00:00,2024-05-09 12:24:24.040000+09:00,2024,5,9,3,24,24,40,,,,,,,,,0.219482,0.313965,1.641602,26.977539,44.98291,-22.644043,,,,,,,,,,,0.0,1.0,1.0,2.0,0.0,0.0,0.0,6.0,0.0,0.13271485333333333,0.25687177333333333,0.9702376133333334,0.03824869333333409,3.0737304933333345,-3.0859375333333334,14.874303647908178,6.577472174145683,-6.13604979234583,12.134714068173539,6.188513701898132,1.3146821641469746,13.684932464124033,1.0838066203467902,13.975354464799448,1.0513635039707807,0.08676714666666668,0.05709322666666666,0.6713643866666666,0.81522476,0.6793513921058789,0.6479174998355529,0.6294920809719801,0.6410629011557671
LBP00_S02,LBP00,-1473,178,2,177,-1473,1715225064.08,2024-05-09 03:24:24.080000+00:00,2024-05-09 12:24:24.080000+09:00,2024,5,9,3,24,24,80,,,,,,,,,-0.250244,-0.136475,0.559814,34.729004,134.887695,-48.461914,,,,,,,,,,,0.0,1.0,1.0,2.0,0.0,0.0,0.0,6.0,0.0,0.13376302666666667,0.2561035466666667,0.9520312266666667,-0.44270834666666586,1.8986002933333346,-1.7244466533333336,17.903449065075655,8.311825534406381,-4.770629973992954,12.850852030776565,6.520986723274387,1.1238569651872563,14.45443600560862,1.0790699158684645,14.414586435492817,1.048773050838562,-0.3840070266666667,-0.3925785466666667,-0.3922172266666667,1.1688028,0.6748434371959008,0.6526646168533058,0.6404810712024404,0.6428924129020097
LBP00_S02,LBP00,-1472,179,2,178,-1472,1715225064.12,2024-05-09 03:24:24.120000+00:00,2024-05-09 12:24:24.120000+09:00,2024,5,9,3,24,24,120,,,,,,,,,0.031006,0.508301,0.043213,63.903809,-42.236328,30.700684,,,,,,,,,,,0.0,1.0,1.0,2.0,0.0,0.0,0.0,6.0,0.0,0.13919272,0.24960289333333335,0.9394889199999998,-0.866699226666666,0.5729166933333344,-0.1888021200000001,18.959328674160744,8.960204551559144,-3.1956661506784294,13.609225177742994,6.879394905336753,0.9960303191601192,15.281660924087188,1.0521453548529043,14.891773162012493,1.0490017056431884,-0.10818671999999999,0.25869810666666665,-0.8962759199999999,1.2631607466666666,0.9391163940370344,0.6679755649044222,0.6361456242569029,0.6469569744685916
LBP00_S02,LBP00,-1471,180,2,179,-1471,1715225064.16,2024-05-09 03:24:24.160000+00:00,2024-05-09 12:24:24.160000+09:00,2024,5,9,3,24,24,160,,,,,,,,,0.223633,0.364502,0.515625,-49.377441,-85.81543,74.890137,,,,,,,,,,,0.0,1.0,1.0,2.0,0.0,0.0,0.0,6.0,0.0,0.1451758,0.24618492000000003,0.94143228,-0.10904947999999924,-0.5346679466666655,0.3043619466666666,17.90992030510184,8.411822988294468,-1.798876406544352,14.325621989947068,7.215867824868531,0.9240752628983451,16.066925933616815,1.0286059585837568,15.36262585121186,1.0535631683741322,0.0784572,0.11831707999999996,-0.42580728,0.62258156,0.4488499786705629,0.6550435495439787,0.6326145364010879,0.6431658982321238
LBP00_S02,LBP00,-1470,181,2,180,-1470,1715225064.2,2024-05-09 03:24:24.200000+00:00,2024-05-09 12:24:24.200000+09:00,2024,5,9,3,24,24,200,,,,,,,,,0.672119,-0.093994,1.31543,-33.38623,-24.414062,16.906738,,,,,,,,,,,0.0,1.0,1.0,2.0,0.0,0.0,0.0,6.0,0.0,0.14977214666666666,0.25257814666666667,0.9558723733333333,0.0439453200000008,-1.2581379999999989,0.1236978799999999,14.89356536807933,6.734600399732839,-0.8223745902464236,14.921364604670242,7.485251840857845,0.8911802792884881,16.717365793592133,1.0260260361882967,15.778288488837674,1.0574737591768255,0.5223468533333333,-0.3465721466666667,0.3595576266666668,1.2284766266666667,0.7226618676300435,0.6682745870846573,0.6357695434659003,0.6452121395049976
LBP00_S02,LBP00,-1469,182,2,181,-1469,1715225064.24,2024-05-09 03:24:24.240000+00:00,2024-05-09 12:24:24.240000+09:00,2024,5,9,3,24,24,240,,,,,,,,,0.142334,0.547607,1.357666,32.714844,39.367676,-39.18457,,,,,,,,,,,0.0,1.0,1.0,2.0,0.0,0.0,0.0,6.0,0.0,0.1486328266666667,0.2590592666666667,0.9738867066666668,0.6518554800000008,-0.4752603999999991,-0.5338542133333333,10.243508840679304,4.079944875850964,-0.2706932121980598,15.331104958297413,7.648449635891883,0.8803525508005657,17.155657425141342,1.0400673851267987,16.093573916935515,1.0576775497685225,-0.0062988266666667014,0.2885477333333333,0.38377929333333327,0.6786258533333333,0.4801937271774943,0.6356883058175227,0.6383367949486505,0.6434254870515862
LBP00_S02,LBP00,-1468,183,2,182,-1468,1715225064.28,2024-05-09 03:24:24.280000+00:00,2024-05-09 12:24:24.280000+09:00,2024,5,9,3,24,24,280,,,,,,,,,-0.080566,0.543213,1.622803,44.128418,9.643555,-21.54541,,,,,,,,,,,0.0,1.0,1.0,2.0,0.0,0.0,0.0,6.0,0.0,0.14572917333333335,0.2578613466666667,0.9829003866666668,0.9033203333333342,2.007649760000001,-1.7065430133333332,4.456080005887171,0.6839971468861354,0.0315468992836582,15.5093481585329,7.675809521767329,0.881614426771912,17.327295695362682,1.0467460483361597,16.275236607588663,1.0531671572449917,-0.22629517333333335,0.28535165333333323,0.6399026133333332,1.1515494399999997,0.7362814856322679,0.630898853122096,0.6385542098619654,0.6404855908239625
LBP00_S02,LBP00,-1467,184,2,183,-1467,1715225064.32,2024-05-09 03:24:24.320000+00:00,2024-05-09 12:24:24.320000+09:00,2024,5,9,3,24,24,320,,,,,,,,,0.18457,0.320312,1.426758,20.507812,42.236328,-16.662598,,,,,,,,,,,0.0,1.0,1.0,2.0,0.0,0.0,0.0,6.0,0.0,0.12962565333333334,0.24850588,0.9640331999999999,0.8642578400000008,2.6814778933333345,-1.833496133333333,-1.8022677904994113,-3.0535002636365456,0.2858890729957046,15.437257446912923,7.553669511221867,0.8930499896917402,17.209427034364616,1.0804232849609128,16.30770662540666,1.048941083881478,0.05494434666666667,0.07180611999999997,0.46272480000000005,0.5894752666666667,0.47147559919376664,0.6320422973025648,0.6326193995971994,0.6387698990353222
