file_name,test_id,_program_index,program_index,session_id,index,_index,unixtime,datetime_utc,datetime_jst,rtc_year,rtc_month,rtc_day,rtc_hour,rtc_min,rtc_sec,rtc_msec,gps_hour,gps_min,gps_sec,latitude,longitude,altitude,fix_type,SIV,acc_x,acc_y,acc_z,gyro_x,gyro_y,gyro_z,mag_x,mag_y,mag_z,illuminance,atmopress,water_pressure,water_temp,depth,alt_wps,battery_level,behavior_class,camera_command,camera_recording,camera_count,play_audio,speaker_on,audio_file,prev_sd_write_time_ms,delay_occurred_counter,acc_x_ma,acc_y_ma,acc_z_ma,gyro_x_ma,gyro_y_ma,gyro_z_ma,gyro_x_lowpass,gyro_y_lowpass,gyro_z_lowpass,angle_x,angle_y,angle_z,combined_angle_change,gravity_adjusted_angle,smoothed_angle_change,smoothed_gravity_angle,acc_x_dy,acc_y_dy,acc_z_dy,ODBA,VeDBA,smoothed_VeDBA_1s,smoothed_VeDBA_2s,smoothed_VeDBA_3s
LBP08_S11,LBP08,0,1,11,0,0,1716497206.0,2024-05-23 20:46:46+00:00,2024-05-24 05:46:46+09:00,2024,5,23,20,46,46,0,20.0,46.0,44.0,40.793304,141.624283,-7.826,3.0,14.0,-0.466797,-0.068115,-0.11499,6.286621,200.073242,45.10498,-584.0,28.0,592.0,78.0,0.0,1022.0,26.58,0.089188,-72.553726,3.789844,0.0,1.0,1.0,11.0,0.0,0.0,0.0,5.0,0.0,,,,,,,6.172432173327852,200.81694614442534,45.41377972757225,0.2468972869331141,8.032677845777014,1.81655118910289,8.239219008314011,,14.958540131560124,,,,,,,,,
LBP08_S11,LBP08,1,2,11,1,1,1716497206.04,2024-05-23 20:46:46.040000+00:00,2024-05-24 05:46:46.040000+09:00,2024,5,23,20,46,46,40,,,,,,,,,-0.293701,0.036377,0.047852,31.311035,-50.476074,-33.26416,,,,,,,,,,,0.0,1.0,1.0,11.0,0.0,0.0,0.0,5.0,0.0,,,,,,,3.650768002019196,134.6078539222126,32.34400742256044,0.392928007013882,13.416992002665518,3.1103114860053074,13.778392662363158,,15.270099774982667,,,,,,,,,
LBP08_S11,LBP08,2,3,11,2,2,1716497206.08,2024-05-23 20:46:46.080000+00:00,2024-05-24 05:46:46.080000+09:00,2024,5,23,20,46,46,80,,,,,,,,,0.42627,-0.133301,0.704102,-3.112793,-103.149414,-49.01123,,,,,,,,,,,0.0,1.0,1.0,11.0,0.0,0.0,0.0,5.0,0.0,,,,,,,1.7394301754664756,75.05181739208405,20.556204862359117,0.46250521403254097,16.41906469834888,3.932559680499672,16.88977863331149,,15.305546204362427,,,,,,,,,
LBP08_S11,LBP08,3,4,11,3,3,1716497206.12,2024-05-23 20:46:46.120000+00:00,2024-05-24 05:46:46.120000+09:00,2024,5,23,20,46,46,120,,,,,,,,,0.51001,-0.351807,1.201904,-24.291992,33.691406,18.310547,,,,,,,,,,,0.0,1.0,1.0,11.0,0.0,0.0,0.0,5.0,0.0,,,,,,,0.8150876675813975,27.15196213678716,10.946614457406023,0.49510872073579687,17.505143183820365,4.370424258795913,18.049259783527773,,15.17579765535761,,,,,,,,,
LBP08_S11,LBP08,4,5,11,4,4,1716497206.16,2024-05-23 20:46:46.160000+00:00,2024-05-24 05:46:46.160000+09:00,2024,5,23,20,46,46,160,,,,,,,,,-0.554199,-0.219238,1.547363,-34.240723,76.049805,62.072754,,,,,,,,,,,0.0,1.0,1.0,11.0,0.0,0.0,0.0,5.0,0.0,,,,,,,0.9649037680139027,-6.532230181577952,3.9023266483762034,0.5337048714563529,17.243853976557247,4.5265173247309605,17.836050570284186,,14.966098590988151,,,,,,,,,
LBP08_S11,LBP08,5,6,11,5,5,1716497206.2,2024-05-23 20:46:46.200000+00:00,2024-05-24 05:46:46.200000+09:00,2024,5,23,20,46,46,200,,,,,,,,,-0.369385,-0.314209,1.737305,46.325684,-85.693359,-6.591797,,,,,,,,,,,0.0,1.0,1.0,11.0,0.0,0.0,0.0,5.0,0.0,,,,,,,1.9514424613880994,-26.00739093547137,-0.6668372400139952,0.6117625699118769,16.203558339138393,4.499843835130401,16.827897992095377,,14.735227697808108,,,,,,,,,
LBP08_S11,LBP08,6,7,11,6,6,1716497206.24,2024-05-23 20:46:46.240000+00:00,2024-05-24 05:46:46.240000+09:00,2024,5,23,20,46,46,240,,,,,,,,,0.322754,-0.418945,1.077881,-13.549805,78.24707,31.494141,,,,,,,,,,,0.0,1.0,1.0,11.0,0.0,0.0,0.0,5.0,0.0,,,,,,,3.2789367199356865,-33.31776457002293,-3.176446551111469,0.7429200387093045,14.870847756337476,4.372785973085942,15.518224780640997,,15.145832837477514,,,,,,,,,
LBP08_S11,LBP08,7,8,11,7,7,1716497206.28,2024-05-23 20:46:46.280000+00:00,2024-05-24 05:46:46.280000+09:00,2024,5,23,20,46,46,280,,,,,,,,,-0.425781,0.16748,-0.226074,14.892578,50.537109,-20.263672,,,,,,,,,,,0.0,1.0,1.0,11.0,0.0,0.0,0.0,5.0,0.0,,,,,,,4.3406439071382295,-31.694271242643566,-4.202308922651595,0.9165457949948337,13.603076906631733,4.2046936161798785,14.267557812323876,,14.994033427956897,,,,,,,,,
LBP08_S11,LBP08,8,9,11,8,8,1716497206.32,2024-05-23 20:46:46.320000+00:00,2024-05-24 05:46:46.320000+09:00,2024,5,23,20,46,46,320,,,,,,,,,-0.072266,-0.111084,0.127197,14.221191,-111.328125,-46.020508,,,,,,,,,,,0.0,1.0,1.0,11.0,0.0,0.0,0.0,5.0,0.0,,,,,,,4.595338327604812,-24.70912479426509,-4.361923717357415,1.1003593280990263,12.614711914861129,4.030216667485582,13.288506076032492,,14.534226675875988,,,,,,,,,
LBP08_S11,LBP08,9,10,11,9,9,1716497206.36,2024-05-23 20:46:46.360000+00:00,2024-05-24 05:46:46.360000+09:00,2024,5,23,20,46,46,360,,,,,,,,,0.539307,-0.081787,0.80127,0.427246,-73.547363,-18.371582,,,,,,,,,,,0.0,1.0,1.0,11.0,0.0,0.0,0.0,5.0,0.0,,,,,,,3.7181066166208816,-15.63522084442806,-4.234969395160057,1.2490835927638615,11.989303081084007,3.8608178916791793,12.657389659187727,,13.963666314427403,,,,,,,,,
LBP08_S11,LBP08,10,11,11,10,10,1716497206.4,2024-05-23 20:46:46.400000+00:00,2024-05-24 05:46:46.400000+09:00,2024,5,23,20,46,46,400,,,,,,,,,0.351807,-0.343506,1.247559,-2.929688,48.88916,28.015137,,,,,,,,,,,0.0,1.0,1.0,11.0,0.0,0.0,0.0,5.0,0.0,,,,,,,1.6884595177799544,-7.050369200379416,-4.285664311219671,1.3166219734750597,11.70728831306883,3.6893913192303924,12.345270405008062,,13.415694593131997,,,,,,,,,
LBP08_S11,LBP08,11,12,11,11,11,1716497206.44,2024-05-23 20:46:46.440000+00:00,2024-05-24 05:46:46.440000+09:00,2024,5,23,20,46,46,440,,,,,,,,,-0.434814,-0.494141,1.565674,5.371094,13.671875,20.385742,,,,,,,,,,,0.0,1.0,1.0,11.0,0.0,0.0,0.0,5.0,0.0,,,,,,,-1.1995346956020632,-0.6322079075135523,-4.774791536491876,1.2686405856509773,11.681999996768287,3.4983996577707175,12.260398567156999,,12.96378829268041,,,,,,,,,
LBP08_S11,LBP08,12,13,11,12,12,1716497206.48,2024-05-23 20:46:46.480000+00:00,2024-05-24 05:46:46.480000+09:00,2024,5,23,20,46,46,480,,,,,,,,,0.038086,-0.318848,1.685791,14.465332,-58.532715,-6.530762,,,,,,,,,,,0.0,1.0,1.0,11.0,0.0,0.0,0.0,5.0,0.0,,,,,,,-4.403936433684257,2.903691985579391,-5.696788770463828,1.092483128303607,11.798147676191462,3.2705281069521646,12.291711112502366,,12.632787290069137,,,,,,,,,
LBP08_S11,LBP08,13,14,11,13,13,1716497206.52,2024-05-23 20:46:46.520000+00:00,2024-05-24 05:46:46.520000+09:00,2024,5,23,20,46,46,520,,,,,,,,,0.131348,-0.166504,0.729736,-14.831543,146.057129,15.686035,,,,,,,,,,,0.0,1.0,1.0,11.0,0.0,0.0,0.0,5.0,0.0,,,,,,,-7.266277496610816,3.7211938818146035,-6.79565478526011,0.8018320284391742,11.946995431464046,2.9987019155417602,12.343656169041955,,12.413190353838322,,,,,,,,,
LBP08_S11,LBP08,14,15,11,14,14,1716497206.56,2024-05-23 20:46:46.560000+00:00,2024-05-24 05:46:46.560000+09:00,2024,5,23,20,46,46,560,,,,,,,,,-0.235352,0.051514,-0.145264,-24.902344,-15.625,-36.010742,,,,,,,,,,,0.0,1.0,1.0,11.0,0.0,0.0,0.0,5.0,0.0,,,,,,,-9.183127845121053,2.6203288045661353,-7.680440831621528,0.4345069146343321,12.051808583646691,2.691484282276899,12.356333357330106,,12.275423591168854,,,,,,,,,
LBP08_S11,LBP08,15,16,11,15,15,1716497206.6,2024-05-23 20:46:46.600000+00:00,2024-05-24 05:46:46.600000+09:00,2024,5,23,20,46,46,600,,,,,,,,,0.081787,-0.181641,0.283936,-10.498047,-105.224609,-41.870117,,,,,,,,,,,0.0,1.0,1.0,11.0,0.0,0.0,0.0,5.0,0.0,,,,,,,-9.776169897998537,0.6587408522380087,-8.001653334727447,0.043460118714390594,12.078158217736211,2.3714181488878014,12.308834987579527,,12.182299034162124,,,,,,,,,
LBP08_S11,LBP08,16,17,11,16,16,1716497206.64,2024-05-23 20:46:46.640000+00:00,2024-05-24 05:46:46.640000+09:00,2024,5,23,20,46,46,640,,,,,,,,,0.438965,-0.134766,0.879395,-33.813477,-58.654785,-29.602051,,,,,,,,,,,0.0,1.0,1.0,11.0,0.0,0.0,0.0,5.0,0.0,,,,,,,-9.006816916985633,-1.2598927846425452,-7.606962145510928,-0.3168125579650347,12.02776250635051,2.067139663067364,12.208214754528267,,12.09867942632697,,,,,,,,,
LBP08_S11,LBP08,17,18,11,17,17,1716497206.68,2024-05-23 20:46:46.680000+00:00,2024-05-24 05:46:46.680000+09:00,2024,5,23,20,46,46,680,,,,,,,,,0.292236,-0.377686,1.279053,-14.526367,49.926758,16.601562,,,,,,,,,,,0.0,1.0,1.0,11.0,0.0,0.0,0.0,5.0,0.0,,,,,,,-7.1896360701987625,-2.6730509864951153,-6.598608825646735,-0.6043980007729852,11.920840466890704,1.8031953100414948,12.071588450015724,,11.997820864181682,,,,,,,,,
LBP08_S11,LBP08,18,19,11,18,18,1716497206.72,2024-05-23 20:46:46.720000+00:00,2024-05-24 05:46:46.720000+09:00,2024,5,23,20,46,46,720,,,,,,,,,-0.356445,-0.609619,1.643555,11.474609,-6.958008,14.465332,,,,,,,,,,,0.0,1.0,1.0,11.0,0.0,0.0,0.0,5.0,0.0,,,,,,,-4.891418344551989,-3.602058667062302,-5.268191895447248,-0.8000547345550648,11.776758120208212,1.5924676342236048,11.910838449337803,,11.864333199186373,,,,,,,,,
LBP08_S11,LBP08,19,20,11,19,19,1716497206.76,2024-05-23 20:46:46.760000+00:00,2024-05-24 05:46:46.760000+09:00,2024,5,23,20,46,46,760,,,,,,,,,0.049561,-0.265625,1.619629,29.35791,-40.95459,3.601074,,,,,,,,,,,0.0,1.0,1.0,11.0,0.0,0.0,0.0,5.0,0.0,,,,,,,-2.7483819624597063,-4.3572828575722795,-3.954880198285698,-0.9099900130534531,11.60246680590532,1.4342724262921769,11.726144089120426,,11.694118160850236,,,,,,,,,
LBP08_S11,LBP08,20,21,11,20,20,1716497206.8,2024-05-23 20:46:46.800000+00:00,2024-05-24 05:46:46.800000+09:00,2024,5,23,20,46,46,800,,,,,,,,,0.005615,-0.215576,0.558838,-7.446289,181.45752,40.161133,,,,,,,,,,,0.0,1.0,1.0,11.0,0.0,0.0,0.0,5.0,0.0,,,,,,,-1.2710266714836582,-5.238160970309978,-2.91267912145036,-0.9608310799127994,11.392940367092923,1.3177652614341624,11.50907432665653,,11.492035628495165,,,,,,,,,
LBP08_S11,LBP08,21,22,11,21,21,1716497206.84,2024-05-23 20:46:46.840000+00:00,2024-05-24 05:46:46.840000+09:00,2024,5,23,20,46,46,840,,,,,,,,,-0.098633,0.075195,-0.034912,15.686035,-48.095703,-35.03418,,,,,,,,,,,0.0,1.0,1.0,11.0,0.0,0.0,0.0,5.0,0.0,,,,,,,-0.711327742825853,-6.3030985057327396,-2.2559752272177396,-0.9892841896258335,11.140816426863614,1.2275262523454529,11.25181294570413,,11.268508712909325,,,,,,,,,
LBP08_S11,LBP08,22,23,11,22,22,1716497206.88,2024-05-23 20:46:46.880000+00:00,2024-05-24 05:46:46.880000+09:00,2024,5,23,20,46,46,880,,,,,,,,,0.262451,-0.144287,0.379883,-15.991211,-101.318359,-37.353516,,,,,,,,,,,0.0,1.0,1.0,11.0,0.0,0.0,0.0,5.0,0.0,,,,,,,-1.033717812829627,-7.327838197386648,-1.9940903230815916,-1.0306329021390186,10.847702898968148,1.1477626394221891,10.956834462549248,,11.036487143054632,,,,,,,,,
LBP08_S11,LBP08,23,24,11,23,23,1716497206.92,2024-05-23 20:46:46.920000+00:00,2024-05-24 05:46:46.920000+09:00,2024,5,23,20,46,46,920,,,,,,,,,0.452148,-0.233643,0.98999,-29.35791,-43.334961,-31.005859,,,,,,,,,,,0.0,1.0,1.0,11.0,0.0,0.0,0.0,5.0,0.0,,,,,,,-1.9798253526390444,-7.9451989979882605,-2.1040726268668415,-1.1098259162445803,10.529894939048617,1.0635997343475154,10.64150578568061,,10.8097309213268,,,,,,,,,
LBP08_S11,LBP08,24,25,11,24,24,1716497206.96,2024-05-23 20:46:46.960000+00:00,2024-05-24 05:46:46.960000+09:00,2024,5,23,20,46,46,960,,,,,,,,,0.145264,-0.294189,1.399658,4.211426,54.6875,33.996582,,,,,,,,,,,0.0,1.0,1.0,11.0,0.0,0.0,0.0,5.0,0.0,,,,,,,-3.1786305883726955,-7.84394678859056,-2.569531591407194,-1.236971139779488,10.216137067504995,0.9608184706912277,10.335508033779393,,10.602418082251145,,,,,,,,,
LBP08_S11,LBP08,25,26,11,25,25,1716497207.0,2024-05-23 20:46:47+00:00,2024-05-24 05:46:47+09:00,2024,5,23,20,46,47,0,20.0,46.0,45.0,40.793236,141.624329,-6.966,3.0,14.0,-0.32959,-0.530273,1.601074,1.342773,-47.180176,14.221191,-584.0,31.0,593.0,81.0,0.0,1021.099976,26.610001,0.080269,-65.114113,3.789844,0.0,1.0,1.0,11.0,0.0,0.0,0.0,5.0,0.0,,,,,,,-4.248315419965442,-6.890656078709043,-3.350511709977327,-1.4069037565781057,9.940510824356634,0.8267980022921346,10.073565831721123,,10.429284788455842,,,,,,,,,
LBP08_S11,LBP08,26,27,11,26,26,1716497207.04,2024-05-23 20:46:47.040000+00:00,2024-05-24 05:46:47.040000+09:00,2024,5,23,20,46,47,40,,,,,,,,,0.26123,0.001709,1.571777,-6.225586,-40.283203,-7.507324,,,,,,,,,,,0.0,1.0,1.0,11.0,0.0,0.0,0.0,5.0,0.0,,,,,,,-4.860851743771648,-5.124865289594358,-4.315161616822763,-1.6013378263289717,9.73551621277286,0.6541915376192241,9.887999055981338,,10.30533403166762,,,,,,,,,
LBP08_S11,LBP08,27,28,11,27,27,1716497207.08,2024-05-23 20:46:47.080000+00:00,2024-05-24 05:46:47.080000+09:00,2024,5,23,20,46,47,80,,,,,,,,,-0.240234,-0.092285,0.250732,3.234863,169.616699,38.879395,,,,,,,,,,,0.0,1.0,1.0,11.0,0.0,0.0,0.0,5.0,0.0,,,,,,,-4.773326587124484,-2.6758399784188285,-5.201930380882828,-1.792270889813951,9.628482613636105,0.44611432238391097,9.804026232737412,,10.244511086633429,,,,,,,,,
LBP08_S11,LBP08,28,29,11,28,28,1716497207.12,2024-05-23 20:46:47.120000+00:00,2024-05-24 05:46:47.120000+09:00,2024,5,23,20,46,47,120,,,,,,,,,-0.041504,0.060303,0.017822,9.338379,-45.837402,-33.081055,,,,,,,,,,,0.0,1.0,1.0,11.0,0.0,0.0,0.0,5.0,0.0,,,,,,,-3.8480876977644263,0.3074433493297436,-5.663046352523113,-1.946194397724528,9.640780347609295,0.21959246828298642,9.837710058581242,,10.257333063373599,,,,,,,,,
LBP08_S11,LBP08,29,30,11,29,29,1716497207.16,2024-05-23 20:46:47.160000+00:00,2024-05-24 05:46:47.160000+09:00,2024,5,23,20,46,47,160,,,,,,,,,0.425781,-0.144043,0.776367,0.671387,-93.078613,-51.025391,,,,,,,,,,,0.0,1.0,1.0,11.0,0.0,0.0,0.0,5.0,0.0,,,,,,,-2.080177865464142,3.6457750199454737,-5.384442033670012,-2.0294015123430937,9.786611348407114,0.00421478693618596,9.994811151167402,,10.348087251864413,,,,,,,,,
LBP08_S11,LBP08,30,31,11,30,30,1716497207.2,2024-05-23 20:46:47.200000+00:00,2024-05-24 05:46:47.200000+09:00,2024,5,23,20,46,47,200,,,,,,,,,0.473389,-0.189941,1.167725,-40.710449,-0.061035,-5.371094,,,,,,,,,,,0.0,1.0,1.0,11.0,0.0,0.0,0.0,5.0,0.0,,,,,,,0.3681555931862626,7.051262765590703,-4.2234140259650506,-2.0146752886156434,10.068661859030742,-0.16472177410241606,10.269566758774314,,10.512663446568775,,,,,,,,,
LBP08_S11,LBP08,31,32,11,31,31,1716497207.24,2024-05-23 20:46:47.240000+00:00,2024-05-24 05:46:47.240000+09:00,2024,5,23,20,46,47,240,,,,,,,,,-0.162842,-0.317383,1.603271,10.498047,59.875488,21.179199,,,,,,,,,,,0.0,1.0,1.0,11.0,0.0,0.0,0.0,5.0,0.0,,,,,,,3.148124577500829,10.071549605839813,-2.2889979695527187,-1.8887503055156103,10.471523843264334,-0.25628169288452485,10.643583495362195,,10.73802303536674,,,,,,,,,
LBP08_S11,LBP08,32,33,11,32,32,1716497207.28,2024-05-23 20:46:47.280000+00:00,2024-05-24 05:46:47.280000+09:00,2024,5,23,20,46,47,280,,,,,,,,,-0.19165,-0.59082,1.831299,18.859863,-62.133789,-13.244629,,,,,,,,,,,0.0,1.0,1.0,11.0,0.0,0.0,0.0,5.0,0.0,,,,,,,5.751196613672615,12.145073677993674,0.07640738113415262,-1.6587024409687057,10.957326790384082,-0.25322539763915874,11.085054229950964,,11.003655546800852,,,,,,,,,
LBP08_S11,LBP08,33,34,11,33,33,1716497207.32,2024-05-23 20:46:47.320000+00:00,2024-05-24 05:46:47.320000+09:00,2024,5,23,20,46,47,320,,,,,,,,,0.283203,-0.344238,1.596191,2.13623,55.664062,22.705078,,,,,,,,,,,0.0,1.0,1.0,11.0,0.0,0.0,0.0,5.0,0.0,,,,,,,7.597019056033248,12.772502671173525,2.399020291068214,-1.3548216787273757,11.468226897231023,-0.15726458599643017,11.549047670588747,,11.284568231706555,-1.431506999873314,,,,,,,,
LBP08_S11,LBP08,34,35,11,34,34,1716497207.36,2024-05-23 20:46:47.360000+00:00,2024-05-24 05:46:47.360000+09:00,2024,5,23,20,46,47,360,,,,,,,,,-0.698486,0.284424,-0.200195,0.183105,146.362305,11.047363,,,,,,,,,,,0.0,1.0,1.0,11.0,0.0,0.0,0.0,5.0,0.0,,,,,,,8.167954322321561,11.721152608312977,4.2073976306812035,-1.0281035058345132,11.937073001563542,0.01103131923081796,11.981269980823003,,11.554924155825196,-1.4397534465780464,,,,,,,,
LBP08_S11,LBP08,35,36,11,35,35,1716497207.4,2024-05-23 20:46:47.400000+00:00,2024-05-24 05:46:47.400000+09:00,2024,5,23,20,46,47,400,,,,,,,,,0.014893,-0.477539,0.304688,-3.479004,-60.72998,6.469727,,,,,,,,,,,0.0,1.0,1.0,11.0,0.0,0.0,0.0,5.0,0.0,,,,,,,7.155146939412977,9.145797387467793,5.146109371248916,-0.7418976282579941,12.302904897062254,0.21687569408077462,12.327161719700777,,11.791462431522076,-1.4381946263723921,,,,,,,,
LBP08_S11,LBP08,36,37,11,36,36,1716497207.44,2024-05-23 20:46:47.440000+00:00,2024-05-24 05:46:47.440000+09:00,2024,5,23,20,46,47,440,,,,,,,,,0.386475,0.011719,0.8396,78.613281,-59.143066,-34.790039,,,,,,,,,,,0.0,1.0,1.0,11.0,0.0,0.0,0.0,5.0,0.0,,,,,,,4.574881869138937,5.549290051154302,5.041308982848141,-0.5589023534924367,12.524876499108426,0.4185280533947003,12.544324170322461,,11.976035975939666,-1.4354036681828064,,,,,,,,
LBP08_S11,LBP08,37,38,11,37,37,1716497207.48,2024-05-23 20:46:47.480000+00:00,2024-05-24 05:46:47.480000+09:00,2024,5,23,20,46,47,480,,,,,,,,,0.344482,-0.400146,1.314209,-44.616699,14.709473,37.902832,,,,,,,,,,,0.0,1.0,1.0,11.0,0.0,0.0,0.0,5.0,0.0,0.03004236,-0.21998694666666666,0.9380892,-0.21484381333333333,1.1718750000000002,-0.9480794799999999,0.8146304390274949,1.6039248472806746,3.9168336385402878,-0.5263171359313369,12.589033492999654,0.5752013989363118,12.613153081794431,-1.431506999873314,12.096906026732963,-1.4348820120410486,0.31443964,-0.18015905333333335,0.3761198,0.8707184933333334,0.522298454576818,0.522298454576818,0.522298454576818,0.522298454576818
LBP08_S11,LBP08,38,39,11,38,38,1716497207.52,2024-05-23 20:46:47.520000+00:00,2024-05-24 05:46:47.520000+09:00,2024,5,23,20,46,47,520,,,,,,,,,-0.363281,-0.404053,1.716797,8.483887,8.972168,8.850098,,,,,,,,,,,0.0,1.0,1.0,11.0,0.0,0.0,0.0,5.0,0.0,0.026546266666666672,-0.22088864,0.9379882800000001,-0.25878912,-0.056152346666666325,-1.5161133333333332,-3.419617938462384,-2.059975842013309,1.972068908647517,-0.6631018534698323,12.506634459319121,0.6540841552822125,12.541269299767661,-1.4479998932827787,12.148948254397745,-1.433599059224175,-0.38982726666666667,-0.18316436,0.7788087199999998,1.3518003466666664,0.8899761249376592,0.7061372897572387,0.7061372897572387,0.7061372897572387
LBP08_S11,LBP08,39,40,11,39,39,1716497207.56,2024-05-23 20:46:47.560000+00:00,2024-05-24 05:46:47.560000+09:00,2024,5,23,20,46,47,560,,,,,,,,,-0.140869,-0.380615,1.833496,-11.352539,-81.787109,-7.385254,,,,,,,,,,,0.0,1.0,1.0,11.0,0.0,0.0,0.0,5.0,0.0,0.029752640000000004,-0.22385088,0.9403059866666666,-0.39062505333333336,-0.5786132933333331,-1.7936198399999996,-7.250408888032044,-4.990617641015329,-0.47228081001109073,-0.9531182089911141,12.307009753678509,0.6351929228817689,12.360193908136209,-1.4350769859610832,12.133460248005834,-1.4286663426058308,-0.17062164,-0.15676411999999998,0.8931900133333334,1.2205757733333333,0.9227541022797267,0.7783428939314012,0.7783428939314012,0.7783428939314012
LBP08_S11,LBP08,40,41,11,40,40,1716497207.6,2024-05-23 20:46:47.600000+00:00,2024-05-24 05:46:47.600000+09:00,2024,5,23,20,46,47,600,,,,,,,,,0.220215,-0.464355,1.150879,-44.86084,122.619629,21.850586,,,,,,,,,,,0.0,1.0,1.0,11.0,0.0,0.0,0.0,5.0,0.0,0.031119826666666666,-0.22064774666666664,0.9436197866666667,-0.2376302666666667,-0.11637370666666641,-1.952311253333333,-9.82713121829837,-6.941417349836502,-3.06019250329534,-1.3462034577230488,12.029353059685048,0.5127852227499553,12.115302202950211,-1.4270307936140496,12.058318962612509,-1.4275338753907565,0.18909517333333334,-0.24370725333333337,0.2072592133333333,0.64006164,0.37162695195154116,0.6766639084364363,0.6766639084364363,0.6766639084364363
LBP08_S11,LBP08,41,42,11,41,41,1716497207.64,2024-05-23 20:46:47.640000+00:00,2024-05-24 05:46:47.640000+09:00,2024,5,23,20,46,47,640,,,,,,,,,-0.349365,0.141846,-0.115479,19.775391,7.873535,-40.222168,,,,,,,,,,,0.0,1.0,1.0,11.0,0.0,0.0,0.0,5.0,0.0,0.030143266666666668,-0.22284174666666662,0.9480794266666666,-0.2994792266666667,0.0870768133333336,-2.062988333333333,-10.51544001766627,-7.82876548282112,-5.506123438439589,-1.7668210584296997,11.716202440372204,0.29254028521237174,11.85228400329516,-1.4327953874740182,11.93864075051071,-1.4235114589269906,-0.37950826666666665,0.3646877466666666,-1.0635584266666664,1.8077544399999996,1.186667688938577,0.7786646645368644,0.7786646645368644,0.7786646645368644
LBP08_S11,LBP08,42,43,11,42,42,1716497207.68,2024-05-23 20:46:47.680000+00:00,2024-05-24 05:46:47.680000+09:00,2024,5,23,20,46,47,680,,,,,,,,,0.241943,-0.201416,0.429443,-6.408691,-104.248047,-31.616211,,,,,,,,,,,0.0,1.0,1.0,11.0,0.0,0.0,0.0,5.0,0.0,0.03231774666666667,-0.22976232000000002,0.95261068,0.20100905333333335,-1.1051432399999996,-2.3933919866666664,-9.03081163100243,-7.687760820643989,-7.68416748590621,-2.128053523669797,11.408692007546444,-0.01482641422387665,11.605476506598782,-1.4271842951398057,11.797242244885018,-1.4175473484851593,0.20962525333333332,0.028346320000000008,-0.52316768,0.7611392533333333,0.5643143468752048,0.7429396115932545,0.7429396115932545,0.7429396115932545
LBP08_S11,LBP08,43,44,11,43,43,1716497207.72,2024-05-23 20:46:47.720000+00:00,2024-05-24 05:46:47.720000+09:00,2024,5,23,20,46,47,720,,,,,,,,,0.522949,-0.047363,1.030518,-18.798828,-28.747559,-32.348633,,,,,,,,,,,0.0,1.0,1.0,11.0,0.0,0.0,0.0,5.0,0.0,0.038724,-0.22945308000000003,0.9542089866666666,-0.35319017333333336,-0.42399090666666667,-2.189941466666667,-5.496011256429016,-6.656506432152755,-9.650068998712099,-2.3478939739269573,11.142431750260334,-0.40082917417236064,11.39416760666964,-1.3990700428957654,11.663684718987488,-1.411348247526112,0.484225,0.18209008000000004,0.0763090133333334,0.7426240933333335,0.5229280193060162,0.711509384123649,0.711509384123649,0.711509384123649
LBP08_S11,LBP08,44,45,11,44,44,1716497207.76,2024-05-23 20:46:47.760000+00:00,2024-05-24 05:46:47.760000+09:00,2024,5,23,20,46,47,760,,,,,,,,,0.195312,-0.709473,1.686279,-8.850098,60.913086,27.099609,,,,,,,,,,,0.0,1.0,1.0,11.0,0.0,0.0,0.0,5.0,0.0,0.03361006666666667,-0.22668290666666663,0.9481054666666665,0.11311842666666659,0.9586588399999999,-1.8351237599999999,-0.42082650993338266,-4.959447689645173,-11.56402556862852,-2.3647270343242925,10.944053842674528,-0.8633901969175014,11.22985712688975,-1.4196066048852374,11.571042929675695,-1.40699307841951,0.16170193333333335,-0.4827900933333334,0.7381735333333336,1.3826655600000004,0.8967351642365569,0.7346626066377625,0.7346626066377625,0.7346626066377625
LBP08_S11,LBP08,45,46,11,45,45,1716497207.8,2024-05-23 20:46:47.800000+00:00,2024-05-24 05:46:47.800000+09:00,2024,5,23,20,46,47,800,,,,,,,,,-0.321289,-0.50293,1.856689,14.343262,-36.804199,-5.065918,,,,,,,,,,,0.0,1.0,1.0,11.0,0.0,0.0,0.0,5.0,0.0,0.03992842666666667,-0.22601558666666666,0.9517154933333334,1.0758462933333333,-0.44759116000000004,-2.4259440666666667,5.393977558328156,-2.8456378963464664,-13.535050982878225,-2.1489679319911663,10.830228326820668,-1.4047922362326304,11.130379598682818,-1.3913321272168626,11.550985899646944,-1.4021807059573828,-0.3612174266666667,-0.27691441333333333,0.9049735066666666,1.5431053466666667,1.0129840420302763,0.765587210570264,0.765587210570264,0.765587210570264
LBP08_S11,LBP08,46,47,11,46,46,1716497207.84,2024-05-23 20:46:47.840000+00:00,2024-05-24 05:46:47.840000+09:00,2024,5,23,20,46,47,840,,,,,,,,,0.338135,-0.388916,1.726807,-29.724121,-34.667969,5.92041,,,,,,,,,,,0.0,1.0,1.0,11.0,0.0,0.0,0.0,5.0,0.0,0.04625004,-0.22606441333333332,0.9608626266666666,0.8723957733333331,-0.57047528,-2.5618490133333336,11.025163704363964,-0.48605604498133365,-15.465647347784083,-1.707961383816608,10.810786085021414,-2.0234181301439937,11.130339114065519,-1.3638703545086768,11.629330041238159,-1.3967306615345016,0.29188496,-0.16285158666666666,0.7659443733333334,1.2206809200000002,0.8356962679078119,0.7725981163040189,0.7725981163040189,0.7725981163040189
LBP08_S11,LBP08,47,48,11,47,47,1716497207.88,2024-05-23 20:46:47.880000+00:00,2024-05-24 05:46:47.880000+09:00,2024,5,23,20,46,47,880,,,,,,,,,-0.34375,-0.316406,0.101074,12.451172,165.344238,58.776855,,,,,,,,,,,0.0,1.0,1.0,11.0,0.0,0.0,0.0,5.0,0.0,0.045198600000000005,-0.22729813333333335,0.9674739466666665,0.6835936933333332,0.39225258666666674,-2.2656250533333337,15.650103072259196,2.110623359607321,-16.99554850489821,-1.08195726092624,10.895211019405707,-2.7032400703399224,11.277577822819133,-1.369515990282843,11.82411591353844,-1.39386177223931,-0.3889486,-0.08910786666666667,-0.8663999466666665,1.3444564133333332,0.9538711091797712,0.7890774792927235,0.7890774792927235,0.7890774792927235
LBP08_S11,LBP08,48,49,11,48,48,1716497207.92,2024-05-23 20:46:47.920000+00:00,2024-05-24 05:46:47.920000+09:00,2024,5,23,20,46,47,920,,,,,,,,,-0.104492,0.218018,0.07251,105.163574,-39.0625,-79.528809,,,,,,,,,,,0.0,1.0,1.0,11.0,0.0,0.0,0.0,5.0,0.0,0.037307973333333334,-0.2280598533333333,0.9728840933333334,0.6013996933333332,0.5159505066666668,-2.1305339066666664,18.775697248477872,5.091723994128676,-17.60307156925102,-0.33092937098712505,11.098879979170855,-3.4073629331099635,11.614851406649734,-1.4044482022167564,12.146273916679823,-1.3903874752212086,-0.14179997333333333,0.4460778533333333,-0.9003740933333334,1.4882519200000002,1.0147739608492283,0.8078855194224323,0.8078855194224323,0.8078855194224323
LBP08_S11,LBP08,49,50,11,49,49,1716497207.96,2024-05-23 20:46:47.960000+00:00,2024-05-24 05:46:47.960000+09:00,2024,5,23,20,46,47,960,,,,,,,,,0.279053,0.325195,0.602539,63.781738,-88.867188,-100.463867,,,,,,,,,,,0.0,1.0,1.0,11.0,0.0,0.0,0.0,5.0,0.0,0.04087893333333334,-0.22542638666666667,0.9769628666666667,1.0066731333333332,-0.28645834666666653,-2.289225306666667,20.39033834345381,8.632098108634972,-16.835042823298267,0.4846841627510273,11.444163903516253,-4.080764646041894,12.159623607848701,-1.3869532613398126,12.601048232758709,-1.3876260122141066,0.23817406666666666,0.5506213866666667,-0.3744238666666666,1.16321932,0.707180337266866,0.8001389669489272,0.8001389669489272,0.8001389669489272
LBP08_S11,LBP08,50,51,11,50,50,1716497208.0,2024-05-23 20:46:48+00:00,2024-05-24 05:46:48+09:00,2024,5,23,20,46,48,0,20.0,46.0,46.0,40.793159,141.624359,-6.705,3.0,15.0,0.563721,-0.398682,1.226074,-35.03418,-13.122559,-18.310547,-587.0,30.0,590.0,96.0,0.0,1020.5,26.66,0.074323,-60.15176,3.789844,0.0,1.0,1.0,11.0,0.0,0.0,0.0,6.0,0.0,0.04427085333333334,-0.22601557333333333,0.9707454133333334,1.0766601066666666,2.048339826666667,-1.5177409333333334,20.95307704873647,12.734510819039125,-14.54777917935616,1.3228072447004862,11.953544336277819,-4.662675813216141,12.898743618862358,-1.3725303493852379,13.18813817601997,-1.3842904340493527,0.5194501466666667,-0.17266642666666665,0.2553285866666667,0.94744516,0.6040155932913109,0.7861301545448117,0.7861301545448117,0.7861301545448117
LBP08_S11,LBP08,51,52,11,51,51,1716497208.04,2024-05-23 20:46:48.040000+00:00,2024-05-24 05:46:48.040000+09:00,2024,5,23,20,46,48,40,,,,,,,,,-0.217773,-0.28418,1.531006,-15.258789,79.589844,18.493652,,,,,,,,,,,0.0,1.0,1.0,11.0,0.0,0.0,0.0,6.0,0.0,0.03654624000000001,-0.22284174666666667,0.9586718533333334,1.4510090666666666,0.8650715999999999,-2.2664388533333333,21.19521774780765,17.080142099995694,-11.01865089444389,2.170615954612792,12.636750020277647,-5.1034218489938965,13.800142726297977,-1.4041064945221025,13.899800174186321,-1.3870710333976626,-0.25431924,-0.061338253333333315,0.5723341466666667,0.8879916400000001,0.629290896642263,0.7756742040179752,0.7756742040179752,0.7756742040179752
LBP08_S11,LBP08,52,53,11,52,52,1716497208.08,2024-05-23 20:46:48.080000+00:00,2024-05-24 05:46:48.080000+09:00,2024,5,23,20,46,48,80,,,,,,,,,-0.125488,-0.639648,1.746338,20.385742,-45.715332,-0.610352,,,,,,,,,,,0.0,1.0,1.0,11.0,0.0,0.0,0.0,6.0,0.0,0.03934898666666667,-0.22391271999999995,0.9630501066666667,2.466634066666667,-0.44433594666666676,-2.1728516133333335,21.810784580474493,21.034166151217516,-6.862026294223089,3.043047337831772,13.478116666326347,-5.37790290076282,14.8270565380126,-1.392441324958793,14.717799205684196,-1.389651977217209,-0.16483698666666666,-0.41573528000000004,0.7832878933333333,1.36386016,0.9019683913822016,0.7835675907282393,0.7835675907282393,0.7835675907282393
LBP08_S11,LBP08,53,54,11,53,53,1716497208.12,2024-05-23 20:46:48.120000+00:00,2024-05-24 05:46:48.120000+09:00,2024,5,23,20,46,48,120,,,,,,,,,0.310547,-0.175293,1.462158,9.460449,75.317383,25.634766,,,,,,,,,,,0.0,1.0,1.0,11.0,0.0,0.0,0.0,6.0,0.0,0.04316734666666667,-0.21884110666666667,0.9687792666666667,1.6471353733333332,-0.10253908000000005,-2.1704102133333336,23.174392275945756,23.81287672357957,-2.802891480341266,3.970023028869602,14.43063173526953,-5.490018559976471,15.941910767458497,-1.3714554128247438,15.61116189158584,-1.3911993027456255,0.26737965333333336,0.04354810666666667,0.4933787333333334,0.8043064933333334,0.5628595660700006,0.770584765748343,0.770584765748343,0.770584765748343
LBP08_S11,LBP08,54,55,11,54,54,1716497208.16,2024-05-23 20:46:48.160000+00:00,2024-05-24 05:46:48.160000+09:00,2024,5,23,20,46,48,160,,,,,,,,,-0.614746,-0.115479,-0.135254,24.169922,124.694824,62.133789,,,,,,,,,,,0.0,1.0,1.0,11.0,0.0,0.0,0.0,6.0,0.0,0.04131838666666667,-0.22706376,0.97506832,1.8554687066666669,1.3834635199999998,-1.4225260933333335,25.199959327422842,24.722671400326362,0.5642186670959428,4.978021401966516,15.419538591282585,-5.467449813292633,17.10075655950237,-1.386250823237699,16.53663761115097,-1.3904412811527613,-0.6560643866666667,0.11158476,-1.11032232,1.8779714666666667,1.2944834075440095,0.7996902458481022,0.7996902458481022,0.7996902458481022
LBP08_S11,LBP08,55,56,11,55,55,1716497208.2,2024-05-23 20:46:48.200000+00:00,2024-05-24 05:46:48.200000+09:00,2024,5,23,20,46,48,200,,,,,,,,,-0.188965,0.079346,0.181396,53.649902,-31.188965,-46.081543,,,,,,,,,,,0.0,1.0,1.0,11.0,0.0,0.0,0.0,6.0,0.0,0.03450524,-0.23183263999999998,0.9822818533333333,1.22314448,0.6998697733333332,-0.8935547333333335,27.373808581721896,23.352066503749644,2.916257247512752,6.072973745235392,16.35362125143257,-5.350799523392123,18.24699958034632,-1.419138120699961,17.4424186341299,-1.3894705570635222,-0.22347024,0.31117863999999995,-0.8008858533333333,1.3355347333333332,0.8878002276567452,0.804327613311715,0.804327613311715,0.804327613311715
LBP08_S11,LBP08,56,57,11,56,56,1716497208.24,2024-05-23 20:46:48.240000+00:00,2024-05-24 05:46:48.240000+09:00,2024,5,23,20,46,48,240,,,,,,,,,0.279297,0.262451,0.763428,31.433105,-62.011719,-56.945801,,,,,,,,,,,0.0,1.0,1.0,11.0,0.0,0.0,0.0,6.0,0.0,0.04117841333333334,-0.23076818666666668,0.98383784,2.0296223466666667,0.1944986799999998,-1.1433919733333335,28.922806622847858,19.644101668197866,4.205713846867112,7.229886010149306,17.139385318160485,-5.182570969517438,19.31032942904426,-1.3896797927041404,18.27380695208523,-1.3887946776392384,0.2381185866666667,0.49321918666666664,-0.22040983999999997,0.9517476133333332,0.5903779509611488,0.7936301301941866,0.7936301301941866,0.7936301301941866
LBP08_S11,LBP08,57,58,11,57,57,1716497208.28,2024-05-23 20:46:48.280000+00:00,2024-05-24 05:46:48.280000+09:00,2024,5,23,20,46,48,280,,,,,,,,,0.387451,-0.743652,1.223877,-3.90625,24.414062,9.521484,,,,,,,,,,,0.0,1.0,1.0,11.0,0.0,0.0,0.0,6.0,0.0,0.04200197333333334,-0.2293456666666667,0.9736783333333333,1.36393224,2.7132161333333333,-0.45328780000000013,29.0441996637329,13.866053870480314,4.578450851382678,8.391653996698622,17.6940274729797,-4.9994329354621305,20.211204681835564,-1.3849892455670079,18.978827455966396,-1.3874113494618638,0.34544902666666666,-0.5143063333333333,0.2501986666666668,1.1099540266666668,0.6681657034998901,0.7876556336849344,0.7876556336849344,0.7876556336849344
LBP08_S11,LBP08,58,59,11,58,58,1716497208.32,2024-05-23 20:46:48.320000+00:00,2024-05-24 05:46:48.320000+09:00,2024,5,23,20,46,48,320,,,,,,,,,-0.408936,-0.48999,1.597656,60.913086,44.372559,37.841797,,,,,,,,,,,0.0,1.0,1.0,11.0,0.0,0.0,0.0,6.0,0.0,0.03912112,-0.22863929333333333,0.9642707733333333,0.6770832800000002,-0.14078777333333325,-1.7513021199999999,27.125396420716886,6.555124745562245,4.292494443179922,9.476669853527298,17.956232462802188,-4.827733157734934,20.86960860230104,-1.396867986288117,19.51269905320355,-1.3898395343206067,-0.44805712000000003,-0.26135070666666665,0.6333852266666666,1.3427930533333332,0.8186795588125094,0.7890658120998242,0.7890658120998242,0.7890658120998242
LBP08_S11,LBP08,59,60,11,59,59,1716497208.36,2024-05-23 20:46:48.360000+00:00,2024-05-24 05:46:48.360000+09:00,2024,5,23,20,46,48,360,,,,,,,,,-0.159668,-0.237549,1.678711,69.458008,-56.335449,1.342773,,,,,,,,,,,0.0,1.0,1.0,11.0,0.0,0.0,0.0,6.0,0.0,0.043785840000000006,-0.22931312,0.9702929066666667,1.3354491733333336,-1.0847981866666665,-2.0296224266666667,22.898656609587533,-1.5053817086556835,3.6847890412976008,10.3926161179108,17.89601719445596,-4.6803415960830295,21.217433837638044,-1.3772460204474204,19.841231936910876,-1.3910945607868772,-0.20345384,-0.008235880000000001,0.7084180933333334,0.9201078133333334,0.7371007323915473,0.7868064608081601,0.7868064608081601,0.7868064608081601
LBP08_S11,LBP08,60,61,11,60,60,1716497208.4,2024-05-23 20:46:48.400000+00:00,2024-05-24 05:46:48.400000+09:00,2024,5,23,20,46,48,400,,,,,,,,,0.254883,-0.273438,0.941895,-18.676758,112.854004,49.377441,,,,,,,,,,,0.0,1.0,1.0,11.0,0.0,0.0,0.0,6.0,0.0,0.04659834666666667,-0.22991208,0.9800292266666668,0.7291666266666668,-0.30110678666666674,-1.6544596666666667,16.493498598498217,-9.305949566209739,3.1607157387624634,11.052356061850729,17.52377921180757,-4.553912966532531,21.212626798415627,-1.3657715551423972,19.943612184948694,-1.3958081445891994,0.20828465333333335,-0.043525920000000023,-0.03813422666666677,0.2899448000000001,0.21617405433931697,0.7630301105386249,0.7630301105386249,0.7630301105386249
LBP08_S11,LBP08,61,62,11,61,61,1716497208.44,2024-05-23 20:46:48.440000+00:00,2024-05-24 05:46:48.440000+09:00,2024,5,23,20,46,48,440,,,,,,,,,-0.41626,0.063965,-0.135986,4.516602,21.54541,-6.408691,,,,,,,,,,,0.0,1.0,1.0,11.0,0.0,0.0,0.0,6.0,0.0,0.04138676,-0.2327734,0.9876138666666666,0.9204101200000002,1.2809244666666666,-0.6966146133333334,8.377184439510696,-15.708389867207265,3.148008161569055,11.387443439431156,16.89544361711928,-4.4279926400697684,20.850347765109635,-1.3902732127483584,19.81481312264767,-1.3969581678190273,-0.45764676000000004,0.29673839999999996,-1.1235998666666667,1.8779850266666667,1.2489879484392188,0.7824684240546486,0.7824684240546486,0.7824684240546486
LBP08_S11,LBP08,62,63,11,62,62,1716497208.48,2024-05-23 20:46:48.480000+00:00,2024-05-24 05:46:48.480000+09:00,2024,5,23,20,46,48,480,,,,,,,,,-0.144287,-0.093506,0.035156,-36.132812,-74.09668,-31.677246,,,,,,,,,,,0.0,1.0,1.0,11.0,0.0,0.0,0.0,6.0,0.0,0.03600264,-0.23822913333333331,0.99400384,0.9138997066666668,0.15136717333333327,-1.06770836,-0.7818666869285865,-19.679777366663682,3.987549730602591,11.356168771954012,16.108252522452734,-4.268490650845665,20.165772510384155,-1.416723173546222,19.467369087420984,-1.3988966389560054,-0.18028964,0.1447231333333333,-0.95884784,1.2838606133333332,0.9863256662410306,0.8010295125212172,0.7903090872156634,0.7903090872156634
LBP08_S11,LBP08,63,64,11,63,63,1716497208.52,2024-05-23 20:46:48.520000+00:00,2024-05-24 05:46:48.520000+09:00,2024,5,23,20,46,48,520,,,,,,,,,0.379883,-0.200195,0.455811,-17.822266,-145.446777,-27.587891,,,,,,,,,,,0.0,1.0,1.0,11.0,0.0,0.0,0.0,6.0,0.0,0.04399092,-0.23913734666666667,0.9966633466666667,0.44108070666666693,1.0188802000000001,-1.11735028,-10.25686737415745,-20.623488080749436,5.796182836598937,10.945894076987715,15.283312999222757,-4.036643337381708,19.22723960453175,-1.384005677487449,18.931603782468414,-1.4014271183439513,0.33589208000000004,0.038942346666666655,-0.5408523466666666,0.9156867733333333,0.6378567681427182,0.7909447382494195,0.7846627050277765,0.7846627050277765
LBP08_S11,LBP08,64,65,11,64,64,1716497208.56,2024-05-23 20:46:48.560000+00:00,2024-05-24 05:46:48.560000+09:00,2024,5,23,20,46,48,560,,,,,,,,,0.408447,-0.220947,0.874756,7.324219,-38.879395,1.831055,,,,,,,,,,,0.0,1.0,1.0,11.0,0.0,0.0,0.0,6.0,0.0,0.03215498666666668,-0.23932940000000003,0.97332676,0.7324218533333335,4.042154933333333,-0.3930664266666666,-19.348518377829787,-18.6530914531943,8.378484110008644,10.171953341874524,14.537189341094985,-3.7015039729813624,18.12455903988052,-1.4333866612609196,18.253082992449116,-1.4077932204919374,0.37629201333333334,0.01838240000000002,-0.09857075999999998,0.49324517333333334,0.38942237564781906,0.7696114691841432,0.7705469789784923,0.7705469789784923
LBP08_S11,LBP08,65,66,11,65,65,1716497208.6,2024-05-23 20:46:48.600000+00:00,2024-05-24 05:46:48.600000+09:00,2024,5,23,20,46,48,600,,,,,,,,,0.135986,-0.170654,1.342285,-14.404297,33.38623,60.36377,,,,,,,,,,,0.0,1.0,1.0,11.0,0.0,0.0,0.0,6.0,0.0,0.032796253333333344,-0.2392480266666667,0.9730728533333333,0.8577473733333335,1.1124674399999999,-1.4526367466666665,-27.401110875122058,-14.625190903070779,11.249193014609894,9.07590890686964,13.952181704972153,-3.2515362523969666,16.959008957336128,-1.4306383529982432,17.486822424896047,-1.4156286761639705,0.10318974666666665,0.0685940266666667,0.3692121466666667,0.5409959200000001,0.38944944929693565,0.770324369077959,0.757405684851542,0.757405684851542
LBP08_S11,LBP08,66,67,11,66,66,1716497208.64,2024-05-23 20:46:48.640000+00:00,2024-05-24 05:46:48.640000+09:00,2024,5,23,20,46,48,640,,,,,,,,,-0.126953,-0.30249,1.564941,-39.306641,-20.141602,17.883301,,,,,,,,,,,0.0,1.0,1.0,11.0,0.0,0.0,0.0,6.0,0.0,0.03855472,-0.24321288,0.9851724666666667,0.43863929333333357,0.5232747333333331,-1.4485677333333336,-33.78983702440677,-9.858476117054087,13.764167827896355,7.72431542589337,13.557842660289989,-2.7009695392811124,15.835889076777402,-1.4090645040739183,16.689555506445164,-1.421810455779764,-0.16550772000000002,-0.05927711999999999,0.5797685333333332,0.8045533733333332,0.6058367227055299,0.7470911304286372,0.7523533861133417,0.7523533861133417
LBP08_S11,LBP08,67,68,11,67,67,1716497208.68,2024-05-23 20:46:48.680000+00:00,2024-05-24 05:46:48.680000+09:00,2024,5,23,20,46,48,680,,,,,,,,,0.233398,-0.097412,1.4104,8.361816,51.208496,10.498047,,,,,,,,,,,0.0,1.0,1.0,11.0,0.0,0.0,0.0,6.0,0.0,0.038662146666666675,-0.24583982666666665,0.9925617866666666,0.26855465333333356,2.0979817599999997,-0.33854169333333345,-37.93901461375795,-5.648195173436095,15.2973489989897,6.206754841343052,13.331914853352545,-2.0890755793215243,14.85355163230987,-1.4102940394464676,15.912630840646454,-1.4296810276169098,0.19473585333333332,0.14842782666666665,0.4178382133333335,0.7610018933333335,0.48429499772766993,0.7438903564627357,0.7437063413267071,0.7437063413267071
LBP08_S11,LBP08,68,69,11,68,68,1716497208.72,2024-05-23 20:46:48.720000+00:00,2024-05-24 05:46:48.720000+09:00,2024,5,23,20,46,48,720,,,,,,,,,-0.552734,0.088867,0.089111,-55.358887,153.198242,9.521484,,,,,,,,,,,0.0,1.0,1.0,11.0,0.0,0.0,0.0,6.0,0.0,0.026949906666666676,-0.25087564,0.9993391199999998,0.8943684533333336,2.293294253333333,0.3320312266666665,-39.406088134350334,-2.8079814967599783,15.391101560393764,4.630511315969039,13.219595593482147,-1.473431516905774,14.08440070210803,-1.4605290077679784,15.19756631187632,-1.43169782106978,-0.5796839066666666,0.33974264,-0.9102281199999998,1.8296546666666664,1.1313592371661763,0.7682276051771422,0.7558204943216905,0.7558204943216905
LBP08_S11,LBP08,69,70,11,69,69,1716497208.76,2024-05-23 20:46:48.760000+00:00,2024-05-24 05:46:48.760000+09:00,2024,5,23,20,46,48,760,,,,,,,,,0.020752,-0.313232,0.184082,-106.018066,-71.777344,15.258789,,,,,,,,,,,0.0,1.0,1.0,11.0,0.0,0.0,0.0,6.0,0.0,0.02790042666666667,-0.2483268133333333,1.00196608,1.8481444933333333,0.3385416533333332,-0.20182293333333348,-38.0153332143674,-1.4609819337694787,13.843052186455031,3.1098979873943424,13.161156316131368,-0.9197094294475726,13.55482816210736,-1.4556005771677512,14.574556427337281,-1.43419275117456,-0.007148426666666669,-0.0649051866666667,-0.8178840800000001,0.8899376933333335,0.8204865334528594,0.7651776599457942,0.7577800712650592,0.7577800712650592
LBP08_S11,LBP08,70,71,11,70,70,1716497208.8,2024-05-23 20:46:48.800000+00:00,2024-05-24 05:46:48.800000+09:00,2024,5,23,20,46,48,800,,,,,,,,,0.359619,-0.406006,0.662109,-16.235352,-131.652832,-1.77002,,,,,,,,,,,0.0,1.0,1.0,11.0,0.0,0.0,0.0,6.0,0.0,0.034023466666666675,-0.24278970666666666,0.99110996,0.882975226666667,2.86702472,0.09684242666666651,-33.97584840182512,-1.1660810774950927,10.732547393339145,1.7508640513213376,13.114513073031565,-0.4904075337140068,13.239957613906801,-1.427589351300333,14.06277181071287,-1.4323635841758893,0.32559553333333335,-0.16321629333333332,-0.32900096,0.8178127866666667,0.49080917006206404,0.7442906650670658,0.7499279859355594,0.7499279859355594
LBP08_S11,LBP08,71,72,11,71,71,1716497208.84,2024-05-23 20:46:48.840000+00:00,2024-05-24 05:46:48.840000+09:00,2024,5,23,20,46,48,840,,,,,,,,,0.503662,-0.200928,1.150879,-56.335449,-20.874023,10.925293,,,,,,,,,,,0.0,1.0,1.0,11.0,0.0,0.0,0.0,6.0,0.0,0.023447293333333334,-0.23616210666666665,0.96734044,0.03824866666666689,2.5618489466666663,-0.6420898666666669,-27.90297031889993,-1.2730126360702478,6.404961782262811,0.6347452385653405,13.063592567588755,-0.23420906242349437,13.081101107122551,-1.4689789311198167,13.670919451729214,-1.434273168069556,0.4802147066666667,0.035234106666666654,0.18353856000000002,0.6989873733333334,0.5152999221603127,0.7314748112371657,0.7432243269705523,0.7432243269705523
LBP08_S11,LBP08,72,73,11,72,72,1716497208.88,2024-05-23 20:46:48.880000+00:00,2024-05-24 05:46:48.880000+09:00,2024,5,23,20,46,48,880,,,,,,,,,-0.154541,-0.320068,1.523926,10.192871,50.231934,25.695801,,,,,,,,,,,0.0,1.0,1.0,11.0,0.0,0.0,0.0,6.0,0.0,0.031728533333333336,-0.24262369333333333,0.97224604,-0.5460612266666665,-0.5940755333333334,-1.3509114800000002,-20.70107401662403,-1.2776890322070857,1.424751553937337,-0.1932977220996207,13.012485006300471,-0.1772190002660009,13.015127222682795,-1.4368911080749238,13.39736457566831,-1.4362448514393342,-0.18626953333333335,-0.07744430666666668,0.5516799599999999,0.8153937999999998,0.5874050884601698,0.7168161704083816,0.7388960147897083,0.7388960147897083
LBP08_S11,LBP08,73,74,11,73,73,1716497208.92,2024-05-23 20:46:48.920000+00:00,2024-05-24 05:46:48.920000+09:00,2024,5,23,20,46,48,920,,,,,,,,,-0.262939,-0.507568,1.806152,27.832031,-53.100586,-19.226074,,,,,,,,,,,0.0,1.0,1.0,11.0,0.0,0.0,0.0,6.0,0.0,0.03741862666666667,-0.23555989333333335,0.9784113999999999,-0.31412762666666644,-0.9179687733333335,-1.9083659066666667,-13.339429543789041,-0.9892004982515215,-3.5046388798689887,-0.7268749038511824,12.97291698637041,-0.31740455546076046,12.997140759141368,-1.4089549785352478,13.230556777932406,-1.4365221445452447,-0.30035762666666665,-0.27200810666666664,0.8277406,1.4001063333333335,0.9216059976354198,0.7130894518798294,0.7438341224341871,0.7438341224341871
LBP08_S11,LBP08,74,75,11,74,74,1716497208.96,2024-05-23 20:46:48.960000+00:00,2024-05-24 05:46:48.960000+09:00,2024,5,23,20,46,48,960,,,,,,,,,0.348877,-0.195801,1.42334,-27.709961,61.706543,8.972168,,,,,,,,,,,0.0,1.0,1.0,11.0,0.0,0.0,0.0,6.0,0.0,0.03677734666666667,-0.2410579466666667,0.9835806666666668,-1.5844726799999997,0.15380855999999984,-1.1083984533333335,-6.61071349650209,-0.4761165854551783,-7.659137866090356,-0.991303443711266,12.953872322952204,-0.6237700701043747,13.006712873636404,-1.4150949912742132,13.15127380853655,-1.434481997049644,0.31209965333333334,0.045256946666666686,0.4397593333333333,0.7971159333333333,0.5411493842610875,0.7064482137595982,0.738500313534895,0.738500313534895
LBP08_S11,LBP08,75,76,11,75,75,1716497209.0,2024-05-23 20:46:49+00:00,2024-05-24 05:46:49+09:00,2024,5,23,20,46,49,0,20.0,46.0,47.0,40.793083,141.624405,-6.114,3.0,14.0,-0.729004,-0.135742,-0.122559,2.990723,107.971191,2.502441,-584.0,29.0,594.0,85.0,0.0,1021.5,26.709999,0.084233,-68.421371,3.789844,0.0,1.0,1.0,11.0,0.0,0.0,0.0,5.0,0.0,0.028785813333333337,-0.24360352000000002,0.9875455066666666,-1.6072591466666664,0.13671870666666652,-0.9179687600000002,-0.9667639305363533,0.10216310661529147,-10.443157527210822,-1.02997400093272,12.957958847216815,-1.0414963711928076,13.040485367499542,-1.4497341919349105,13.137279295961656,-1.431351368076384,-0.7577898133333333,0.10786152000000002,-1.1101045066666666,1.97575584,1.3484107402457612,0.7362240196377762,0.7541390424249171,0.7541390424249171
LBP08_S11,LBP08,76,77,11,76,76,1716497209.04,2024-05-23 20:46:49.040000+00:00,2024-05-24 05:46:49.040000+09:00,2024,5,23,20,46,49,40,,,,,,,,,-0.053223,-0.185791,0.22168,21.42334,-89.660645,-54.077148,,,,,,,,,,,0.0,1.0,1.0,11.0,0.0,0.0,0.0,5.0,0.0,0.033876960000000005,-0.243903,0.9884211599999999,-1.193847693333333,-0.2726237466666668,-1.0611979333333332,3.5167355765573096,0.6363072145308538,-11.538256433181923,-0.8893045778704277,12.98341113579805,-1.5030266285200846,13.100340316168378,-1.4287813377717002,13.168948074696505,-1.4298677054885671,-0.08709996,0.058112,-0.7667411599999999,0.91195312,0.7738574894734476,0.7420066833510236,0.7546320036011305,0.7546320036011305
LBP08_S11,LBP08,77,78,11,77,77,1716497209.08,2024-05-23 20:46:49.080000+00:00,2024-05-24 05:46:49.080000+09:00,2024,5,23,20,46,49,80,,,,,,,,,0.528809,0.106934,0.952637,8.361816,-68.481445,-60.913086,,,,,,,,,,,0.0,1.0,1.0,11.0,0.0,0.0,0.0,5.0,0.0,0.037171226666666675,-0.24052409333333336,0.9760513733333332,-1.726888053333333,2.4999999466666663,-0.5476888133333333,7.050933013111643,1.0995298332838142,-10.997675010706505,-0.607267257345962,13.027392329129404,-1.9429336289483448,13.185473654950833,-1.4130669705055734,13.233281779837364,-1.4257506851159873,0.4916377733333333,0.34745809333333333,-0.023414373333333294,0.8625102399999999,0.6024807546051459,0.7300271778799414,0.7509209975280577,0.7509209975280577
LBP08_S11,LBP08,78,79,11,78,78,1716497209.12,2024-05-23 20:46:49.120000+00:00,2024-05-24 05:46:49.120000+09:00,2024,5,23,20,46,49,120,,,,,,,,,0.436768,-0.516357,1.536377,-28.930664,48.950195,10.009766,,,,,,,,,,,0.0,1.0,1.0,11.0,0.0,0.0,0.0,5.0,0.0,0.02985026666666667,-0.23366862666666668,0.9593098399999999,-1.2150065466666662,1.1140949999999998,-1.3199869866666667,9.965283585365029,1.49660717627873,-9.230405026995356,-0.20865591393136085,13.087256616180552,-2.312149830028159,13.291571008149466,-1.440127532811972,13.324702106996435,-1.4282005792640806,0.4069177333333333,-0.2826883733333333,0.5770671600000002,1.266673266666667,0.7605927065581484,0.7379365034994673,0.7511512763144884,0.7511512763144884
LBP08_S11,LBP08,79,80,11,79,79,1716497209.16,2024-05-23 20:46:49.160000+00:00,2024-05-24 05:46:49.160000+09:00,2024,5,23,20,46,49,160,,,,,,,,,-0.391113,-0.738281,1.887207,3.295898,-13.366699,37.29248,,,,,,,,,,,0.0,1.0,1.0,11.0,0.0,0.0,0.0,5.0,0.0,0.033990893333333334,-0.23708009333333335,0.96333328,-1.2784831199999998,-0.2905274000000001,-1.5519205866666668,12.52766283649514,1.8172126672239426,-6.855959094522908,0.29245059952844477,13.159945122869509,-2.5863881938090754,13.414883036358404,-1.4242942874351496,13.442901038075126,-1.431716327319919,-0.4251038933333333,-0.5012009066666666,0.9238737200000001,1.85017852,1.133780542908232,0.7315083889140362,0.7600496313515522,0.7600496313515522
LBP08_S11,LBP08,80,81,11,80,80,1716497209.2,2024-05-23 20:46:49.200000+00:00,2024-05-24 05:46:49.200000+09:00,2024,5,23,20,46,49,200,,,,,,,,,0.111084,-0.291016,1.857178,4.760742,-34.606934,8.666992,,,,,,,,,,,0.0,1.0,1.0,11.0,0.0,0.0,0.0,5.0,0.0,0.03626629333333334,-0.23393230666666667,0.9688183066666667,-1.2898763599999996,0.04882806666666662,-1.9539388133333333,14.82369430381431,2.050556543312269,-4.482377329533485,0.8853983716810172,13.241967384601999,-2.7656832869904147,13.556645401255306,-1.4127527254221637,13.589185674309977,-1.4362295797245397,0.07481770666666666,-0.057083693333333324,0.8883596933333333,1.0202610933333334,0.8933303879387107,0.7317295953253148,0.7630787394558058,0.7630787394558058
LBP08_S11,LBP08,81,82,11,81,81,1716497209.24,2024-05-23 20:46:49.240000+00:00,2024-05-24 05:46:49.240000+09:00,2024,5,23,20,46,49,240,,,,,,,,,-0.060791,-0.211182,0.620117,21.42334,181.945801,58.105469,,,,,,,,,,,0.0,1.0,1.0,11.0,0.0,0.0,0.0,5.0,0.0,0.0335482,-0.23987957333333332,0.9713378266666666,-1.858724013333333,0.7649739066666666,-1.2890625066666666,16.738770002670265,2.2362901675256563,-2.5151030844093354,1.5549491717878277,13.331418991303025,-2.866287410366788,13.724438158531145,-1.4278087273940205,13.762871776842392,-1.4377254860386397,-0.0943392,0.02869757333333331,-0.35122082666666654,0.47425759999999983,0.36480063658973877,0.7227065027504583,0.754228114947671,0.754228114947671
LBP08_S11,LBP08,82,83,11,82,82,1716497209.28,2024-05-23 20:46:49.280000+00:00,2024-05-24 05:46:49.280000+09:00,2024,5,23,20,46,49,280,,,,,,,,,0.048096,0.217529,0.044678,87.097168,-54.931641,-64.575195,,,,,,,,,,,0.0,1.0,1.0,11.0,0.0,0.0,0.0,5.0,0.0,0.025247426666666673,-0.23650066666666666,0.9698860133333334,-2.069498746666666,0.44108068,-1.6023763066666667,18.032799265230278,2.4761230055218113,-1.0903333908026631,2.276261142397039,13.430463911523898,-2.9099007459988946,13.929330494273492,-1.4613900495558554,13.958838180409433,-1.4405088500345868,0.022848573333333327,0.45402966666666666,-0.9252080133333334,1.4020862533333334,1.0308612241485402,0.7372143235764044,0.7602418781911682,0.7602418781911682
LBP08_S11,LBP08,83,84,11,83,83,1716497209.32,2024-05-23 20:46:49.320000+00:00,2024-05-24 05:46:49.320000+09:00,2024,5,23,20,46,49,320,,,,,,,,,0.401855,-0.114746,0.813232,-1.037598,-120.544434,-56.213379,,,,,,,,,,,0.0,1.0,1.0,11.0,0.0,0.0,0.0,5.0,0.0,0.02911136000000001,-0.23509116000000002,0.9688508666666666,-1.7928060399999997,0.5094400533333334,-1.6666666666666667,18.449751305147082,2.857573842334205,-0.14499572347180545,3.014251194602922,13.544766865217266,-2.915700574937767,14.179130069928307,-1.4441124590936316,14.16674471496695,-1.4435992443312284,0.37274364,0.12034516000000002,-0.1556188666666667,0.6487076666666667,0.42147124499601746,0.7213259910237448,0.7530339923785053,0.7530339923785053
LBP08_S11,LBP08,84,85,11,84,84,1716497209.36,2024-05-23 20:46:49.360000+00:00,2024-05-24 05:46:49.360000+09:00,2024,5,23,20,46,49,360,,,,,,,,,0.460449,-0.174316,1.297119,-13.73291,-1.342773,3.845215,,,,,,,,,,,0.0,1.0,1.0,11.0,0.0,0.0,0.0,5.0,0.0,0.02517906666666667,-0.23332358666666664,0.9594660933333333,-1.515299533333333,2.5992838,-1.2581380133333335,17.798893646786755,3.3306120230752803,0.45254329675044785,3.726206940474392,13.677991346140278,-2.897598843067749,14.469559235984882,-1.4602275153204187,14.37184797700994,-1.4451805562054827,0.4352699333333333,0.05900758666666664,0.3376529066666666,0.8319304266666665,0.554031854254498,0.7140032358982628,0.7488881145009217,0.7488881145009217
LBP08_S11,LBP08,85,86,11,85,85,1716497209.4,2024-05-23 20:46:49.400000+00:00,2024-05-24 05:46:49.400000+09:00,2024,5,23,20,46,49,400,,,,,,,,,-0.23999,-0.400635,1.65332,-9.094238,58.166504,38.146973,,,,,,,,,,,0.0,1.0,1.0,11.0,0.0,0.0,0.0,5.0,0.0,0.02363609333333334,-0.22808921333333335,0.9559211733333335,-0.9098307866666663,0.6770832800000002,-2.4080403466666667,15.986948777723384,3.648937750842707,0.8107178749355008,4.365684891583327,13.823948856173986,-2.865170128070329,14.777346392823697,-1.464693255075912,14.556929661537307,-1.4488061037908735,-0.26362609333333337,-0.17254578666666667,0.6973988266666664,1.1335707066666665,0.7652685077923025,0.7359670140363822,0.7492224082415623,0.7492224082415623
LBP08_S11,LBP08,86,87,11,86,86,1716497209.44,2024-05-23 20:46:49.440000+00:00,2024-05-24 05:46:49.440000+09:00,2024,5,23,20,46,49,440,,,,,,,,,-0.166992,-0.296631,1.871582,35.766602,-46.508789,8.483887,,,,,,,,,,,0.0,1.0,1.0,11.0,0.0,0.0,0.0,5.0,0.0,0.025664080000000002,-0.23007814666666665,0.9573144,-1.8619792266666662,-0.2001953599999998,-2.2477213333333337,13.028558424549155,3.455345101090654,1.004078134802947,4.886827228565293,13.962162660217613,-2.8250070026782113,15.060004351838783,-1.4566149777311717,14.704629926786149,-1.4515705079090828,-0.19265608,-0.06655285333333333,0.9142676000000001,1.1734765333333335,0.9367128118359088,0.7234760085722498,0.7529722163134492,0.7529722163134492
LBP08_S11,LBP08,87,88,11,87,87,1716497209.48,2024-05-23 20:46:49.480000+00:00,2024-05-24 05:46:49.480000+09:00,2024,5,23,20,46,49,480,,,,,,,,,0.29248,-0.363037,1.219482,19.714355,116.577148,51.330566,,,,,,,,,,,0.0,1.0,1.0,11.0,0.0,0.0,0.0,5.0,0.0,0.029179706666666666,-0.2354882933333333,0.9622134933333333,-2.674153706666666,-0.03743493333333314,-1.7244466000000003,9.067533460691497,2.474447373236995,1.1048227802771757,5.249528566992953,14.061140555147093,-2.7808140914671244,15.264539000526007,-1.4439709134719878,14.799530110223623,-1.4545774500468989,0.2633002933333334,-0.1275487066666667,0.2572685066666667,0.6481175066666668,0.38959312309671934,0.6996067068464772,0.7503181096838472,0.7458471360542976
LBP08_S11,LBP08,88,89,11,88,88,1716497209.52,2024-05-23 20:46:49.520000+00:00,2024-05-24 05:46:49.520000+09:00,2024,5,23,20,46,49,520,,,,,,,,,-0.447998,0.071533,-0.175781,13.244629,57.312012,-40.466309,,,,,,,,,,,0.0,1.0,1.0,11.0,0.0,0.0,0.0,5.0,0.0,0.026386733333333332,-0.23533529333333328,0.9655272933333333,-2.516276093333333,0.8723958,-1.3338216000000003,4.403381951551878,0.6849961029829492,1.1889568560342723,5.425663845055028,14.08854039926641,-2.7332558172257535,15.34260362857939,-1.4559406515545152,14.829720780833227,-1.4509284963518738,-0.47438473333333336,0.30686829333333326,-1.1413082933333334,1.92256132,1.2734966215520545,0.7250323009828509,0.7579885196161352,0.7559942415446391
LBP08_S11,LBP08,89,90,11,89,89,1716497209.56,2024-05-23 20:46:49.560000+00:00,2024-05-24 05:46:49.560000+09:00,2024,5,23,20,46,49,560,,,,,,,,,-0.025146,-0.028809,0.183105,51.269531,-113.830566,-28.991699,,,,,,,,,,,0.0,1.0,1.0,11.0,0.0,0.0,0.0,5.0,0.0,0.025830093333333335,-0.24032226666666665,0.9693912266666667,-2.577311253333333,-0.1253255599999998,-1.423339826666667,-0.5166905859004663,-1.6454466667493362,1.2919411231344267,5.404996221619009,14.022722532596436,-2.6815781723003767,15.26569988163207,-1.4605497632890605,14.788142385658082,-1.4465207961443904,-0.05097609333333333,0.21151326666666664,-0.7862862266666667,1.0487755866666668,0.815832369003117,0.7420887007170626,0.7558500849506029,0.7571232628174406
LBP08_S11,LBP08,90,91,11,90,90,1716497209.6,2024-05-23 20:46:49.600000+00:00,2024-05-24 05:46:49.600000+09:00,2024,5,23,20,46,49,600,,,,,,,,,0.368164,0.19873,0.713623,-71.960449,-79.589844,-41.687012,,,,,,,,,,,0.0,1.0,1.0,11.0,0.0,0.0,0.0,5.0,0.0,0.03025066666666667,-0.2373632933333333,0.9696451333333335,-3.1136068266666657,0.3792317333333335,-1.346028626666667,-5.172395956697317,-4.079065590631805,1.3559073851826737,5.198100383351116,13.859559908971164,-2.6273418768930696,15.033648053743702,-1.4403967666042539,14.674198686405077,-1.439606155919024,0.33791333333333334,0.4360932933333333,-0.25602213333333346,1.03002876,0.6082023627801099,0.7508388172563898,0.7605815931671742,0.7543654683723048
LBP08_S11,LBP08,91,92,11,91,91,1716497209.64,2024-05-23 20:46:49.640000+00:00,2024-05-24 05:46:49.640000+09:00,2024,5,23,20,46,49,640,,,,,,,,,0.300293,-0.751465,1.351074,-18.188477,52.79541,26.489258,,,,,,,,,,,0.0,1.0,1.0,11.0,0.0,0.0,0.0,5.0,0.0,0.026207693333333334,-0.23800131999999996,0.9609667466666667,-3.085123746666666,1.7211913600000002,-1.220703106666667,-9.097475953636568,-6.181087480635629,1.2379276938423085,4.834201345205654,13.61231640974574,-2.577824769139377,14.673439992905882,-1.4578781487721817,14.495648360804031,-1.4338872427883458,0.27408530666666664,-0.5134636800000001,0.3901072533333334,1.1776562400000001,0.7006792241196971,0.7546325173129563,0.7508618238707967,0.7533893548404393
LBP08_S11,LBP08,92,93,11,92,92,1716497209.68,2024-05-23 20:46:49.680000+00:00,2024-05-24 05:46:49.680000+09:00,2024,5,23,20,46,49,680,,,,,,,,,-0.21875,-0.735352,1.820068,-61.950684,-1.342773,56.274414,,,,,,,,,,,0.0,1.0,1.0,11.0,0.0,0.0,0.0,5.0,0.0,0.03387696,-0.2372884266666667,0.9637597200000001,-3.0631510933333326,-0.6217448399999997,-2.6798502400000004,-11.997469950711508,-7.621606017990259,0.8066062828544059,4.354302547177193,13.30745216902613,-2.545560517825201,14.231237200369565,-1.4249005126056042,14.269899726022624,-1.4273667964759524,-0.25262696,-0.4980635733333333,0.8563082799999999,1.6069988133333333,1.0223265497858152,0.7761537793952822,0.760022067929009,0.758191804750178
LBP08_S11,LBP08,93,94,11,93,93,1716497209.72,2024-05-23 20:46:49.720000+00:00,2024-05-24 05:46:49.720000+09:00,2024,5,23,20,46,49,720,,,,,,,,,0.144043,-0.529785,1.760254,71.960449,-44.86084,-4.272461,,,,,,,,,,,0.0,1.0,1.0,11.0,0.0,0.0,0.0,5.0,0.0,0.040071626666666665,-0.23913087999999996,0.9701692266666667,-2.904459679999999,-1.5747070799999998,-2.96305336,-13.791260495789711,-8.162753254920275,0.07469044628229682,3.8026521273456044,12.980942038829319,-2.542572899973909,13.763346118176859,-1.4000354570187996,14.023416726511801,-1.4197050342740662,0.10397137333333334,-0.29065412,0.7900847733333333,1.1847102666666667,0.8482474951327462,0.7648293097139449,0.7665284574455434,0.7597717291428547
LBP08_S11,LBP08,94,95,11,94,94,1716497209.76,2024-05-23 20:46:49.760000+00:00,2024-05-24 05:46:49.760000+09:00,2024,5,23,20,46,49,760,,,,,,,,,0.111328,-0.158936,0.857666,-20.568848,147.949219,55.358887,,,,,,,,,,,0.0,1.0,1.0,11.0,0.0,0.0,0.0,5.0,0.0,0.04317058666666667,-0.24474285333333337,0.97599604,-3.8940430133333326,-1.3094076,-2.29166664,-14.559523124359245,-7.597189906086843,-0.7313960028489671,3.2202712023712348,12.677054442585845,-2.571828740087868,13.330122243454818,-1.3910811130667544,13.788496102112026,-1.4155104790395079,0.06815741333333333,0.08580685333333338,-0.11833003999999991,0.27229430666666665,0.16127692779086725,0.7384609254874652,0.7518192927166298,0.7494528532574757
LBP08_S11,LBP08,95,96,11,95,95,1716497209.8,2024-05-23 20:46:49.800000+00:00,2024-05-24 05:46:49.800000+09:00,2024,5,23,20,46,49,800,,,,,,,,,-0.210449,-0.162598,-0.146729,-58.959961,-32.592773,-57.189941,,,,,,,,,,,0.0,1.0,1.0,11.0,0.0,0.0,0.0,5.0,0.0,0.03821941333333334,-0.23854168,0.9816177866666665,-3.853352906666666,-0.7698568133333333,-2.1883137733333333,-14.446177423339607,-5.744167779479042,-1.2339077658887772,2.6424241054376507,12.447287731406684,-2.621185050723419,12.991843136813237,-1.4075041237691281,13.597851884464408,-1.4090022524853263,-0.24866841333333334,0.07594368000000001,-1.1283467866666665,1.45295888,1.1579161857849003,0.7651452061163788,0.7547179355917223,0.7563759605884489
LBP08_S11,LBP08,96,97,11,96,96,1716497209.84,2024-05-23 20:46:49.840000+00:00,2024-05-24 05:46:49.840000+09:00,2024,5,23,20,46,49,840,,,,,,,,,0.251221,0.024658,0.416748,65.063477,-118.896484,-55.908203,,,,,,,,,,,0.0,1.0,1.0,11.0,0.0,0.0,0.0,5.0,0.0,0.04222658666666666,-0.23940105333333336,0.98677404,-4.5914714,-1.7301432799999998,-2.7237955466666666,-13.579644174215208,-2.5573619586710787,-1.079340956611735,2.0992383384690423,12.34499325305984,-2.664358688987888,12.802518004024696,-1.3914105146072397,13.478498262914792,-1.4012748742442738,0.20899441333333335,0.26405905333333335,-0.57002604,1.0430795066666667,0.6620691313827597,0.7710159744852766,0.7512453928612212,0.7548041801016875
LBP08_S11,LBP08,97,98,11,97,97,1716497209.88,2024-05-23 20:46:49.880000+00:00,2024-05-24 05:46:49.880000+09:00,2024,5,23,20,46,49,880,,,,,,,,,0.473389,-0.189209,1.110107,-61.462402,-42.541504,-9.216309,,,,,,,,,,,0.0,1.0,1.0,11.0,0.0,0.0,0.0,5.0,0.0,0.047653013333333334,-0.23729818666666663,0.9869921333333334,-5.188802133333333,0.19205723999999974,-2.469889293333333,-12.053043505077074,1.7090192016475703,-0.1280468547628882,1.6171165982659592,12.413354021125743,-2.6694805631784035,12.799709005417787,-1.367353291453124,13.44681055206774,-1.3926989924464457,0.4257359866666667,0.048089186666666645,0.1231148666666666,0.5969400399999999,0.4457813035689729,0.7653510230896288,0.7410835967490051,0.7497382313060691
LBP08_S11,LBP08,98,99,11,98,98,1716497209.92,2024-05-23 20:46:49.920000+00:00,2024-05-24 05:46:49.920000+09:00,2024,5,23,20,46,49,920,,,,,,,,,0.061279,-0.448242,1.558838,-15.014648,75.317383,40.83252,,,,,,,,,,,0.0,1.0,1.0,11.0,0.0,0.0,0.0,5.0,0.0,0.034993506666666674,-0.22714844,0.9725976,-5.049641973333333,1.0449218266666664,-2.7636718399999998,-9.961820795591782,6.411670714075981,1.4543469648448775,1.218643766442288,12.669820849688783,-2.6113066845846085,12.993397384581659,-1.4139950992089314,13.506140394577944,-1.392113324070864,0.026285493333333326,-0.22109355999999997,0.5862404,0.8336194533333333,0.6270973576928947,0.7535706774919276,0.7333300646858786,0.7477601526994051
LBP08_S11,LBP08,99,100,11,99,99,1716497209.96,2024-05-23 20:46:49.960000+00:00,2024-05-24 05:46:49.960000+09:00,2024,5,23,20,46,49,960,,,,,,,,,-0.258545,-0.703369,1.878906,3.723145,-30.029297,6.164551,,,,,,,,,,,0.0,1.0,1.0,11.0,0.0,0.0,0.0,5.0,0.0,0.040537133333333336,-0.23513997333333336,0.9789061866666666,-5.427246146666667,0.242512973333333,-3.0721028399999994,-7.468367504838981,10.617868198130639,3.2510635302300535,0.9199090662487288,13.094535577614009,-2.481264143375406,13.359257705155857,-1.3954674977472448,13.64719329366199,-1.3956715091370107,-0.29908213333333333,-0.46822902666666666,0.8999998133333333,1.6673109733333333,1.0576805793302941,0.774231925294696,0.740340069527147,0.752679524550689
LBP08_S11,LBP08,100,101,11,100,100,1716497210.0,2024-05-23 20:46:50+00:00,2024-05-24 05:46:50+09:00,2024,5,23,20,46,50,0,20.0,46.0,48.0,40.793007,141.624451,-5.836,3.0,14.0,0.269531,-0.598389,1.800537,-34.118652,17.883301,10.498047,-586.0,30.0,590.0,89.0,0.0,1020.700012,26.76,0.076305,-61.806309,3.789844,0.0,1.0,1.0,11.0,0.0,0.0,0.0,5.0,0.0,0.04752932,-0.23138019999999998,0.9898371733333332,-4.060058653333332,0.3621418799999998,-3.2869465866666663,-4.851269071729177,13.38228286343412,4.751347885964203,0.7258583033795618,13.629826892151373,-2.291210227936838,13.840111838247557,-1.3631229841937276,13.85033321403051,-1.3988271984418321,0.22200168000000003,-0.36700879999999997,0.8106998266666668,1.399710306666667,0.9171774169470299,0.7569825923627468,0.7466033060002615,0.7552498041193818
LBP08_S11,LBP08,101,102,11,101,101,1716497210.04,2024-05-23 20:46:50.040000+00:00,2024-05-24 05:46:50.040000+09:00,2024,5,23,20,46,50,40,,,,,,,,,-0.626465,-0.012695,-0.178467,15.625,186.462402,46.813965,,,,,,,,,,,0.0,1.0,1.0,11.0,0.0,0.0,0.0,5.0,0.0,0.04607098666666667,-0.23479492,1.0007388666666666,-4.838053439999999,2.5122069733333334,-2.6839192400000003,-2.5052915606405564,14.072208548709838,5.521811827138382,0.6256466409539395,14.192715234099767,-2.0703377548513027,14.356562884435371,-1.3721193307939037,14.088806290181003,-1.403523444330826,-0.6725359866666667,0.22209991999999998,-1.1792058666666665,2.073841773333333,1.3755578882063806,0.781050608312064,0.7615286458315438,0.764793005413028
LBP08_S11,LBP08,102,103,11,102,102,1716497210.08,2024-05-23 20:46:50.080000+00:00,2024-05-24 05:46:50.080000+09:00,2024,5,23,20,46,50,80,,,,,,,,,-0.192139,-0.086182,0.231689,12.634277,-50.109863,-40.588379,,,,,,,,,,,0.0,1.0,1.0,11.0,0.0,0.0,0.0,5.0,0.0,0.03508792,-0.23543619999999998,1.01114576,-5.528157613333333,3.3846028133333332,-2.4536132533333332,-0.8830543147831388,12.57838079614073,5.320631856846387,0.590324468362614,14.695850465945396,-1.8575124805774472,14.824535625471581,-1.4190438288497889,14.33245229057052,-1.4069793408007956,-0.22722692,0.1492542,-0.77945676,1.15593788,0.8255069533928977,0.789971656263574,0.7599994170717578,0.7657129137157533
LBP08_S11,LBP08,103,104,11,103,103,1716497210.12,2024-05-23 20:46:50.120000+00:00,2024-05-24 05:46:50.120000+09:00,2024,5,23,20,46,50,120,,,,,,,,,0.390381,-0.237061,0.925293,-22.094727,-90.026855,-32.775879,,,,,,,,,,,0.0,1.0,1.0,11.0,0.0,0.0,0.0,5.0,0.0,0.03166670666666667,-0.23906576000000002,1.01647128,-5.021158919999999,2.3087564666666665,-3.3577473733333334,-0.394706611078393,9.310801206152865,4.134915785633826,0.5745362039194782,15.06828251419151,-1.6921158491520942,15.173875109017326,-1.435617307680264,14.551932286357381,-1.4100749841608504,0.3587142933333333,0.002004760000000022,-0.09117827999999994,0.45189733333333326,0.3701262514981188,0.774352998061173,0.7561447507803201,0.7598086351751915
LBP08_S11,LBP08,104,105,11,104,104,1716497210.16,2024-05-23 20:46:50.160000+00:00,2024-05-24 05:46:50.160000+09:00,2024,5,23,20,46,50,160,,,,,,,,,0.433838,-0.341064,1.330566,-12.084961,25.024414,32.226562,,,,,,,,,,,0.0,1.0,1.0,11.0,0.0,0.0,0.0,5.0,0.0,0.03473636000000001,-0.2390494933333333,1.0080077466666668,-4.210612039999999,4.18782548,-3.169759093333333,-1.29459424232709,5.004047161266138,2.165034988193747,0.5227524342263946,15.268444400642156,-1.6055144496243443,15.361521447140026,-1.42263800611497,14.72326359174366,-1.4083522506508455,0.39910164,-0.10201450666666667,0.3225582533333331,0.8236743999999998,0.5231949019386405,0.7499295724223891,0.7407189806682127,0.7563290214511247
LBP08_S11,LBP08,105,106,11,105,105,1716497210.2,2024-05-23 20:46:50.200000+00:00,2024-05-24 05:46:50.200000+09:00,2024,5,23,20,46,50,200,,,,,,,,,-0.405029,-0.567627,1.676025,6.225586,14.587402,44.921875,,,,,,,,,,,0.0,1.0,1.0,11.0,0.0,0.0,0.0,5.0,0.0,0.02665042666666667,-0.23432293333333334,0.9862108799999999,-4.14794928,3.441568973333333,-3.582356746666667,-3.585289502341431,0.46175937689337504,-0.2149732847078174,0.3793408541327373,15.286914775717891,-1.6141133810126571,15.37657389831819,-1.4544665826590653,14.83184129237976,-1.4123492538479048,-0.43167942666666664,-0.3333040666666667,0.6898141200000002,1.4547976133333336,0.8793646845394546,0.7493709442864191,0.7405502698058669,0.7581121470031295
LBP08_S11,LBP08,106,107,11,106,106,1716497210.24,2024-05-23 20:46:50.240000+00:00,2024-05-24 05:46:50.240000+09:00,2024,5,23,20,46,50,240,,,,,,,,,-0.091553,-0.126221,1.800293,82.03125,-86.730957,-18.859863,,,,,,,,,,,0.0,1.0,1.0,11.0,0.0,0.0,0.0,5.0,0.0,0.033072946666666665,-0.23285809333333332,0.9869823733333334,-2.9817708933333327,0.10579424000000036,-4.32454424,-6.97168759691703,-3.6269217611213507,-2.5212593586265126,0.10047335025605614,15.141837905273038,-1.7149637553577177,15.238978007919878,-1.4259694793069368,14.874821785165068,-1.4181380133505017,-0.12462594666666665,0.10663709333333332,0.8133106266666665,1.0445736666666665,0.8296850436798718,0.7679663205700242,0.7453364116602414,0.7591346169556543
LBP08_S11,LBP08,107,108,11,107,107,1716497210.28,2024-05-23 20:46:50.280000+00:00,2024-05-24 05:46:50.280000+09:00,2024,5,23,20,46,50,280,,,,,,,,,0.267578,-0.175537,1.01709,-53.527832,127.502441,9.155273,,,,,,,,,,,0.0,1.0,1.0,11.0,0.0,0.0,0.0,5.0,0.0,0.03970054666666667,-0.23386721333333335,0.9979849733333332,-1.4656576133333326,-0.25553387999999966,-4.6761067333333335,-10.900469320023669,-6.754135722656645,-4.269742372505564,-0.3355454225448906,14.871672476366772,-1.8857534502579403,14.994508963286378,-1.398309725053672,14.861043685498753,-1.4213434579206408,0.2278774533333333,0.05833021333333335,0.019105026666666802,0.30531269333333344,0.23599904569538355,0.7361718334318981,0.7366930785041512,0.7517665103181856
LBP08_S11,LBP08,108,109,11,108,108,1716497210.32,2024-05-23 20:46:50.320000+00:00,2024-05-24 05:46:50.320000+09:00,2024,5,23,20,46,50,320,,,,,,,,,-0.51001,0.152832,-0.186523,-61.218262,32.775879,-32.714844,,,,,,,,,,,0.0,1.0,1.0,11.0,0.0,0.0,0.0,5.0,0.0,0.039303413333333335,-0.22909833333333335,1.00698888,-1.128743546666666,1.8676757600000005,-4.287109333333333,-14.697986544822228,-8.592021731227236,-5.129510149507652,-0.9234648843377797,14.527991607117682,-2.0909338562382462,14.706710438444423,-1.396767764108882,14.808457375537369,-1.4232793876454237,-0.5493134133333333,0.38193033333333337,-1.19351188,2.1247556266666665,1.368242161786123,0.7740426701035023,0.7476843305636234,0.7603286721441292
LBP08_S11,LBP08,109,110,11,109,109,1716497210.36,2024-05-23 20:46:50.360000+00:00,2024-05-24 05:46:50.360000+09:00,2024,5,23,20,46,50,360,,,,,,,,,-0.077393,-0.200195,0.167725,-43.640137,-90.332031,-42.114258,,,,,,,,,,,0.0,1.0,1.0,11.0,0.0,0.0,0.0,5.0,0.0,0.030371120000000005,-0.22848309333333333,1.01479812,-1.3712565733333326,2.3722330400000002,-4.289550733333333,-17.763083661347622,-9.00318564112975,-5.067383086212138,-1.6339882307916846,14.167864181472492,-2.293629179686732,14.445034711516874,-1.435437529717839,14.739979078516772,-1.4177403809820042,-0.10776412,0.02828809333333332,-0.84707312,0.9831253333333334,0.854368885441379,0.7860561513509775,0.7500296936246201,0.7616168942440916
LBP08_S11,LBP08,110,111,11,110,110,1716497210.4,2024-05-23 20:46:50.400000+00:00,2024-05-24 05:46:50.400000+09:00,2024,5,23,20,46,50,400,,,,,,,,,0.44165,0.052246,0.76709,13.916016,-85.021973,-35.339355,,,,,,,,,,,0.0,1.0,1.0,11.0,0.0,0.0,0.0,5.0,0.0,0.033912786666666674,-0.23025718666666667,1.0184114,-2.3714193333333324,1.5804036133333335,-4.839680946666666,-19.72501251919323,-8.093121538657725,-4.40196546364127,-2.422988731559414,13.844139319926184,-2.4697077982323825,14.269916766100632,-1.4210105792196963,14.679203380072911,-1.410699889722198,0.4077372133333333,0.2825031866666667,-0.2513213999999999,0.9415617999999999,0.5560756528671379,0.777688437153971,0.7568277255951764,0.7588393099011598
LBP08_S11,LBP08,111,112,11,111,111,1716497210.44,2024-05-23 20:46:50.440000+00:00,2024-05-24 05:46:50.440000+09:00,2024,5,23,20,46,50,440,,,,,,,,,0.338379,-0.400635,1.227295,-16.662598,21.240234,25.20752,,,,,,,,,,,0.0,1.0,1.0,11.0,0.0,0.0,0.0,5.0,0.0,0.03745770666666667,-0.22822267999999998,1.0060025466666664,-3.467610733333333,4.5727538800000005,-4.556477826666667,-20.493404406189413,-6.246933476446025,-3.7102210403726033,-3.2427249078069904,13.594261980868342,-2.618116639847287,14.218781887772229,-1.4041737764952944,14.647073930680321,-1.4041190227566354,0.30092129333333334,-0.17241232000000004,0.22129245333333358,0.6946260666666669,0.4114000276755874,0.7566759257875582,0.740075967179904,0.7542067861381522
LBP08_S11,LBP08,112,113,11,112,112,1716497210.48,2024-05-23 20:46:50.480000+00:00,2024-05-24 05:46:50.480000+09:00,2024,5,23,20,46,50,480,,,,,,,,,-0.254883,-0.591064,1.611572,-46.325684,13.427734,52.185059,,,,,,,,,,,0.0,1.0,1.0,11.0,0.0,0.0,0.0,5.0,0.0,0.029235053333333337,-0.22506512,0.9869563200000001,-3.1331380799999997,3.7475585733333334,-5.113932253333333,-20.19500041347133,-4.059665185873691,-3.6032558474941623,-4.050524924345844,13.431875373433394,-2.762246873747053,14.298672525857732,-1.4384031260976167,14.659704381119422,-1.403782041235122,-0.28411805333333334,-0.36599888,0.6246156799999999,1.2747326133333332,0.7777036685608726,0.7722003476061242,0.7359035272263008,0.7576121889912729
LBP08_S11,LBP08,113,114,11,113,113,1716497210.52,2024-05-23 20:46:50.520000+00:00,2024-05-24 05:46:50.520000+09:00,2024,5,23,20,46,50,520,,,,,,,,,0.018555,-0.426514,1.782471,39.489746,-21.728516,-1.89209,,,,,,,,,,,0.0,1.0,1.0,11.0,0.0,0.0,0.0,5.0,0.0,0.04224286666666666,-0.22424481333333332,0.99715164,-3.1697591733333326,1.0896809733333332,-5.588378866666667,-19.04940258103428,-2.1391642520271703,-4.46961526532672,-4.812501027587215,13.346308803352308,-2.941031484360122,14.489092138811348,-1.3802272410460685,14.726912977483263,-1.4035089602354507,-0.023687866666666665,-0.20226918666666668,0.7853193599999999,1.0112764133333332,0.8112955294421522,0.753712303921728,0.7393723024522895,0.7565631143846662
LBP08_S11,LBP08,114,115,11,114,114,1716497210.56,2024-05-23 20:46:50.560000+00:00,2024-05-24 05:46:50.560000+09:00,2024,5,23,20,46,50,560,,,,,,,,,0.106201,-0.127197,0.905762,-51.330566,126.159668,31.12793,,,,,,,,,,,0.0,1.0,1.0,11.0,0.0,0.0,0.0,5.0,0.0,0.04824548,-0.22216148,1.0090656933333335,-3.691406306666666,1.9677734266666669,-5.205078093333333,-17.249928579843967,-0.8697824451270524,-6.316171631894067,-5.502498170780974,13.311517505547226,-3.1936783496358845,14.753764462701415,-1.3522330935169091,14.851229575925803,-1.4043240581684986,0.05795552,0.09496447999999999,-0.10330369333333356,0.25622369333333356,0.15181814060397467,0.7271517347857624,0.7346202177514126,0.7462839682289895
LBP08_S11,LBP08,115,116,11,115,115,1716497210.6,2024-05-23 20:46:50.600000+00:00,2024-05-24 05:46:50.600000+09:00,2024,5,23,20,46,50,600,,,,,,,,,-0.328857,0.049805,-0.104736,-6.469727,18.676758,-36.071777,,,,,,,,,,,0.0,1.0,1.0,11.0,0.0,0.0,0.0,5.0,0.0,0.04151696,-0.23092776,1.0201399066666665,-4.482421919999999,3.4798176933333336,-4.18457028,-14.898195762885692,-0.27677507906506704,-8.789162656425253,-6.098426001296402,13.300446502384624,-3.5452448558928946,15.055279404392282,-1.3886579130034398,15.027765641116357,-1.4008040797673191,-0.37037396,0.28073276,-1.1248759066666665,1.7759826266666665,1.2171004716877132,0.7515076591420666,0.751173238199228,0.7575569484921384
LBP08_S11,LBP08,116,117,11,116,116,1716497210.64,2024-05-23 20:46:50.640000+00:00,2024-05-24 05:46:50.640000+09:00,2024,5,23,20,46,50,640,,,,,,,,,-0.038818,-0.114014,0.186279,15.014648,-97.473145,-57.617188,,,,,,,,,,,0.0,1.0,1.0,11.0,0.0,0.0,0.0,5.0,0.0,0.03331708,-0.22851890666666663,1.0257584000000002,-4.741210986666666,2.87923176,-4.520670546666667,-12.012877194736241,-0.08377605764613989,-11.358544178106698,-6.578941089085852,13.297095460078777,-3.9995866230171626,15.365282512310914,-1.422599664091801,15.245538618144158,-1.3976132819467544,-0.07213507999999999,0.11450490666666663,-0.8394794000000002,1.026119386666667,0.850317885523825,0.7574932055982317,0.7560628614555941,0.7530722844466083
LBP08_S11,LBP08,117,118,11,117,117,1716497210.68,2024-05-23 20:46:50.680000+00:00,2024-05-24 05:46:50.680000+09:00,2024,5,23,20,46,50,680,,,,,,,,,0.412598,0.034668,0.84082,-7.263184,-78.796387,-61.767578,,,,,,,,,,,0.0,1.0,1.0,11.0,0.0,0.0,0.0,5.0,0.0,0.03872722666666667,-0.22371748000000002,1.02814772,-4.916178426666666,3.415527333333333,-4.899088506666666,-8.604175119201447,0.06642434487989543,-13.559211903675898,-6.92310809385391,13.299752433873973,-4.541955099164198,15.666594926924798,-1.3955789150569597,15.490272324725234,-1.3965684448383502,0.37387077333333335,0.25838548,-0.18732771999999998,0.8195839733333333,0.4915629014765999,0.736262659665863,0.7562082195305726,0.752102265174627
LBP08_S11,LBP08,118,119,11,118,118,1716497210.72,2024-05-23 20:46:50.720000+00:00,2024-05-24 05:46:50.720000+09:00,2024,5,23,20,46,50,720,,,,,,,,,0.319092,-0.493408,1.219482,-61.462402,24.963379,17.51709,,,,,,,,,,,0.0,1.0,1.0,11.0,0.0,0.0,0.0,5.0,0.0,0.03724285333333334,-0.22778647999999999,1.0198534399999999,-4.8632812933333325,6.76513672,-4.456380173333333,-4.778964292051521,0.37383937119094435,-15.157114071829271,-7.11426666553597,13.314706008721611,-5.148239662037369,15.949876422869812,-1.4049187434393617,15.747846782326627,-1.3967561445404644,0.28184914666666666,-0.26562152000000006,0.19962856000000007,0.7470992266666667,0.4357123997908623,0.7197612558521876,0.7422952827830664,0.7509393902477582
LBP08_S11,LBP08,119,120,11,119,119,1716497210.76,2024-05-23 20:46:50.760000+00:00,2024-05-24 05:46:50.760000+09:00,2024,5,23,20,46,50,760,,,,,,,,,-0.427246,-0.456055,1.577393,-24.658203,36.621094,3.601074,,,,,,,,,,,0.0,1.0,1.0,11.0,0.0,0.0,0.0,5.0,0.0,0.03771812,-0.22412762666666672,1.01392896,-3.9843750399999998,3.84358724,-5.806477826666667,-0.819097949801406,0.7839202987379084,-16.16351624677701,-7.147030583528026,13.346062820671127,-5.7947803119084496,16.210395363422414,-1.4002377457060429,16.007145311842798,-1.402668594141948,-0.46496412000000004,-0.23192737333333327,0.5634640399999999,1.2603555333333332,0.7664683057777375,0.7439689109716626,0.7412149182295639,0.7492024988016407
LBP08_S11,LBP08,120,121,11,120,120,1716497210.8,2024-05-23 20:46:50.800000+00:00,2024-05-24 05:46:50.800000+09:00,2024,5,23,20,46,50,800,,,,,,,,,-0.031494,-0.397217,1.779053,35.095215,-31.677246,-9.887695,,,,,,,,,,,0.0,1.0,1.0,11.0,0.0,0.0,0.0,5.0,0.0,0.040738946666666664,-0.22693036000000003,1.0254882,-4.8852539466666665,3.876953133333333,-5.659179653333333,2.828056199312559,1.079027156650755,-16.720044159078828,-7.033908335555523,13.389223906937158,-6.463582078271603,16.447646536378656,-1.3891026010140504,16.261350691926502,-1.4092719525875268,-0.07223294666666666,-0.17028663999999996,0.7535647999999999,0.9960843866666665,0.7759349496869431,0.7286896615277442,0.7469174338220614,0.7460418442370629
LBP08_S11,LBP08,121,122,11,121,121,1716497210.84,2024-05-23 20:46:50.840000+00:00,2024-05-24 05:46:50.840000+09:00,2024,5,23,20,46,50,840,,,,,,,,,0.043213,-0.256348,1.022949,-8.911133,122.070312,36.560059,,,,,,,,,,,0.0,1.0,1.0,11.0,0.0,0.0,0.0,5.0,0.0,0.040328800000000005,-0.23071292,1.0362824800000001,-5.7698567999999995,5.80647788,-5.363769493333334,5.670595199659585,1.0707679656221105,-16.951461793243542,-6.80708452756914,13.432054625562042,-7.141640550001345,16.666118953582966,-1.3937254054112538,16.507605608372963,-1.4157188143981674,0.0028841999999999965,-0.025635080000000032,-0.013333480000000009,0.04185276000000004,0.02903889848387507,0.7033684522117889,0.7371922133485327,0.7352864126447437
LBP08_S11,LBP08,122,123,11,122,122,1716497210.88,2024-05-23 20:46:50.880000+00:00,2024-05-24 05:46:50.880000+09:00,2024,5,23,20,46,50,880,,,,,,,,,-0.459473,0.076172,-0.164795,57.861328,21.179199,-27.46582,,,,,,,,,,,0.0,1.0,1.0,11.0,0.0,0.0,0.0,5.0,0.0,0.029905626666666667,-0.23334964,1.0446972,-5.710449253333333,5.936686213333333,-5.713704386666667,7.360320806242068,0.7473462540317071,-16.886407486557324,-6.512671695319457,13.461948475723311,-7.8170968494636375,16.874417101871657,-1.4402801231187563,16.74585802405614,-1.4155994969004326,-0.4893786266666667,0.30952164,-1.2094922000000001,2.008392466666667,1.3409572952660658,0.7391754918796726,0.7522632574846506,0.740447561792561
LBP08_S11,LBP08,123,124,11,123,123,1716497210.92,2024-05-23 20:46:50.920000+00:00,2024-05-24 05:46:50.920000+09:00,2024,5,23,20,46,50,920,,,,,,,,,0.047607,0.068848,0.177002,33.752441,-104.858398,-67.504883,,,,,,,,,,,0.0,1.0,1.0,11.0,0.0,0.0,0.0,5.0,0.0,0.030361346666666667,-0.23525068,1.0494921199999998,-5.746256546666666,4.522298186666666,-6.648762986666666,7.852003478014465,0.2778273005510349,-16.485656715514384,-6.1985915561988785,13.473061567745352,-8.476523118084213,17.082077433973097,-1.4393517370609066,16.978039259403403,-1.4157694011432775,0.01724565333333333,0.30409868,-0.8724901199999998,1.1938344533333332,0.9241279290413476,0.7510567147336107,0.7523136961127692,0.7392389480351226
LBP08_S11,LBP08,124,125,11,124,124,1716497210.96,2024-05-23 20:46:50.960000+00:00,2024-05-24 05:46:50.960000+09:00,2024,5,23,20,46,50,960,,,,,,,,,0.542725,-0.080566,0.969971,2.868652,-76.660156,-61.218262,,,,,,,,,,,0.0,1.0,1.0,11.0,0.0,0.0,0.0,5.0,0.0,0.03577801333333333,-0.23862633333333336,1.0420474533333333,-6.464843786666665,7.194824226666666,-6.2426757466666665,7.44072790253002,-0.10946739380197787,-15.735984998388895,-5.900962440097677,13.468682871993273,-9.10596251801977,17.29581826353843,-1.4182666779726967,17.20821281382241,-1.4162726330919448,0.5069469866666667,0.15806033333333336,-0.07207645333333323,0.7370837733333333,0.5358855581082309,0.7301849138847281,0.7522084195897121,0.7369550176463407
LBP08_S11,LBP08,125,126,11,125,125,1716497211.0,2024-05-23 20:46:51+00:00,2024-05-24 05:46:51+09:00,2024,5,23,20,46,51,0,20.0,46.0,49.0,40.792923,141.624481,-5.141,3.0,14.0,0.354248,-0.387207,1.474609,-23.193359,55.114746,10.986328,-584.0,40.0,591.0,101.0,0.0,1021.099976,26.809999,0.080269,-65.114113,3.789844,0.0,1.0,1.0,11.0,0.0,0.0,0.0,6.0,0.0,0.027070333333333335,-0.23483726666666668,1.02540684,-6.118977893333333,5.6844075599999995,-7.217610639999999,6.643938116208767,-0.2552318977275324,-14.719808545334795,-5.635204915449327,13.458473596084172,-9.69475485983316,17.517828568856864,-1.4531265311098438,17.44340372151273,-1.4204327170227142,0.3271776666666667,-0.15236973333333334,0.44920216,0.9287495600000001,0.5762328884662703,0.7165471327454978,0.7367648625541221,0.7365845815820069
LBP08_S11,LBP08,126,127,11,126,126,1716497211.04,2024-05-23 20:46:51.040000+00:00,2024-05-24 05:46:51.040000+09:00,2024,5,23,20,46,51,40,,,,,,,,,-0.259521,-0.658203,1.820801,-19.836426,4.760742,11.779785,,,,,,,,,,,0.0,1.0,1.0,11.0,0.0,0.0,0.0,6.0,0.0,0.03463544,-0.23592776000000001,1.03154616,-5.259602893333333,3.854980466666667,-7.29899084,5.978517655926998,-0.08458594247849205,-13.59460422514156,-5.396064209212247,13.455090158385032,-10.238539028838822,17.747806669142722,-1.4214064891144547,17.69423541214639,-1.42433175132361,-0.29415644,-0.42227523999999994,0.7892548399999999,1.5056865199999998,0.9422141964404679,0.6992133850748613,0.7401319966934627,0.7407568922459831
LBP08_S11,LBP08,127,128,11,127,127,1716497211.08,2024-05-23 20:46:51.080000+00:00,2024-05-24 05:46:51.080000+09:00,2024,5,23,20,46,51,80,,,,,,,,,0.206055,-0.417725,1.765381,-19.836426,-7.873535,5.187988,,,,,,,,,,,0.0,1.0,1.0,11.0,0.0,0.0,0.0,6.0,0.0,0.040169293333333335,-0.23476238666666668,1.0399543733333334,-6.078287786666666,4.5255533733333335,-7.901204386666667,5.742612712156987,0.5011200996738981,-12.495391791854098,-5.166359700725967,13.475134962371987,-10.738354700512986,17.98840728039741,-1.397277957485409,17.974621950203108,-1.428297568193025,0.16588570666666666,-0.18296261333333333,0.7254266266666667,1.0742749466666668,0.7663140193360953,0.6968456677125893,0.7434086619880818,0.7389481672853683
LBP08_S11,LBP08,128,129,11,128,128,1716497211.12,2024-05-23 20:46:51.120000+00:00,2024-05-24 05:46:51.120000+09:00,2024,5,23,20,46,51,120,,,,,,,,,0.007324,-0.223145,0.811279,11.59668,175.964355,35.03418,,,,,,,,,,,0.0,1.0,1.0,11.0,0.0,0.0,0.0,6.0,0.0,0.03858401333333334,-0.24399089333333332,1.04923172,-5.515950546666667,5.979003893333333,-7.250976519999999,5.909401206539304,1.7460600817114125,-11.440878765692863,-4.9299836524643945,13.544977365640444,-11.1959898511407,18.251611967059887,-1.4099510629260343,18.300252458094242,-1.428081613291654,-0.03126001333333334,0.02084589333333331,-0.23795272000000012,0.29005862666666676,0.24090088554810948,0.6916766530745888,0.7330148255678809,0.7346553848784096
LBP08_S11,LBP08,129,130,11,129,129,1716497211.16,2024-05-23 20:46:51.160000+00:00,2024-05-24 05:46:51.160000+09:00,2024,5,23,20,46,51,160,,,,,,,,,-0.039551,-0.062012,0.074219,25.817871,-51.025391,-47.302246,,,,,,,,,,,0.0,1.0,1.0,11.0,0.0,0.0,0.0,6.0,0.0,0.030312533333333332,-0.23960286666666666,1.0553970933333332,-5.261230493333333,5.3124999866666665,-7.639973919999999,6.177177995915996,4.033192016563154,-10.32304333504414,-4.682896532627755,13.706305046302969,-11.608911584542465,18.5623044403256,-1.4418385850137359,18.68598492102127,-1.425321323399984,-0.06986353333333334,0.17759086666666668,-0.9811780933333332,1.2286324933333332,0.9995648453454486,0.7107314508108612,0.7303305116166251,0.7307231373824288
LBP08_S11,LBP08,130,131,11,130,130,1716497211.2,2024-05-23 20:46:51.200000+00:00,2024-05-24 05:46:51.200000+09:00,2024,5,23,20,46,51,200,,,,,,,,,0.275635,-0.058838,0.662109,65.551758,-102.661133,-67.321777,,,,,,,,,,,0.0,1.0,1.0,11.0,0.0,0.0,0.0,6.0,0.0,0.032897173333333335,-0.23444336000000002,1.0539517866666666,-4.549967466666666,5.323893213333333,-8.480631466666667,6.136929957153212,7.688828232693088,-8.994563165566491,-4.437419334341627,14.013858175610693,-11.968694111165124,18.955963442715284,-1.428092944023009,19.142530118710695,-1.4232477740662648,0.24273782666666668,0.17560536000000002,-0.3918427866666666,0.8101859733333333,0.4932541580344611,0.6952870297506614,0.7223289870185401,0.7254625231207984
LBP08_S11,LBP08,131,132,11,131,131,1716497211.24,2024-05-23 20:46:51.240000+00:00,2024-05-24 05:46:51.240000+09:00,2024,5,23,20,46,51,240,,,,,,,,,0.511719,-0.158447,1.200439,-42.785645,-42.114258,-6.591797,,,,,,,,,,,0.0,1.0,1.0,11.0,0.0,0.0,0.0,6.0,0.0,0.03138024,-0.23239258666666668,1.0422818666666667,-5.503743506666666,7.784016920000001,-8.051757773333334,5.465939678575375,12.685545733040488,-7.3917199420526,-4.218781747198611,14.521280004932313,-12.264362908847229,19.469984334150116,-1.4333835741054024,19.673158449913835,-1.419532831787256,0.48033876000000003,0.07394558666666667,0.15815713333333337,0.7124414800000001,0.511084095790539,0.6825429918350882,0.7252546562025564,0.7244052717185236
LBP08_S11,LBP08,132,133,11,132,132,1716497211.28,2024-05-23 20:46:51.280000+00:00,2024-05-24 05:46:51.280000+09:00,2024,5,23,20,46,51,280,,,,,,,,,0.016113,-0.278564,1.645508,-0.854492,64.880371,17.272949,,,,,,,,,,,0.0,1.0,1.0,11.0,0.0,0.0,0.0,6.0,0.0,0.029557319999999998,-0.22666991999999997,1.0306152,-2.9272461066666655,5.378417960000001,-9.146321573333333,4.062985546381208,18.43743195475694,-5.6032221319471835,-4.056262325343363,15.25877728312259,-12.488491794125116,20.130722180782993,-1.43812057410505,20.27140041227795,-1.4209066059109459,-0.01344432,-0.05189408000000001,0.6148928,0.6802312,0.617225162133843,0.6977920364926266,0.7169819349622623,0.7237260645003096
LBP08_S11,LBP08,133,134,11,133,133,1716497211.32,2024-05-23 20:46:51.320000+00:00,2024-05-24 05:46:51.320000+09:00,2024,5,23,20,46,51,320,,,,,,,,,-0.108398,-0.554443,1.984375,5.554199,-27.648926,-2.319336,,,,,,,,,,,0.0,1.0,1.0,11.0,0.0,0.0,0.0,6.0,0.0,0.03496746666666667,-0.22284504,1.0373860400000001,-1.2809244933333324,4.230143213333333,-9.000651,2.091344264072109,23.8508336180972,-3.8392353423401455,-3.972608554780479,16.21281062784648,-12.642061207818722,20.939402063243396,-1.411748838144204,20.920448822511247,-1.4228108803435529,-0.14336546666666666,-0.33159796,0.9469889599999999,1.4219523866666666,1.013557573337891,0.6836046529546972,0.7288236615290998,0.7263244380273147
LBP08_S11,LBP08,134,135,11,134,134,1716497211.36,2024-05-23 20:46:51.360000+00:00,2024-05-24 05:46:51.360000+09:00,2024,5,23,20,46,51,360,,,,,,,,,0.247314,-0.079834,1.695068,24.658203,87.82959,20.385742,,,,,,,,,,,0.0,1.0,1.0,11.0,0.0,0.0,0.0,6.0,0.0,0.03888348,-0.22719399999999998,1.0454817466666666,-2.7661133066666657,4.719238266666668,-8.797200479999999,-0.058861950046677755,27.64056239092638,-2.3298051956284445,-3.974963032782346,17.318433123483537,-12.73525341564386,21.861270240432656,-1.3975311846355027,21.594358292454075,-1.425287915611666,0.20843052,0.14736,0.6495862533333334,1.0053767733333334,0.6979402207833476,0.677347506368376,0.7317018288596767,0.7258022978725387
LBP08_S11,LBP08,135,136,11,135,135,1716497211.4,2024-05-23 20:46:51.400000+00:00,2024-05-24 05:46:51.400000+09:00,2024,5,23,20,46,51,400,,,,,,,,,-0.69458,0.487793,-0.137695,-8.239746,176.818848,27.34375,,,,,,,,,,,0.0,1.0,1.0,11.0,0.0,0.0,0.0,6.0,0.0,0.03488608,-0.22863605333333334,1.05070636,-2.0027669599999993,5.901692693333334,-8.623860626666666,-1.8673752066345135,28.76316998660213,-1.2257204861550908,-4.049658041047726,18.468959922947622,-12.784282235090064,22.82411188088832,-1.4159771083197576,22.26073132394259,-1.42063344902842,-0.72946608,0.7164290533333333,-1.1884013599999999,2.6342964933333333,1.56770186667635,0.7178125549207444,0.7477504960373577,0.7438226687036992
LBP08_S11,LBP08,136,137,11,136,136,1716497211.44,2024-05-23 20:46:51.440000+00:00,2024-05-24 05:46:51.440000+09:00,2024,5,23,20,46,51,440,,,,,,,,,-0.000488,-0.5354,0.337158,-23.803711,-38.635254,-29.541016,,,,,,,,,,,0.0,1.0,1.0,11.0,0.0,0.0,0.0,6.0,0.0,0.030761733333333333,-0.2306087066666667,1.0541178133333333,-1.667480506666666,5.0683593600000005,-9.138997346666667,-2.825635834609949,26.75745600811046,-0.5619391740202321,-4.162683474432124,19.53925816327204,-12.806759802050873,23.73022629278384,-1.4351442303513524,22.884549518008658,-1.4147558235155657,-0.03124973333333333,-0.3047912933333333,-0.7169598133333333,1.05300084,0.7796830460258697,0.7325438756547556,0.744609900721157,0.7375652700048546
LBP08_S11,LBP08,137,138,11,137,137,1716497211.48,2024-05-23 20:46:51.480000+00:00,2024-05-24 05:46:51.480000+09:00,2024,5,23,20,46,51,480,,,,,,,,,0.380127,0.188477,0.85498,66.40625,-65.124512,-47.790527,,,,,,,,,,,0.0,1.0,1.0,11.0,0.0,0.0,0.0,6.0,0.0,0.03447918666666666,-0.22637368,1.05161456,-1.743164106666666,5.6933593600000005,-8.955891880000001,-2.6056926740439685,21.847147703408645,-0.2927240135126798,-4.2669111813938825,20.413144071408386,-12.818468762591381,24.478891382730357,-1.4163207018114785,23.43281809828948,-1.4077170965616457,0.34564781333333333,0.41485068,-0.19663456,0.9571330533333334,0.5746639433138039,0.7244222866448731,0.7483113171254986,0.7320764470324915
LBP08_S11,LBP08,138,139,11,138,138,1716497211.52,2024-05-23 20:46:51.520000+00:00,2024-05-24 05:46:51.520000+09:00,2024,5,23,20,46,51,520,,,,,,,,,0.270508,-0.456299,1.273438,-76.171875,15.808105,17.63916,,,,,,,,,,,0.0,1.0,1.0,11.0,0.0,0.0,0.0,6.0,0.0,0.02979494666666667,-0.22248696,1.0348469866666667,-1.149088586666666,7.388509093333334,-8.50016272,-1.219392123637843,14.808885158338928,-0.35682218239144137,-4.315686866339396,21.005499477741942,-12.832741649887039,24.99070666648818,-1.4347214156071695,23.87954840998866,-1.4014383088393385,0.24071305333333337,-0.23381204,0.23859101333333332,0.7131161066666667,0.4117481217169601,0.7084403903358654,0.7310763471287968,0.7290616650801481
LBP08_S11,LBP08,139,140,11,139,139,1716497211.56,2024-05-23 20:46:51.560000+00:00,2024-05-24 05:46:51.560000+09:00,2024,5,23,20,46,51,560,,,,,,,,,-0.415283,-0.269043,1.655273,-44.433594,26.550293,19.104004,,,,,,,,,,,0.0,1.0,1.0,11.0,0.0,0.0,0.0,6.0,0.0,0.03835289333333334,-0.22098630666666666,1.0373079333333335,0.03906245333333383,4.3041992,-9.479166626666666,0.8889737078798878,6.732165452833871,-0.7176260925703242,-4.280127918024201,21.274786095855298,-12.861446693589851,25.22603475521076,-1.3952939191812752,24.210473486503467,-1.3962034634728415,-0.4536358933333334,-0.04805669333333332,0.6179650666666665,1.1196576533333333,0.7680988172851219,0.7330916174031112,0.7301216760944368,0.7341106843019788
LBP08_S11,LBP08,140,141,11,140,140,1716497211.6,2024-05-23 20:46:51.600000+00:00,2024-05-24 05:46:51.600000+09:00,2024,5,23,20,46,51,600,,,,,,,,,-0.120605,-0.442871,1.741699,23.620605,-47.302246,-7.446289,,,,,,,,,,,0.0,1.0,1.0,11.0,0.0,0.0,0.0,6.0,0.0,0.043886746666666664,-0.21940752,1.0392578133333334,0.9960937066666672,3.1062825333333337,-9.597167933333333,2.879304438340802,-1.1963708512814062,-1.3565146045466723,-4.164955740490568,21.22693126180404,-12.915707277771718,25.19414538337596,-1.3693166888944652,24.42681973584734,-1.39115871377271,-0.16449174666666666,-0.22346348000000002,0.7024411866666667,1.0903964133333335,0.7552596125444787,0.7146179830373818,0.7330628210897242,0.7389881531452793
LBP08_S11,LBP08,141,142,11,141,141,1716497211.64,2024-05-23 20:46:51.640000+00:00,2024-05-24 05:46:51.640000+09:00,2024,5,23,20,46,51,640,,,,,,,,,0.103271,-0.30127,0.930176,21.484375,120.788574,31.982422,,,,,,,,,,,0.0,1.0,1.0,11.0,0.0,0.0,0.0,6.0,0.0,0.045410186666666665,-0.21992834666666664,1.0398763066666667,1.0294596000000005,3.059082000000001,-9.560546839999999,3.714067058443466,-7.8426580746269385,-2.243209284892656,-4.01639305815283,20.913224938818963,-13.005435649167424,24.952670136958343,-1.3629963045662012,24.54725539207062,-1.3868937965139019,0.05786081333333334,-0.08134165333333335,-0.10970030666666675,0.24890277333333344,0.14831889822054287,0.6865380235452504,0.7220156145717411,0.7328879154854796
LBP08_S11,LBP08,142,143,11,142,142,1716497211.68,2024-05-23 20:46:51.680000+00:00,2024-05-24 05:46:51.680000+09:00,2024,5,23,20,46,51,680,,,,,,,,,-0.373047,0.25708,-0.224365,13.061523,-4.760742,-20.446777,,,,,,,,,,,0.0,1.0,1.0,11.0,0.0,0.0,0.0,6.0,0.0,0.042721386666666666,-0.22037106666666664,1.0408854266666667,1.6886392933333338,3.3064778400000003,-9.65738928,2.4790866312561306,-12.252862380627231,-3.3214125745425225,-3.9172295929025847,20.423110443593874,-13.138292152149125,24.598025297774782,-1.3753326968819777,24.606964679172684,-1.3784602463806384,-0.4157683866666667,0.4774510666666666,-1.2652504266666666,2.15846988,1.4148079426525435,0.7234678251922882,0.7298652424290758,0.7452947547511445
LBP08_S11,LBP08,143,144,11,143,143,1716497211.72,2024-05-23 20:46:51.720000+00:00,2024-05-24 05:46:51.720000+09:00,2024,5,23,20,46,51,720,,,,,,,,,-0.071045,0.19873,0.146973,32.104492,-96.984863,-46.142578,,,,,,,,,,,0.0,1.0,1.0,11.0,0.0,0.0,0.0,6.0,0.0,0.04622398666666667,-0.21992510666666665,1.04172528,1.9099934533333336,3.323567693333334,-9.996744746666666,-1.2849972818792,-13.809909945544224,-4.523426982912866,-3.9686294841777525,19.870714045772104,-13.31922923146564,24.24865282839149,-1.3594003844792333,24.65327467865536,-1.3697397862222083,-0.11726898666666666,0.4186551066666666,-0.8947522800000001,1.4306763733333332,0.9947893023837275,0.7458309012960029,0.7327960785740953,0.7434738222873786
LBP08_S11,LBP08,144,145,11,144,144,1716497211.76,2024-05-23 20:46:51.760000+00:00,2024-05-24 05:46:51.760000+09:00,2024,5,23,20,46,51,760,,,,,,,,,0.517822,-0.388916,1.009277,7.69043,-98.876953,-11.108398,,,,,,,,,,,0.0,1.0,1.0,11.0,0.0,0.0,0.0,6.0,0.0,0.049427120000000005,-0.22188148,1.0399121333333332,0.6070963200000004,4.895019520000001,-9.53206376,-7.372757964076548,-12.397849575145584,-5.791993370191348,-4.263539802740814,19.37480006276628,-13.550908966273294,24.024732733871346,-1.34708368763419,24.73857039639268,-1.3591537299748415,0.46839488,-0.16703452,-0.03063513333333323,0.6660645333333333,0.4982296718143109,0.7351013559374658,0.7395351334545641,0.7391770641321979
LBP08_S11,LBP08,145,146,11,145,145,1716497211.8,2024-05-23 20:46:51.800000+00:00,2024-05-24 05:46:51.800000+09:00,2024,5,23,20,46,51,800,,,,,,,,,0.329834,-0.04834,1.337402,9.033203,27.587891,27.404785,,,,,,,,,,,0.0,1.0,1.0,11.0,0.0,0.0,0.0,6.0,0.0,0.04340173333333333,-0.22167965333333337,1.03190432,1.257324186666667,5.323079426666666,-9.296061146666666,-14.91462124239031,-8.471172987824763,-7.076748168840792,-4.8601246524364266,19.035953143253288,-13.833978893026925,24.02846844312116,-1.3733279357316757,24.912468985760963,-1.3533319497806238,0.28643226666666666,0.17333965333333337,0.30549768,0.7652696,0.45323163094703245,0.7221932231878694,0.7254414423578068,0.7386760302773308
LBP08_S11,LBP08,146,147,11,146,146,1716497211.84,2024-05-23 20:46:51.840000+00:00,2024-05-24 05:46:51.840000+09:00,2024,5,23,20,46,51,840,,,,,,,,,-0.16626,-0.154785,1.736572,-74.523926,16.967773,10.742188,,,,,,,,,,,0.0,1.0,1.0,11.0,0.0,0.0,0.0,6.0,0.0,0.04911137333333333,-0.22448564,1.0351790533333332,2.303873666666667,4.134114586666667,-9.36604812,-22.595834985968825,-2.929511161215122,-8.300288475167363,-5.763958051875179,18.918772696804684,-14.16599043203362,24.32731916380445,-1.3508087290187165,25.215300991450327,-1.3493198352773554,-0.21537137333333334,0.06970063999999998,0.7013929466666668,0.9864649600000002,0.7370176885948162,0.750512374792307,0.726940413502048,0.7416322671631241
LBP08_S11,LBP08,147,148,11,147,147,1716497211.88,2024-05-23 20:46:51.880000+00:00,2024-05-24 05:46:51.880000+09:00,2024,5,23,20,46,51,880,,,,,,,,,0.111084,-0.453125,1.794922,-64.819336,-9.155273,-15.563965,,,,,,,,,,,0.0,1.0,1.0,11.0,0.0,0.0,0.0,6.0,0.0,0.05351568,-0.22171546666666667,1.0369856933333332,3.7304687200000006,3.3414713600000003,-9.531249946666668,-29.014398335814167,3.1916413175694,-9.32904632110305,-6.924533985307746,19.04643834950746,-14.539152284877742,24.94199137755717,-1.3291161002271792,25.673961042221748,-1.3448572982011964,0.05756832,-0.23140953333333333,0.7579363066666667,1.04691416,0.7945639864407906,0.728656642439296,0.7339160671594844,0.7443943858028658
LBP08_S11,LBP08,148,149,11,148,148,1716497211.92,2024-05-23 20:46:51.920000+00:00,2024-05-24 05:46:51.920000+09:00,2024,5,23,20,46,51,920,,,,,,,,,0.00293,-0.35498,0.875488,-54.382324,171.325684,2.01416,,,,,,,,,,,0.0,1.0,1.0,11.0,0.0,0.0,0.0,6.0,0.0,0.05434576,-0.22502601333333336,1.03916668,2.978515586666667,3.465983080000001,-9.42464188,-33.042622106869715,9.073601889305545,-9.99339671096899,-8.246238869582534,19.409382425079684,-14.938888153316501,25.843663843861343,-1.3288608531335,26.300144403528314,-1.3411807055370866,-0.05141576,-0.12995398666666666,-0.16367867999999985,0.3450484266666665,0.2152262282192394,0.7003005744064117,0.7256786445700112,0.7349759888773167
LBP08_S11,LBP08,149,150,11,149,149,1716497211.96,2024-05-23 20:46:51.960000+00:00,2024-05-24 05:46:51.960000+09:00,2024,5,23,20,46,51,960,,,,,,,,,-0.267822,0.041016,-0.005127,-2.624512,-0.183105,-32.836914,,,,,,,,,,,0.0,1.0,1.0,11.0,0.0,0.0,0.0,6.0,0.0,0.05239914666666667,-0.22488604,1.0415918133333333,3.2706705333333335,3.8159179866666673,-9.32942704,-34.066295030676606,14.32454225882679,-10.167180086048633,-9.608890670809599,19.982364115432755,-15.345575356758447,26.965020648893606,-1.3370761172390988,27.090481256248854,-1.3369940421322908,-0.3202211466666667,0.26590204,-1.0467188133333334,1.6328420000000001,1.1264394132995428,0.7239227286140643,0.7270538212493962,0.7427798559311628
LBP08_S11,LBP08,150,151,11,150,150,1716497212.0,2024-05-23 20:46:52+00:00,2024-05-24 05:46:52+09:00,2024,5,23,20,46,52,0,20.0,46.0,50.0,40.792839,141.624496,-4.364,3.0,14.0,0.246582,-0.074219,0.64209,0.244141,-91.369629,-33.081055,-588.0,49.0,581.0,100.0,0.0,1021.099976,26.84,0.080269,-65.114113,3.789844,0.0,1.0,1.0,11.0,0.0,0.0,0.0,5.0,0.0,0.054293680000000004,-0.22510414666666667,1.0429394666666667,4.1251627200000005,3.6555989866666674,-9.720052039999999,-32.049339897879186,18.93562086981389,-9.868704745602667,-10.890864266724765,20.73978895022531,-15.740323546582554,28.22246544026959,-1.329195543861782,28.02801677690534,-1.3328058493567145,0.19228831999999998,0.1508851466666667,-0.40084946666666665,0.7440229333333334,0.46949059673224025,0.719653036944703,0.7181000848451005,0.7310609206843158
LBP08_S11,LBP08,151,152,11,151,151,1716497212.04,2024-05-23 20:46:52.040000+00:00,2024-05-24 05:46:52.040000+09:00,2024,5,23,20,46,52,40,,,,,,,,,0.396973,-0.029541,1.115234,-17.700195,-23.803711,-25.32959,,,,,,,,,,,0.0,1.0,1.0,11.0,0.0,0.0,0.0,5.0,0.0,0.05560878666666666,-0.22006508000000002,1.0392122533333332,3.8883463200000006,4.538574253333334,-9.427897093333332,-27.459413283815795,23.02747062270477,-9.319849245966745,-11.989240798077397,21.660887775133503,-16.113117516421223,29.539270644672527,-1.3183709338046117,29.084669193367414,-1.3259358752421133,0.34136421333333333,0.19052408,0.07602174666666683,0.6079100400000002,0.39825652181826576,0.6978947299598148,0.6985540575173381,0.7260529077822467
LBP08_S11,LBP08,152,153,11,152,152,1716497212.08,2024-05-23 20:46:52.080000+00:00,2024-05-24 05:46:52.080000+09:00,2024,5,23,20,46,52,80,,,,,,,,,0.02417,-0.550537,1.783203,-50.964355,44.921875,15.625,,,,,,,,,,,0.0,1.0,1.0,11.0,0.0,0.0,0.0,5.0,0.0,0.051194720000000006,-0.22111,1.0322656399999999,4.495442666666667,4.885253946666667,-9.28059892,-21.12830043077412,26.56669220064954,-8.91363269790999,-12.834372815308361,22.723555463159485,-16.46966282433762,30.859858910840472,-1.3385667702408786,30.224616760790276,-1.321969012640769,-0.027024720000000006,-0.329427,0.7509373600000002,1.1073890800000004,0.8204629196154135,0.7000606859709876,0.6984531768417884,0.7289593366490503
LBP08_S11,LBP08,153,154,11,153,153,1716497212.12,2024-05-23 20:46:52.120000+00:00,2024-05-24 05:46:52.120000+09:00,2024,5,23,20,46,52,120,,,,,,,,,-0.178223,-0.335693,1.957764,-48.339844,3.90625,-15.197754,,,,,,,,,,,0.0,1.0,1.0,11.0,0.0,0.0,0.0,5.0,0.0,0.05550135999999999,-0.21888343999999998,1.03321616,5.269368453333334,3.9957682666666674,-9.32698564,-14.09412471966175,29.24245263424586,-9.087087029678775,-13.398137804094832,23.89325356852932,-16.83314630552477,32.15202135559686,-1.3175337504312756,31.40863397831044,-1.3182854711789789,-0.23372436,-0.11680956000000003,0.92454784,1.27508176,0.9607602501214696,0.728855060553922,0.7102658568142555,0.7316282372298946
LBP08_S11,LBP08,154,155,11,154,154,1716497212.16,2024-05-23 20:46:52.160000+00:00,2024-05-24 05:46:52.160000+09:00,2024,5,23,20,46,52,160,,,,,,,,,0.014648,-0.378174,2.066406,-9.82666,26.855469,8.911133,,,,,,,,,,,0.0,1.0,1.0,11.0,0.0,0.0,0.0,5.0,0.0,0.05816086666666666,-0.2181738,1.0339062666666667,5.469563773333333,3.5009766000000004,-9.163411413333334,-7.424792481621168,30.57270049222728,-10.149683892506948,-13.695129503359679,25.11616158821841,-17.23913366122505,33.40008794043623,-1.305201759878426,32.598843036628296,-1.3141399370402693,-0.04351286666666666,-0.1600002,1.0324997333333334,1.2360128000000001,1.0457289959157658,0.7307016265767347,0.7207165386937979,0.7304542166033283
LBP08_S11,LBP08,155,156,11,155,155,1716497212.2,2024-05-23 20:46:52.200000+00:00,2024-05-24 05:46:52.200000+09:00,2024,5,23,20,46,52,200,,,,,,,,,-0.000244,-0.596191,1.235107,8.728027,216.61377,41.870117,,,,,,,,,,,0.0,1.0,1.0,11.0,0.0,0.0,0.0,5.0,0.0,0.05847661333333334,-0.21890622666666662,1.0319987199999998,5.13183592,2.9736328533333336,-8.684081986666667,-2.012135507449157,30.15651021637996,-12.146956229019203,-13.775614923657646,26.322421996873608,-17.72501191038582,34.594992607741865,-1.3046281945856664,33.762643520905286,-1.3092603853906715,-0.05872061333333334,-0.37728477333333343,0.20310828000000014,0.6391136666666669,0.4324868599437284,0.7282709346531054,0.7117789822018834,0.724309636230062
LBP08_S11,LBP08,156,157,11,156,156,1716497212.24,2024-05-23 20:46:52.240000+00:00,2024-05-24 05:46:52.240000+09:00,2024,5,23,20,46,52,240,,,,,,,,,-0.025146,0.063232,0.175781,87.341309,-37.17041,-43.151855,,,,,,,,,,,0.0,1.0,1.0,11.0,0.0,0.0,0.0,5.0,0.0,0.05614913333333333,-0.21563474666666665,1.0287370133333333,5.843912733333334,2.779134160000001,-8.729654906666667,1.631838140086578,27.904521686077622,-14.827675400550149,-13.710341398054183,27.438602864316714,-18.318118926407827,35.72679483803309,-1.3111401030052734,34.87469662681746,-1.3048597032250029,-0.08129513333333332,0.27886674666666666,-0.8529560133333334,1.2131178933333333,0.9010602209517569,0.743869979659554,0.713206485747321,0.7314597640215555
LBP08_S11,LBP08,157,158,11,157,157,1716497212.28,2024-05-23 20:46:52.280000+00:00,2024-05-24 05:46:52.280000+09:00,2024,5,23,20,46,52,280,,,,,,,,,0.274658,0.007324,0.911621,19.53125,-52.429199,-53.527832,,,,,,,,,,,0.0,1.0,1.0,11.0,0.0,0.0,0.0,5.0,0.0,0.06027998666666667,-0.21499672,1.0283170799999999,5.678710906666667,2.6049805066666676,-8.648274693333333,3.4953678615864456,24.10704744190303,-17.73370046857334,-13.570526683590725,28.402884761992834,-19.02746694515076,36.78216355275879,-1.2922806856092761,35.91682653438737,-1.301840086480792,0.21437801333333334,0.22232072,-0.11669607999999987,0.5533948133333332,0.33015513055142975,0.7323871783962574,0.715089607444442,0.7221170161069274
LBP08_S11,LBP08,158,159,11,158,158,1716497212.32,2024-05-23 20:46:52.320000+00:00,2024-05-24 05:46:52.320000+09:00,2024,5,23,20,46,52,320,,,,,,,,,0.371094,-0.398438,1.622803,-67.382812,24.169922,-34.057617,,,,,,,,,,,0.0,1.0,1.0,11.0,0.0,0.0,0.0,5.0,0.0,0.061250040000000006,-0.21448565333333336,1.0253288,5.063476533333334,3.0419922266666672,-8.244628866666666,4.027491683441126,19.31958143240629,-20.366272128042553,-13.40942701625308,29.175668019289084,-19.84211783027246,37.7457544270399,-1.2874055117464045,36.87663316178582,-1.2973221946626332,0.30984396,-0.18395234666666666,0.5974742,1.0912705066666666,0.697722842580272,0.7197537891659528,0.7016792210603249,0.7258003707413841
LBP08_S11,LBP08,159,160,11,159,159,1716497212.36,2024-05-23 20:46:52.360000+00:00,2024-05-24 05:46:52.360000+09:00,2024,5,23,20,46,52,360,,,,,,,,,-0.321289,-0.37207,1.928223,-9.277344,8.422852,-22.399902,,,,,,,,,,,0.0,1.0,1.0,11.0,0.0,0.0,0.0,5.0,0.0,0.060918013333333326,-0.21402016,1.02344404,5.0105794,3.020833373333334,-8.07698564,3.9394972601756426,14.167838208822397,-22.341730586485305,-13.251847125846053,29.74238154764198,-20.735787053731872,38.60302549166351,-1.2882806007431198,37.74583589404745,-1.2944171431104479,-0.3822070133333333,-0.15804984000000002,0.90477896,1.4450358133333334,0.9948300957570062,0.7316293841648991,0.7044884452666377,0.7316776806280842
LBP08_S11,LBP08,160,161,11,160,160,1716497212.4,2024-05-23 20:46:52.400000+00:00,2024-05-24 05:46:52.400000+09:00,2024,5,23,20,46,52,400,,,,,,,,,-0.205811,-0.543213,2.012939,-11.779785,-47.912598,-31.982422,,,,,,,,,,,0.0,1.0,1.0,11.0,0.0,0.0,0.0,5.0,0.0,0.06129237333333332,-0.21281573333333334,1.0239876666666665,4.347330706666668,2.949218786666667,-8.024088506666665,3.942616097798745,9.199848323417589,-23.465600061340567,-13.094142481934103,30.110375480578682,-21.674411056185495,39.34299649939137,-1.285188722205098,38.519043366736085,-1.2910393033414862,-0.26710337333333334,-0.3303972666666666,0.9889513333333333,1.5864519733333333,1.0763509212002507,0.7119753463458552,0.7148939506332997,0.7358254461401902
LBP08_S11,LBP08,161,162,11,161,161,1716497212.44,2024-05-23 20:46:52.440000+00:00,2024-05-24 05:46:52.440000+09:00,2024,5,23,20,46,52,440,,,,,,,,,0.239258,-0.549805,1.313232,-18.127441,153.930664,38.94043,,,,,,,,,,,0.0,1.0,1.0,11.0,0.0,0.0,0.0,5.0,0.0,0.06163092,-0.21652342666666669,1.0250683999999999,4.736328106666667,3.0818685200000004,-7.451985639999999,4.548506228274144,4.8364622934454005,-23.714548692661598,-12.912202232803137,30.303833972316497,-22.62299300389196,39.96056972037154,-1.2881747663625012,39.19319278095366,-1.2891324118626704,0.17762708,-0.3332815733333333,0.2881636000000001,0.7990722533333334,0.4750434159504039,0.6997897611428365,0.7161668183987961,0.7296698541950501
LBP08_S11,LBP08,162,163,11,162,162,1716497212.48,2024-05-23 20:46:52.480000+00:00,2024-05-24 05:46:52.480000+09:00,2024,5,23,20,46,52,480,,,,,,,,,-0.360596,-0.078857,-0.028564,45.654297,3.295898,-21.789551,,,,,,,,,,,0.0,1.0,1.0,11.0,0.0,0.0,0.0,5.0,0.0,0.05944992,-0.2129134,1.02051436,5.813802066666667,2.7408854400000005,-7.3079426666666665,6.003550232503337,1.3770494967675961,-23.173222755538955,-12.672060223503005,30.3589159521872,-23.54992191411352,40.45792518482501,-1.2933878520592903,39.76755004129262,-1.2862965323247413,-0.42004592,0.13405640000000002,-1.04907836,1.60318068,1.1379697266227675,0.722321992475195,0.723372139560034,0.7396482089087307
LBP08_S11,LBP08,163,164,11,163,163,1716497212.52,2024-05-23 20:46:52.520000+00:00,2024-05-24 05:46:52.520000+09:00,2024,5,23,20,46,52,520,,,,,,,,,0.119385,-0.010254,0.284668,77.697754,-79.89502,-46.569824,,,,,,,,,,,0.0,1.0,1.0,11.0,0.0,0.0,0.0,5.0,0.0,0.060127,-0.21137042666666667,1.0146777733333334,6.284993466666666,1.888020853333334,-7.354329386666665,8.335305222262841,-1.014833248341301,-21.98582983689356,-12.338648014612492,30.318322622253547,-24.42935510758926,40.8440486782132,-1.2884832349094235,40.243976606825626,-1.2887771145642746,0.059258000000000005,0.20111642666666668,-0.7300097733333335,0.9903842000000002,0.7595219528106832,0.7362329457189439,0.7223366680274047,0.7327952133255125
LBP08_S11,LBP08,164,165,11,164,164,1716497212.56,2024-05-23 20:46:52.560000+00:00,2024-05-24 05:46:52.560000+09:00,2024,5,23,20,46,52,560,,,,,,,,,0.389893,0.058594,0.813721,-10.131836,-63.537598,-74.157715,,,,,,,,,,,0.0,1.0,1.0,11.0,0.0,0.0,0.0,5.0,0.0,0.06280928,-0.20733397333333334,1.0108236,6.38102212,2.234700546666667,-7.2281900666666665,11.428010559503537,-2.3672065843065804,-20.34458113430705,-11.88152759223235,30.223634358881284,-25.24313835296154,41.13216266732259,-1.2714233621888111,40.627148055142506,-1.2941839964988322,0.32708371999999997,0.26592797333333335,-0.1971025999999999,0.7901142933333333,0.4653502786256525,0.7241230041725651,0.7286073107878381,0.7281221187871463
LBP08_S11,LBP08,165,166,11,165,165,1716497212.6,2024-05-23 20:46:52.600000+00:00,2024-05-24 05:46:52.600000+09:00,2024,5,23,20,46,52,600,,,,,,,,,0.249268,-0.493408,1.409424,-29.785156,29.418945,7.080078,,,,,,,,,,,0.0,1.0,1.0,11.0,0.0,0.0,0.0,5.0,0.0,0.05951499999999999,-0.20681638666666666,1.0097005466666666,6.760253893333333,2.274576853333334,-7.2045898,15.0544883346187,-2.933626693769056,-18.485235758833152,-11.279348058847603,30.106289291130523,-25.982547783314867,41.33648674991756,-1.2855592797975062,40.92446575171327,-1.3001621574386248,0.189753,-0.2865916133333334,0.39972345333333337,0.8760680666666667,0.5271809869359179,0.7149998591482227,0.7148089210928024,0.7270418337758904
LBP08_S11,LBP08,166,167,11,166,166,1716497212.64,2024-05-23 20:46:52.640000+00:00,2024-05-24 05:46:52.640000+09:00,2024,5,23,20,46,52,640,,,,,,,,,-0.320068,-0.422363,1.813477,0.915527,2.807617,-2.685547,,,,,,,,,,,0.0,1.0,1.0,11.0,0.0,0.0,0.0,5.0,0.0,0.06054365333333333,-0.20825518666666668,1.0146224266666666,6.521809880000001,1.276041706666667,-7.221679653333332,18.86339758715821,-3.12362397304334,-16.646996966032802,-10.524812155361275,29.98134433220879,-26.64842766195618,41.470367441422795,-1.2827813076259813,41.14547340118035,-1.3038984221758558,-0.38061165333333336,-0.2141078133333333,0.7988545733333334,1.39357404,0.9104262824188992,0.7454841545161571,0.7160110890307039,0.7298384612198797
LBP08_S11,LBP08,167,168,11,167,167,1716497212.68,2024-05-23 20:46:52.680000+00:00,2024-05-24 05:46:52.680000+09:00,2024,5,23,20,46,52,680,,,,,,,,,-0.024902,-0.348389,1.71167,-8.605957,-0.488281,-6.774902,,,,,,,,,,,0.0,1.0,1.0,11.0,0.0,0.0,0.0,5.0,0.0,0.052073600000000005,-0.20462237333333333,1.0115657866666667,6.058756493333334,3.195800826666667,-6.625976533333333,22.390014793463475,-3.326698921475765,-14.99433541914458,-9.629211563622736,29.84827637534976,-27.248201078721962,41.54642920808879,-1.3170865080046092,41.300743577435334,-1.3082624739047042,-0.0769756,-0.14376662666666667,0.7001042133333333,0.9208464399999999,0.7188462947428735,0.7176456885997703,0.7205567568960292,0.7257920578193072
LBP08_S11,LBP08,168,169,11,168,168,1716497212.72,2024-05-23 20:46:52.720000+00:00,2024-05-24 05:46:52.720000+09:00,2024,5,23,20,46,52,720,,,,,,,,,0.030273,-0.375977,0.88501,0.427246,139.648438,27.893066,,,,,,,,,,,0.0,1.0,1.0,11.0,0.0,0.0,0.0,5.0,0.0,0.04787764,-0.20925128,1.0070182666666667,5.314941386666667,3.5213216666666667,-5.865071586666667,25.158749769396113,-3.7283000572612517,-13.548977510816483,-8.62286157284689,29.69914437305931,-27.790160179154622,41.5774689102087,-1.3414743310919826,41.40049376950854,-1.3142469811313728,-0.017604639999999998,-0.16672572,-0.12200826666666675,0.3063386266666668,0.2073485138457772,0.6861480570582522,0.7159894791771275,0.7172467380688143
LBP08_S11,LBP08,169,170,11,169,169,1716497212.76,2024-05-23 20:46:52.760000+00:00,2024-05-24 05:46:52.760000+09:00,2024,5,23,20,46,52,760,,,,,,,,,-0.025391,0.270264,-0.017334,172.668457,-32.470703,-26.733398,,,,,,,,,,,0.0,1.0,1.0,11.0,0.0,0.0,0.0,5.0,0.0,0.04546226666666667,-0.20466794666666668,1.0006478266666667,7.076009106666667,3.037109426666667,-6.70003252,26.869405946425626,-4.247838195834168,-12.18992197560667,-7.548085334989866,29.529230845225943,-28.27775705817889,41.57620245737119,-1.3480622101410467,41.45347966824603,-1.3156823976378031,-0.07085326666666666,0.4749319466666667,-1.0179818266666667,1.56376704,1.125552103985209,0.7112409543450882,0.723171155141277,0.7301037404180721
LBP08_S11,LBP08,170,171,11,170,170,1716497212.8,2024-05-23 20:46:52.800000+00:00,2024-05-24 05:46:52.800000+09:00,2024,5,23,20,46,52,800,,,,,,,,,0.195312,0.124268,0.361084,64.51416,-118.713379,-46.264648,,,,,,,,,,,0.0,1.0,1.0,11.0,0.0,0.0,0.0,5.0,0.0,0.050813826666666666,-0.20438800000000001,0.9951985999999999,6.8937174400000005,2.391764373333334,-6.867675746666667,27.564730869766667,-4.658555263052935,-10.73825505222498,-6.445496100199199,29.342888634703826,-28.707287260267886,41.5530729940621,-1.3225513695774072,41.46671499122397,-1.3202043071944987,0.14449817333333334,0.328656,-0.6341146,1.1072687733333333,0.7286945960866116,0.7222594729506713,0.7222263480692703,0.7243807858887616
LBP08_S11,LBP08,171,172,11,171,171,1716497212.84,2024-05-23 20:46:52.840000+00:00,2024-05-24 05:46:52.840000+09:00,2024,5,23,20,46,52,840,,,,,,,,,0.544922,-0.301514,1.023926,-46.325684,-82.214355,-40.649414,,,,,,,,,,,0.0,1.0,1.0,11.0,0.0,0.0,0.0,5.0,0.0,0.048199893333333334,-0.20165037333333333,0.9910319333333333,6.789550773333333,3.00944016,-6.695149706666666,27.64631126555481,-4.814635777048615,-9.082798579359366,-5.339643649577006,29.15030320362188,-29.07059920344226,41.51327148292139,-1.3318152836509836,41.44615969651549,-1.32567773584998,0.49672210666666666,-0.09986362666666668,0.03289406666666661,0.6294797999999999,0.5077278944516067,0.7130878811849429,0.7318001279886249,0.7223229027296796
LBP08_S11,LBP08,172,173,11,172,172,1716497212.88,2024-05-23 20:46:52.880000+00:00,2024-05-24 05:46:52.880000+09:00,2024,5,23,20,46,52,880,,,,,,,,,0.173584,-0.297363,1.501953,-4.211426,46.142578,3.78418,,,,,,,,,,,0.0,1.0,1.0,11.0,0.0,0.0,0.0,5.0,0.0,0.04494469333333333,-0.20749021333333334,0.9930794666666666,6.483561186666667,1.3663737466666668,-6.949055959999999,27.685682088251163,-4.812418103345705,-7.2676422440256285,-4.232216366046959,28.957806479488053,-29.361304893203286,41.45542710555711,-1.3532329243259755,41.39792335928842,-1.3297598420648877,0.12863930666666668,-0.08987278666666665,0.5088735333333335,0.7273856266666668,0.5325199169327511,0.7026061184046213,0.7156313804219587,0.72347941757453
LBP08_S11,LBP08,173,174,11,173,173,1716497212.92,2024-05-23 20:46:52.920000+00:00,2024-05-24 05:46:52.920000+09:00,2024,5,23,20,46,52,920,,,,,,,,,-0.248047,-0.596191,1.814697,10.131836,12.817383,2.197266,,,,,,,,,,,0.0,1.0,1.0,11.0,0.0,0.0,0.0,5.0,0.0,0.05844078666666666,-0.21735349333333337,1.0107845466666667,6.265462226666667,0.5794271333333336,-7.033691373333332,28.118974342351148,-4.9487521716439105,-5.483521996339133,-3.107457392352913,28.759856392622297,-29.58064577305685,41.373907665588135,-1.3028373999737286,41.32917990797229,-1.3256412739217187,-0.30648778666666665,-0.37883750666666666,0.8039124533333333,1.4892377466666666,0.9400680041665431,0.7315997894425135,0.7159501819244626,0.727652359527512
LBP08_S11,LBP08,174,175,11,174,174,1716497212.96,2024-05-23 20:46:52.960000+00:00,2024-05-24 05:46:52.960000+09:00,2024,5,23,20,46,52,960,,,,,,,,,0.020264,-0.385742,1.691162,-1.953125,16.845703,19.897461,,,,,,,,,,,0.0,1.0,1.0,11.0,0.0,0.0,0.0,5.0,0.0,0.05301434666666666,-0.20812498666666668,1.0045768666666668,6.256510400000001,1.3525391200000003,-6.78141272,28.999975752081774,-5.495640677491809,-3.969868509573488,-1.947458362269642,28.540030765522623,-29.739440513439792,41.26451589710191,-1.3166424577557658,41.24818183831261,-1.3201780580609936,-0.032750346666666666,-0.1776170133333333,0.6865851333333333,0.8969524933333333,0.7099433315037134,0.7149399461706802,0.7194313373923723,0.7230158628898242
LBP08_S11,LBP08,175,176,11,175,175,1716497213.0,2024-05-23 20:46:53+00:00,2024-05-24 05:46:53+09:00,2024,5,23,20,46,53,0,20.0,46.0,51.0,40.792755,141.624481,-2.979,3.0,14.0,-0.081787,-0.306885,0.542969,10.437012,145.019531,44.677734,-586.0,54.0,582.0,103.0,0.0,1021.900024,26.870001,0.088197,-71.727585,3.789844,0.0,1.0,1.0,11.0,0.0,0.0,0.0,5.0,0.0,0.04932293333333333,-0.21473957333333332,0.9963704933333334,6.186523426666667,0.9643555333333336,-6.6609700133333325,29.952247702014837,-6.456947382360028,-2.89467798145517,-0.7493684541890484,28.28175287022822,-29.855227632698,41.13093380283276,-1.3402935663523199,41.163384543739305,-1.3139192911864332,-0.13110993333333332,-0.0921454266666667,-0.45340149333333335,0.6766568533333334,0.4808882494209542,0.715395852278229,0.7175244446114659,0.7171986739894766
LBP08_S11,LBP08,176,177,11,176,176,1716497213.04,2024-05-23 20:46:53.040000+00:00,2024-05-24 05:46:53.040000+09:00,2024,5,23,20,46,53,40,,,,,,,,,0.015381,0.099854,0.006104,104.736328,-44.86084,-26.611328,,,,,,,,,,,0.0,1.0,1.0,11.0,0.0,0.0,0.0,5.0,0.0,0.05067709333333333,-0.20479490666666667,0.9906673600000001,7.701822906666666,-0.2693684133333331,-7.545572879999998,30.34469661279182,-7.496538176105216,-2.290861434598896,0.46441941032262446,27.981891343184014,-29.946862090081957,40.98800406915209,-1.323602369775059,41.08227140165112,-1.3091396105433604,-0.035296093333333334,0.30464890666666666,-0.9845633600000001,1.32450836,1.031223438636012,0.7407145289509388,0.7193046294553769,0.712607547995205
LBP08_S11,LBP08,177,178,11,177,177,1716497213.08,2024-05-23 20:46:53.080000+00:00,2024-05-24 05:46:53.080000+09:00,2024,5,23,20,46,53,80,,,,,,,,,0.2229,0.032227,0.37793,84.411621,-139.953613,-49.438477,,,,,,,,,,,0.0,1.0,1.0,11.0,0.0,0.0,0.0,5.0,0.0,0.06242838666666666,-0.20968097333333333,0.9883008266666667,7.8857421866666675,-0.23437491999999982,-7.657877573333332,29.595913342206003,-8.112934372613594,-2.082387548586234,1.6482559440108646,27.65737396827947,-30.030157592025407,40.85899469492747,-1.2759008265729175,41.010581438188396,-1.304264870918302,0.16047161333333332,0.24190797333333333,-0.6103708266666668,1.0127504133333334,0.6758869375078895,0.7349314896666377,0.7174960878188127,0.7106126144500715
LBP08_S11,LBP08,178,179,11,178,178,1716497213.12,2024-05-23 20:46:53.120000+00:00,2024-05-24 05:46:53.120000+09:00,2024,5,23,20,46,53,120,,,,,,,,,0.504639,-0.276123,0.97168,-19.592285,-93.566895,-30.029297,,,,,,,,,,,0.0,1.0,1.0,11.0,0.0,0.0,0.0,5.0,0.0,0.060546866666666664,-0.2117578,0.9906022666666666,7.7978515733333325,0.6038412266666667,-6.981608039999999,27.45139280620984,-7.955213724278928,-2.1636775841369635,2.746311656259258,27.339165419308312,-30.116704695390887,40.76748821361194,-1.2868421724847317,40.952269872798084,-1.2990162473703493,0.4440921333333333,-0.06436520000000001,-0.01892226666666663,0.5273796,0.4491311100729892,0.7144663240646986,0.7216606923093103,0.7116660125644032
LBP08_S11,LBP08,179,180,11,179,179,1716497213.16,2024-05-23 20:46:53.160000+00:00,2024-05-24 05:46:53.160000+09:00,2024,5,23,20,46,53,160,,,,,,,,,0.232178,-0.374268,1.40625,37.353516,43.579102,24.963379,,,,,,,,,,,0.0,1.0,1.0,11.0,0.0,0.0,0.0,5.0,0.0,0.059492186666666655,-0.20672849333333332,1.0018848133333333,7.910970066666667,-0.9326171066666666,-7.248535119999999,24.104291009214492,-7.056585343173852,-2.4568951578847638,3.710483296627838,27.056902005581357,-30.214980501706275,40.728229511638204,-1.2854745413954431,40.909992686450735,-1.2983162138201485,0.17268581333333333,-0.16753950666666667,0.40436518666666665,0.7445905066666667,0.470532762524219,0.6914584747290367,0.7110800506528858,0.7109638507055442
LBP08_S11,LBP08,180,181,11,180,180,1716497213.2,2024-05-23 20:46:53.200000+00:00,2024-05-24 05:46:53.200000+09:00,2024,5,23,20,46,53,200,,,,,,,,,-0.142334,-0.53418,1.739014,22.827148,15.869141,19.470215,,,,,,,,,,,0.0,1.0,1.0,11.0,0.0,0.0,0.0,5.0,0.0,0.06476562666666667,-0.21665362666666665,1.0188542133333334,7.325846373333333,1.3696289866666667,-6.367187466666665,20.12355210240196,-5.812448732193955,-2.899878677401728,4.515425380723916,26.8244040562936,-30.330975648802344,40.74194157318017,-1.27475456314668,40.88553375921244,-1.2933287301218424,-0.20709962666666665,-0.31752637333333333,0.7201597866666667,1.2447857866666667,0.8138448079698433,0.7067127926500812,0.7174918636515935,0.7100902523512828
LBP08_S11,LBP08,181,182,11,181,181,1716497213.24,2024-05-23 20:46:53.240000+00:00,2024-05-24 05:46:53.240000+09:00,2024,5,23,20,46,53,240,,,,,,,,,0.148682,-0.272949,1.664307,-15.686035,31.12793,15.991211,,,,,,,,,,,0.0,1.0,1.0,11.0,0.0,0.0,0.0,5.0,0.0,0.06368164,-0.2197167733333333,1.0171517333333333,7.277018253333332,2.0711263733333336,-5.989583306666665,16.246111081691556,-4.719575077990181,-3.3881139049804885,5.165269823991578,26.635621053173992,-30.466500205001562,40.7963718482941,-1.2830678874003987,40.879602951144115,-1.2875938105036915,0.08500036000000001,-0.05323222666666669,0.6471552666666667,0.7853878533333334,0.6548806535014036,0.6968656099520671,0.7203677948058106,0.7077595271489031
LBP08_S11,LBP08,182,183,11,182,182,1716497213.28,2024-05-23 20:46:53.280000+00:00,2024-05-24 05:46:53.280000+09:00,2024,5,23,20,46,53,280,,,,,,,,,-0.184326,-0.1604,0.416504,-4.760742,159.606934,26.855469,,,,,,,,,,,0.0,1.0,1.0,11.0,0.0,0.0,0.0,5.0,0.0,0.05875325333333334,-0.21673499999999998,1.00777348,7.495931013333332,1.70654304,-6.095377586666666,13.131747472287884,-4.068602638631889,-3.7419578792481807,5.690539722883094,26.472876947628716,-30.616178520171488,40.87231145165407,-1.3007466888464485,40.89086752453359,-1.2828595192127943,-0.24307925333333333,0.056334999999999996,-0.59126948,0.8906837333333333,0.64176378333898,0.7093299560635693,0.7208585672299134,0.7131697236508178
LBP08_S11,LBP08,183,184,11,183,183,1716497213.32,2024-05-23 20:46:53.320000+00:00,2024-05-24 05:46:53.320000+09:00,2024,5,23,20,46,53,320,,,,,,,,,-0.081787,-0.057617,0.059082,17.272949,-56.396484,-37.963867,,,,,,,,,,,0.0,1.0,1.0,11.0,0.0,0.0,0.0,5.0,0.0,0.05996093333333334,-0.21708981333333333,1.0021908,7.5667318,0.34749356,-6.971028626666667,11.170169737050788,-3.812522402156955,-3.7534798851223705,6.137346512365125,26.32037605154244,-30.76631771557638,40.95113580211467,-1.295837064471722,40.91470272683564,-1.2826025276056097,-0.14174793333333335,0.15947281333333332,-0.9431088,1.2443295466666666,0.9669427405147418,0.7200987519809481,0.7199262705734504,0.7078190647005327
