file_name,test_id,_program_index,program_index,session_id,index,_index,unixtime,datetime_utc,datetime_jst,rtc_year,rtc_month,rtc_day,rtc_hour,rtc_min,rtc_sec,rtc_msec,gps_hour,gps_min,gps_sec,latitude,longitude,altitude,fix_type,SIV,acc_x,acc_y,acc_z,gyro_x,gyro_y,gyro_z,mag_x,mag_y,mag_z,illuminance,atmopress,water_pressure,water_temp,depth,alt_wps,battery_level,behavior_class,camera_command,camera_recording,camera_count,play_audio,speaker_on,audio_file,prev_sd_write_time_ms,delay_occurred_counter,acc_x_ma,acc_y_ma,acc_z_ma,gyro_x_ma,gyro_y_ma,gyro_z_ma,gyro_x_lowpass,gyro_y_lowpass,gyro_z_lowpass,angle_x,angle_y,angle_z,combined_angle_change,gravity_adjusted_angle,smoothed_angle_change,smoothed_gravity_angle,acc_x_dy,acc_y_dy,acc_z_dy,ODBA,VeDBA,smoothed_VeDBA_1s,smoothed_VeDBA_2s,smoothed_VeDBA_3s
LBP08_S02,LBP08,-1625,1,2,0,-1625,1716491309.0,2024-05-23 19:08:29+00:00,2024-05-24 04:08:29+09:00,2024,5,23,19,8,29,0,19.0,8.0,27.0,40.765091,141.570679,13.646,3.0,15.0,0.12085,-0.335693,1.474609,-16.479492,67.199707,23.31543,-550.0,16.0,602.0,0.0,0.0,1015.599976,19.120001,0.025765,-19.53533,3.951562,0.0,1.0,1.0,2.0,0.0,0.0,0.0,4.0,0.0,,,,,,,-16.45283165309266,67.48115597318288,23.134407228264546,-0.6581132661237064,2.6992462389273153,0.9253762891305819,2.9283723475501464,,5.078251074199165,,,,,,,,,
LBP08_S02,LBP08,-1624,2,2,1,-1624,1716491309.04,2024-05-23 19:08:29.040000+00:00,2024-05-24 04:08:29.040000+09:00,2024,5,23,19,8,29,40,,,,,,,,,-0.373535,-0.63916,1.716553,-28.442383,-29.35791,13.977051,,,,,,,,,,,0.0,1.0,1.0,2.0,0.0,0.0,0.0,4.0,0.0,,,,,,,-6.262926326355035,43.86515182495041,17.47821376552305,-0.9086303191779077,4.453852311925331,1.6245048397515038,4.827155005564667,,5.107288560187521,,,,,,,,,
LBP08_S02,LBP08,-1623,3,2,2,-1623,1716491309.08,2024-05-23 19:08:29.080000+00:00,2024-05-24 04:08:29.080000+09:00,2024,5,23,19,8,29,80,,,,,,,,,0.122803,-0.17041,1.799805,49.743652,-40.161133,14.099121,,,,,,,,,,,0.0,1.0,1.0,2.0,0.0,0.0,0.0,4.0,0.0,,,,,,,2.2715488809659616,22.25251039923292,12.18108832829055,-0.8177683639392692,5.343952727894648,2.1117483728831257,5.803969076882396,,5.039835117910757,,,,,,,,,
LBP08_S02,LBP08,-1622,4,2,3,-1622,1716491309.12,2024-05-23 19:08:29.120000+00:00,2024-05-24 04:08:29.120000+09:00,2024,5,23,19,8,29,120,,,,,,,,,0.052246,-0.153076,0.82373,9.70459,169.73877,27.709961,,,,,,,,,,,0.0,1.0,1.0,2.0,0.0,0.0,0.0,4.0,0.0,,,,,,,7.870226010472154,4.402374990105638,7.586663272180763,-0.5029593235203831,5.5200477274988735,2.415214903770356,6.0462515682343225,,4.91740634143053,,,,,,,,,
LBP08_S02,LBP08,-1621,5,2,4,-1621,1716491309.16,2024-05-23 19:08:29.160000+00:00,2024-05-24 04:08:29.160000+09:00,2024,5,23,19,8,29,160,,,,,,,,,-0.392334,0.086914,-0.131104,0.732422,-23.193359,-12.939453,,,,,,,,,,,0.0,1.0,1.0,2.0,0.0,0.0,0.0,4.0,0.0,,,,,,,9.850187098364596,-8.471653871037029,3.9215644300074652,-0.10895183958579924,5.181181572657392,2.5720774809706546,5.785507372764294,,4.772884565860549,,,,,,,,,
LBP08_S02,LBP08,-1620,6,2,5,-1620,1716491309.2,2024-05-23 19:08:29.200000+00:00,2024-05-24 04:08:29.200000+09:00,2024,5,23,19,8,29,200,,,,,,,,,0.257812,-0.040527,0.36084,30.334473,-116.149902,-26.550293,,,,,,,,,,,0.0,1.0,1.0,2.0,0.0,0.0,0.0,4.0,0.0,,,,,,,8.235551534804614,-15.880688337341528,1.244796218094673,0.2204702218063853,4.545954039163731,2.6218693296944413,5.252475990129301,,4.634805348015405,,,,,,,,,
LBP08_S02,LBP08,-1619,7,2,6,-1619,1716491309.24,2024-05-23 19:08:29.240000+00:00,2024-05-24 04:08:29.240000+09:00,2024,5,23,19,8,29,240,,,,,,,,,0.432861,-0.225586,1.080566,-9.643555,-54.443359,-4.272461,,,,,,,,,,,0.0,1.0,1.0,2.0,0.0,0.0,0.0,4.0,0.0,,,,,,,3.7091281406401087,-18.15303388868577,-0.5605575376266783,0.36883534743198965,3.8198326836163004,2.599447028189374,4.635114464250171,,4.68762921428611,,,,,,,,,
LBP08_S02,LBP08,-1618,8,2,7,-1618,1716491309.28,2024-05-23 19:08:29.280000+00:00,2024-05-24 04:08:29.280000+09:00,2024,5,23,19,8,29,280,,,,,,,,,0.261719,-0.19751,1.505371,-12.207031,26.733398,23.925781,,,,,,,,,,,0.0,1.0,1.0,2.0,0.0,0.0,0.0,4.0,0.0,,,,,,,-2.5684076200860217,-16.379540779814068,-1.7353702892386846,0.2660990426285488,3.1646510524237375,2.530032216619827,4.060404906068942,,4.583452176119495,,,,,,,,,
LBP08_S02,LBP08,-1617,9,2,8,-1617,1716491309.32,2024-05-23 19:08:29.320000+00:00,2024-05-24 04:08:29.320000+09:00,2024,5,23,19,8,29,320,,,,,,,,,-0.273193,-0.563477,1.762939,-6.835938,-32.165527,-1.464844,,,,,,,,,,,0.0,1.0,1.0,2.0,0.0,0.0,0.0,4.0,0.0,,,,,,,-9.219810890178804,-12.15916109037968,-2.5422832645775886,-0.10269339297860341,2.6782846088085503,2.428340886036723,3.616710361300701,,4.428618367141732,,,,,,,,,
LBP08_S02,LBP08,-1616,10,2,9,-1616,1716491309.36,2024-05-23 19:08:29.360000+00:00,2024-05-24 04:08:29.360000+09:00,2024,5,23,19,8,29,360,,,,,,,,,0.198242,-0.077393,1.533691,2.624512,-13.183594,3.295898,,,,,,,,,,,0.0,1.0,1.0,2.0,0.0,0.0,0.0,4.0,0.0,,,,,,,-14.932269638903804,-7.182280619450109,-3.1571127848020972,-0.6999841785347556,2.390993384030546,2.302056374644639,3.3920923874091105,,4.297050158666267,,,,,,,,,
LBP08_S02,LBP08,-1615,11,2,10,-1615,1716491309.4,2024-05-23 19:08:29.400000+00:00,2024-05-24 04:08:29.400000+09:00,2024,5,23,19,8,29,400,,,,,,,,,0.133789,-0.256104,0.768555,-59.448242,137.207031,23.254395,,,,,,,,,,,0.0,1.0,1.0,2.0,0.0,0.0,0.0,4.0,0.0,,,,,,,-18.702321138193597,-2.7906533288737174,-3.608629820046511,-1.4480770240624996,2.2793672508755973,2.157711181842779,3.456611010257192,,4.230061767802741,,,,,,,,,
LBP08_S02,LBP08,-1614,12,2,11,-1614,1716491309.44,2024-05-23 19:08:29.440000+00:00,2024-05-24 04:08:29.440000+09:00,2024,5,23,19,8,29,440,,,,,,,,,-0.377441,0.039062,-0.066895,-26.000977,29.541016,-6.408691,,,,,,,,,,,0.0,1.0,1.0,2.0,0.0,0.0,0.0,4.0,0.0,,,,,,,-19.999878220368306,0.3110929464793554,-3.7997913155829606,-2.248072152877232,2.2918109687347714,2.0057195292194607,3.7853846238985303,,4.241421251085964,,,,,,,,,
LBP08_S02,LBP08,-1613,13,2,12,-1613,1716491309.48,2024-05-23 19:08:29.480000+00:00,2024-05-24 04:08:29.480000+09:00,2024,5,23,19,8,29,480,,,,,,,,,-0.015869,-0.076904,0.177979,13.73291,-92.224121,-44.128418,,,,,,,,,,,0.0,1.0,1.0,2.0,0.0,0.0,0.0,4.0,0.0,,,,,,,-18.820768891499608,2.0722647689799434,-3.6015461111502303,-3.000902908537216,2.3747015594939693,1.8616576847734514,4.255630987104763,,4.325392146477958,,,,,,,,,
LBP08_S02,LBP08,-1612,14,2,13,-1612,1716491309.52,2024-05-23 19:08:29.520000+00:00,2024-05-24 04:08:29.520000+09:00,2024,5,23,19,8,29,520,,,,,,,,,0.442871,-0.13623,0.826904,-49.194336,-77.819824,-32.958984,,,,,,,,,,,0.0,1.0,1.0,2.0,0.0,0.0,0.0,4.0,0.0,,,,,,,-15.620142435376161,2.8551987342765806,-2.9678391624285863,-3.6257086059522625,2.4889095088650324,1.742944118276308,4.730569483479663,,4.465033498714506,,,,,,,,,
LBP08_S02,LBP08,-1611,15,2,14,-1611,1716491309.56,2024-05-23 19:08:29.560000+00:00,2024-05-24 04:08:29.560000+09:00,2024,5,23,19,8,29,560,,,,,,,,,0.427002,-0.380615,1.214844,-5.126953,32.409668,11.71875,,,,,,,,,,,0.0,1.0,1.0,2.0,0.0,0.0,0.0,4.0,0.0,,,,,,,-11.148934759680351,3.094023239693006,-2.002183830935817,-4.071665996339476,2.612670438452753,1.6628567650388753,5.115623464129039,,4.637106224806095,,,,,,,,,
LBP08_S02,LBP08,-1610,16,2,15,-1610,1716491309.6,2024-05-23 19:08:29.600000+00:00,2024-05-24 04:08:29.600000+09:00,2024,5,23,19,8,29,600,,,,,,,,,-0.311035,-0.504883,1.628906,7.385254,6.286621,29.724121,,,,,,,,,,,0.0,1.0,1.0,2.0,0.0,0.0,0.0,4.0,0.0,,,,,,,-6.239310010506127,3.053891753451359,-0.9332216451952147,-4.321238396759721,2.734826108590807,1.6255278992310667,5.36607082296153,,4.812704528834911,,,,,,,,,
LBP08_S02,LBP08,-1609,17,2,16,-1609,1716491309.64,2024-05-23 19:08:29.640000+00:00,2024-05-24 04:08:29.640000+09:00,2024,5,23,19,8,29,640,,,,,,,,,0.001465,-0.422607,1.694092,24.597168,-61.584473,1.708984,,,,,,,,,,,0.0,1.0,1.0,2.0,0.0,0.0,0.0,4.0,0.0,,,,,,,-1.5969265912298067,2.799937962541388,-0.017627758846656825,-4.3851154604089135,2.8468236270924625,1.6248227888772004,5.474823418170109,,4.959771228365094,,,,,,,,,
LBP08_S02,LBP08,-1608,18,2,17,-1608,1716491309.68,2024-05-23 19:08:29.680000+00:00,2024-05-24 04:08:29.680000+09:00,2024,5,23,19,8,29,680,,,,,,,,,0.22998,-0.397949,1.152588,-7.873535,116.760254,24.719238,,,,,,,,,,,0.0,1.0,1.0,2.0,0.0,0.0,0.0,4.0,0.0,,,,,,,2.340508066302239,2.3404529732975234,0.5630069633536829,-4.291495137756824,2.9404417460243635,1.6473430674113478,5.4568184284344206,,5.053500158183144,,,,,,,,,
LBP08_S02,LBP08,-1607,19,2,18,-1607,1716491309.72,2024-05-23 19:08:29.720000+00:00,2024-05-24 04:08:29.720000+09:00,2024,5,23,19,8,29,720,,,,,,,,,-0.587402,0.031494,-0.164551,37.414551,98.632812,-4.089355,,,,,,,,,,,0.0,1.0,1.0,2.0,0.0,0.0,0.0,4.0,0.0,,,,,,,5.434243642353852,1.8078942056974698,0.7466840246134048,-4.07412539206267,3.0127575142522622,1.677210428395884,5.337437622216599,,5.086744569143997,,,,,,,,,
LBP08_S02,LBP08,-1606,20,2,19,-1606,1716491309.76,2024-05-23 19:08:29.760000+00:00,2024-05-24 04:08:29.760000+09:00,2024,5,23,19,8,29,760,,,,,,,,,-0.01416,-0.035889,0.209717,-23.254395,-67.382812,-27.893066,,,,,,,,,,,0.0,1.0,1.0,2.0,0.0,0.0,0.0,4.0,0.0,,,,,,,7.758886114613167,1.525996182019798,0.5586067434809858,-3.763769947478143,3.073797361533054,1.6995546981351235,5.148075427697263,,5.070761230967092,,,,,,,,,
LBP08_S02,LBP08,-1605,21,2,20,-1605,1716491309.8,2024-05-23 19:08:29.800000+00:00,2024-05-24 04:08:29.800000+09:00,2024,5,23,19,8,29,800,,,,,,,,,0.390381,-0.17627,0.795654,-4.577637,-87.524414,-28.564453,,,,,,,,,,,0.0,1.0,1.0,2.0,0.0,0.0,0.0,4.0,0.0,,,,,,,9.442949143690475,1.8912068294566977,0.03842316013776376,-3.386051981730524,3.1494456347113218,1.701091624540634,4.927278005559023,,5.028306289240072,,,,,,,,,
LBP08_S02,LBP08,-1604,22,2,21,-1604,1716491309.84,2024-05-23 19:08:29.840000+00:00,2024-05-24 04:08:29.840000+09:00,2024,5,23,19,8,29,840,,,,,,,,,0.347656,-0.161621,1.154541,-8.911133,3.723145,-4.150391,,,,,,,,,,,0.0,1.0,1.0,2.0,0.0,0.0,0.0,4.0,0.0,,,,,,,10.514937578825961,3.136934394161832,-0.8094288423492423,-2.9654544785774855,3.274923010477795,1.6687144708466644,4.722673922079024,,4.984828342120454,,,,,,,,,
LBP08_S02,LBP08,-1603,23,2,22,-1603,1716491309.88,2024-05-23 19:08:29.880000+00:00,2024-05-24 04:08:29.880000+09:00,2024,5,23,19,8,29,880,,,,,,,,,-0.31543,-0.303711,1.532227,-27.038574,28.381348,41.19873,,,,,,,,,,,0.0,1.0,1.0,2.0,0.0,0.0,0.0,4.0,0.0,,,,,,,10.8379784858989,5.145473084249693,-1.9987533232113686,-2.5319353391415294,3.4807419338477827,1.5887643379182097,4.5880750967133075,,4.9619879143195815,,,,,,,,,
LBP08_S02,LBP08,-1602,24,2,23,-1602,1716491309.92,2024-05-23 19:08:29.920000+00:00,2024-05-24 04:08:29.920000+09:00,2024,5,23,19,8,29,920,,,,,,,,,-0.083984,-0.561279,1.736328,50.78125,-79.162598,-6.652832,,,,,,,,,,,0.0,1.0,1.0,2.0,0.0,0.0,0.0,4.0,0.0,,,,,,,10.177591928629216,7.442235343113835,-3.4891530299841156,-2.1248316619963608,3.778431347572336,1.449198216718845,4.570736101710598,,4.974942475600566,,,,,,,,,
LBP08_S02,LBP08,-1601,25,2,24,-1601,1716491309.96,2024-05-23 19:08:29.960000+00:00,2024-05-24 04:08:29.960000+09:00,2024,5,23,19,8,29,960,,,,,,,,,0.308594,-0.246338,1.407227,25.20752,102.844238,13.85498,,,,,,,,,,,0.0,1.0,1.0,2.0,0.0,0.0,0.0,4.0,0.0,,,,,,,8.377594089768229,9.384682712502949,-5.116851915933865,-1.7897278984056317,4.153818656072454,1.2445241400814904,4.691074046858841,,5.032112794963562,,,,,,,,,
LBP08_S02,LBP08,-1600,26,2,25,-1600,1716491310.0,2024-05-23 19:08:30+00:00,2024-05-24 04:08:30+09:00,2024,5,23,19,8,30,0,19.0,8.0,28.0,40.765209,141.570709,13.967,3.0,15.0,-0.641846,0.26416,-0.280762,44.677734,128.173828,6.469727,-551.0,20.0,599.0,0.0,0.0,1015.900024,19.16,0.028738,-22.026999,3.951562,0.0,1.0,1.0,2.0,0.0,0.0,0.0,4.0,0.0,,,,,,,5.5515439428614375,10.44001867259397,-6.590385598289958,-1.5676661406911743,4.571419402976213,0.9809087161498921,4.931291351765355,,5.135505967770297,,,,,,,,,
LBP08_S02,LBP08,-1599,27,2,26,-1599,1716491310.04,2024-05-23 19:08:30.040000+00:00,2024-05-24 04:08:30.040000+09:00,2024,5,23,19,8,30,40,,,,,,,,,0.034424,-0.085449,0.164795,17.883301,-62.927246,-41.381836,,,,,,,,,,,0.0,1.0,1.0,2.0,0.0,0.0,0.0,4.0,0.0,,,,,,,2.1730792827515892,10.395406226556663,-7.5706788686403526,-1.4807429693811107,4.987235652038479,0.6780815614042779,5.246419140161385,,5.280773205194255,,,,,,,,,
LBP08_S02,LBP08,-1598,28,2,27,-1598,1716491310.08,2024-05-23 19:08:30.080000+00:00,2024-05-24 04:08:30.080000+09:00,2024,5,23,19,8,30,80,,,,,,,,,0.360107,0.087646,0.875732,0.976562,-51.696777,-44.799805,,,,,,,,,,,0.0,1.0,1.0,2.0,0.0,0.0,0.0,4.0,0.0,,,,,,,-1.0099649715836725,9.388927366023784,-7.798983301224312,-1.5211415682444576,5.362792746679431,0.3661222293553054,5.586364041244253,,5.457342332146809,,,,,,,,,
LBP08_S02,LBP08,-1597,29,2,28,-1597,1716491310.12,2024-05-23 19:08:30.120000+00:00,2024-05-24 04:08:30.120000+09:00,2024,5,23,19,8,30,120,,,,,,,,,0.298096,-0.469727,1.345459,-55.541992,38.024902,2.502441,,,,,,,,,,,0.0,1.0,1.0,2.0,0.0,0.0,0.0,4.0,0.0,,,,,,,-3.2217935563782496,7.769243315771565,-7.20208641702088,-1.6500133104995875,5.673562479310293,0.07803877267447024,5.909140815846573,,5.649374541435534,,,,,,,,,
LBP08_S02,LBP08,-1596,30,2,29,-1596,1716491310.16,2024-05-23 19:08:30.160000+00:00,2024-05-24 04:08:30.160000+09:00,2024,5,23,19,8,30,160,,,,,,,,,-0.428711,-0.377441,1.697021,-81.176758,-8.544922,14.648438,,,,,,,,,,,0.0,1.0,1.0,2.0,0.0,0.0,0.0,4.0,0.0,,,,,,,-3.9561640029553438,5.898585594236534,-5.915554391589041,-1.8082598706178012,5.909505903079754,-0.15858340298909143,6.182007155764604,,5.838252471287744,,,,,,,,,
LBP08_S02,LBP08,-1595,31,2,30,-1595,1716491310.2,2024-05-23 19:08:30.200000+00:00,2024-05-24 04:08:30.200000+09:00,2024,5,23,19,8,30,200,,,,,,,,,-0.094482,-0.63501,1.904541,41.931152,-91.796875,-11.71875,,,,,,,,,,,0.0,1.0,1.0,2.0,0.0,0.0,0.0,4.0,0.0,,,,,,,-3.176007342655125,4.0254701954042575,-4.217325500660339,-1.9353001643240062,6.070524710895925,-0.32727642301550497,6.379950379798608,,6.006735600051161,,,,,,,,,
LBP08_S02,LBP08,-1594,32,2,31,-1594,1716491310.24,2024-05-23 19:08:30.240000+00:00,2024-05-24 04:08:30.240000+09:00,2024,5,23,19,8,30,240,,,,,,,,,0.267578,-0.306885,1.13623,-1.77002,113.769531,33.14209,,,,,,,,,,,0.0,1.0,1.0,2.0,0.0,0.0,0.0,4.0,0.0,,,,,,,-1.3121122869461719,2.2819511227166314,-2.4182610135367684,-1.987784655801853,6.16180275580459,-0.4240068635569757,6.488365191604566,,6.143359857259702,,,,,,,,,
LBP08_S02,LBP08,-1593,33,2,32,-1593,1716491310.28,2024-05-23 19:08:30.280000+00:00,2024-05-24 04:08:30.280000+09:00,2024,5,23,19,8,30,280,,,,,,,,,-0.635742,0.243164,-0.273438,44.311523,90.820312,8.361816,,,,,,,,,,,0.0,1.0,1.0,2.0,0.0,0.0,0.0,4.0,0.0,,,,,,,0.9325667460111097,0.768994109099899,-0.7747853847220386,-1.9504819859614086,6.192562520168586,-0.45499827894585726,6.508397189600553,,6.244708542657007,,,,,,,,,
LBP08_S02,LBP08,-1592,34,2,33,-1592,1716491310.32,2024-05-23 19:08:30.320000+00:00,2024-05-24 04:08:30.320000+09:00,2024,5,23,19,8,30,320,,,,,,,,,0.004639,-0.077148,0.170898,6.835938,-79.040527,-26.550293,,,,,,,,,,,0.0,1.0,1.0,2.0,0.0,0.0,0.0,4.0,0.0,,,,,,,2.8672447116188122,-0.36497355784614793,0.5360154849100315,-1.8357921974966562,6.17796357785474,-0.433557659549456,6.459515400232695,,6.314778397572345,-1.5265089309771185,,,,,,,,
LBP08_S02,LBP08,-1591,35,2,34,-1591,1716491310.36,2024-05-23 19:08:30.360000+00:00,2024-05-24 04:08:30.360000+09:00,2024,5,23,19,8,30,360,,,,,,,,,0.366943,-0.054932,0.863037,2.01416,-69.763184,-36.621094,,,,,,,,,,,0.0,1.0,1.0,2.0,0.0,0.0,0.0,4.0,0.0,,,,,,,4.054457567392844,-0.9315054848078012,1.3868375921850042,-1.6736138948009425,6.140703358462428,-0.37808415586205585,6.375905334493012,,6.362895188998599,-1.5280475724676414,,,,,,,,
LBP08_S02,LBP08,-1590,36,2,35,-1590,1716491310.4,2024-05-23 19:08:30.400000+00:00,2024-05-24 04:08:30.400000+09:00,2024,5,23,19,8,30,400,,,,,,,,,0.393555,-0.417236,1.386719,10.437012,45.715332,4.699707,,,,,,,,,,,0.0,1.0,1.0,2.0,0.0,0.0,0.0,4.0,0.0,,,,,,,4.422387718098975,-0.7887939840026041,1.6645202687549905,-1.4967183860769835,6.109151599102324,-0.31150334511185623,6.297533923850768,,6.401867837634541,-1.5110341134165186,,,,,,,,
LBP08_S02,LBP08,-1589,37,2,36,-1589,1716491310.44,2024-05-23 19:08:30.440000+00:00,2024-05-24 04:08:30.440000+09:00,2024,5,23,19,8,30,440,,,,,,,,,-0.266846,-0.632568,1.650391,-30.273438,16.601562,25.634766,,,,,,,,,,,0.0,1.0,1.0,2.0,0.0,0.0,0.0,4.0,0.0,,,,,,,4.234162245788241,0.07164798676166632,1.2778864577464695,-1.3273518962454538,6.112017518572791,-0.2603878868019974,6.259905994134441,,6.4467384171109305,-1.4986031559566397,,,,,,,,
LBP08_S02,LBP08,-1588,38,2,37,-1588,1716491310.48,2024-05-23 19:08:30.480000+00:00,2024-05-24 04:08:30.480000+09:00,2024,5,23,19,8,30,480,,,,,,,,,-0.047607,-0.529053,1.810547,48.583984,-73.608398,6.469727,,,,,,,,,,,0.0,1.0,1.0,2.0,0.0,0.0,0.0,4.0,0.0,0.010647799999999997,-0.24755537333333333,0.99659824,-1.415201866666667,5.176595053333334,-1.0367838533333333,3.952818047493863,1.505778520703295,0.21573899194356927,-1.1692391743456994,6.172248659400923,-0.25175832712425467,6.287062590397642,-1.5265089309771185,6.513385347592786,-1.4973271527908425,-0.058254799999999995,-0.28149762666666667,0.8139487599999999,1.1537011866666667,0.8632190448823193,0.8632190448823193,0.8632190448823193,0.8632190448823193
LBP08_S02,LBP08,-1587,39,2,38,-1587,1716491310.52,2024-05-23 19:08:30.520000+00:00,2024-05-24 04:08:30.520000+09:00,2024,5,23,19,8,30,520,,,,,,,,,0.21875,-0.286133,1.24707,-11.535645,63.659668,23.376465,,,,,,,,,,,0.0,1.0,1.0,2.0,0.0,0.0,0.0,4.0,0.0,0.00972657333333333,-0.24304365333333336,0.9786620533333333,-0.8902995200000006,3.6173502666666675,-1.6829427066666667,4.06041319850918,3.2689510542405165,-1.3896422454724704,-1.006822646405332,6.303006701570544,-0.3073440169431535,6.3903087301090995,-1.5295862139581644,6.6163008958569645,-1.4949723769996641,0.20902342666666668,-0.04308934666666667,0.26840794666666656,0.5205207199999999,0.34291443615784345,0.6030667405200814,0.6030667405200814,0.6030667405200814
LBP08_S02,LBP08,-1586,40,2,39,-1586,1716491310.56,2024-05-23 19:08:30.560000+00:00,2024-05-24 04:08:30.560000+09:00,2024,5,23,19,8,30,560,,,,,,,,,-0.596191,-0.035156,0.024902,-49.804688,101.013184,10.253906,,,,,,,,,,,0.0,1.0,1.0,2.0,0.0,0.0,0.0,4.0,0.0,0.021516933333333328,-0.2353516,0.9679426533333333,-0.42399092000000055,3.041178386666667,-2.2452799466666664,4.8879176292816195,5.09411292602547,-3.253550753464476,-0.8113059412340673,6.506771218611562,-0.43748604708173255,6.571733642124023,-1.4770071953142734,6.765768835920722,-1.4933929126156846,-0.6177079333333334,0.2001956,-0.9430406533333333,1.7609441866666669,1.144974690987385,0.7837027240091826,0.7837027240091826,0.7837027240091826
LBP08_S02,LBP08,-1585,41,2,40,-1585,1716491310.6,2024-05-23 19:08:30.600000+00:00,2024-05-24 04:08:30.600000+09:00,2024,5,23,19,8,30,600,,,,,,,,,0.003174,-0.311279,0.241943,46.447754,-83.557129,-37.109375,,,,,,,,,,,0.0,1.0,1.0,2.0,0.0,0.0,0.0,4.0,0.0,0.025319013333333328,-0.23715173333333334,0.9613020266666666,-1.2679036800000005,3.6043294266666663,-2.3852539066666667,6.505043345841345,6.741150578049682,-5.01196064996314,-0.5511042074004135,6.776417241733549,-0.6379644730802582,6.8286561745625125,-1.4613102835770027,6.965507694319423,-1.4983321087607424,-0.022145013333333328,-0.07412726666666664,-0.7193590266666666,0.8156313066666666,0.7235071959046562,0.768653841983051,0.768653841983051,0.768653841983051
LBP08_S02,LBP08,-1584,42,2,41,-1584,1716491310.64,2024-05-23 19:08:30.640000+00:00,2024-05-24 04:08:30.640000+09:00,2024,5,23,19,8,30,640,,,,,,,,,0.394531,-0.108887,0.93335,-25.878906,-57.556152,-51.086426,,,,,,,,,,,0.0,1.0,1.0,2.0,0.0,0.0,0.0,4.0,0.0,0.01842122666666666,-0.2409896266666667,0.9730403200000001,-1.286621133333334,2.01904296,-2.5423177066666667,8.704593392330713,7.99285398689387,-6.347175562094122,-0.20292047170718502,7.096131401209304,-0.8918514955640231,7.154834496423126,-1.4922231401276533,7.211911586491004,-1.5043162226425877,0.37610977333333334,0.13210262666666672,-0.03969032000000006,0.5479027200000002,0.4006057751340918,0.6950442286132591,0.6950442286132591,0.6950442286132591
LBP08_S02,LBP08,-1583,43,2,42,-1583,1716491310.68,2024-05-23 19:08:30.680000+00:00,2024-05-24 04:08:30.680000+09:00,2024,5,23,19,8,30,680,,,,,,,,,0.44751,-0.519043,1.377441,42.236328,47.790527,-12.451172,,,,,,,,,,,0.0,1.0,1.0,2.0,0.0,0.0,0.0,4.0,0.0,0.02112956,-0.24781905333333337,0.9998046533333333,-0.8105469200000005,1.2329101466666665,-2.6464843733333336,11.083754644973231,8.63237113132936,-7.094073040262981,0.24042971409174424,7.441426246462478,-1.1756144171745424,7.537552672242332,-1.4831984980437727,7.495235481428729,-1.5054709351735363,0.42638044,-0.27122394666666666,0.37763634666666657,1.0752407333333331,0.6308501558878965,0.6843452164923653,0.6843452164923653,0.6843452164923653
LBP08_S02,LBP08,-1582,44,2,43,-1582,1716491310.72,2024-05-23 19:08:30.720000+00:00,2024-05-24 04:08:30.720000+09:00,2024,5,23,19,8,30,720,,,,,,,,,-0.425781,-0.478516,1.63916,16.967773,30.212402,30.639648,,,,,,,,,,,0.0,1.0,1.0,2.0,0.0,0.0,0.0,4.0,0.0,0.02127605333333333,-0.25161137333333333,1.0149967066666667,-1.5039062933333338,3.5693359200000003,-1.98730468,13.183192824867817,8.467520535278725,-7.261602948174099,0.7677574270864569,7.780127067873627,-1.4660785351015064,7.954194800870272,-1.4839161263118075,7.801983376193486,-1.5022140565291309,-0.44705705333333334,-0.22690462666666666,0.6241632933333332,1.298124973333333,0.8005782505680096,0.7009499356460288,0.7009499356460288,0.7009499356460288
LBP08_S02,LBP08,-1581,45,2,44,-1581,1716491310.76,2024-05-23 19:08:30.760000+00:00,2024-05-24 04:08:30.760000+09:00,2024,5,23,19,8,30,760,,,,,,,,,-0.041016,-0.216309,1.711914,67.077637,-51.574707,0.427246,,,,,,,,,,,0.0,1.0,1.0,2.0,0.0,0.0,0.0,4.0,0.0,0.009156919999999997,-0.24891932000000003,0.9998469733333334,-1.3614909200000003,6.031901013333333,-1.6064453066666669,14.61907205209978,7.423847404285864,-6.962132385735519,1.352520309170448,8.077080964045061,-1.7445638305309272,8.373293918480012,-1.532906481776147,8.11715730533758,-1.5001572985626601,-0.050172919999999996,0.032610320000000026,0.7120670266666665,0.7948502666666666,0.7145769415099651,0.7026533113790209,0.7026533113790209,0.7026533113790209
LBP08_S02,LBP08,-1580,46,2,45,-1580,1716491310.8,2024-05-23 19:08:30.800000+00:00,2024-05-24 04:08:30.800000+09:00,2024,5,23,19,8,30,800,,,,,,,,,0.054932,-0.345947,1.035889,-27.648926,128.78418,30.700684,,,,,,,,,,,0.0,1.0,1.0,2.0,0.0,0.0,0.0,4.0,0.0,0.004518239999999999,-0.2505827333333333,0.9812890266666666,-0.7999674800000004,4.79085284,-2.4365234266666667,15.151276744271785,5.650898737198188,-6.307132198661275,1.9585713789413195,8.303116913532989,-1.9968491184773782,8.761572845566574,-1.5521891336973501,8.425375123482233,-1.5025083769574687,0.05041376,-0.0953642666666667,0.05459997333333344,0.20037800000000014,0.12090098280084177,0.6380141637592232,0.6380141637592232,0.6380141637592232
LBP08_S02,LBP08,-1579,47,2,46,-1579,1716491310.84,2024-05-23 19:08:30.840000+00:00,2024-05-24 04:08:30.840000+09:00,2024,5,23,19,8,30,840,,,,,,,,,-0.455322,0.026611,-0.063477,-30.151367,47.546387,-10.559082,,,,,,,,,,,0.0,1.0,1.0,2.0,0.0,0.0,0.0,4.0,0.0,0.012822266666666667,-0.24026697333333336,0.9658658533333333,0.012206999999999463,3.657226533333334,-3.1949869600000005,14.672718848519597,3.5477484069671803,-5.347079880211225,2.5454801328821035,8.445026849811676,-2.2107323136858272,9.093144943511694,-1.5158633479520744,8.710909889078966,-1.5052728471839323,-0.4681442666666667,0.26687797333333335,-1.0293428533333333,1.7643650933333332,1.1618647153484722,0.690399218918148,0.690399218918148,0.690399218918148
LBP08_S02,LBP08,-1578,48,2,47,-1578,1716491310.88,2024-05-23 19:08:30.880000+00:00,2024-05-24 04:08:30.880000+09:00,2024,5,23,19,8,30,880,,,,,,,,,-0.019043,-0.082764,0.169189,43.884277,-90.454102,-53.771973,,,,,,,,,,,0.0,1.0,1.0,2.0,0.0,0.0,0.0,4.0,0.0,0.018164066666666666,-0.24328454666666668,0.9600715866666665,-0.19287113333333386,3.4456379999999998,-3.40087888,13.155937447141616,1.6450968371609618,-4.091603836573569,3.0717176307677683,8.510830723298113,-2.37439646714877,9.354541538045208,-1.4939401445330638,8.957655979526667,-1.5096963277561544,-0.03720706666666666,0.16052054666666668,-0.7908825866666664,0.9886101999999998,0.8078653833434506,0.7010779611386302,0.7010779611386302,0.7010779611386302
LBP08_S02,LBP08,-1577,49,2,48,-1577,1716491310.92,2024-05-23 19:08:30.920000+00:00,2024-05-24 04:08:30.920000+09:00,2024,5,23,19,8,30,920,,,,,,,,,0.375,-0.033203,0.835205,12.817383,-91.85791,-33.813477,,,,,,,,,,,0.0,1.0,1.0,2.0,0.0,0.0,0.0,4.0,0.0,0.014729826666666664,-0.24562504,0.9694726266666667,0.3458658399999995,2.262369773333333,-3.3439127466666667,10.614270835864312,0.3732123583113044,-2.5779462094491725,3.496288464202341,8.525759217630565,-2.477514315526737,9.542048021550029,-1.5090186342934546,9.15021670053424,-1.5172607588468214,0.36027017333333333,0.21242203999999998,-0.1342676266666667,0.70695984,0.4392556390555402,0.6792594342983725,0.6792594342983725,0.6792594342983725
LBP08_S02,LBP08,-1576,50,2,49,-1576,1716491310.96,2024-05-23 19:08:30.960000+00:00,2024-05-24 04:08:30.960000+09:00,2024,5,23,19,8,30,960,,,,,,,,,0.457031,-0.347168,1.286865,0.976562,30.944824,15.869141,,,,,,,,,,,0.0,1.0,1.0,2.0,0.0,0.0,0.0,4.0,0.0,0.017233079999999998,-0.2525716533333333,0.9925520533333334,0.9448241733333327,1.4453124799999997,-3.1030273333333334,7.108892412425615,-0.15396449260420733,-0.9168764089080633,3.7806441606993655,8.519600637926397,-2.5141893718830595,9.65391182357058,-1.5005179792623606,9.276626731620407,-1.5207267703184342,0.43979792,-0.09459634666666666,0.2943129466666665,0.8287072133333332,0.5375786359358253,0.6683609113474075,0.6683609113474075,0.6683609113474075
LBP08_S02,LBP08,-1575,51,2,50,-1575,1716491311.0,2024-05-23 19:08:31+00:00,2024-05-24 04:08:31+09:00,2024,5,23,19,8,31,0,19.0,8.0,29.0,40.765331,141.570755,13.554,3.0,15.0,-0.376221,-0.551025,1.69043,-7.202148,18.737793,52.856445,-549.0,14.0,599.0,0.0,0.0,1015.700012,19.23,0.026756,-20.366121,3.951562,0.0,1.0,1.0,2.0,0.0,0.0,0.0,5.0,0.0,0.020159506666666663,-0.25333012,1.0104459333333333,1.0750325066666662,3.7597655999999997,-2.2420247333333334,2.7899234860842124,-0.18813231191285038,0.7310536196340388,3.892241100142734,8.512075345449883,-2.484947227097698,9.684003830529841,-1.48895498584164,9.332068434125876,-1.5163899256258948,-0.3963805066666667,-0.29769488,0.6799840666666668,1.3740594533333335,0.8414975214247964,0.6807278120672209,0.6807278120672209,0.6807278120672209
LBP08_S02,LBP08,-1574,52,2,51,-1574,1716491311.04,2024-05-23 19:08:31.040000+00:00,2024-05-24 04:08:31.040000+09:00,2024,5,23,19,8,31,40,,,,,,,,,-0.002686,-0.40332,1.79248,43.029785,-61.767578,-11.901855,,,,,,,,,,,0.0,1.0,1.0,2.0,0.0,0.0,0.0,5.0,0.0,0.00845052,-0.2537533066666667,1.0021484133333334,1.6756184399999994,6.970214813333332,-1.4152018266666668,-2.063155234447262,-0.1769573910492806,2.229678389926423,3.8097148907648433,8.504997049807912,-2.395760091500641,9.622295400900132,-1.5364579458498728,9.321938345116738,-1.512326441378304,-0.01113652,-0.14956669333333333,0.7903315866666667,0.9510348000000001,0.8044365945899209,0.6889750642354009,0.6889750642354009,0.6889750642354009
LBP08_S02,LBP08,-1573,53,2,52,-1573,1716491311.08,2024-05-23 19:08:31.080000+00:00,2024-05-24 04:08:31.080000+09:00,2024,5,23,19,8,31,80,,,,,,,,,0.175293,-0.3479,1.237549,-15.625,134.155273,19.836426,,,,,,,,,,,0.0,1.0,1.0,2.0,0.0,0.0,0.0,5.0,0.0,0.002923173333333331,-0.25238286666666665,0.9881086933333332,1.564127546666666,5.49479164,-1.9075520933333332,-7.035458256889688,-0.4654756524064917,3.5252034145038986,3.5282965604892556,8.486378023711652,-2.254751954920485,9.463159882318068,-1.5588428089504436,9.262366345856137,-1.5098853215686516,0.17236982666666667,-0.09551713333333334,0.24944030666666683,0.5173272666666668,0.31789203591042553,0.66578237496509,0.66578237496509,0.66578237496509
LBP08_S02,LBP08,-1572,54,2,53,-1572,1716491311.12,2024-05-23 19:08:31.120000+00:00,2024-05-24 04:08:31.120000+09:00,2024,5,23,19,8,31,120,,,,,,,,,-0.488037,0.144531,-0.135986,-31.188965,85.632324,5.554199,,,,,,,,,,,0.0,1.0,1.0,2.0,0.0,0.0,0.0,5.0,0.0,0.012304679999999997,-0.24258142666666666,0.9745312266666666,2.019042906666666,3.6499023200000003,-3.2104492266666664,-11.62417769104249,-1.0453682422331918,4.63433137582232,3.063329452847556,8.444563294022323,-2.0693786998875923,9.218295111731937,-1.5185762410279349,9.177199397086282,-1.5089337882860936,-0.50034168,0.3871124266666667,-1.1105172266666665,1.997971333333333,1.2780635110777563,0.7017989123834821,0.7017989123834821,0.7017989123834821
LBP08_S02,LBP08,-1571,55,2,54,-1571,1716491311.16,2024-05-23 19:08:31.160000+00:00,2024-05-24 04:08:31.160000+09:00,2024,5,23,19,8,31,160,,,,,,,,,-0.040039,-0.104736,0.140869,-13.48877,-65.917969,-22.644043,,,,,,,,,,,0.0,1.0,1.0,2.0,0.0,0.0,0.0,5.0,0.0,0.01923501333333333,-0.24349939999999998,0.9682649466666667,1.0424803999999994,4.139811173333333,-3.332519533333333,-15.333259909564342,-1.51492681363915,5.564687663901408,2.449999056464982,8.383966221476758,-1.846791193331536,8.927710943534715,-1.4895380348507516,9.092453617564617,-1.5102376710906391,-0.05927401333333333,0.13876339999999998,-0.8273959466666667,1.02543336,0.8410426519485381,0.7095346756926519,0.7095346756926519,0.7095346756926519
LBP08_S02,LBP08,-1570,56,2,55,-1570,1716491311.2,2024-05-23 19:08:31.200000+00:00,2024-05-24 04:08:31.200000+09:00,2024,5,23,19,8,31,200,,,,,,,,,0.400391,-0.203857,0.756836,-29.846191,-112.487793,-29.418945,,,,,,,,,,,0.0,1.0,1.0,2.0,0.0,0.0,0.0,5.0,0.0,0.01385741333333333,-0.24065434666666666,0.9729654666666668,0.8382160799999995,3.3365885200000003,-3.2527669200000005,-17.781604375990373,-1.2967709665324882,6.222174409355475,1.7387348814253671,8.332095382815458,-1.597904216957317,8.660271955475181,-1.5115542912214444,9.031017537451302,-1.5140437308681227,0.38653358666666665,0.03679734666666665,-0.21612946666666688,0.6394604000000002,0.4443806979434663,0.6955792031795368,0.6955792031795368,0.6955792031795368
LBP08_S02,LBP08,-1569,57,2,56,-1569,1716491311.24,2024-05-23 19:08:31.240000+00:00,2024-05-24 04:08:31.240000+09:00,2024,5,23,19,8,31,240,,,,,,,,,0.407227,-0.315674,1.18457,-2.441406,-1.159668,3.356934,,,,,,,,,,,0.0,1.0,1.0,2.0,0.0,0.0,0.0,5.0,0.0,0.019212226666666665,-0.24897140000000004,0.9992024533333331,0.4801431599999995,1.468912746666667,-3.06315104,-18.782176106311542,0.006221357801175414,6.3766257768377566,0.9874478371729054,8.332344237127506,-1.3428391858838067,8.497424950905685,-1.4914521498555495,9.010051210399808,-1.5153914371125763,0.38801477333333334,-0.06670259999999997,0.18536754666666677,0.6400849200000001,0.4351618417656779,0.6825583351088439,0.6825583351088439,0.6825583351088439
LBP08_S02,LBP08,-1568,58,2,57,-1568,1716491311.28,2024-05-23 19:08:31.280000+00:00,2024-05-24 04:08:31.280000+09:00,2024,5,23,19,8,31,280,,,,,,,,,-0.25,-0.370117,1.539795,-60.852051,-0.549316,47.058105,,,,,,,,,,,0.0,1.0,1.0,2.0,0.0,0.0,0.0,5.0,0.0,0.02120441333333333,-0.25227217333333335,1.01604816,1.3932291066666662,3.2568359200000003,-2.2485351600000003,-18.36491636223444,2.337017463144687,5.727965064158158,0.2528511826835278,8.425824935653294,-1.1137205833174804,8.502872050346655,-1.4844248117074832,9.041273317759305,-1.5082737081315971,-0.27120441333333334,-0.11784482666666662,0.52374684,0.91279608,0.6014565565305277,0.6786963456527336,0.6786963456527336,0.6786963456527336
LBP08_S02,LBP08,-1567,59,2,58,-1567,1716491311.32,2024-05-23 19:08:31.320000+00:00,2024-05-24 04:08:31.320000+09:00,2024,5,23,19,8,31,320,,,,,,,,,-0.033936,-0.481934,1.746582,30.517578,-50.048828,0.12207,,,,,,,,,,,0.0,1.0,1.0,2.0,0.0,0.0,0.0,5.0,0.0,0.011829413333333332,-0.2498275066666667,1.0087499866666667,1.3826496799999994,6.481933573333333,-1.4184570399999998,-16.742154764681466,5.161888147859057,4.053093906621267,-0.41683500790373085,8.632300461567656,-0.9515968270526297,8.694590226333379,-1.522057462338911,9.132422371488747,-1.501180752446098,-0.04576541333333333,-0.23210649333333327,0.7378320133333334,1.01570392,0.7748315798962945,0.6830661290274409,0.6830661290274409,0.6830661290274409
LBP08_S02,LBP08,-1566,60,2,59,-1566,1716491311.36,2024-05-23 19:08:31.360000+00:00,2024-05-24 04:08:31.360000+09:00,2024,5,23,19,8,31,360,,,,,,,,,0.28833,-0.262207,1.341309,-24.719238,100.036621,27.832031,,,,,,,,,,,0.0,1.0,1.0,2.0,0.0,0.0,0.0,5.0,0.0,0.007776679999999998,-0.24873376000000003,0.99358072,1.3126627066666663,5.693359346666667,-1.8221028666666665,-14.238261463614512,7.709074829617038,1.3580398659691721,-0.9863654664483114,8.940663454752338,-0.8972752324138629,9.039551022437406,-1.5385785770371951,9.28789212197508,-1.4957237201546243,0.28055332,-0.013473239999999997,0.3477282800000001,0.6417548400000002,0.44699737165992204,0.6728022700114619,0.6728022700114619,0.6728022700114619
LBP08_S02,LBP08,-1565,61,2,60,-1565,1716491311.4,2024-05-23 19:08:31.400000+00:00,2024-05-24 04:08:31.400000+09:00,2024,5,23,19,8,31,400,,,,,,,,,-0.590332,0.113037,-0.112061,17.39502,144.042969,14.770508,,,,,,,,,,,0.0,1.0,1.0,2.0,0.0,0.0,0.0,5.0,0.0,0.016295559999999997,-0.24527021333333332,0.9819498533333333,1.638183533333333,3.74593096,-3.0444335866666665,-11.219565581277298,9.325197465425775,-2.0503184526242118,-1.4351480896994033,9.313671353369369,-0.9792879705188313,9.474340560014927,-1.5024320482861766,9.507611179726494,-1.4922703538856086,-0.60662756,0.3583072133333333,-1.0940108533333333,2.0589456266666666,1.301245865656979,0.6989874198300251,0.6989874198300251,0.6989874198300251
LBP08_S02,LBP08,-1564,62,2,61,-1564,1716491311.44,2024-05-23 19:08:31.440000+00:00,2024-05-24 04:08:31.440000+09:00,2024,5,23,19,8,31,440,,,,,,,,,-0.011719,0.006592,0.107422,-10.925293,-45.532227,-26.245117,,,,,,,,,,,0.0,1.0,1.0,2.0,0.0,0.0,0.0,5.0,0.0,0.02473956,-0.24055667999999997,0.9723828,1.1629231199999996,4.31966144,-3.0891927066666667,-8.05721378947042,9.74373195062908,-5.618279181462978,-1.75743664127822,9.703420631394533,-1.2040191377773504,9.934516474495096,-1.4652806560400806,9.784937236594931,-1.4891482086035501,-0.03645856,0.24714867999999995,-0.8649608,1.1485680399999998,0.9003159901721483,0.7070405626437101,0.7070405626437101,0.7070405626437101
LBP08_S02,LBP08,-1563,63,2,62,-1563,1716491311.48,2024-05-23 19:08:31.480000+00:00,2024-05-24 04:08:31.480000+09:00,2024,5,23,19,8,31,480,,,,,,,,,0.3125,-0.088379,0.741943,-54.260254,-95.092773,-41.625977,,,,,,,,,,,0.0,1.0,1.0,2.0,0.0,0.0,0.0,5.0,0.0,0.019485653333333335,-0.2416243866666667,0.9737564933333335,0.7014973333333329,3.6149088399999996,-2.7750650933333336,-5.128559100322933,9.123782427635193,-8.706267800181141,-1.9625790052911374,10.068371928499941,-1.552269849784596,10.374650419612482,-1.4879132520954523,10.105711172808292,-1.4901002323000268,0.29301434666666665,0.1532453866666667,-0.23181349333333345,0.6780732266666668,0.4038304738111193,0.688665019800862,0.6953786361501488,0.6953786361501488
LBP08_S02,LBP08,-1562,64,2,63,-1562,1716491311.52,2024-05-23 19:08:31.520000+00:00,2024-05-24 04:08:31.520000+09:00,2024,5,23,19,8,31,520,,,,,,,,,0.396484,-0.417969,1.242432,-8.117676,18.005371,-22.216797,,,,,,,,,,,0.0,1.0,1.0,2.0,0.0,0.0,0.0,5.0,0.0,0.026077453333333334,-0.25068362666666666,1.00151692,0.06591790666666619,0.7096354000000005,-2.9109700533333336,-2.825543892816908,7.87494416841903,-10.784616222660121,-2.075600761003814,10.383369695236702,-1.9836544986910007,10.772992616595287,-1.4640059181131995,10.450548644293487,-1.4878939717626198,0.37040654666666667,-0.16728537333333332,0.24091507999999995,0.7786069999999999,0.47246743984766254,0.6938471399484548,0.6871226659167234,0.6871226659167234
LBP08_S02,LBP08,-1561,65,2,64,-1561,1716491311.56,2024-05-23 19:08:31.560000+00:00,2024-05-24 04:08:31.560000+09:00,2024,5,23,19,8,31,560,,,,,,,,,-0.273926,-0.395508,1.625244,3.112793,30.944824,5.859375,,,,,,,,,,,0.0,1.0,1.0,2.0,0.0,0.0,0.0,5.0,0.0,0.028828106666666665,-0.25534834666666667,1.0233919200000001,-0.4060873066666671,1.4054361733333338,-2.2770182266666668,-1.5226418563442585,6.418577096867489,-11.578350999276227,-2.136506435257584,10.640112779111401,-2.44678853866205,11.12490152104884,-1.455004372160594,10.800368865206206,-1.477909208288001,-0.3027541066666667,-0.14015965333333336,0.6018520799999998,1.0447658399999997,0.688135672470464,0.6755735792077779,0.6871588447222141,0.6871588447222141
LBP08_S02,LBP08,-1560,66,2,65,-1560,1716491311.6,2024-05-23 19:08:31.600000+00:00,2024-05-24 04:08:31.600000+09:00,2024,5,23,19,8,31,600,,,,,,,,,-0.179688,-0.480225,1.760254,19.65332,-79.284668,-21.179199,,,,,,,,,,,0.0,1.0,1.0,2.0,0.0,0.0,0.0,5.0,0.0,0.022757146666666665,-0.2587532933333333,1.0202539066666667,-0.22379562666666714,4.3139648133333335,-1.2467447866666665,-1.4833196532607462,5.042890571301296,-11.108883803003302,-2.195839221388014,10.841828401963454,-2.891143890782182,11.43353252415956,-1.4803328384008603,11.142377097489117,-1.4680649217134556,-0.20244514666666666,-0.2214717066666667,0.7400000933333333,1.1639169466666668,0.7985198134023201,0.6785740839076846,0.6909988781249765,0.6909988781249765
LBP08_S02,LBP08,-1559,67,2,66,-1559,1716491311.64,2024-05-23 19:08:31.640000+00:00,2024-05-24 04:08:31.640000+09:00,2024,5,23,19,8,31,640,,,,,,,,,0.36377,-0.379883,1.458984,14.709473,47.363281,8.483887,,,,,,,,,,,0.0,1.0,1.0,2.0,0.0,0.0,0.0,5.0,0.0,0.01693032,-0.2494499066666667,1.0006705733333332,0.7706705199999995,3.2633463333333337,-1.399739573333333,-2.737151328076291,3.9089063611633508,-9.637065295125268,-2.3053252745110657,10.998184656409988,-3.2766265025871926,11.705164313039282,-1.5009723868203138,11.47301491361498,-1.4609624280762141,0.34683968,-0.13043309333333333,0.45831342666666686,0.9355862000000001,0.5893740344823029,0.6861248142816129,0.6876113833368873,0.6876113833368873
LBP08_S02,LBP08,-1558,68,2,67,-1558,1716491311.68,2024-05-23 19:08:31.680000+00:00,2024-05-24 04:08:31.680000+09:00,2024,5,23,19,8,31,680,,,,,,,,,-0.492676,-0.027344,0.190186,11.71875,160.461426,11.169434,,,,,,,,,,,0.0,1.0,1.0,2.0,0.0,0.0,0.0,5.0,0.0,0.02600909333333333,-0.24619796,0.9840527466666666,1.5950520266666663,1.6064452933333337,-1.9189453066666666,-4.997039696537782,3.151280773692043,-7.553653899875114,-2.505206862372577,11.124235887357669,-3.578772658582197,11.951246765198617,-1.4623622063334152,11.79655368453918,-1.4569392475540222,-0.5186850933333333,0.21885396,-0.7938667466666667,1.5314058,0.9732192421633514,0.6998195777326311,0.6968245400732249,0.6968245400732249
LBP08_S02,LBP08,-1557,69,2,68,-1557,1716491311.72,2024-05-23 19:08:31.720000+00:00,2024-05-24 04:08:31.720000+09:00,2024,5,23,19,8,31,720,,,,,,,,,0.031738,-0.138672,0.14917,-26.733398,-49.133301,-16.540527,,,,,,,,,,,0.0,1.0,1.0,2.0,0.0,0.0,0.0,5.0,0.0,0.03497068,-0.24050785333333333,0.9722200666666667,1.276041613333333,2.1638997200000003,-1.9433593733333332,-7.677595399636899,2.956759936738808,-5.270948398907516,-2.8123106783580534,11.242506284827222,-3.7896105945384977,12.19279243546058,-1.4222098275927226,12.12076402422897,-1.4539152842192284,-0.0032326799999999947,0.10183585333333334,-0.8230500666666667,0.9281186,0.8293325047796662,0.7009697479010972,0.7009654139703011,0.7009654139703011
LBP08_S02,LBP08,-1556,70,2,69,-1556,1716491311.76,2024-05-23 19:08:31.760000+00:00,2024-05-24 04:08:31.760000+09:00,2024,5,23,19,8,31,760,,,,,,,,,0.431152,-0.214844,0.838867,7.507324,-96.801758,-26.977539,,,,,,,,,,,0.0,1.0,1.0,2.0,0.0,0.0,0.0,5.0,0.0,0.030651026666666664,-0.24006840000000002,0.9770312666666666,1.0758463066666664,1.5161132666666672,-1.899414066666667,-10.028408050161557,3.525447588757572,-3.148698147406053,-3.213447000364516,11.383524188377525,-3.9155585204347396,12.459633345266504,-1.4401357112917421,12.452301946666903,-1.4560356628204432,0.40050097333333334,0.025224400000000008,-0.1381642666666666,0.56388964,0.4244133180990497,0.6893632029646608,0.6925850474287482,0.6925850474287482
LBP08_S02,LBP08,-1555,71,2,70,-1555,1716491311.8,2024-05-23 19:08:31.800000+00:00,2024-05-24 04:08:31.800000+09:00,2024,5,23,19,8,31,800,,,,,,,,,0.48584,-0.423828,1.273193,-57.678223,3.78418,9.033203,,,,,,,,,,,0.0,1.0,1.0,2.0,0.0,0.0,0.0,5.0,0.0,0.034212226666666665,-0.25120772,1.0050944266666666,0.7519530799999997,-0.24251302666666608,-1.9197591066666666,-11.340420762921358,4.924513587056752,-1.4567844066952997,-3.66706383088137,11.580504731859795,-3.9738298967025516,12.78071872127356,-1.4314071119137608,12.793843435997205,-1.4560862853222454,0.4516277733333333,-0.17262027999999996,0.2680985733333334,0.8923466266666666,0.5528492124772104,0.7066411321517155,0.6884751699301734,0.6884751699301734
LBP08_S02,LBP08,-1554,72,2,71,-1554,1716491311.84,2024-05-23 19:08:31.840000+00:00,2024-05-24 04:08:31.840000+09:00,2024,5,23,19,8,31,840,,,,,,,,,-0.327393,-0.440186,1.617188,-7.751465,46.081543,15.197754,,,,,,,,,,,0.0,1.0,1.0,2.0,0.0,0.0,0.0,5.0,0.0,0.036272773333333334,-0.25443689333333336,1.02590172,0.788574173333333,0.6363932133333339,-1.5454101466666668,-11.149106531078212,6.9496292720104895,-0.3587953225331057,-4.113028092124498,11.858489902740216,-3.9881817096038756,13.169904183737094,-1.4250488508181602,13.143491438308462,-1.4498196879317886,-0.36366577333333333,-0.18574910666666666,0.59128628,1.14070116,0.7185923672276477,0.6889102382268826,0.6893356612815298,0.6893356612815298
LBP08_S02,LBP08,-1553,73,2,72,-1553,1716491311.88,2024-05-23 19:08:31.880000+00:00,2024-05-24 04:08:31.880000+09:00,2024,5,23,19,8,31,880,,,,,,,,,-0.205322,-0.663086,1.944824,-7.202148,-73.425293,-20.263672,,,,,,,,,,,0.0,1.0,1.0,2.0,0.0,0.0,0.0,5.0,0.0,0.028199866666666663,-0.2557910533333333,1.0212793199999999,0.2506509999999996,3.775227853333334,-0.8683268133333335,-9.35855491359023,9.11527001705593,0.0949875200343127,-4.4873702886681075,12.223100703422453,-3.984382208802503,13.61675381651037,-1.4576736187475148,13.495653272499245,-1.442080592203989,-0.23352186666666666,-0.40729494666666666,0.9235446800000002,1.5643614933333336,1.036029155838768,0.6980367891266952,0.698966036130342,0.698966036130342
LBP08_S02,LBP08,-1552,74,2,73,-1552,1716491311.92,2024-05-23 19:08:31.920000+00:00,2024-05-24 04:08:31.920000+09:00,2024,5,23,19,8,31,920,,,,,,,,,0.185791,-0.430908,1.550537,-38.330078,48.950195,17.211914,,,,,,,,,,,0.0,1.0,1.0,2.0,0.0,0.0,0.0,5.0,0.0,0.021061186666666665,-0.25313806666666666,1.0018489733333333,-0.13916020000000032,2.698567693333334,-1.45751952,-6.2431673424424465,10.803189637132922,-0.03772981839226056,-4.737096982365806,12.65522828890777,-3.9858914015381934,14.088371840974627,-1.4852097041253456,13.842122760565456,-1.4370328557410783,0.16472981333333334,-0.17776993333333335,0.5486880266666667,0.8911877733333334,0.5998304853919425,0.7044597829801512,0.696286696921196,0.696286696921196
LBP08_S02,LBP08,-1551,75,2,74,-1551,1716491311.96,2024-05-23 19:08:31.960000+00:00,2024-05-24 04:08:31.960000+09:00,2024,5,23,19,8,31,960,,,,,,,,,-0.415527,-0.055176,0.176514,41.07666,165.466309,17.150879,,,,,,,,,,,0.0,1.0,1.0,2.0,0.0,0.0,0.0,5.0,0.0,0.027539053333333334,-0.24498377333333332,0.9838118533333333,0.454915333333333,0.6608072800000006,-2.48860676,-2.33289235346225,11.494201616401261,-0.6173194156605354,-4.830412676504296,13.11499635356382,-4.010584178164615,14.540316414351857,-1.4555105971786195,14.172635563425398,-1.4344699357687938,-0.4430660533333333,0.18980777333333332,-0.8072978533333333,1.44017168,0.9402469582140334,0.7205665158712797,0.7027067037973234,0.7027067037973234
LBP08_S02,LBP08,-1550,76,2,75,-1550,1716491312.0,2024-05-23 19:08:32+00:00,2024-05-24 04:08:32+09:00,2024,5,23,19,8,32,0,19.0,8.0,30.0,40.765453,141.570801,13.447,3.0,15.0,0.051758,0.002686,0.129395,22.888184,-49.743652,-25.146484,-553.0,21.0,603.0,0.0,0.0,1015.799988,19.309999,0.027747,-21.196339,3.951562,0.0,1.0,1.0,2.0,0.0,0.0,0.0,4.0,0.0,0.036416000000000004,-0.24301437333333334,0.9739420533333333,-1.124674506666667,0.7682291466666671,-2.976074213333333,1.766529018391112,10.955965801347228,-1.4699201505798234,-4.759751515768651,13.553234985617708,-4.069380984187808,14.930012547272128,-1.4176668644962918,14.475217731971687,-1.4330484860788346,0.015341999999999995,0.24570037333333333,-0.8445470533333332,1.1055894266666666,0.8796952743502465,0.7220944259882975,0.7072448722730393,0.7072448722730393
LBP08_S02,LBP08,-1549,77,2,76,-1549,1716491312.04,2024-05-23 19:08:32.040000+00:00,2024-05-24 04:08:32.040000+09:00,2024,5,23,19,8,32,40,,,,,,,,,0.510742,-0.062256,0.912598,6.530762,-72.570801,-28.198242,,,,,,,,,,,0.0,1.0,1.0,2.0,0.0,0.0,0.0,4.0,0.0,0.034996733333333335,-0.24305342666666666,0.9762825466666667,-0.6404622666666671,1.0424804533333338,-3.208821613333333,5.543295358174943,9.286051891290457,-2.4427760349051395,-4.5380197014416535,13.924677061269326,-4.167092025584014,15.226782654947126,-1.4235814295423157,14.737295797715394,-1.4358130531995559,0.4757452666666667,0.18079742666666665,-0.06368454666666667,0.72022724,0.5129103135336288,0.710433374746046,0.7023865083045541,0.7023865083045541
LBP08_S02,LBP08,-1548,78,2,77,-1548,1716491312.08,2024-05-23 19:08:32.080000+00:00,2024-05-24 04:08:32.080000+09:00,2024,5,23,19,8,32,80,,,,,,,,,0.407959,-0.30542,1.301758,-13.549805,2.075195,3.601074,,,,,,,,,,,0.0,1.0,1.0,2.0,0.0,0.0,0.0,4.0,0.0,0.03896157333333333,-0.25044601333333333,0.9988151066666666,0.4622395599999996,-0.6860351733333331,-3.356119786666667,8.676040271399597,6.809606901886111,-3.4401028567778087,-4.19097809058567,14.19706133734477,-4.3046961398551264,15.415941645860704,-1.4118848417043084,14.948120761524326,-1.4355175178578157,0.3689974266666667,-0.0549739866666667,0.30294289333333335,0.7269143066666668,0.4805784397138726,0.716940830898184,0.6969765554120985,0.6969765554120985
LBP08_S02,LBP08,-1547,79,2,78,-1547,1716491312.12,2024-05-23 19:08:32.120000+00:00,2024-05-24 04:08:32.120000+09:00,2024,5,23,19,8,32,120,,,,,,,,,-0.465088,-0.440918,1.704102,8.300781,50.842285,15.930176,,,,,,,,,,,0.0,1.0,1.0,2.0,0.0,0.0,0.0,4.0,0.0,0.042662746666666675,-0.24934576000000003,1.0182161466666668,-0.0431315333333338,0.2596028533333337,-2.726236973333333,11.037562053868902,3.929789571924075,-4.41605823051386,-3.749475608430914,14.354252920221734,-4.481338469075681,15.497920464060012,-1.3965806278698796,15.10188092201646,-1.428577934956519,-0.5077507466666666,-0.19157223999999995,0.6858858533333332,1.3852088399999998,0.8746142850891299,0.7008028618586387,0.7012060251663135,0.7012060251663135
LBP08_S02,LBP08,-1546,80,2,79,-1546,1716491312.16,2024-05-23 19:08:32.160000+00:00,2024-05-24 04:08:32.160000+09:00,2024,5,23,19,8,32,160,,,,,,,,,-0.189209,-0.425293,1.876221,36.437988,-82.15332,-20.751953,,,,,,,,,,,0.0,1.0,1.0,2.0,0.0,0.0,0.0,4.0,0.0,0.03549478666666667,-0.25042974666666673,1.01492512,0.39876299999999953,3.3699544133333337,-1.4624023333333331,12.632845097237078,1.0366131269084575,-5.3282945276424565,-3.244161804541431,14.395717445298072,-4.694470250181379,15.48545503072941,-1.4259212143921496,15.200019475577477,-1.4181737588627579,-0.22470378666666666,-0.17486325333333325,0.8612958799999999,1.2608629199999997,0.907138105259409,0.7034466799910736,0.7059951433080134,0.7059951433080134
LBP08_S02,LBP08,-1545,81,2,80,-1545,1716491312.2,2024-05-23 19:08:32.200000+00:00,2024-05-24 04:08:32.200000+09:00,2024,5,23,19,8,32,200,,,,,,,,,0.268799,-0.324951,1.500244,-21.66748,59.082031,22.888184,,,,,,,,,,,0.0,1.0,1.0,2.0,0.0,0.0,0.0,4.0,0.0,0.026464839999999996,-0.24266933333333338,0.9955045466666667,-0.15055340000000045,2.232259106666667,-1.6276041599999997,13.518202510272422,-1.49857881960592,-6.086625554154096,-2.703433704130534,14.335774292513834,-4.937935272347542,15.401499378710616,-1.4590527831209716,15.251505154324935,-1.4100738559038182,0.24233416000000002,-0.08228166666666661,0.5047394533333333,0.8293552799999999,0.5659134505589898,0.7083079900956946,0.7028114684728083,0.7028114684728083
LBP08_S02,LBP08,-1544,82,2,81,-1544,1716491312.24,2024-05-23 19:08:32.240000+00:00,2024-05-24 04:08:32.240000+09:00,2024,5,23,19,8,32,240,,,,,,,,,-0.476074,-0.023682,-0.055664,1.037598,130.249023,24.291992,,,,,,,,,,,0.0,1.0,1.0,2.0,0.0,0.0,0.0,4.0,0.0,0.034661453333333335,-0.23797206666666662,0.9780696533333334,-0.6160481866666672,0.19449869333333367,-2.4381510266666666,13.741290099673739,-3.29943182968371,-6.540456900309156,-2.153782100143584,14.203797019326485,-5.1995535483599085,15.278153821826411,-1.42209349740076,15.270870154826435,-1.4058423924759609,-0.5107354533333334,0.2142900666666666,-1.0337336533333334,1.7587591733333334,1.1727643420557645,0.737812090107298,0.7132548656635407,0.7132548656635407
LBP08_S02,LBP08,-1543,83,2,82,-1543,1716491312.28,2024-05-23 19:08:32.280000+00:00,2024-05-24 04:08:32.280000+09:00,2024,5,23,19,8,32,280,,,,,,,,,-0.086182,-0.322266,0.113525,29.907227,-66.345215,-38.330078,,,,,,,,,,,0.0,1.0,1.0,2.0,0.0,0.0,0.0,4.0,0.0,0.042805986666666664,-0.23861333333333334,0.9691048133333332,-1.3452148533333337,0.12776692000000017,-2.7709960799999998,13.324113444434262,-4.017610890170924,-6.5280772613333005,-1.6208175623662138,14.043092583719648,-5.460676638813241,15.154355421431728,-1.3882777897345497,15.274900618817517,-1.4034106054640307,-0.12898798666666667,-0.08365266666666665,-0.8555798133333332,1.0682204666666666,0.8692827424539532,0.7485251375442351,0.7166467760285495,0.7166467760285495
LBP08_S02,LBP08,-1542,84,2,83,-1542,1716491312.32,2024-05-23 19:08:32.320000+00:00,2024-05-24 04:08:32.320000+09:00,2024,5,23,19,8,32,320,,,,,,,,,0.349609,0.210205,0.606201,54.077148,-117.1875,-58.349609,,,,,,,,,,,0.0,1.0,1.0,2.0,0.0,0.0,0.0,4.0,0.0,0.04412434666666667,-0.2363086533333333,0.9748502533333332,-0.47607422666666727,-0.5566406399999996,-2.7115885333333334,12.287883498106222,-3.4617065413310395,-5.96923761510981,-1.1293022224419649,13.904624322066407,-5.699446143417633,15.069757376584773,-1.3811679431877317,15.279363619221144,-1.4046458144807286,0.30548465333333336,0.4465136533333333,-0.3686492533333332,1.1206475599999999,0.6546736500108211,0.7437188203488162,0.7153281988792362,0.7153281988792362
LBP08_S02,LBP08,-1541,85,2,84,-1541,1716491312.36,2024-05-23 19:08:32.360000+00:00,2024-05-24 04:08:32.360000+09:00,2024,5,23,19,8,32,360,,,,,,,,,0.598877,-0.303711,1.099121,-12.756348,-29.052734,-12.145996,,,,,,,,,,,0.0,1.0,1.0,2.0,0.0,0.0,0.0,4.0,0.0,0.04717121333333334,-0.24391281333333334,0.9997526000000001,-0.26529949333333397,-1.6479492399999995,-2.3282877466666667,10.693652966785965,-1.7559371497218366,-4.941371066545413,-0.7015561037705262,13.834386836077535,-5.89710098607945,15.055173201826417,-1.3745115675892223,15.296945161186141,-1.4035650972608675,0.5517057866666667,-0.05979818666666667,0.09936839999999991,0.7108723733333333,0.5637634052407685,0.74838946169205,0.7121705990117682,0.7121705990117682
LBP08_S02,LBP08,-1540,86,2,85,-1540,1716491312.4,2024-05-23 19:08:32.400000+00:00,2024-05-24 04:08:32.400000+09:00,2024,5,23,19,8,32,400,,,,,,,,,-0.123779,-0.431641,1.473633,-19.042969,48.461914,27.526855,,,,,,,,,,,0.0,1.0,1.0,2.0,0.0,0.0,0.0,4.0,0.0,0.048167306666666666,-0.2502344266666666,1.0204492266666667,-0.8935546933333339,-0.3759765733333328,-1.6162109199999997,8.665983614357556,0.6117909425742245,-3.6751823332301092,-0.354916759196224,13.858858473780504,-6.044108279408654,15.123662552287136,-1.3753522302177188,15.336765853897958,-1.3966135568578852,-0.17194630666666666,-0.18140657333333338,0.45318377333333326,0.8065366533333334,0.5175416984528758,0.7170412950038859,0.7081985806330152,0.7081985806330152
LBP08_S02,LBP08,-1539,87,2,86,-1539,1716491312.44,2024-05-23 19:08:32.440000+00:00,2024-05-24 04:08:32.440000+09:00,2024,5,23,19,8,32,440,,,,,,,,,-0.189697,-0.481934,1.664062,18.920898,-31.738281,11.657715,,,,,,,,,,,0.0,1.0,1.0,2.0,0.0,0.0,0.0,4.0,0.0,0.042382800000000005,-0.25180669333333333,1.01823568,-0.9138997466666672,3.0639648266666675,-0.9033202933333329,6.388168844876932,2.9439590437266387,-2.4556246196477725,-0.09939000540114673,13.976616835529569,-6.142333264194565,15.267087294857959,-1.399263559423017,15.404832415120485,-1.386628849953037,-0.2320798,-0.23012730666666664,0.6458263199999998,1.1080334266666665,0.7238171360547057,0.7099813408391882,0.7085109517414491,0.7085109517414491
LBP08_S02,LBP08,-1538,88,2,87,-1538,1716491312.48,2024-05-23 19:08:32.480000+00:00,2024-05-24 04:08:32.480000+09:00,2024,5,23,19,8,32,480,,,,,,,,,0.203613,-0.133789,1.52002,23.498535,81.359863,20.446777,,,,,,,,,,,0.0,1.0,1.0,2.0,0.0,0.0,0.0,4.0,0.0,0.03547525333333333,-0.2473893733333333,1.0012858133333333,-1.0335286400000006,1.9685872266666673,-1.2426757733333331,4.081544441252391,4.635711084354929,-1.4853510634962561,0.06387177224894891,14.162045278903767,-6.201747306734415,15.46057164989698,-1.4242369318712838,15.504264088273677,-1.380286948596099,0.16813774666666664,0.11360037333333331,0.5187341866666666,0.8004723066666666,0.5570103258399659,0.716108534920342,0.702386777360602,0.7055403512335768
LBP08_S02,LBP08,-1537,89,2,88,-1537,1716491312.52,2024-05-23 19:08:32.520000+00:00,2024-05-24 04:08:32.520000+09:00,2024,5,23,19,8,32,520,,,,,,,,,-0.435303,-0.167969,0.20459,-4.150391,162.963867,29.052734,,,,,,,,,,,0.0,1.0,1.0,2.0,0.0,0.0,0.0,4.0,0.0,0.04376953333333333,-0.24050136,0.9841275999999999,-1.1979166666666672,0.2661132666666674,-2.4283854,1.9809411757186772,5.450214160535909,-0.7999241381902636,0.143109419277696,14.380053845325204,-6.233744272262025,15.673735883709977,-1.3857734556712697,15.634559127730663,-1.3767906515317152,-0.47907253333333333,0.07253235999999999,-0.7795375999999998,1.3311424933333331,0.9178509166827405,0.7339238739937451,0.7138855069710999,0.7096232467229838
LBP08_S02,LBP08,-1536,90,2,89,-1536,1716491312.56,2024-05-23 19:08:32.560000+00:00,2024-05-24 04:08:32.560000+09:00,2024,5,23,19,8,32,560,,,,,,,,,0.012451,-0.277832,0.161865,-13.48877,-78.24707,-25.20752,,,,,,,,,,,0.0,1.0,1.0,2.0,0.0,0.0,0.0,4.0,0.0,0.050849613333333335,-0.24020514666666665,0.9741406266666667,-2.40885416,0.36376952000000057,-2.5130208266666663,0.303599020587394,5.585452864261986,-0.29179175764842463,0.15525338010119175,14.603471959895684,-6.245415942567962,15.883661957847579,-1.356405810362328,15.790211256154981,-1.376571805155773,-0.03839861333333333,-0.03762685333333338,-0.8122756266666666,0.8883010933333333,0.81405277917001,0.738960558261727,0.7072670687347525,0.7115936152597202
LBP08_S02,LBP08,-1535,91,2,90,-1535,1716491312.6,2024-05-23 19:08:32.600000+00:00,2024-05-24 04:08:32.600000+09:00,2024,5,23,19,8,32,600,,,,,,,,,0.392578,0.230225,0.610596,41.503906,-132.080078,-67.993164,,,,,,,,,,,0.0,1.0,1.0,2.0,0.0,0.0,0.0,4.0,0.0,0.04993163999999999,-0.23898770666666663,0.9772916666666667,-2.0035807200000004,-0.7755533866666661,-2.4039713466666663,-0.793639507046843,5.471951131577614,0.1732297867264475,0.12350779981931803,14.822350005158789,-6.238486751098904,16.082164990935876,-1.3592057140724894,15.959793862468894,-1.3797316113363451,0.34264636,0.46921270666666665,-0.36669566666666664,1.1785547333333333,0.6870464351634612,0.7345016231321725,0.7065378535199285,0.7111390378505301
LBP08_S02,LBP08,-1534,92,2,91,-1534,1716491312.64,2024-05-23 19:08:32.640000+00:00,2024-05-24 04:08:32.640000+09:00,2024,5,23,19,8,32,640,,,,,,,,,0.52124,-0.491455,1.224121,-48.64502,-24.841309,-7.446289,,,,,,,,,,,0.0,1.0,1.0,2.0,0.0,0.0,0.0,4.0,0.0,0.051949866666666664,-0.24817716,1.0019921866666668,-1.6927083200000004,-2.176106773333333,-2.244466133333333,-1.2608028174067516,5.425613393412339,0.6295191337627485,0.07307568712304796,15.039374540895283,-6.213305985748394,16.27247055335835,-1.3586744838313791,16.12660536353616,-1.3806058327757484,0.46929013333333336,-0.24327783999999997,0.22212881333333323,0.9346967866666666,0.5733746998185029,0.7338616497456206,0.7099932320136167,0.7086342317044932
LBP08_S02,LBP08,-1533,93,2,92,-1533,1716491312.68,2024-05-23 19:08:32.680000+00:00,2024-05-24 04:08:32.680000+09:00,2024,5,23,19,8,32,680,,,,,,,,,-0.17334,-0.18457,1.505127,-23.193359,56.518555,30.700684,,,,,,,,,,,0.0,1.0,1.0,2.0,0.0,0.0,0.0,4.0,0.0,0.054140626666666664,-0.2519792533333334,1.02279948,-1.411132786666667,-1.4811197866666659,-1.9287109199999997,-1.1822421085742072,5.392630585477343,0.969459431741344,0.02578600278007967,15.255079764314377,-6.174527608478741,16.457305816001583,-1.3533148190907125,16.27114989895635,-1.3759358942732325,-0.22748062666666666,0.06740925333333336,0.4823275200000001,0.7772174000000002,0.5375232827450058,0.7164338113688867,0.7081266945507589,0.7055786790445024
LBP08_S02,LBP08,-1532,94,2,93,-1532,1716491312.72,2024-05-23 19:08:32.720000+00:00,2024-05-24 04:08:32.720000+09:00,2024,5,23,19,8,32,720,,,,,,,,,-0.185791,-0.592285,1.803223,10.559082,-41.442871,10.131836,,,,,,,,,,,0.0,1.0,1.0,2.0,0.0,0.0,0.0,4.0,0.0,0.04783853333333333,-0.2535287333333333,1.02132812,-1.2833658666666672,1.816406253333334,-1.1433919199999998,-0.7588876944904355,4.960754467069549,1.0209429576334745,-0.00456950499953775,15.45350994299716,-6.133689890173402,16.626278660827968,-1.3789794794283086,16.374605110958207,-1.3688805087587916,-0.23362953333333333,-0.33875626666666664,0.7818948800000001,1.35428068,0.8835712593909466,0.7186033615533381,0.7097865547272177,0.7087013558926857
LBP08_S02,LBP08,-1531,95,2,94,-1531,1716491312.76,2024-05-23 19:08:32.760000+00:00,2024-05-24 04:08:32.760000+09:00,2024,5,23,19,8,32,760,,,,,,,,,0.135254,-0.283447,1.473145,45.227051,66.711426,33.203125,,,,,,,,,,,0.0,1.0,1.0,2.0,0.0,0.0,0.0,4.0,0.0,0.04015949333333333,-0.24874682666666667,1.00440104,-0.808105453333334,1.3330078133333343,-1.5397135466666663,-0.23706318083572417,3.624158774834064,0.6920830284946949,-0.014052032232966716,15.598476293990522,-6.106006569033614,16.750999264965532,-1.4061096293949429,16.421737472302198,-1.3658464476510364,0.09509450666666669,-0.034700173333333334,0.46874395999999985,0.5985386399999999,0.47954975473252154,0.7208088190186769,0.7050860109916688,0.7047504662175105
LBP08_S02,LBP08,-1530,96,2,95,-1530,1716491312.8,2024-05-23 19:08:32.800000+00:00,2024-05-24 04:08:32.800000+09:00,2024,5,23,19,8,32,800,,,,,,,,,-0.312744,0.00708,0.248291,-5.371094,154.35791,33.691406,,,,,,,,,,,0.0,1.0,1.0,2.0,0.0,0.0,0.0,4.0,0.0,0.04468097333333333,-0.24336922666666666,0.9866992133333332,0.5053711066666662,-0.2530924533333327,-2.7644856799999995,0.18809496512035706,1.1264786840702388,0.08142971331028757,-0.006528233628152433,15.643535441353333,-6.102749380501202,16.791777562959794,-1.3840944446117525,16.402079194257105,-1.3650775350185043,-0.35742497333333334,0.25044922666666664,-0.7384082133333332,1.346282413333333,0.8577436191650689,0.7330045952861911,0.7198228637189534,0.7073435705047573
LBP08_S02,LBP08,-1529,97,2,96,-1529,1716491312.84,2024-05-23 19:08:32.840000+00:00,2024-05-24 04:08:32.840000+09:00,2024,5,23,19,8,32,840,,,,,,,,,0.043701,-0.07959,0.016846,-14.160156,-55.419922,-34.423828,,,,,,,,,,,0.0,1.0,1.0,2.0,0.0,0.0,0.0,4.0,0.0,0.05138345333333333,-0.2381901866666667,0.9747460933333332,-0.09602862666666714,-0.5305989599999994,-3.25195312,0.44241357491724903,-2.333801218790376,-0.5252302428017391,0.011168309368537528,15.550183392601717,-6.123758590213272,16.712532649059845,-1.3525641743978587,16.309422583600384,-1.3656701493817296,-0.007682453333333332,0.1586001866666667,-0.9579000933333331,1.1241827333333332,0.9709714867636067,0.7430997600676297,0.716004999147256,0.7117373691090714
LBP08_S02,LBP08,-1528,98,2,97,-1528,1716491312.88,2024-05-23 19:08:32.880000+00:00,2024-05-24 04:08:32.880000+09:00,2024,5,23,19,8,32,880,,,,,,,,,0.323486,-0.043945,0.659912,-2.624512,-117.675781,-50.476074,,,,,,,,,,,0.0,1.0,1.0,2.0,0.0,0.0,0.0,4.0,0.0,0.05143553333333333,-0.23976896,0.9762727866666665,0.24495443999999955,-1.073404946666666,-3.1404622266666666,0.5790902063110779,-6.1594546595719555,-0.7758578918799303,0.034331917620980645,15.303805206218838,-6.154792905888469,16.495123769915562,-1.3536830767268748,16.140829513026524,-1.3700250112282752,0.27205046666666666,0.19582396000000002,-0.31636078666666645,0.7842352133333331,0.46091498897734356,0.7200951933931726,0.7090659912599339,0.7076255268118299
LBP08_S02,LBP08,-1527,99,2,98,-1527,1716491312.92,2024-05-23 19:08:32.920000+00:00,2024-05-24 04:08:32.920000+09:00,2024,5,23,19,8,32,920,,,,,,,,,0.549316,-0.207764,1.018799,15.136719,-36.132812,-10.009766,,,,,,,,,,,0.0,1.0,1.0,2.0,0.0,0.0,0.0,4.0,0.0,0.052539053333333335,-0.24705737333333333,0.9996256533333332,-0.17903645333333376,-2.9467773466666656,-3.0989583199999995,0.7254313550615549,-9.625120940739594,-0.4195333756523128,0.06334917182344284,14.918800368589254,-6.171574240914561,16.145059497149884,-1.3554328445937192,15.896492045152604,-1.3729257029852981,0.4967769466666667,0.039293373333333326,0.019173346666666813,0.5552436666666669,0.49869722392426563,0.7160498629344655,0.7102548229573084,0.7042557154749337
LBP08_S02,LBP08,-1526,100,2,99,-1526,1716491312.96,2024-05-23 19:08:32.960000+00:00,2024-05-24 04:08:32.960000+09:00,2024,5,23,19,8,32,960,,,,,,,,,-0.085449,-0.326416,1.510254,-9.399414,49.987793,37.414551,,,,,,,,,,,0.0,1.0,1.0,2.0,0.0,0.0,0.0,4.0,0.0,0.0551302,-0.25106128000000005,1.0207454399999998,0.0488281333333329,-2.9801432266666663,-2.8645833199999995,1.000964522310735,-12.181441347818714,0.5762731278010077,0.10338775271587225,14.431542714676505,-6.148523315802521,15.687079177396644,-1.3487166840370053,15.58088442443522,-1.3693477107380692,-0.1405792,-0.07535471999999993,0.4895085600000002,0.7054424800000001,0.5148392716296923,0.6990335554710918,0.7098000356711858,0.7012491052551679
LBP08_S02,LBP08,-1525,101,2,100,-1525,1716491313.0,2024-05-23 19:08:33+00:00,2024-05-24 04:08:33+09:00,2024,5,23,19,8,33,0,19.0,8.0,31.0,40.765572,141.570847,13.66,3.0,15.0,-0.147461,-0.415283,1.80127,-2.990723,-89.72168,-3.723145,-551.0,17.0,601.0,0.0,0.0,1015.599976,19.379999,0.025765,-19.53533,3.951562,0.0,1.0,1.0,2.0,0.0,0.0,0.0,4.0,0.0,0.0512272,-0.25262703999999997,1.0224642,0.20670573333333295,0.3735351466666672,-1.97672524,1.440696673004089,-13.616563168875844,2.012699407527983,0.1610156196360358,13.886880187921472,-6.068015339501402,15.155598884368674,-1.3651318577047429,15.204422644739754,-1.3631930811285433,-0.1986882,-0.16265596000000004,0.7788058,1.14014996,0.8200441672595457,0.6966475111874639,0.7093709685878806,0.7031052780989864
LBP08_S02,LBP08,-1524,102,2,101,-1524,1716491313.04,2024-05-23 19:08:33.040000+00:00,2024-05-24 04:08:33.040000+09:00,2024,5,23,19,8,33,40,,,,,,,,,0.240723,-0.435303,1.80542,-17.51709,-10.742188,6.164551,,,,,,,,,,,0.0,1.0,1.0,2.0,0.0,0.0,0.0,4.0,0.0,0.04088214666666666,-0.2471778133333333,1.0045279999999999,0.008951826666666279,0.3572591066666672,-1.809895813333333,1.9504597123958867,-14.019340272806314,3.5347435618347216,0.23903400813187126,13.32610657700922,-5.926625597028013,14.586539847619779,-1.402223102296836,14.784183962331948,-1.3586728913440402,0.19984085333333335,-0.1881251866666667,0.8008920000000002,1.1888580400000002,0.8466141081882367,0.7099956629736482,0.710214518859847,0.7053131062542057
LBP08_S02,LBP08,-1523,103,2,102,-1523,1716491313.08,2024-05-23 19:08:33.080000+00:00,2024-05-24 04:08:33.080000+09:00,2024,5,23,19,8,33,80,,,,,,,,,-0.095215,-0.167725,0.640381,14.648438,166.442871,32.470703,,,,,,,,,,,0.0,1.0,1.0,2.0,0.0,0.0,0.0,4.0,0.0,0.04491534666666666,-0.2422364,0.9857063866666665,-0.013834626666667052,-1.4038085999999994,-2.189941386666666,2.3131923101919036,-13.615880606323884,4.738125965386053,0.3315617005395474,12.781471352756265,-5.737100558412571,14.013931137262361,-1.3823217366609406,14.342680562270024,-1.3570375468345794,-0.14013034666666666,0.07451139999999998,-0.34532538666666657,0.5599671333333331,0.3800501091479424,0.7059745297510109,0.7114576803245973,0.7003848790253229
LBP08_S02,LBP08,-1522,104,2,103,-1522,1716491313.12,2024-05-23 19:08:33.120000+00:00,2024-05-24 04:08:33.120000+09:00,2024,5,23,19,8,33,120,,,,,,,,,-0.138916,0.228027,-0.123291,19.042969,-40.771484,-8.972168,,,,,,,,,,,0.0,1.0,1.0,2.0,0.0,0.0,0.0,4.0,0.0,0.05362629333333333,-0.23798509333333334,0.9742317733333332,-0.559895826666667,-1.2711588666666662,-2.0467122266666666,2.249692629239783,-12.613122758192553,5.258151648340442,0.42154940570913874,12.276946442428564,-5.526774492478953,13.470202453654105,-1.343199556956017,13.904936968372159,-1.358070643510669,-0.19254229333333334,0.4660120933333334,-1.0975227733333333,1.75607716,1.2078062940058998,0.7193022101076818,0.7100525359831603,0.7079583329802569
LBP08_S02,LBP08,-1521,105,2,104,-1521,1716491313.16,2024-05-23 19:08:33.160000+00:00,2024-05-24 04:08:33.160000+09:00,2024,5,23,19,8,33,160,,,,,,,,,0.252197,-0.133545,0.450684,-19.348145,-132.8125,-24.291992,,,,,,,,,,,0.0,1.0,1.0,2.0,0.0,0.0,0.0,4.0,0.0,0.053671866666666665,-0.2397722,0.9744368533333333,-0.7706705733333338,-1.3004557333333326,-1.789550773333333,1.51545499574349,-11.157721639610964,4.823869891369842,0.48216760553887833,11.830637576844126,-5.333819696824159,12.986381468010892,-1.344563333299687,13.495129942389184,-1.3631073303194026,0.19852513333333333,0.1062272,-0.5237528533333333,0.8285051866666666,0.5700995509204212,0.7058206679341222,0.704633673962598,0.7059309979499652
LBP08_S02,LBP08,-1520,106,2,105,-1520,1716491313.2,2024-05-23 19:08:33.200000+00:00,2024-05-24 04:08:33.200000+09:00,2024,5,23,19,8,33,200,,,,,,,,,0.577637,-0.208252,1.01709,18.005371,-49.987793,-13.549805,,,,,,,,,,,0.0,1.0,1.0,2.0,0.0,0.0,0.0,4.0,0.0,0.056471346666666665,-0.24594406666666666,0.9941080666666666,-0.7950846400000003,-3.425292973333333,-1.8115234399999998,0.0005105510915274249,-9.411513293798109,3.2924212775592867,0.4821880275825394,11.454177045092202,-5.202122845721788,12.589390738881752,-1.338892546766721,13.133977839562998,-1.3660236384279156,0.5211656533333333,0.03769206666666666,0.022981933333333426,0.5818396533333334,0.5230320251798186,0.7041054109189554,0.7062067005073248,0.7032802881996731
LBP08_S02,LBP08,-1519,107,2,106,-1519,1716491313.24,2024-05-23 19:08:33.240000+00:00,2024-05-24 04:08:33.240000+09:00,2024,5,23,19,8,33,240,,,,,,,,,-0.056396,-0.273926,1.49707,-16.784668,65.185547,36.437988,,,,,,,,,,,0.0,1.0,1.0,2.0,0.0,0.0,0.0,4.0,0.0,0.057825520000000005,-0.24869471999999998,1.0166503866666667,-0.5257161600000003,-3.497721359999999,-1.787109386666666,-2.1995594475680047,-7.63353467219368,0.6879425812209814,0.39420564967981925,11.148835658204455,-5.174605142472949,12.29749864844059,-1.336210729303251,12.837169797561014,-1.3633086416308406,-0.11422152,-0.025231280000000023,0.48041961333333316,0.6198724133333332,0.4944554358047833,0.6769730546689162,0.707392572388107,0.7002970760226034
LBP08_S02,LBP08,-1518,108,2,107,-1518,1716491313.28,2024-05-23 19:08:33.280000+00:00,2024-05-24 04:08:33.280000+09:00,2024,5,23,19,8,33,280,,,,,,,,,-0.368652,-0.592285,1.831299,20.019531,-41.07666,6.835938,,,,,,,,,,,0.0,1.0,1.0,2.0,0.0,0.0,0.0,4.0,0.0,0.05090169333333333,-0.24951828,1.0175911466666665,-1.344401053333334,0.19287109333333394,-1.0978190266666663,-4.763462037897249,-6.153736807664152,-2.7529814394162178,0.20366716816392927,10.902686185897888,-5.284724400049598,12.117687830936896,-1.364014043487771,12.614394251566292,-1.3568247403453277,-0.4195536933333333,-0.34276671999999997,0.8137078533333335,1.5760282666666667,0.9775657504769389,0.6813043749898355,0.7149147562670352,0.7042022686205517
LBP08_S02,LBP08,-1517,109,2,108,-1517,1716491313.32,2024-05-23 19:08:33.320000+00:00,2024-05-24 04:08:33.320000+09:00,2024,5,23,19,8,33,320,,,,,,,,,0.15918,-0.319336,1.731445,9.58252,-13.122559,1.525879,,,,,,,,,,,0.0,1.0,1.0,2.0,0.0,0.0,0.0,4.0,0.0,0.03960286666666667,-0.244655,1.0006022133333332,-0.7674153733333338,0.3409830666666671,-1.4143880399999997,-7.187839056619963,-5.229705842787482,-6.56322664164065,-0.08384639410086925,10.693497952186389,-5.547253465715223,12.04698923732016,-1.4057997126810526,12.468600781739546,-1.3525921821295743,0.11957713333333332,-0.074681,0.7308427866666667,0.92510092,0.7443165465041851,0.6848900908495701,0.7143044555991931,0.7047594113689355
LBP08_S02,LBP08,-1516,110,2,109,-1516,1716491313.36,2024-05-23 19:08:33.360000+00:00,2024-05-24 04:08:33.360000+09:00,2024,5,23,19,8,33,360,,,,,,,,,-0.238525,-0.156494,0.516357,-38.330078,165.649414,14.160156,,,,,,,,,,,0.0,1.0,1.0,2.0,0.0,0.0,0.0,4.0,0.0,0.045501306666666665,-0.23948246666666667,0.9830501199999999,-0.5761718800000004,-1.7268880266666664,-1.8001302266666663,-8.89590583709893,-4.887068959905194,-10.100090270658523,-0.43968262758482646,10.49801519379018,-5.951257076541564,12.075558149134782,-1.3778797651221373,12.395706382251621,-1.3520277811666133,-0.2840263066666667,0.08298846666666668,-0.46669311999999996,0.8337078933333333,0.5525943328823832,0.6844433279552348,0.7164163948236424,0.7026749582389827
LBP08_S02,LBP08,-1515,111,2,110,-1515,1716491313.4,2024-05-23 19:08:33.400000+00:00,2024-05-24 04:08:33.400000+09:00,2024,5,23,19,8,33,400,,,,,,,,,-0.141846,-0.218262,-0.070557,-18.798828,-35.03418,-39.489746,,,,,,,,,,,0.0,1.0,1.0,2.0,0.0,0.0,0.0,4.0,0.0,0.05479817333333333,-0.23753585333333332,0.9714225200000001,-0.9155273600000006,-1.5738932399999994,-1.9433593866666665,-9.390312537310674,-4.872008291151811,-12.688988689090152,-0.8152951290772534,10.303134862144109,-6.45881662410517,12.187518464348832,-1.337981889733993,12.385258738646916,-1.3547028579808875,-0.19664417333333334,0.019273853333333313,-1.0419795200000002,1.2578975466666669,1.060547845421269,0.7061635738339704,0.7116024344189281,0.7075110783360407
LBP08_S02,LBP08,-1514,112,2,111,-1514,1716491313.44,2024-05-23 19:08:33.440000+00:00,2024-05-24 04:08:33.440000+09:00,2024,5,23,19,8,33,440,,,,,,,,,0.218994,-0.020996,0.297607,14.282227,-136.230469,-51.696777,,,,,,,,,,,0.0,1.0,1.0,2.0,0.0,0.0,0.0,4.0,0.0,0.05439778666666666,-0.23504888,0.9708105466666666,0.2604166533333329,-1.4054361999999996,-2.080891933333333,-8.404254093458732,-4.77903132249053,-13.818041209212973,-1.1514652928156028,10.111973609244489,-7.011538272473689,12.358784387672571,-1.3373840894417053,12.422263140085192,-1.3613785528038662,0.16459621333333332,0.21405288,-0.6732035466666666,1.05185264,0.7253368625159936,0.7062243628924219,0.7081028518658051,0.7077487554584401
LBP08_S02,LBP08,-1513,113,2,112,-1513,1716491313.48,2024-05-23 19:08:33.480000+00:00,2024-05-24 04:08:33.480000+09:00,2024,5,23,19,8,33,480,,,,,,,,,0.618164,-0.381348,1.070312,-69.885254,-65.551758,-30.090332,,,,,,,,,,,0.0,1.0,1.0,2.0,0.0,0.0,0.0,4.0,0.0,0.05528645333333333,-0.24179041333333334,0.9917089733333334,-0.12532553333333374,-3.957519533333333,-2.2566731866666663,-5.995743276915816,-4.2910336712750885,-13.303595058332515,-1.3912950238922355,9.940332262393484,-7.5436820748069895,12.55599643899489,-1.3399961545034078,12.489793545133576,-1.3647645663305839,0.5628775466666667,-0.13955758666666668,0.07860302666666652,0.7810381599999999,0.5852229390060427,0.7073528674190651,0.7117307011697035,0.704042140713423
LBP08_S02,LBP08,-1512,114,2,113,-1512,1716491313.52,2024-05-23 19:08:33.520000+00:00,2024-05-24 04:08:33.520000+09:00,2024,5,23,19,8,33,520,,,,,,,,,0.112305,-0.289062,1.422607,24.780273,84.228516,5.92041,,,,,,,,,,,0.0,1.0,1.0,2.0,0.0,0.0,0.0,4.0,0.0,0.056204413333333335,-0.24292974666666667,1.0122330533333332,-0.21158856000000037,-3.563639333333333,-1.7911783999999997,-2.5469872503940914,-3.368823973589498,-11.346550436995786,-1.493174513907999,9.805579303449905,-7.997544092286821,12.741258458774837,-1.337555547326406,12.571599876482747,-1.361271317845144,0.05610058666666667,-0.04613225333333332,0.4103739466666667,0.5126067866666667,0.4167520086631032,0.6873089110982795,0.7106163925460123,0.7050266416801598
LBP08_S02,LBP08,-1511,115,2,114,-1511,1716491313.56,2024-05-23 19:08:33.560000+00:00,2024-05-24 04:08:33.560000+09:00,2024,5,23,19,8,33,560,,,,,,,,,-0.298828,-0.5896,1.714844,32.897949,-28.625488,-0.793457,,,,,,,,,,,0.0,1.0,1.0,2.0,0.0,0.0,0.0,4.0,0.0,0.04821288,-0.24511724000000001,1.0101399466666667,-0.07080080000000039,-0.2921549599999995,-0.9611002799999998,1.3328917195897512,-2.2535537312117313,-8.448904308231658,-1.439858845124409,9.715437154201435,-8.335500264616087,12.88190503196385,-1.3713141014424308,12.653924523514373,-1.3542622972243326,-0.34704088,-0.34448276,0.7047040533333333,1.3962276933333333,0.8577374581495327,0.6890562982574605,0.7140084282595938,0.7011968119089885
LBP08_S02,LBP08,-1510,116,2,115,-1510,1716491313.6,2024-05-23 19:08:33.600000+00:00,2024-05-24 04:08:33.600000+09:00,2024,5,23,19,8,33,600,,,,,,,,,0.280762,-0.22876,1.697021,8.544922,-12.634277,10.131836,,,,,,,,,,,0.0,1.0,1.0,2.0,0.0,0.0,0.0,4.0,0.0,0.03871744,-0.2387663333333333,0.9914941066666667,0.6933593599999995,-0.6005859466666663,-1.4713541866666662,4.9627432168486365,-1.2855239457412209,-5.231301737630578,-1.2413491164504635,9.664016196371787,-8.54475233412131,12.959434753264516,-1.405649494996508,12.726168524098906,-1.3490468627484422,0.24204456000000002,0.010006333333333312,0.7055268933333332,0.9575777866666665,0.7459583721287374,0.6914127757360715,0.7129571994341221,0.7014961609253095
LBP08_S02,LBP08,-1509,117,2,116,-1509,1716491313.64,2024-05-23 19:08:33.640000+00:00,2024-05-24 04:08:33.640000+09:00,2024,5,23,19,8,33,640,,,,,,,,,-0.143066,-0.190186,0.686523,7.263184,175.720215,43.701172,,,,,,,,,,,0.0,1.0,1.0,2.0,0.0,0.0,0.0,4.0,0.0,0.04631834666666666,-0.23387049333333332,0.97264644,0.23763019999999954,-2.7197265733333333,-2.201334653333333,7.739383999604998,-0.6728799946821393,-2.2394957402013325,-0.9317737564662636,9.6371009965845,-8.634332163729363,12.972802698924417,-1.3700708645704254,12.7806906897214,-1.346892190387679,-0.18938434666666665,0.043684493333333324,-0.28612344,0.51919228,0.3458921633075601,0.6823134742756338,0.7080875620106272,0.7007666461009558
LBP08_S02,LBP08,-1508,118,2,117,-1508,1716491313.68,2024-05-23 19:08:33.680000+00:00,2024-05-24 04:08:33.680000+09:00,2024,5,23,19,8,33,680,,,,,,,,,-0.229736,0.062988,-0.079102,1.037598,-37.536621,-24.841309,,,,,,,,,,,0.0,1.0,1.0,2.0,0.0,0.0,0.0,4.0,0.0,0.05560545333333334,-0.23161137333333334,0.9615917466666666,-0.19287109333333377,-2.310384133333333,-2.30387372,9.233830583059893,-0.37148566471098965,0.17652463689532355,-0.5624205331438679,9.622241569996062,-8.627271178253551,12.935751144428627,-1.329081558633375,12.812415608303704,-1.3474728339203075,-0.28534145333333333,0.29459937333333336,-1.0406937466666666,1.6206345733333332,1.118593764558821,0.7055562935481864,0.7109950524585367,0.707269894216568
LBP08_S02,LBP08,-1507,119,2,118,-1507,1716491313.72,2024-05-23 19:08:33.720000+00:00,2024-05-24 04:08:33.720000+09:00,2024,5,23,19,8,33,720,,,,,,,,,0.188965,-0.126221,0.331543,-17.944336,-122.619629,-30.151367,,,,,,,,,,,0.0,1.0,1.0,2.0,0.0,0.0,0.0,4.0,0.0,0.053430973333333326,-0.22898442666666668,0.95989904,0.4793294266666662,-2.2111002799999997,-2.307128933333333,9.226782144528276,-0.15895985836816123,1.876415294946837,-0.19334924736273684,9.615883175661335,-8.552214566455678,12.870235707636404,-1.3357095064729367,12.818705164733107,-1.3521060144731973,0.13553402666666667,0.10276342666666669,-0.6283560400000001,0.8666534933333334,0.650969359685414,0.6962522175599652,0.7074277895566514,0.7052751090048002
LBP08_S02,LBP08,-1506,120,2,119,-1506,1716491313.76,2024-05-23 19:08:33.760000+00:00,2024-05-24 04:08:33.760000+09:00,2024,5,23,19,8,33,760,,,,,,,,,0.569824,-0.264404,1.039551,12.390137,-56.57959,-24.536133,,,,,,,,,,,0.0,1.0,1.0,2.0,0.0,0.0,0.0,4.0,0.0,0.057962226666666665,-0.2380046,0.9859048933333332,0.033365879999999494,-4.627278653333334,-2.3331706,7.710860260843738,0.15316832717648401,2.8663363949791636,0.11508516307101269,9.622009908748394,-8.437561110656512,12.79799815498012,-1.3257254203632325,12.799370950412907,-1.3549799211994897,0.5118617733333334,-0.026399399999999962,0.05364610666666669,0.59190728,0.5153419331674807,0.6976839046973634,0.7092463618580201,0.7026186422269004
LBP08_S02,LBP08,-1505,121,2,120,-1505,1716491313.8,2024-05-23 19:08:33.800000+00:00,2024-05-24 04:08:33.800000+09:00,2024,5,23,19,8,33,800,,,,,,,,,0.153809,-0.173096,1.466797,37.536621,77.453613,35.15625,,,,,,,,,,,0.0,1.0,1.0,2.0,0.0,0.0,0.0,4.0,0.0,0.06078449333333333,-0.23988610666666668,1.00805008,-0.4117838666666671,-3.8916015733333333,-1.8286133066666665,4.888171952311885,0.5333791233969734,3.2251516534370417,0.31061204116348806,9.643345073684273,-8.30855504451903,12.732740120573776,-1.3164351661263618,12.756406739344985,-1.3504757722634961,0.09302450666666667,0.06679010666666668,0.45874691999999984,0.6185615333333332,0.4728247178380247,0.6822871486442817,0.7076458719652365,0.7073109586940628
LBP08_S02,LBP08,-1504,122,2,121,-1504,1716491313.84,2024-05-23 19:08:33.840000+00:00,2024-05-24 04:08:33.840000+09:00,2024,5,23,19,8,33,840,,,,,,,,,-0.226807,-0.543701,1.804199,-14.343262,-34.301758,18.188477,,,,,,,,,,,0.0,1.0,1.0,2.0,0.0,0.0,0.0,4.0,0.0,0.055524079999999996,-0.24638350666666664,1.0096483866666668,-1.2288411466666669,0.24414061333333356,-0.5753581066666662,1.1659787239531223,0.7148828356033103,3.0681946722143167,0.35725119012161294,9.671940387108405,-8.185827257630457,12.676033573495605,-1.3431905247679903,12.693192944208326,-1.3428767738322724,-0.28233108,-0.29731749333333335,0.7945506133333333,1.3741991866666667,0.8941024592989102,0.6792123875456937,0.7111560738066618,0.7037407952800687
LBP08_S02,LBP08,-1503,123,2,122,-1503,1716491313.88,2024-05-23 19:08:33.880000+00:00,2024-05-24 04:08:33.880000+09:00,2024,5,23,19,8,33,880,,,,,,,,,0.055664,-0.556885,1.721436,-3.234863,4.943848,-0.366211,,,,,,,,,,,0.0,1.0,1.0,2.0,0.0,0.0,0.0,4.0,0.0,0.04400714666666666,-0.24252608,0.9943749466666668,-0.8919270800000005,0.4679361866666669,-0.7145182666666661,-2.8705875213426917,0.3611931993825473,2.5449183760985656,0.24242768926790526,9.686388115083707,-8.084030522586515,12.61889200328892,-1.386327960032307,12.613274319310706,-1.338887215465915,0.011656853333333335,-0.31435892,0.7270610533333332,1.0530768266666666,0.7921964327661272,0.6924636452972451,0.7062794193452089,0.7035318759390377
LBP08_S02,LBP08,-1502,124,2,123,-1502,1716491313.92,2024-05-23 19:08:33.920000+00:00,2024-05-24 04:08:33.920000+09:00,2024,5,23,19,8,33,920,,,,,,,,,-0.058838,-0.151123,0.669189,11.291504,166.137695,19.65332,,,,,,,,,,,0.0,1.0,1.0,2.0,0.0,0.0,0.0,4.0,0.0,0.047548813333333335,-0.2355404,0.9777505999999999,-0.9277343733333339,-1.5340169333333329,-1.6536458666666662,-6.530100229841138,-0.7084606722066166,1.8323064670606635,-0.018776319925740248,9.658049688195442,-8.010738263904088,12.547916315572841,-1.3662946145893295,12.519138543399695,-1.3380221325737574,-0.10638681333333333,0.0844174,-0.3085615999999999,0.4993658133333332,0.3371271458493686,0.6860008421742494,0.7010253525543574,0.7021701626962886
LBP08_S02,LBP08,-1501,125,2,124,-1501,1716491313.96,2024-05-23 19:08:33.960000+00:00,2024-05-24 04:08:33.960000+09:00,2024,5,23,19,8,33,960,,,,,,,,,-0.061035,-0.015869,0.015625,-7.995605,-51.208496,-9.58252,,,,,,,,,,,0.0,1.0,1.0,2.0,0.0,0.0,0.0,4.0,0.0,0.056712226666666664,-0.23339521333333332,0.9684993066666666,-1.4860026000000004,-1.9596354266666662,-2.1630859733333327,-9.133429066679515,-2.390577962370877,1.096252851110473,-0.38411348259292083,9.562426569700607,-7.966888149859669,12.452262921284637,-1.3262726120824957,12.411634944464883,-1.338652217140479,-0.11774722666666666,0.21752621333333333,-0.9528743066666666,1.2881477466666666,0.9844549289735467,0.7047854684680034,0.7019095119695478,0.708128513270125
LBP08_S02,LBP08,-1500,126,2,125,-1500,1716491314.0,2024-05-23 19:08:34+00:00,2024-05-24 04:08:34+09:00,2024,5,23,19,8,34,0,19.0,8.0,32.0,40.76569,141.570892,14.155,3.0,15.0,0.24585,-0.034424,0.403564,-19.53125,-108.947754,-36.071777,-555.0,16.0,604.0,0.0,0.0,1015.799988,19.450001,0.027747,-21.196339,3.951562,0.0,1.0,1.0,2.0,0.0,0.0,0.0,6.0,0.0,0.056569,-0.23640953333333334,0.9661620666666666,-1.9108072800000007,-2.3868815199999998,-2.0963541999999995,-10.160793620695001,-4.352795413656776,0.43111781244674124,-0.7905452274207209,9.388314753154337,-7.949643437361799,12.327296801897916,-1.3296595106842708,12.290523325240802,-1.3446719557838283,0.189281,0.20198553333333333,-0.5625980666666666,0.9538646,0.6270103964481147,0.6970641176355463,0.696855814411505,0.7052686849371025
LBP08_S02,LBP08,-1499,127,2,126,-1499,1716491314.04,2024-05-23 19:08:34.040000+00:00,2024-05-24 04:08:34.040000+09:00,2024,5,23,19,8,34,40,,,,,,,,,0.52832,-0.381104,1.043457,-47.790527,-54.443359,-18.249512,,,,,,,,,,,0.0,1.0,1.0,2.0,0.0,0.0,0.0,6.0,0.0,0.05779946666666666,-0.24214521333333333,0.9855468266666666,-1.753743466666667,-4.835611986666666,-2.2550456,-9.390843120166513,-6.227617052097142,-0.18070051523406036,-1.1661789522273813,9.139210071070451,-7.956871457971162,12.173616449948218,-1.3301752809068506,12.155997953973266,-1.3505912506623936,0.4705205333333333,-0.13895878666666667,0.05791017333333348,0.6673894933333334,0.49401690745930277,0.6829602296063889,0.6964779462900185,0.701129755775361
LBP08_S02,LBP08,-1498,128,2,127,-1498,1716491314.08,2024-05-23 19:08:34.080000+00:00,2024-05-24 04:08:34.080000+09:00,2024,5,23,19,8,34,80,,,,,,,,,0.106445,-0.256592,1.473877,14.770508,48.706055,28.015137,,,,,,,,,,,0.0,1.0,1.0,2.0,0.0,0.0,0.0,6.0,0.0,0.06050129333333333,-0.24293948,1.0062955333333334,-1.4485676800000005,-4.370117199999999,-2.0060221599999997,-6.984472246543853,-7.79451729028684,-0.847339289678164,-1.4455578420891355,8.827429379458977,-7.990765029558289,11.994393385318517,-1.3204307297117963,12.010268209700204,-1.3499971952237242,0.04594370666666667,-0.013652519999999974,0.46758146666666667,0.5271776933333333,0.4700315345322846,0.6865594866217626,0.6962670081863866,0.7031582824236524
LBP08_S02,LBP08,-1497,129,2,128,-1497,1716491314.12,2024-05-23 19:08:34.120000+00:00,2024-05-24 04:08:34.120000+09:00,2024,5,23,19,8,34,120,,,,,,,,,-0.33667,-0.544678,1.716553,-7.873535,-19.40918,17.51709,,,,,,,,,,,0.0,1.0,1.0,2.0,0.0,0.0,0.0,6.0,0.0,0.05637694666666667,-0.24897138666666663,1.0093782133333333,-2.097167933333334,-0.7486979333333333,-0.7316080933333331,-3.474662938633621,-9.017743008853252,-1.679710477565222,-1.5845443596344804,8.466719659104847,-8.057953448660898,11.795199718288284,-1.3420103521401576,11.858100265271865,-1.344333791471558,-0.3930469466666667,-0.29570661333333337,0.7071747866666667,1.3959283466666668,0.8614084294631116,0.672703572040051,0.6960028910738663,0.6976028813354571
LBP08_S02,LBP08,-1496,130,2,129,-1496,1716491314.16,2024-05-23 19:08:34.160000+00:00,2024-05-24 04:08:34.160000+09:00,2024,5,23,19,8,34,160,,,,,,,,,0.124268,-0.389893,1.701416,7.629395,-13.793945,1.037598,,,,,,,,,,,0.0,1.0,1.0,2.0,0.0,0.0,0.0,6.0,0.0,0.044121093333333326,-0.24264326666666666,0.9921874533333332,-1.4876301733333337,-0.2050781333333333,-0.9049479333333331,0.34461251241198565,-9.93155407257796,-2.684090451935069,-1.570759859138001,8.069457496201728,-8.1653170667383,11.586881962739296,-1.3859228067967222,11.705962344326544,-1.3411802426258628,0.08014690666666668,-0.14724973333333333,0.7092285466666668,0.9366251866666668,0.7287737248432367,0.6790505389969637,0.6924356034655429,0.6961059623073866
LBP08_S02,LBP08,-1495,131,2,130,-1495,1716491314.2,2024-05-23 19:08:34.200000+00:00,2024-05-24 04:08:34.200000+09:00,2024,5,23,19,8,34,200,,,,,,,,,-0.072266,-0.320068,0.646484,-20.263672,134.82666,29.47998,,,,,,,,,,,0.0,1.0,1.0,2.0,0.0,0.0,0.0,6.0,0.0,0.046318359999999996,-0.24110030666666665,0.9742382399999999,-0.8748372133333338,-2.29410808,-1.839192733333333,3.60133344287891,-10.483112027934803,-3.7053819444481233,-1.4267065214228445,7.650133015084337,-8.313532344516226,11.387486407898422,-1.3756281149120146,11.560499226813882,-1.3428288148869083,-0.11858436,-0.07896769333333337,-0.32775424,0.5253062933333333,0.357380733762992,0.6724244873402906,0.688264949129623,0.6949459627849801
LBP08_S02,LBP08,-1494,132,2,131,-1494,1716491314.24,2024-05-23 19:08:34.240000+00:00,2024-05-24 04:08:34.240000+09:00,2024,5,23,19,8,34,240,,,,,,,,,-0.168701,0.042969,-0.084961,33.203125,-37.414551,-26.367188,,,,,,,,,,,0.0,1.0,1.0,2.0,0.0,0.0,0.0,6.0,0.0,0.054446613333333324,-0.23524743999999997,0.9616763866666668,-0.7316080400000005,-2.8019205866666668,-2.3470052399999997,5.550941030367713,-10.470649766606861,-4.466030690608953,-1.204668880208136,7.231307024420063,-8.492173572140583,11.21873613076499,-1.337249970381298,11.427467681763659,-1.3455703471987246,-0.22314761333333333,0.27821643999999995,-1.0466373866666667,1.54800144,1.10573462638694,0.6968756549635767,0.6869243548162466,0.703886933246597
LBP08_S02,LBP08,-1493,133,2,132,-1493,1716491314.28,2024-05-23 19:08:34.280000+00:00,2024-05-24 04:08:34.280000+09:00,2024,5,23,19,8,34,280,,,,,,,,,0.089111,0.033203,0.212158,37.658691,-119.506836,-44.799805,,,,,,,,,,,0.0,1.0,1.0,2.0,0.0,0.0,0.0,6.0,0.0,0.05622070666666667,-0.23501306666666666,0.9586099733333333,-1.3484700266666672,-3.24381512,-2.5227864933333333,5.750497295374287,-9.644143514516399,-4.687524686279929,-0.9746489883931645,6.845541283839407,-8.67967455959178,11.097212559005538,-1.3296939225106459,11.311674785731213,-1.353755201700406,0.03289029333333333,0.26821606666666664,-0.7464519733333332,1.0475583333333331,0.7938590418373515,0.6895273866179933,0.6854158808039145,0.7064522997173546
LBP08_S02,LBP08,-1492,134,2,133,-1492,1716491314.32,2024-05-23 19:08:34.320000+00:00,2024-05-24 04:08:34.320000+09:00,2024,5,23,19,8,34,320,,,,,,,,,0.46875,-0.093506,0.850098,-14.587402,-70.861816,-36.437988,,,,,,,,,,,0.0,1.0,1.0,2.0,0.0,0.0,0.0,6.0,0.0,0.056321613333333326,-0.2407650133333333,0.9774673999999999,-1.4143879866666673,-5.037434906666666,-2.796223986666667,4.151927277015789,-7.909532493084219,-4.2274869118150225,-0.808571897312533,6.529159984116038,-8.84877403606438,11.02653710611962,-1.3347591261323761,11.217580196894122,-1.3623576229295753,0.4124283866666667,0.1472590133333333,-0.12736939999999985,0.6870567999999999,0.4560760410202846,0.6779977663986374,0.6814439286241039,0.7022022258656745
LBP08_S02,LBP08,-1491,135,2,134,-1491,1716491314.36,2024-05-23 19:08:34.360000+00:00,2024-05-24 04:08:34.360000+09:00,2024,5,23,19,8,34,360,,,,,,,,,0.292236,-0.380615,1.455811,0.854492,59.326172,36.193848,,,,,,,,,,,0.0,1.0,1.0,2.0,0.0,0.0,0.0,6.0,0.0,0.05588215999999999,-0.24765954666666665,1.0016666133333334,-1.3525390266666673,-5.047200533333334,-2.524414093333333,1.084453213572894,-5.482256639015274,-3.1518909265211192,-0.7651937687696172,6.3098697185554276,-8.974849673125226,10.997631746158014,-1.3427583346929508,11.149848259901397,-1.3653811336014456,0.23635384,-0.13295545333333333,0.45414438666666657,0.8234536799999999,0.5289493493659487,0.6770519670579799,0.6807476475066073,0.7032949189017549
LBP08_S02,LBP08,-1490,136,2,135,-1490,1716491314.4,2024-05-23 19:08:34.400000+00:00,2024-05-24 04:08:34.400000+09:00,2024,5,23,19,8,34,400,,,,,,,,,-0.507568,-0.433594,1.639404,-14.404297,3.540039,17.883301,,,,,,,,,,,0.0,1.0,1.0,2.0,0.0,0.0,0.0,6.0,0.0,0.05289062666666666,-0.25077804,1.0080435733333333,-1.7561848533333337,-1.6853841333333328,-1.6088867466666665,-2.8651681441920513,-2.859937831917384,-1.7035163913231481,-0.8798004945372992,6.195472205278732,-9.042990328778151,10.99698135139569,-1.3570748338024332,11.113366495281813,-1.3627759679622147,-0.5604586266666667,-0.18281596,0.6313604266666668,1.3746350133333336,0.8638006342880996,0.6691820786126531,0.6876728262233118,0.6974623158168365
LBP08_S02,LBP08,-1489,137,2,136,-1489,1716491314.44,2024-05-23 19:08:34.440000+00:00,2024-05-24 04:08:34.440000+09:00,2024,5,23,19,8,34,440,,,,,,,,,0.182617,-0.293701,1.691406,6.164551,-48.034668,-8.666992,,,,,,,,,,,0.0,1.0,1.0,2.0,0.0,0.0,0.0,6.0,0.0,0.03822917333333333,-0.24578129333333332,0.9925845866666666,-1.9547525600000006,-0.23030601333333303,-1.5568034133333333,-7.027600007354915,-0.6139515399789865,-0.19594560434668018,-1.160904494831496,6.170914143679573,-9.050828152952018,11.01568748962376,-1.4120238259236664,11.112683769830431,-1.362743179704408,0.14438782666666666,-0.04791970666666667,0.6988214133333334,0.8911289466666668,0.7151891431710498,0.6687761698388555,0.6875002663656388,0.6949939578568218
LBP08_S02,LBP08,-1488,138,2,137,-1488,1716491314.48,2024-05-23 19:08:34.480000+00:00,2024-05-24 04:08:34.480000+09:00,2024,5,23,19,8,34,480,,,,,,,,,0.019775,-0.205811,0.87085,-42.419434,156.433105,24.963379,,,,,,,,,,,0.0,1.0,1.0,2.0,0.0,0.0,0.0,6.0,0.0,0.039042973333333335,-0.24240889333333332,0.9745670133333332,-1.5161132400000004,-1.9555664266666668,-2.521972693333333,-10.818887110996116,0.8762724030717953,1.097232691269728,-1.5936599792713406,6.205965039802445,-9.00693884530123,11.053447496947618,-1.4064549420034878,11.151149688436186,-1.3667442182089244,-0.019267973333333334,0.036597893333333326,-0.10371701333333316,0.15958287999999982,0.11165965899822056,0.6498336386385425,0.6785932530288038,0.6910983469926499
LBP08_S02,LBP08,-1487,139,2,138,-1487,1716491314.52,2024-05-23 19:08:34.520000+00:00,2024-05-24 04:08:34.520000+09:00,2024,5,23,19,8,34,520,,,,,,,,,-0.379395,-0.009277,-0.102783,-22.949219,16.784668,-9.70459,,,,,,,,,,,0.0,1.0,1.0,2.0,0.0,0.0,0.0,6.0,0.0,0.04621094666666666,-0.23625329333333336,0.9600390133333332,-1.5698241733333338,-2.04264324,-3.20800784,-13.848937032272843,1.5875366871209788,2.0020230293356107,-2.1476174605622544,6.269466507287284,-8.926857924127805,11.117880348361025,-1.3722454588588626,11.230129671538728,-1.3714988788335014,-0.4256059466666666,0.22697629333333336,-1.0628220133333333,1.7154042533333334,1.167154356372493,0.679849732546918,0.6835793218225988,0.700360839212981
LBP08_S02,LBP08,-1486,140,2,139,-1486,1716491314.56,2024-05-23 19:08:34.560000+00:00,2024-05-24 04:08:34.560000+09:00,2024,5,23,19,8,34,560,,,,,,,,,0.028564,-0.024902,0.213623,1.403809,-101.135254,-22.644043,,,,,,,,,,,0.0,1.0,1.0,2.0,0.0,0.0,0.0,6.0,0.0,0.049296879999999994,-0.23694339999999997,0.9523144,-1.468098906666667,-1.7333984399999998,-3.231608106666666,-15.941905801914059,1.8161363313620469,2.4418589415672383,-2.7852936926388168,6.342111960541765,-8.829183566465115,11.222064316543465,-1.3598711504044114,11.348464209228041,-1.3814926622064392,-0.020732879999999995,0.21204139999999996,-0.7386914,0.9714656799999999,0.7688019199124143,0.6762923110174335,0.6826743046374468,0.7014363891788736
LBP08_S02,LBP08,-1485,141,2,140,-1485,1716491314.6,2024-05-23 19:08:34.600000+00:00,2024-05-24 04:08:34.600000+09:00,2024,5,23,19,8,34,600,,,,,,,,,0.473633,-0.161377,0.899658,-21.30127,-69.335938,-10.437012,,,,,,,,,,,0.0,1.0,1.0,2.0,0.0,0.0,0.0,6.0,0.0,0.046311853333333326,-0.24074548,0.9659830133333335,-2.0914713066666675,-3.3544921866666666,-3.1868489866666674,-17.072681222786343,1.9629021156773956,2.40282645813787,-3.4682009415502706,6.420628045168861,-8.733070508139601,11.380659153384604,-1.3753002323339474,11.502077356025895,-1.3901192587532192,0.4273211466666667,0.07936848000000002,-0.06632501333333352,0.5730146400000002,0.43966092093759274,0.6640404129697877,0.6777265943529297,0.6966516039460106
LBP08_S02,LBP08,-1484,142,2,141,-1484,1716491314.64,2024-05-23 19:08:34.640000+00:00,2024-05-24 04:08:34.640000+09:00,2024,5,23,19,8,34,640,,,,,,,,,0.367188,-0.513916,1.474365,-1.098633,45.166016,27.770996,,,,,,,,,,,0.0,1.0,1.0,2.0,0.0,0.0,0.0,6.0,0.0,0.04762370666666666,-0.2503320666666667,0.9912304133333333,-2.1411132400000006,-3.45214844,-3.2674153866666664,-17.258760413671922,2.2819987679052667,1.9066161516155429,-4.158551358097148,6.511907995885072,-8.656805862074979,11.603395316822542,-1.3772603554264633,11.68375410064263,-1.3927758507983212,0.31956429333333336,-0.26358393333333335,0.48313458666666664,1.0662828133333333,0.6364093465048064,0.6756611002976775,0.6789872872866557,0.697278741439644
LBP08_S02,LBP08,-1483,143,2,142,-1483,1716491314.68,2024-05-23 19:08:34.680000+00:00,2024-05-24 04:08:34.680000+09:00,2024,5,23,19,8,34,680,,,,,,,,,-0.282715,-0.490234,1.665527,9.887695,1.098633,9.521484,,,,,,,,,,,0.0,1.0,1.0,2.0,0.0,0.0,0.0,6.0,0.0,0.047942719999999994,-0.25189782666666666,1.00327468,-2.0638020400000006,-0.38411458666666665,-2.667643253333333,-16.46799484649243,2.757036802642622,1.0112782639931144,-4.817271151956845,6.622189467990777,-8.616354731515255,11.887012390030934,-1.3772405287564147,11.883460805345573,-1.3882516886326375,-0.33065772,-0.23833617333333335,0.6622523199999999,1.2312462133333333,0.7776353867077792,0.6620227651836359,0.6837895293659112,0.6946709567002364
LBP08_S02,LBP08,-1482,144,2,143,-1482,1716491314.72,2024-05-23 19:08:34.720000+00:00,2024-05-24 04:08:34.720000+09:00,2024,5,23,19,8,34,720,,,,,,,,,0.133301,-0.344971,1.839844,-6.530762,-54.56543,-14.709473,,,,,,,,,,,0.0,1.0,1.0,2.0,0.0,0.0,0.0,6.0,0.0,0.033030613333333333,-0.24857425333333333,0.9878612666666665,-2.089843706666667,2.0515950533333336,-2.217610693333333,-14.596096559583007,3.169164619703198,-0.17287237054909466,-5.401115014340165,6.748956052778905,-8.623269626337219,12.209882483012759,-1.4346969598617545,12.08952465669253,-1.3846918914185677,0.10027038666666667,-0.0963967466666667,0.8519827333333335,1.0486498666666668,0.8632618728452789,0.6705144657100304,0.6833833416349978,0.6951233482744444
LBP08_S02,LBP08,-1481,145,2,144,-1481,1716491314.76,2024-05-23 19:08:34.760000+00:00,2024-05-24 04:08:34.760000+09:00,2024,5,23,19,8,34,760,,,,,,,,,-0.088135,-0.276611,0.909424,-53.894043,179.992676,24.719238,,,,,,,,,,,0.0,1.0,1.0,2.0,0.0,0.0,0.0,6.0,0.0,0.03429037333333333,-0.24778974666666664,0.9711490266666668,-1.5950520400000003,0.2775065066666667,-3.0411783999999997,-11.532932784759739,3.2883924423325603,-1.4809530586667776,-5.862432325730555,6.880491750472208,-8.68250774868389,12.533763214136545,-1.4290243001607508,12.29038945555275,-1.384746392970196,-0.12242537333333334,-0.028821253333333352,-0.061725026666666793,0.21297165333333348,0.14010216128422484,0.6555048748347001,0.6765943897660318,0.6913325328502469
LBP08_S02,LBP08,-1480,146,2,145,-1480,1716491314.8,2024-05-23 19:08:34.800000+00:00,2024-05-24 04:08:34.800000+09:00,2024,5,23,19,8,34,800,,,,,,,,,-0.361572,-0.059082,-0.000977,-14.404297,14.892578,-14.709473,,,,,,,,,,,0.0,1.0,1.0,2.0,0.0,0.0,0.0,6.0,0.0,0.04409505333333333,-0.23979170666666666,0.9570865199999999,-1.6316731333333339,-0.59407552,-3.6637369999999994,-7.286935698389418,3.0461109887082305,-2.722486732913871,-6.153909753666131,7.002336190020538,-8.791407218000444,12.813748797563061,-1.3836407542534537,12.476168449195388,-1.3863803217925301,-0.4056670533333333,0.18070970666666666,-0.95806352,1.5444402799999999,1.0559864888333055,0.6788313456745114,0.6805592471593965,0.6980410298683282
LBP08_S02,LBP08,-1479,147,2,146,-1479,1716491314.84,2024-05-23 19:08:34.840000+00:00,2024-05-24 04:08:34.840000+09:00,2024,5,23,19,8,34,840,,,,,,,,,0.11499,-0.052246,0.300781,6.591797,-109.008789,-13.73291,,,,,,,,,,,0.0,1.0,1.0,2.0,0.0,0.0,0.0,6.0,0.0,0.04807617333333333,-0.23933271999999997,0.9496125600000002,-1.8766275600000006,-0.6665039066666666,-3.7768554933333327,-2.0995868125246373,2.569024776579247,-3.735040639550432,-6.237893226167117,7.105097181083708,-8.940808843582461,13.012754536653167,-1.3667822042668283,12.639387374672904,-1.3901298750964817,0.06691382666666666,0.18708671999999998,-0.6488315600000001,0.9028321066666667,0.6785729837324567,0.6702101666518533,0.6747112770987737,0.6975074380883922
LBP08_S02,LBP08,-1478,148,2,147,-1478,1716491314.88,2024-05-23 19:08:34.880000+00:00,2024-05-24 04:08:34.880000+09:00,2024,5,23,19,8,34,880,,,,,,,,,0.491943,-0.51709,1.072754,-32.653809,-61.950684,-31.005859,,,,,,,,,,,0.0,1.0,1.0,2.0,0.0,0.0,0.0,6.0,0.0,0.04746093333333333,-0.24113610666666668,0.9634992800000002,-1.3590494400000004,-2.2306315066666667,-3.591308613333333,3.5168999761215285,2.061690482917105,-4.43551229680931,-6.097217227122256,7.187564800400392,-9.118229335454833,13.114086010417205,-1.370856969862791,12.77500953927942,-1.3944263389121514,0.4444820666666667,-0.27595389333333337,0.1092547199999998,0.8296906799999999,0.5344637056680034,0.6599008575679283,0.6761822514325868,0.690819898752782
LBP08_S02,LBP08,-1477,149,2,148,-1477,1716491314.92,2024-05-23 19:08:34.920000+00:00,2024-05-24 04:08:34.920000+09:00,2024,5,23,19,8,34,920,,,,,,,,,0.155762,-0.244385,1.504639,49.865723,61.584473,6.896973,,,,,,,,,,,0.0,1.0,1.0,2.0,0.0,0.0,0.0,6.0,0.0,0.048017573333333334,-0.24635420000000002,0.988789,-0.9643554266666672,-2.56429036,-3.229980493333333,8.846775002040145,1.6466466654501992,-4.836373245535205,-5.74334622704065,7.2534306670184,-9.311684265276241,13.126528336963213,-1.3727904743751433,12.880414040104279,-1.3954727880703905,0.10774442666666667,0.001969200000000032,0.51585,0.6255636266666668,0.5269857319950596,0.6674952010137559,0.6767480215940026,0.6898486353741569
LBP08_S02,LBP08,-1476,150,2,149,-1476,1716491314.96,2024-05-23 19:08:34.960000+00:00,2024-05-24 04:08:34.960000+09:00,2024,5,23,19,8,34,960,,,,,,,,,-0.348877,-0.560791,1.743896,12.145996,-25.939941,3.967285,,,,,,,,,,,0.0,1.0,1.0,2.0,0.0,0.0,0.0,6.0,0.0,0.04794921333333334,-0.2504655333333334,1.0043000800000002,-1.0131835600000005,0.09765625333333294,-2.290852893333333,13.121489048897782,1.3003832137869762,-5.0109145472278165,-5.218486665084739,7.30544599556988,-9.512120847165354,13.079854252969831,-1.3762104386277547,12.955922992567006,-1.389886580662647,-0.39682621333333334,-0.31032546666666666,0.7395959199999997,1.4467475999999997,0.8948603599059479,0.6639114182510519,0.6843484433595277,0.6892434807300492
LBP08_S02,LBP08,-1475,151,2,150,-1475,1716491315.0,2024-05-23 19:08:35+00:00,2024-05-24 04:08:35+09:00,2024,5,23,19,8,35,0,19.0,8.0,33.0,40.765804,141.570953,14.424,3.0,15.0,0.120605,-0.082764,1.668701,16.418457,-20.202637,9.765625,-552.0,18.0,601.0,0.0,0.0,1015.900024,19.51,0.028738,-22.026999,3.951562,0.0,1.0,1.0,2.0,0.0,0.0,0.0,5.0,0.0,0.03822590666666667,-0.24698245333333332,0.9974869333333334,-0.06347653333333372,3.151041666666666,-1.4388021066666665,15.699207629978183,0.9325821574377329,-5.025876741984186,-4.590518359885611,7.3427492818673885,-9.713155916844721,13.012848408159781,-1.4127957653734624,13.00577905618118,-1.3830803872785666,0.08237909333333333,0.16421845333333332,0.6712140666666666,0.9178116133333333,0.6959039723444741,0.6666671612869064,0.6818656394612264,0.6867929300366388
LBP08_S02,LBP08,-1474,152,2,151,-1474,1716491315.04,2024-05-23 19:08:35.040000+00:00,2024-05-24 04:08:35.040000+09:00,2024,5,23,19,8,35,40,,,,,,,,,-0.088623,-0.226318,0.755615,17.089844,172.790527,34.057617,,,,,,,,,,,0.0,1.0,1.0,2.0,0.0,0.0,0.0,5.0,0.0,0.036025386666666666,-0.24457360000000003,0.9793717066666666,-0.45003252000000044,1.2963867199999999,-2.0719401200000003,16.212695183063556,0.53433929647159,-4.88807669844946,-3.9420105525630693,7.364122853726252,-9.9086789847827,12.959616962887685,-1.4202249935831606,13.038747031450214,-1.3820964808541252,-0.12464838666666667,0.01825560000000004,-0.22375670666666658,0.3666606933333333,0.25678308162391755,0.6571778082534909,0.67006901892994,0.6833779002778427
LBP08_S02,LBP08,-1473,153,2,152,-1473,1716491315.08,2024-05-23 19:08:35.080000+00:00,2024-05-24 04:08:35.080000+09:00,2024,5,23,19,8,35,80,,,,,,,,,-0.304199,0.170898,-0.09668,43.762207,-21.057129,-34.667969,,,,,,,,,,,0.0,1.0,1.0,2.0,0.0,0.0,0.0,5.0,0.0,0.04274413333333334,-0.23757163999999997,0.9600032133333334,-0.46386714666666695,0.15462239999999972,-2.5024414266666666,14.643887257911858,0.2643714813545321,-4.548203547265809,-3.356255062246595,7.374697712980434,-10.090607126673332,12.94105739827953,-1.3877050203388046,13.067365275772483,-1.3834814371689446,-0.3469431333333333,0.40846963999999997,-1.0566832133333335,1.8120959866666668,1.1848191414343963,0.6857693125295754,0.6861643995756691,0.692767776300783
LBP08_S02,LBP08,-1472,154,2,153,-1472,1716491315.12,2024-05-23 19:08:35.120000+00:00,2024-05-24 04:08:35.120000+09:00,2024,5,23,19,8,35,120,,,,,,,,,0.10498,-0.07373,0.290527,-25.878906,-108.093262,-38.818359,,,,,,,,,,,0.0,1.0,1.0,2.0,0.0,0.0,0.0,5.0,0.0,0.044999986666666665,-0.23845380000000002,0.9497655866666666,-1.198730426666667,-0.7259114533333337,-3.0330403866666664,11.312536385789665,0.3825788940847538,-3.965432452979973,-2.9037536068150085,7.390000868743824,-10.24922442479253,12.964972007640025,-1.3788348857843227,13.105468408056812,-1.3873983454575807,0.05998001333333334,0.16472380000000003,-0.6592385866666666,0.8839423999999999,0.6821488447810865,0.6785989291422945,0.6756512505911726,0.6902015704300091
LBP08_S02,LBP08,-1471,155,2,154,-1471,1716491315.16,2024-05-23 19:08:35.160000+00:00,2024-05-24 04:08:35.160000+09:00,2024,5,23,19,8,35,160,,,,,,,,,0.507324,-0.255859,1.047119,4.150391,-51.452637,-28.442383,,,,,,,,,,,0.0,1.0,1.0,2.0,0.0,0.0,0.0,5.0,0.0,0.04932289333333333,-0.23833009333333333,0.9587401999999999,-0.9570312133333336,-2.1842447866666674,-3.3430989866666665,6.793285255691493,1.0570303447144276,-3.1859308015950325,-2.6320221965873487,7.432282082532401,-10.376661656856331,13.032323850278317,-1.3609623663199446,13.164628213454417,-1.393432593002632,0.45800110666666666,-0.017528906666666677,0.08837879999999998,0.5639088133333333,0.4667794860169629,0.6681191595892435,0.6735848492931037,0.6843301221734431
LBP08_S02,LBP08,-1470,156,2,155,-1470,1716491315.2,2024-05-23 19:08:35.200000+00:00,2024-05-24 04:08:35.200000+09:00,2024,5,23,19,8,35,200,,,,,,,,,0.105713,-0.12793,1.373291,28.747559,66.52832,22.644043,,,,,,,,,,,0.0,1.0,1.0,2.0,0.0,0.0,0.0,5.0,0.0,0.04783199999999999,-0.24683269333333333,0.9812499733333334,-1.0677083066666668,-2.2696940000000008,-2.8116862266666667,1.7936794738174475,2.182631295758763,-2.368809833421075,-2.560275017634651,7.519587334362751,-10.471414050193175,13.143428550253388,-1.373801690009039,13.250975611238015,-1.3970890376684655,0.05788100000000001,0.11890269333333334,0.3920410266666666,0.56882472,0.41374415673550574,0.6703736965081442,0.6713990919242174,0.6823011982557967
LBP08_S02,LBP08,-1469,157,2,156,-1469,1716491315.24,2024-05-23 19:08:35.240000+00:00,2024-05-24 04:08:35.240000+09:00,2024,5,23,19,8,35,240,,,,,,,,,-0.13623,-0.700195,1.894775,-32.409668,-50.964355,22.338867,,,,,,,,,,,0.0,1.0,1.0,2.0,0.0,0.0,0.0,5.0,0.0,0.046936813333333334,-0.2511132933333334,1.0014224933333333,-0.31331377333333366,-0.9651692533333338,-2.3388672133333333,-2.97115268238808,3.355770671061893,-1.728289696483085,-2.679121124930174,7.653818161205227,-10.540545638052498,13.298936979875858,-1.3806317674150221,13.3638272616268,-1.394589248793471,-0.18316681333333332,-0.44908170666666664,0.8933525066666668,1.5256010266666666,1.0165152049708608,0.6668049196515008,0.6818402873075388,0.680217876427998
LBP08_S02,LBP08,-1468,158,2,157,-1468,1716491315.28,2024-05-23 19:08:35.280000+00:00,2024-05-24 04:08:35.280000+09:00,2024,5,23,19,8,35,280,,,,,,,,,0.125488,-0.463379,1.774414,-3.479004,-11.169434,-0.488281,,,,,,,,,,,0.0,1.0,1.0,2.0,0.0,0.0,0.0,5.0,0.0,0.03943681333333333,-0.2505306133333333,0.9980859066666669,-0.785318986666667,2.084960959999999,-1.3606771066666665,-6.882169853104472,4.040657673820914,-1.4256132318794148,-2.954407919054353,7.815444468158064,-10.597570167327675,13.495117333260465,-1.410026052749153,13.496580411105185,-1.3903784225848392,0.08605118666666667,-0.21284838666666667,0.7763280933333331,1.0752276666666665,0.8095644204953134,0.6674331347978193,0.6784802607079063,0.6794216321352161
LBP08_S02,LBP08,-1467,159,2,158,-1467,1716491315.32,2024-05-23 19:08:35.320000+00:00,2024-05-24 04:08:35.320000+09:00,2024,5,23,19,8,35,320,,,,,,,,,-0.044922,-0.2771,0.726074,-7.202148,192.993164,35.644531,,,,,,,,,,,0.0,1.0,1.0,2.0,0.0,0.0,0.0,5.0,0.0,0.03347977333333333,-0.2492415466666667,0.9779166400000001,-1.5429687200000002,1.124674506666666,-2.3429362266666667,-9.48724105542756,3.8338606039810337,-1.4842373469002874,-3.3338975612714554,7.968798892317305,-10.656939661203687,13.718126390939304,-1.4331329498256542,13.639169506530871,-1.3916518758018677,-0.07840177333333333,-0.02785845333333331,-0.2518426400000001,0.35810286666666674,0.26523130811822826,0.659799345481737,0.6688985559401872,0.6742290675766482
LBP08_S02,LBP08,-1466,160,2,159,-1466,1716491315.36,2024-05-23 19:08:35.360000+00:00,2024-05-24 04:08:35.360000+09:00,2024,5,23,19,8,35,360,,,,,,,,,-0.264893,-0.014404,-0.046387,12.512207,-12.268066,-22.583008,,,,,,,,,,,0.0,1.0,1.0,2.0,0.0,0.0,0.0,5.0,0.0,0.0375846,-0.24316081333333334,0.9575455466666667,-0.8064778266666669,0.34098310666666576,-3.23649092,-10.53889545806127,2.6685599137450557,-1.7865532080349384,-3.7554533795939062,8.075541288867107,-10.728401789525085,13.943328230805792,-1.4127748852860917,13.780831601634352,-1.394532186798347,-0.3024776,0.22875681333333334,-1.0039325466666666,1.53516696,1.073174233945635,0.6815683408649246,0.6793101539614522,0.6810212119593798
LBP08_S02,LBP08,-1465,161,2,160,-1465,1716491315.4,2024-05-23 19:08:35.400000+00:00,2024-05-24 04:08:35.400000+09:00,2024,5,23,19,8,35,400,,,,,,,,,0.141846,0.092285,0.226807,-21.728516,-101.68457,-42.907715,,,,,,,,,,,0.0,1.0,1.0,2.0,0.0,0.0,0.0,5.0,0.0,0.043040333333333326,-0.23963868000000005,0.9475585599999999,-1.9417317333333335,-0.6542968400000007,-3.7638346666666664,-10.007580804779984,0.8314606728993702,-2.1545883601811244,-4.1557566117851055,8.108799715783082,-10.81458532393233,14.141364912047633,-1.387797876623516,13.912217958763597,-1.4027152583138907,0.09880566666666668,0.33192368000000005,-0.72075156,1.1514809066666667,0.7996366051855183,0.6790017797008214,0.6740919291567373,0.6847824773824818
LBP08_S02,LBP08,-1464,162,2,161,-1464,1716491315.44,2024-05-23 19:08:35.440000+00:00,2024-05-24 04:08:35.440000+09:00,2024,5,23,19,8,35,440,,,,,,,,,0.497559,-0.321045,0.970215,-22.949219,-63.659668,-26.550293,,,,,,,,,,,0.0,1.0,1.0,2.0,0.0,0.0,0.0,5.0,0.0,0.04649085333333333,-0.2456966266666667,0.9592382533333333,-2.0467122000000004,-2.2347004800000008,-3.8932292,-8.07994211059699,-1.2127046789204228,-2.4600358027701295,-4.478954296208985,8.060291528626266,-10.912986756043136,14.287148457671536,-1.378116731496844,14.026600008471647,-1.4110997032106087,0.4510681466666666,-0.07534837333333333,0.010976746666666704,0.5373932666666666,0.45744982158556474,0.6686922068374018,0.6687341883381286,0.6812309131895599
LBP08_S02,LBP08,-1463,163,2,162,-1463,1716491315.48,2024-05-23 19:08:35.480000+00:00,2024-05-24 04:08:35.480000+09:00,2024,5,23,19,8,35,480,,,,,,,,,0.192871,-0.359863,1.344727,-8.361816,49.316406,25.45166,,,,,,,,,,,0.0,1.0,1.0,2.0,0.0,0.0,0.0,5.0,0.0,0.042115853333333335,-0.2525553466666667,0.9823209333333334,-1.8334960666666666,-2.0808918933333342,-3.5725911733333335,-5.140682465901155,-3.0586062976988173,-2.6895018752716418,-4.684581594845032,7.9379472767183135,-11.020566831054001,14.366948352536392,-1.400439552509091,14.120502058185872,-1.4158999875538254,0.15075514666666665,-0.10730765333333331,0.36240606666666664,0.6204688666666666,0.4069154750893598,0.6805024394810474,0.665168039059795,0.679229648512885
LBP08_S02,LBP08,-1462,164,2,163,-1462,1716491315.52,2024-05-23 19:08:35.520000+00:00,2024-05-24 04:08:35.520000+09:00,2024,5,23,19,8,35,520,,,,,,,,,-0.343018,-0.598145,1.658447,7.629395,-20.690918,17.150879,,,,,,,,,,,0.0,1.0,1.0,2.0,0.0,0.0,0.0,5.0,0.0,0.040647746666666665,-0.25457682666666664,1.0003092266666669,-1.00911456,-1.079101533333334,-2.956543,-1.726384674639452,-4.497761825978222,-2.9256975376380896,-4.75363698183061,7.758036803679184,-11.137594732559524,14.38159295867485,-1.407637995749112,14.194214897059016,-1.4155255849162807,-0.38366574666666664,-0.3435681733333334,0.6581377733333331,1.385371693333333,0.8356936182483697,0.6672440099560825,0.6735468712515004,0.6781342178670934
LBP08_S02,LBP08,-1461,165,2,164,-1461,1716491315.56,2024-05-23 19:08:35.560000+00:00,2024-05-24 04:08:35.560000+09:00,2024,5,23,19,8,35,560,,,,,,,,,0.215088,-0.337402,1.718018,9.399414,-43.334961,-6.530762,,,,,,,,,,,0.0,1.0,1.0,2.0,0.0,0.0,0.0,5.0,0.0,0.031562466666666664,-0.25287109333333335,0.99662108,-0.3816731600000002,1.8733724266666658,-2.03369144,1.554509989347631,-5.490215357642432,-3.2685681780862357,-4.691456582256705,7.538428189373487,-11.268337459682973,14.346187421570761,-1.442793081475383,14.25229323073226,-1.4124687326800476,0.18352553333333332,-0.08453090666666663,0.72139692,0.98945336,0.7491599373649525,0.666458330654184,0.6713753208358086,0.6772689799763593
LBP08_S02,LBP08,-1460,166,2,165,-1460,1716491315.6,2024-05-23 19:08:35.600000+00:00,2024-05-24 04:08:35.600000+09:00,2024,5,23,19,8,35,600,,,,,,,,,0.083252,-0.222168,0.841797,-7.141113,139.526367,27.587891,,,,,,,,,,,0.0,1.0,1.0,2.0,0.0,0.0,0.0,5.0,0.0,0.027493466666666664,-0.2496223866666667,0.9766894400000001,-0.40934244000000014,0.9912109599999993,-2.590332066666667,4.1244270634294695,-6.031402487055174,-3.76020032473206,-4.526479499719526,7.29717208989128,-11.418745472672256,14.28724904733387,-1.4576461389762214,14.30367435963262,-1.4133383081679616,0.055758533333333346,0.02745438666666669,-0.1348924400000001,0.21810536000000014,0.14852180902440193,0.6548127661776563,0.6594265895737219,0.6700886516278385
LBP08_S02,LBP08,-1459,167,2,166,-1459,1716491315.64,2024-05-23 19:08:35.640000+00:00,2024-05-24 04:08:35.640000+09:00,2024,5,23,19,8,35,640,,,,,,,,,-0.397949,-0.016846,-0.065186,-2.929688,15.930176,-20.446777,,,,,,,,,,,0.0,1.0,1.0,2.0,0.0,0.0,0.0,5.0,0.0,0.03372393333333333,-0.2429134,0.9589876133333333,0.15299479999999985,-0.1790364266666677,-3.053385453333333,5.540473257630839,-6.039589324895256,-4.3656685150623264,-4.304860569414293,7.05558851689547,-11.59337221327475,14.237957477018123,-1.4286346108471886,14.360932147512765,-1.4161360989445326,-0.43167293333333334,0.2260674,-1.0241736133333332,1.6819139466666666,1.1341867487162862,0.6747238622661156,0.6751924812818965,0.6775661456131423
LBP08_S02,LBP08,-1458,168,2,167,-1458,1716491315.68,2024-05-23 19:08:35.680000+00:00,2024-05-24 04:08:35.680000+09:00,2024,5,23,19,8,35,680,,,,,,,,,-0.008545,-0.068848,0.158936,22.766113,-100.158691,-39.367676,,,,,,,,,,,0.0,1.0,1.0,2.0,0.0,0.0,0.0,5.0,0.0,0.03885738666666666,-0.24128253333333333,0.9504557066666667,-0.06673177333333348,-0.603841120000001,-3.1453450933333333,5.578872727974001,-5.365604248529399,-5.014918846321979,-4.081705660295333,6.840964346954293,-11.793968967127629,14.232245721991886,-1.4062820263737044,14.43849989357123,-1.4232430380087744,-0.04740238666666666,0.1724345333333333,-0.7915197066666667,1.0113566266666667,0.8114703325379595,0.6760772600993228,0.6690500126414792,0.681218772943715
LBP08_S02,LBP08,-1457,169,2,168,-1457,1716491315.72,2024-05-23 19:08:35.720000+00:00,2024-05-24 04:08:35.720000+09:00,2024,5,23,19,8,35,720,,,,,,,,,0.423828,-0.15332,0.861084,21.30127,-79.528809,-27.954102,,,,,,,,,,,0.0,1.0,1.0,2.0,0.0,0.0,0.0,5.0,0.0,0.04011065333333333,-0.24337564,0.9636816266666667,0.7259114533333332,-1.5014648133333344,-3.0729167066666667,4.282177426489369,-3.9275947050629156,-5.664350901590937,-3.910418563235759,6.6838605587517765,-12.020543003191266,14.29890972767179,-1.4025644274633247,14.550182759860402,-1.4303292117111719,0.3837173466666667,0.09005563999999999,-0.10259762666666672,0.5763706133333334,0.40727790687238263,0.657837901460407,0.6641761835852188,0.6748681949101342
LBP08_S02,LBP08,-1456,170,2,169,-1456,1716491315.76,2024-05-23 19:08:35.760000+00:00,2024-05-24 04:08:35.760000+09:00,2024,5,23,19,8,35,760,,,,,,,,,0.268311,-0.265869,1.243164,-1.037598,33.569336,20.019531,,,,,,,,,,,0.0,1.0,1.0,2.0,0.0,0.0,0.0,5.0,0.0,0.03667966666666666,-0.2513802,0.9894140533333332,0.3800455733333332,-1.513671840000001,-2.692871133333333,1.9516327485398433,-1.8606028696609878,-6.322396501923304,-3.832353253294165,6.609436443965337,-12.273438863268199,14.457139519809363,-1.4214706401652304,14.706619635724612,-1.4323149113570919,0.23163133333333336,-0.014488800000000024,0.2537499466666667,0.4998700800000001,0.34387793668764793,0.6659889324765439,0.660746903655622,0.6730592373362025
LBP08_S02,LBP08,-1455,171,2,170,-1455,1716491315.8,2024-05-23 19:08:35.800000+00:00,2024-05-24 04:08:35.800000+09:00,2024,5,23,19,8,35,800,,,,,,,,,-0.305176,-0.424316,1.662598,-10.314941,19.836426,13.183594,,,,,,,,,,,0.0,1.0,1.0,2.0,0.0,0.0,0.0,5.0,0.0,0.03861977333333333,-0.2546712133333333,1.0103906133333334,-0.0691731733333334,-0.20345048000000096,-2.03287764,-0.9239825308969986,0.4562523792511876,-7.013418997099488,-3.869312554530045,6.627686539135385,-12.553975623152178,14.71394279084907,-1.4157757843892271,14.913371926974595,-1.4289185605088768,-0.34379577333333333,-0.1696447866666667,0.6522073866666667,1.1656479466666667,0.756537746994561,0.6540109828029941,0.6664211642387528,0.6717098257072623
LBP08_S02,LBP08,-1454,172,2,171,-1454,1716491315.84,2024-05-23 19:08:35.840000+00:00,2024-05-24 04:08:35.840000+09:00,2024,5,23,19,8,35,840,,,,,,,,,0.010742,-0.59668,1.831787,-9.521484,-56.152344,-14.038086,,,,,,,,,,,0.0,1.0,1.0,2.0,0.0,0.0,0.0,5.0,0.0,0.030377586666666664,-0.25635741333333334,1.0080566266666666,0.0227864533333333,2.9931640933333323,-1.1735026400000002,-3.7876612557736045,2.5416573333715022,-7.706931889328864,-4.020819004760989,6.729352832470245,-12.862252898725332,15.062825918256198,-1.449186122139262,15.170036899134384,-1.4239686210628195,-0.019635586666666663,-0.34032258666666665,0.8237303733333334,1.1836885466666667,0.89148008794987,0.6625272669716906,0.6663687168117718,0.6706499403897459
LBP08_S02,LBP08,-1453,173,2,172,-1453,1716491315.88,2024-05-23 19:08:35.880000+00:00,2024-05-24 04:08:35.880000+09:00,2024,5,23,19,8,35,880,,,,,,,,,0.099121,-0.277832,1.138184,-32.897949,134.460449,18.188477,,,,,,,,,,,0.0,1.0,1.0,2.0,0.0,0.0,0.0,5.0,0.0,0.024365226666666663,-0.2518164,0.9873795333333334,-0.53059896,1.7236328399999994,-1.9514974400000002,-6.141090377552026,4.043719559020606,-8.270683239862377,-4.26646261986307,6.8911016148310695,-13.193080228319827,15.483777015428108,-1.4713012895330646,15.470423628820095,-1.421619667013934,0.07475577333333333,-0.026015600000000028,0.1508044666666667,0.25157584000000005,0.17031507348629626,0.6479613216844224,0.6539310896261753,0.6667752748498653
LBP08_S02,LBP08,-1452,174,2,173,-1452,1716491315.92,2024-05-23 19:08:35.920000+00:00,2024-05-24 04:08:35.920000+09:00,2024,5,23,19,8,35,920,,,,,,,,,-0.550293,0.166992,-0.140625,0.244141,72.998047,-6.103516,,,,,,,,,,,0.0,1.0,1.0,2.0,0.0,0.0,0.0,5.0,0.0,0.03461913333333333,-0.24742837333333337,0.9715429466666667,-0.5680338533333333,0.0024414399999991097,-2.625325573333334,-7.63387704576111,4.915256253640376,-8.492848970687524,-4.571817701693514,7.087711864976685,-13.532794187147328,15.945961717316957,-1.4274949922083129,15.803581666701973,-1.4210133595312127,-0.5849121333333334,0.41442037333333337,-1.1121679466666667,2.1115004533333335,1.3231719431529072,0.6798087701307363,0.6736519855722461,0.6777682711062472
LBP08_S02,LBP08,-1451,175,2,174,-1451,1716491315.96,2024-05-23 19:08:35.960000+00:00,2024-05-24 04:08:35.960000+09:00,2024,5,23,19,8,35,960,,,,,,,,,-0.024414,-0.073486,0.158936,23.498535,-79.406738,-34.973145,,,,,,,,,,,0.0,1.0,1.0,2.0,0.0,0.0,0.0,5.0,0.0,0.03940754666666666,-0.24885415999999996,0.9652408666666668,-1.3028971333333335,-0.15299476000000092,-2.67985032,-8.092332322842712,5.411475424331712,-8.174144872291622,-4.895510994607223,7.304170881949953,-13.859759982038993,16.413710334070576,-1.4088295729932312,16.155346318034226,-1.4243772435065283,-0.06382154666666666,0.17536815999999997,-0.8063048666666668,1.0454945733333334,0.8276199123819232,0.6771191522297753,0.6705152852404136,0.6819386796496102
LBP08_S02,LBP08,-1450,176,2,175,-1450,1716491316.0,2024-05-23 19:08:36+00:00,2024-05-24 04:08:36+09:00,2024,5,23,19,8,36,0,19.0,8.0,34.0,40.765919,141.571014,14.759,3.0,15.0,0.390137,0.046387,0.71167,-7.019043,-96.252441,-55.175781,-556.0,18.0,606.0,0.0,0.0,1015.900024,19.57,0.028738,-22.026999,3.951562,0.0,1.0,1.0,2.0,0.0,0.0,0.0,3.0,0.0,0.03976237333333334,-0.24994465333333338,0.9743294000000001,-0.39876301333333336,-1.3191731333333345,-2.9223633466666668,-7.500616410101504,5.896392239988997,-7.243466934410616,-5.195535651011284,7.540026571549513,-14.149498659415418,16.853898768931796,-1.4081467445156493,16.51005694007685,-1.4275905114857343,0.3503746266666667,0.2963316533333334,-0.2626594000000001,0.9093656800000002,0.5287388657810517,0.6704325479672383,0.6685498546270725,0.6780546089632304
LBP08_S02,LBP08,-1449,177,2,176,-1449,1716491316.04,2024-05-23 19:08:36.040000+00:00,2024-05-24 04:08:36.040000+09:00,2024,5,23,19,8,36,40,,,,,,,,,0.472168,-0.487061,1.226074,-9.887695,12.451172,4.394531,,,,,,,,,,,0.0,1.0,1.0,2.0,0.0,0.0,0.0,3.0,0.0,0.041621106666666664,-0.2568098933333333,1.0000748400000001,0.017903653333333314,-2.4495442266666676,-2.7652995466666668,-5.9685480907224795,6.580673974055586,-5.82683853644886,-5.434277574640182,7.8032535305117365,-14.382572200873373,17.241824773875198,-1.4051450703583341,16.852266149064302,-1.4277843933139291,0.4305468933333333,-0.2302511066666667,0.22599915999999998,0.88679716,0.5380165608983751,0.6816818871382166,0.6694298476958538,0.6739399749993654
LBP08_S02,LBP08,-1448,178,2,177,-1448,1716491316.08,2024-05-23 19:08:36.080000+00:00,2024-05-24 04:08:36.080000+09:00,2024,5,23,19,8,36,80,,,,,,,,,-0.319092,-0.452881,1.665527,-32.104492,44.86084,35.827637,,,,,,,,,,,0.0,1.0,1.0,2.0,0.0,0.0,0.0,3.0,0.0,0.043636093333333334,-0.26127604,1.0194823866666667,-0.06917317333333335,-0.8650715733333342,-2.4772136133333333,-3.7102341167818023,7.371980718235297,-4.219490359146149,-5.582686939311454,8.098132759241148,-14.551351815239219,17.563826100810694,-1.4002189515464913,17.16843695997248,-1.4223544913715003,-0.36272809333333333,-0.19160496,0.6460446133333333,1.2003776666666666,0.765282805769771,0.6649004337116317,0.6753348731206036,0.6790764109543233
LBP08_S02,LBP08,-1447,179,2,178,-1447,1716491316.12,2024-05-23 19:08:36.120000+00:00,2024-05-24 04:08:36.120000+09:00,2024,5,23,19,8,36,120,,,,,,,,,-0.040527,-0.490967,1.770264,15.319824,-48.095703,-15.014648,,,,,,,,,,,0.0,1.0,1.0,2.0,0.0,0.0,0.0,3.0,0.0,0.034137386666666665,-0.2601139333333334,1.0141178,0.06429037333333332,2.420247439999999,-1.6805013733333336,-1.0283139305381448,7.938877089628993,-2.769857488413975,-5.62381949653298,8.415687842826308,-14.662146114775778,17.816556240994316,-1.4362032672164804,17.44851963612008,-1.4148155564396085,-0.07466438666666667,-0.2308530666666666,0.7561462000000001,1.0616636533333335,0.7941189991431725,0.6693792398861151,0.6739890845142048,0.6735605803561535
LBP08_S02,LBP08,-1446,180,2,179,-1446,1716491316.16,2024-05-23 19:08:36.160000+00:00,2024-05-24 04:08:36.160000+09:00,2024,5,23,19,8,36,160,,,,,,,,,0.276123,-0.250977,1.354004,-13.549805,97.290039,20.690918,,,,,,,,,,,0.0,1.0,1.0,2.0,0.0,0.0,0.0,3.0,0.0,0.02899089333333333,-0.25403319999999996,0.99510088,-0.25878905333333335,1.1287435333333322,-2.3478190800000003,1.718470331874777,7.938485048334431,-1.7402898318401252,-5.555080683257989,8.733227244759686,-14.731757708049383,18.00424574023559,-1.4536033199572902,17.6869812995783,-1.4115351988755545,0.24713210666666668,0.0030561999999999534,0.35890312,0.6090914266666667,0.4357695125289046,0.6681388409465927,0.6681290002679182,0.6717695131776
LBP08_S02,LBP08,-1445,181,2,180,-1445,1716491316.2,2024-05-23 19:08:36.200000+00:00,2024-05-24 04:08:36.200000+09:00,2024,5,23,19,8,36,200,,,,,,,,,-0.540771,0.041016,-0.138916,16.052246,132.69043,20.202637,,,,,,,,,,,0.0,1.0,1.0,2.0,0.0,0.0,0.0,3.0,0.0,0.037174493333333336,-0.24838541333333333,0.9796907333333333,-0.7796223866666667,-0.49235021333333423,-2.75553392,4.1759186953762315,7.251550597688916,-1.220091638560214,-5.38804393544294,9.023289268667241,-14.780561373591791,18.136034880723585,-1.4177146026711753,17.882809985967242,-1.4098980744190466,-0.5779454933333333,0.28940141333333336,-1.1186067333333334,1.98595364,1.291919190647121,0.7032658423030574,0.6868197694056007,0.6820213420504974
LBP08_S02,LBP08,-1444,182,2,181,-1444,1716491316.24,2024-05-23 19:08:36.240000+00:00,2024-05-24 04:08:36.240000+09:00,2024,5,23,19,8,36,240,,,,,,,,,0.038086,-0.215088,0.243652,20.324707,-67.871094,-25.32959,,,,,,,,,,,0.0,1.0,1.0,2.0,0.0,0.0,0.0,3.0,0.0,0.04283529333333333,-0.2485221333333334,0.9706965866666667,-1.0603841066666666,-0.3133137466666675,-2.7547201200000004,6.069544850681651,6.064362993771222,-1.1304097236819433,-5.145262141415674,9.265863788418091,-14.825777762539069,18.22453402733801,-1.3948871027149738,18.03844554805741,-1.411265787556189,-0.004749293333333328,0.03343413333333339,-0.7270445866666667,0.7652280133333335,0.7278284331215849,0.6917183714290863,0.6792616455402936,0.6851329820147213
