file_name,test_id,_program_index,program_index,session_id,index,_index,unixtime,datetime_utc,datetime_jst,rtc_year,rtc_month,rtc_day,rtc_hour,rtc_min,rtc_sec,rtc_msec,gps_hour,gps_min,gps_sec,latitude,longitude,altitude,fix_type,SIV,acc_x,acc_y,acc_z,gyro_x,gyro_y,gyro_z,mag_x,mag_y,mag_z,illuminance,atmopress,water_pressure,water_temp,depth,alt_wps,battery_level,behavior_class,camera_command,camera_recording,camera_count,play_audio,speaker_on,audio_file,prev_sd_write_time_ms,delay_occurred_counter,acc_x_ma,acc_y_ma,acc_z_ma,gyro_x_ma,gyro_y_ma,gyro_z_ma,gyro_x_lowpass,gyro_y_lowpass,gyro_z_lowpass,angle_x,angle_y,angle_z,combined_angle_change,gravity_adjusted_angle,smoothed_angle_change,smoothed_gravity_angle,acc_x_dy,acc_y_dy,acc_z_dy,ODBA,VeDBA,smoothed_VeDBA_1s,smoothed_VeDBA_2s,smoothed_VeDBA_3s
LBP08_S01,LBP08,-1650,1,1,0,-1650,1716490520.0,2024-05-23 18:55:20+00:00,2024-05-24 03:55:20+09:00,2024,5,23,18,55,20,0,18.0,55.0,18.0,40.677788,141.525757,21.895,3.0,13.0,-0.480225,0.058838,-0.09668,-18.615723,55.419922,10.131836,-552.0,3.0,605.0,1.0,0.0,1014.400024,18.440001,0.013874,-9.564723,3.979687,0.0,1.0,1.0,1.0,0.0,0.0,0.0,4.0,0.0,,,,,,,-18.524583239708488,55.107738037280576,10.326977847763889,-0.7409833295883396,2.204309521491223,0.4130791139105556,2.3619210646450095,,4.361795293217948,,,,,,,,,
LBP08_S01,LBP08,-1649,2,1,1,-1649,1716490520.04,2024-05-23 18:55:20.040000+00:00,2024-05-24 03:55:20.040000+09:00,2024,5,23,18,55,20,40,,,,,,,,,0.050049,-0.138428,0.144775,39.18457,-81.604004,-17.944336,,,,,,,,,,,0.0,1.0,1.0,1.0,0.0,0.0,0.0,4.0,0.0,,,,,,,-17.345829551215953,33.760135223814956,9.167943877381507,-1.4348165116369778,3.5547149304438213,0.7797968690058159,3.9118767638689236,,4.605792594746025,,,,,,,,,
LBP08_S01,LBP08,-1648,3,1,2,-1648,1716490520.08,2024-05-23 18:55:20.080000+00:00,2024-05-24 03:55:20.080000+09:00,2024,5,23,18,55,20,80,,,,,,,,,0.495605,-0.035156,0.826416,46.936035,-94.726562,-25.390625,,,,,,,,,,,0.0,1.0,1.0,1.0,0.0,0.0,0.0,4.0,0.0,,,,,,,-16.684049780695798,15.192307084162145,8.204808146673894,-2.1021785028648097,4.162407213810307,1.1079891948727716,4.792956115743376,,4.850810927005969,,,,,,,,,
LBP08_S01,LBP08,-1647,4,1,3,-1647,1716490520.12,2024-05-23 18:55:20.120000+00:00,2024-05-24 03:55:20.120000+09:00,2024,5,23,18,55,20,120,,,,,,,,,0.380127,-0.219238,1.189697,-46.142578,22.766113,34.362793,,,,,,,,,,,0.0,1.0,1.0,1.0,0.0,0.0,0.0,4.0,0.0,,,,,,,-16.825305904764676,1.2265883871835044,7.490852561484714,-2.7751907390553967,4.211470749297647,1.4076232973321603,5.2363701986701425,,5.120375128930974,,,,,,,,,
LBP08_S01,LBP08,-1646,5,1,4,-1646,1716490520.16,2024-05-23 18:55:20.160000+00:00,2024-05-24 03:55:20.160000+09:00,2024,5,23,18,55,20,160,,,,,,,,,-0.390869,-0.460693,1.606689,-68.908691,30.761719,37.597656,,,,,,,,,,,0.0,1.0,1.0,1.0,0.0,0.0,0.0,4.0,0.0,,,,,,,-17.797293836410926,-7.474199403924521,6.991963905907952,-3.487082492511834,3.9125027731406665,1.6873018535684783,5.505852323162289,,5.421574612083133,,,,,,,,,
LBP08_S01,LBP08,-1645,6,1,5,-1645,1716490520.2,2024-05-23 18:55:20.200000+00:00,2024-05-24 03:55:20.200000+09:00,2024,5,23,18,55,20,200,,,,,,,,,-0.048584,-0.516357,1.731689,-25.45166,-80.078125,-13.549805,,,,,,,,,,,0.0,1.0,1.0,1.0,0.0,0.0,0.0,4.0,0.0,,,,,,,-19.401145595921644,-11.371877830585095,6.617108331205404,-4.2631283163487,3.4576276599172626,1.9519861868166943,5.82577910238641,,5.750405291186783,,,,,,,,,
LBP08_S01,LBP08,-1644,7,1,6,-1644,1716490520.24,2024-05-23 18:55:20.240000+00:00,2024-05-24 03:55:20.240000+09:00,2024,5,23,18,55,20,240,,,,,,,,,0.235596,-0.25415,1.267334,-14.587402,74.523926,10.131836,,,,,,,,,,,0.0,1.0,1.0,1.0,0.0,0.0,0.0,4.0,0.0,,,,,,,-21.288938409384976,-11.672215819211,6.254352810175944,-5.114685852724099,2.9907390271488223,2.202160299223732,6.320920920565633,,6.46951865557209,,,,,,,,,
LBP08_S01,LBP08,-1643,8,1,7,-1643,1716490520.28,2024-05-23 18:55:20.280000+00:00,2024-05-24 03:55:20.280000+09:00,2024,5,23,18,55,20,280,,,,,,,,,-0.581787,0.319824,-0.225342,2.380371,117.919922,-2.13623,,,,,,,,,,,0.0,1.0,1.0,1.0,0.0,0.0,0.0,4.0,0.0,,,,,,,-23.023383965571053,-9.813249150390453,5.789970808088356,-6.035621211346941,2.598209061133204,2.433759131547266,7.007324542406002,,7.105616759763675,,,,,,,,,
LBP08_S01,LBP08,-1642,9,1,8,-1642,1716490520.32,2024-05-23 18:55:20.320000+00:00,2024-05-24 03:55:20.320000+09:00,2024,5,23,18,55,20,320,,,,,,,,,0.017822,-0.231934,0.202148,-32.043457,-67.199707,5.004883,,,,,,,,,,,0.0,1.0,1.0,1.0,0.0,0.0,0.0,4.0,0.0,,,,,,,-24.11173630438104,-7.048597891475272,5.114709173967175,-7.000090663522182,2.316265145474193,2.6383474985059534,7.831170477300416,,7.705834286976453,,,,,,,,,
LBP08_S01,LBP08,-1641,10,1,9,-1641,1716490520.36,2024-05-23 18:55:20.360000+00:00,2024-05-24 03:55:20.360000+09:00,2024,5,23,18,55,20,360,,,,,,,,,0.338867,-0.162354,0.666504,25.146484,-97.412109,-11.230469,,,,,,,,,,,0.0,1.0,1.0,1.0,0.0,0.0,0.0,4.0,0.0,,,,,,,-24.052586328041066,-4.261685145275677,4.135227063453469,-7.962194116643825,2.1457977396631662,2.8037565810440923,8.709881403119628,,8.289449686545115,,,,,,,,,
LBP08_S01,LBP08,-1640,11,1,10,-1640,1716490520.4,2024-05-23 18:55:20.400000+00:00,2024-05-24 03:55:20.400000+09:00,2024,5,23,18,55,20,400,,,,,,,,,0.450684,-0.278809,1.126953,-42.663574,-5.493164,16.113281,,,,,,,,,,,0.0,1.0,1.0,1.0,0.0,0.0,0.0,4.0,0.0,,,,,,,-22.43228206347326,-1.994919712483575,2.801613436073143,-8.859485399182756,2.066000951163823,2.915821118487018,9.55305470849807,,8.848342848439152,,,,,,,,,
LBP08_S01,LBP08,-1639,12,1,11,-1639,1716490520.44,2024-05-23 18:55:20.440000+00:00,2024-05-24 03:55:20.440000+09:00,2024,5,23,18,55,20,440,,,,,,,,,-0.204346,-0.397461,1.510986,-68.237305,41.07666,17.883301,,,,,,,,,,,0.0,1.0,1.0,1.0,0.0,0.0,0.0,4.0,0.0,,,,,,,-19.064871744155738,-0.5606352949660924,1.1440636876812713,-9.622080268948984,2.0435755393651793,2.961583665994269,10.27285780578477,,9.354833509686008,,,,,,,,,
LBP08_S01,LBP08,-1638,13,1,12,-1638,1716490520.48,2024-05-23 18:55:20.480000+00:00,2024-05-24 03:55:20.480000+09:00,2024,5,23,18,55,20,480,,,,,,,,,-0.157471,-0.494385,1.750732,-26.062012,-53.527832,-6.347656,,,,,,,,,,,0.0,1.0,1.0,1.0,0.0,0.0,0.0,4.0,0.0,,,,,,,-14.117737031020953,-0.10417013478857462,-0.7039408609118453,-10.186789750189822,2.0394087339736364,2.9334260315577954,10.795131387871168,,9.774665565849848,,,,,,,,,
LBP08_S01,LBP08,-1637,14,1,13,-1637,1716490520.52,2024-05-23 18:55:20.520000+00:00,2024-05-24 03:55:20.520000+09:00,2024,5,23,18,55,20,520,,,,,,,,,0.296631,-0.485352,1.388428,-12.695312,13.305664,-4.02832,,,,,,,,,,,0.0,1.0,1.0,1.0,0.0,0.0,0.0,4.0,0.0,,,,,,,-8.143387125798068,-0.5864601478521694,-2.520974131142926,-10.512525235221744,2.0159503280595494,2.8325870663120782,11.072524194356761,,10.07920776926586,,,,,,,,,
LBP08_S01,LBP08,-1636,15,1,14,-1636,1716490520.56,2024-05-23 18:55:20.560000+00:00,2024-05-24 03:55:20.560000+09:00,2024,5,23,18,55,20,560,,,,,,,,,-0.408691,-0.012451,0.107178,20.080566,154.11377,27.648926,,,,,,,,,,,0.0,1.0,1.0,1.0,0.0,0.0,0.0,4.0,0.0,,,,,,,-1.9714219096089125,-1.7467207259333564,-4.0612943134734145,-10.591382111606102,1.9460814990222153,2.6701352937731415,11.09478394210267,,10.251913192821094,,,,,,,,,
LBP08_S01,LBP08,-1635,16,1,15,-1635,1716490520.6,2024-05-23 18:55:20.600000+00:00,2024-05-24 03:55:20.600000+09:00,2024,5,23,18,55,20,600,,,,,,,,,0.015381,-0.110352,0.069824,16.418457,-54.80957,-40.649414,,,,,,,,,,,0.0,1.0,1.0,1.0,0.0,0.0,0.0,4.0,0.0,,,,,,,3.51275314578207,-3.136966098353496,-5.151255145169218,-10.45087198577482,1.8206028550880755,2.4640850879663727,10.890685714854966,,10.289338765263183,,,,,,,,,
LBP08_S01,LBP08,-1634,17,1,16,-1634,1716490520.64,2024-05-23 18:55:20.640000+00:00,2024-05-24 03:55:20.640000+09:00,2024,5,23,18,55,20,640,,,,,,,,,0.334717,0.173828,0.484863,48.217773,-112.426758,-37.475586,,,,,,,,,,,0.0,1.0,1.0,1.0,0.0,0.0,0.0,4.0,0.0,,,,,,,7.614226144265424,-4.276499695241577,-5.778821472548939,-10.146302940004203,1.6495428672784125,2.2329322290644154,10.51924148220401,,10.199578219626098,,,,,,,,,
LBP08_S01,LBP08,-1633,18,1,17,-1633,1716490520.68,2024-05-23 18:55:20.680000+00:00,2024-05-24 03:55:20.680000+09:00,2024,5,23,18,55,20,680,,,,,,,,,0.577148,-0.365967,1.041504,-3.356934,-39.550781,-21.30127,,,,,,,,,,,0.0,1.0,1.0,1.0,0.0,0.0,0.0,4.0,0.0,,,,,,,10.000906231463064,-4.872387150995658,-6.124209144154793,-9.74626669074568,1.454647381238586,1.9879638632982237,10.052746576566157,,9.999811608911012,,,,,,,,,
LBP08_S01,LBP08,-1632,19,1,18,-1632,1716490520.72,2024-05-23 18:55:20.720000+00:00,2024-05-24 03:55:20.720000+09:00,2024,5,23,18,55,20,720,,,,,,,,,0.060059,-0.26001,1.385742,-6.774902,64.39209,37.719727,,,,,,,,,,,0.0,1.0,1.0,1.0,0.0,0.0,0.0,4.0,0.0,,,,,,,10.745879474435188,-4.968970757600302,-6.495309888236005,-9.316431511768272,1.255888550934574,1.7281514677687835,9.558224712852738,,9.713085236457387,,,,,,,,,
LBP08_S01,LBP08,-1631,20,1,19,-1631,1716490520.76,2024-05-23 18:55:20.760000+00:00,2024-05-24 03:55:20.760000+09:00,2024,5,23,18,55,20,760,,,,,,,,,-0.30957,-0.58252,1.659668,-20.080566,-41.442871,-3.845215,,,,,,,,,,,0.0,1.0,1.0,1.0,0.0,0.0,0.0,4.0,0.0,,,,,,,10.251700838170501,-4.915826573327858,-7.181096305505974,-8.906363478241452,1.0592554880014597,1.4409076155485445,9.084137127540524,,9.36395933009943,,,,,,,,,
LBP08_S01,LBP08,-1630,21,1,20,-1630,1716490520.8,2024-05-23 18:55:20.800000+00:00,2024-05-24 03:55:20.800000+09:00,2024,5,23,18,55,20,800,,,,,,,,,0.205811,-0.438232,1.577637,10.253906,-21.42334,-0.549316,,,,,,,,,,,0.0,1.0,1.0,1.0,0.0,0.0,0.0,4.0,0.0,,,,,,,9.118655300446854,-5.1635135454246734,-8.291238771750546,-8.541617266223579,0.8527149461844727,1.1092580646785226,8.65544925212721,,8.97330463276523,,,,,,,,,
LBP08_S01,LBP08,-1629,22,1,21,-1629,1716490520.84,2024-05-23 18:55:20.840000+00:00,2024-05-24 03:55:20.840000+09:00,2024,5,23,18,55,20,840,,,,,,,,,-0.123779,-0.023193,0.47168,32.653809,160.217285,30.395508,,,,,,,,,,,0.0,1.0,1.0,1.0,0.0,0.0,0.0,4.0,0.0,,,,,,,8.020441879562863,-6.005488111796303,-9.66731083578636,-8.220799591041065,0.6124954217126206,0.7225656312470683,8.275191698633895,,8.553689988622441,,,,,,,,,
LBP08_S01,LBP08,-1628,23,1,22,-1628,1716490520.88,2024-05-23 18:55:20.880000+00:00,2024-05-24 03:55:20.880000+09:00,2024,5,23,18,55,20,880,,,,,,,,,-0.067139,-0.006104,-0.081055,19.775391,-30.944824,-33.813477,,,,,,,,,,,0.0,1.0,1.0,1.0,0.0,0.0,0.0,4.0,0.0,,,,,,,7.609751114296942,-7.414153783065431,-10.916839016077562,-7.916409546469187,0.31592927039000335,0.2858920706039658,7.927867663334944,,8.10746513038168,,,,,,,,,
LBP08_S01,LBP08,-1627,24,1,23,-1627,1716490520.92,2024-05-23 18:55:20.920000+00:00,2024-05-24 03:55:20.920000+09:00,2024,5,23,18,55,20,920,,,,,,,,,0.153809,0.05127,0.266846,39.489746,-107.971191,-47.790527,,,,,,,,,,,0.0,1.0,1.0,1.0,0.0,0.0,0.0,4.0,0.0,,,,,,,8.433539799071514,-9.064317766125395,-11.558531298514033,-7.579067954506327,-0.046643440255012436,-0.17644918133659554,7.581265130777178,,7.62918804969375,,,,,,,,,
LBP08_S01,LBP08,-1626,25,1,24,-1626,1716490520.96,2024-05-23 18:55:20.960000+00:00,2024-05-24 03:55:20.960000+09:00,2024,5,23,18,55,20,960,,,,,,,,,0.557617,-0.415283,1.038818,-49.377441,-69.030762,-41.687012,,,,,,,,,,,0.0,1.0,1.0,1.0,0.0,0.0,0.0,4.0,0.0,,,,,,,10.83275188611068,-10.52074145521335,-11.208548695949839,-7.145757879061899,-0.46747309846354645,-0.6247911291745891,7.18823696876067,,7.113066781553032,,,,,,,,,
LBP08_S01,LBP08,-1625,26,1,25,-1625,1716490521.0,2024-05-23 18:55:21+00:00,2024-05-24 03:55:21+09:00,2024,5,23,18,55,21,0,18.0,55.0,19.0,40.677906,141.525894,22.186001,3.0,15.0,0.154541,-0.381592,1.420654,12.695312,82.763672,15.625,-553.0,13.0,603.0,1.0,0.0,1014.799988,18.450001,0.017838,-12.889151,3.979687,0.0,1.0,1.0,1.0,0.0,0.0,0.0,5.0,0.0,,,,,,,14.836215795497061,-11.457651959612011,-9.715875103427908,-6.552309247242017,-0.9257791768480269,-1.0134261333117054,6.694539273427095,,6.565607482160695,,,,,,,,,
LBP08_S01,LBP08,-1624,27,1,26,-1624,1716490521.04,2024-05-23 18:55:21.040000+00:00,2024-05-24 03:55:21.040000+09:00,2024,5,23,18,55,21,40,,,,,,,,,-0.443604,-0.44458,1.4646,22.277832,-69.030762,-4.638672,,,,,,,,,,,0.0,1.0,1.0,1.0,0.0,0.0,0.0,5.0,0.0,,,,,,,20.09699709457588,-11.768588312106008,-7.187868576604624,-5.748429363458982,-1.3965227093322672,-1.3009408763758903,6.056992899796387,,6.020221270542286,,,,,,,,,
LBP08_S01,LBP08,-1623,28,1,27,-1623,1716490521.08,2024-05-23 18:55:21.080000+00:00,2024-05-24 03:55:21.080000+09:00,2024,5,23,18,55,21,80,,,,,,,,,0.170898,-0.24585,1.810791,22.155762,-71.533203,-1.525879,,,,,,,,,,,0.0,1.0,1.0,1.0,0.0,0.0,0.0,5.0,0.0,,,,,,,25.921481123106645,-11.517693428545876,-3.915182615349542,-4.711570118534716,-1.8572304464741023,-1.457548180989872,5.269975769686851,,5.532022444566574,,,,,,,,,
LBP08_S01,LBP08,-1622,29,1,28,-1622,1716490521.12,2024-05-23 18:55:21.120000+00:00,2024-05-24 03:55:21.120000+09:00,2024,5,23,18,55,21,120,,,,,,,,,0.043701,-0.307861,0.729492,20.202637,155.029297,62.438965,,,,,,,,,,,0.0,1.0,1.0,1.0,0.0,0.0,0.0,5.0,0.0,,,,,,,31.402989009290952,-10.789729762532723,-0.26007708107824523,-3.4554505581630783,-2.2888196369754112,-1.467951264233002,4.3970120314455645,,5.142037762093835,,,,,,,,,
LBP08_S01,LBP08,-1621,30,1,29,-1621,1716490521.16,2024-05-23 18:55:21.160000+00:00,2024-05-24 03:55:21.160000+09:00,2024,5,23,18,55,21,160,,,,,,,,,-0.30542,0.121338,-0.053711,79.650879,21.66748,-24.169922,,,,,,,,,,,0.0,1.0,1.0,1.0,0.0,0.0,0.0,5.0,0.0,,,,,,,35.62339812152855,-9.552792981564322,3.4201767415369813,-2.0305146333019364,-2.670931356237984,-1.3311441945715226,3.6095441336171583,,4.862472544280947,,,,,,,,,
LBP08_S01,LBP08,-1620,31,1,30,-1620,1716490521.2,2024-05-23 18:55:21.200000+00:00,2024-05-24 03:55:21.200000+09:00,2024,5,23,18,55,21,200,,,,,,,,,0.027344,-0.073486,0.236084,42.236328,-85.9375,-18.188477,,,,,,,,,,,0.0,1.0,1.0,1.0,0.0,0.0,0.0,5.0,0.0,,,,,,,37.85676640313497,-7.642626615757484,6.782284801095151,-0.5162439771765375,-2.9766364208682834,-1.0598528025277165,3.2015871359431167,,4.688611384447043,,,,,,,,,
LBP08_S01,LBP08,-1619,32,1,31,-1619,1716490521.24,2024-05-23 18:55:21.240000+00:00,2024-05-24 03:55:21.240000+09:00,2024,5,23,18,55,21,240,,,,,,,,,0.470947,-0.037598,0.82959,44.555664,-83.007812,-45.776367,,,,,,,,,,,0.0,1.0,1.0,1.0,0.0,0.0,0.0,5.0,0.0,,,,,,,37.708872944341515,-4.899643713190251,9.466676250666916,0.9921109405971231,-3.1726221693958934,-0.6811857525010399,3.393203438876782,,4.610492961962468,,,,,,,,,
LBP08_S01,LBP08,-1618,33,1,32,-1618,1716490521.28,2024-05-23 18:55:21.280000+00:00,2024-05-24 03:55:21.280000+09:00,2024,5,23,18,55,21,280,,,,,,,,,0.231445,-0.331299,1.255371,0.671387,41.442871,45.471191,,,,,,,,,,,0.0,1.0,1.0,1.0,0.0,0.0,0.0,5.0,0.0,,,,,,,35.15675537591324,-1.3705372085383676,11.09630871071859,2.398381155633653,-3.227443657737428,-0.23733340407229625,4.028020838607555,,4.61865663562784,,,,,,,,,
LBP08_S01,LBP08,-1617,34,1,33,-1617,1716490521.32,2024-05-23 18:55:21.320000+00:00,2024-05-24 03:55:21.320000+09:00,2024,5,23,18,55,21,320,,,,,,,,,-0.293701,-0.451416,1.592529,24.291992,-1.89209,28.747559,,,,,,,,,,,0.0,1.0,1.0,1.0,0.0,0.0,0.0,5.0,0.0,,,,,,,30.499910148373026,2.573955360642285,11.354697305233652,3.6183775615685745,-3.1244854433117366,0.21685448813704983,4.785612952648288,,4.7049313892832645,-1.4502682063763654,,,,,,,,
LBP08_S01,LBP08,-1616,35,1,34,-1616,1716490521.36,2024-05-23 18:55:21.360000+00:00,2024-05-24 03:55:21.360000+09:00,2024,5,23,18,55,21,360,,,,,,,,,-0.09668,-0.371094,1.644775,31.738281,-58.288574,-0.305176,,,,,,,,,,,0.0,1.0,1.0,1.0,0.0,0.0,0.0,5.0,0.0,,,,,,,24.268935787712373,6.298749491988736,10.126883345389732,4.589134993077069,-2.872535463632187,0.6219298219526391,5.44962537042163,,4.858734777781961,-1.4277392919239258,,,,,,,,
LBP08_S01,LBP08,-1615,36,1,35,-1615,1716490521.4,2024-05-23 18:55:21.400000+00:00,2024-05-24 03:55:21.400000+09:00,2024,5,23,18,55,21,400,,,,,,,,,0.294922,-0.231934,1.461426,28.930664,55.297852,47.851562,,,,,,,,,,,0.0,1.0,1.0,1.0,0.0,0.0,0.0,5.0,0.0,,,,,,,17.134197456952258,9.123577793740324,7.627277320805221,5.2745028913551595,-2.507592351882574,0.927020914784848,5.913355048581343,,5.05828945036576,-1.423482368181914,,,,,,,,
LBP08_S01,LBP08,-1614,37,1,36,-1614,1716490521.44,2024-05-23 18:55:21.440000+00:00,2024-05-24 03:55:21.440000+09:00,2024,5,23,18,55,21,440,,,,,,,,,-0.474121,0.14209,0.009766,13.000488,155.517578,40.039062,,,,,,,,,,,0.0,1.0,1.0,1.0,0.0,0.0,0.0,5.0,0.0,,,,,,,9.82672294682972,10.594891691345188,4.428767778991397,5.667571809228348,-2.0837966842287665,1.104171625944504,6.138629636450111,,5.259116340993309,-1.4266557450110355,,,,,,,,
LBP08_S01,LBP08,-1613,38,1,37,-1613,1716490521.48,2024-05-23 18:55:21.480000+00:00,2024-05-24 03:55:21.480000+09:00,2024,5,23,18,55,21,480,,,,,,,,,-0.001465,-0.029785,0.205566,7.751465,-35.339355,-37.963867,,,,,,,,,,,0.0,1.0,1.0,1.0,0.0,0.0,0.0,5.0,0.0,0.02572914666666667,-0.21788090666666668,0.9491242933333333,1.2801106799999997,-3.754068946666666,3.361002586666667,3.0586790001674475,10.667737352861648,1.348208433547321,5.789918969235046,-1.6570871901143005,1.1580999632863969,6.132723306241092,-1.4502682063763654,5.401159825176192,-1.4324162926299107,-0.027194146666666672,0.18809590666666667,-0.7435582933333332,0.9588483466666666,0.7674623947155084,0.7674623947155084,0.7674623947155084,0.7674623947155084
LBP08_S01,LBP08,-1612,39,1,38,-1612,1716490521.52,2024-05-23 18:55:21.520000+00:00,2024-05-24 03:55:21.520000+09:00,2024,5,23,18,55,21,520,,,,,,,,,0.306885,-0.072754,0.711182,-10.681152,-70.617676,-33.447266,,,,,,,,,,,0.0,1.0,1.0,1.0,0.0,0.0,0.0,5.0,0.0,0.03621092,-0.22216801333333336,0.9672395333333335,-0.42805989333333383,-4.3074543599999995,4.418131493333334,-2.5683227431911586,9.69109909061538,-0.7878198563693156,5.6871860595073995,-1.2694432264896853,1.1265871690316243,5.935045916432537,-1.4052103774714861,5.445584711025117,-1.4359112472889572,0.27067408000000004,0.14941401333333337,-0.2560575333333335,0.6761456266666669,0.40144048791940645,0.5844514413174574,0.5844514413174574,0.5844514413174574
LBP08_S01,LBP08,-1611,40,1,39,-1611,1716490521.56,2024-05-23 18:55:21.560000+00:00,2024-05-24 03:55:21.560000+09:00,2024,5,23,18,55,21,560,,,,,,,,,0.310547,-0.243408,1.147461,-7.080078,24.963379,-33.630371,,,,,,,,,,,0.0,1.0,1.0,1.0,0.0,0.0,0.0,5.0,0.0,0.03450193333333334,-0.22512373333333333,0.9865136266666665,-1.7871093733333339,-2.878417906666666,4.915364573333334,-6.659103988372983,8.20270416133025,-1.4062485885075966,5.420821899972481,-0.9413350600364754,1.0703372254913204,5.605090859455142,-1.4149685206978904,5.389899159206072,-1.4358893550491711,0.27604506666666667,-0.018284266666666688,0.16094737333333353,0.45527670666666686,0.32006132259528275,0.49632140174339917,0.49632140174339917,0.49632140174339917
LBP08_S01,LBP08,-1610,41,1,40,-1610,1716490521.6,2024-05-23 18:55:21.600000+00:00,2024-05-24 03:55:21.600000+09:00,2024,5,23,18,55,21,600,,,,,,,,,-0.174805,-0.612305,1.557617,-34.912109,13.366699,26.000977,,,,,,,,,,,0.0,1.0,1.0,1.0,0.0,0.0,0.0,5.0,0.0,0.030602200000000003,-0.23185875999999997,0.99774084,-1.944986973333334,-1.2784830133333327,5.688476546666666,-9.097840278225089,6.657229100712063,-0.3648758232923945,5.056908288843477,-0.6750458960079928,1.0557421925596246,5.209856042218604,-1.4361758754984,5.255560990834084,-1.4356897653112939,-0.20540719999999998,-0.38044624000000005,0.5598761600000001,1.1457296000000001,0.7073844597376474,0.5490871662419612,0.5490871662419612,0.5490871662419612
LBP08_S01,LBP08,-1609,42,1,41,-1609,1716490521.64,2024-05-23 18:55:21.640000+00:00,2024-05-24 03:55:21.640000+09:00,2024,5,23,18,55,21,640,,,,,,,,,-0.155518,-0.535156,1.695557,-0.793457,-94.055176,-1.342773,,,,,,,,,,,0.0,1.0,1.0,1.0,0.0,0.0,0.0,5.0,0.0,0.02605466666666667,-0.23075525333333333,0.9976204000000002,-0.8333333333333337,0.762532613333334,5.80322264,-10.066599540710467,5.241940380788017,2.029101086254241,4.654244307215058,-0.46536828077647213,1.1369062360097943,4.813638280705622,-1.455458483105411,5.074454055693197,-1.4312377862464605,-0.18157266666666666,-0.3044007466666666,0.6979365999999998,1.1839100133333331,0.7827796276546983,0.5958256585245086,0.5958256585245086,0.5958256585245086
LBP08_S01,LBP08,-1608,43,1,42,-1608,1716490521.68,2024-05-23 18:55:21.680000+00:00,2024-05-24 03:55:21.680000+09:00,2024,5,23,18,55,21,680,,,,,,,,,0.222656,-0.215332,1.498047,5.859375,23.010254,15.319824,,,,,,,,,,,0.0,1.0,1.0,1.0,0.0,0.0,0.0,5.0,0.0,0.02537758666666667,-0.22050461333333332,0.9754296533333333,0.06754557333333301,1.1393229733333339,5.0504557199999995,-9.99263154347623,3.867996189927933,5.15180709856583,4.254539045476009,-0.3106484331793548,1.3429785199524276,4.4722696970968006,-1.4533860205841904,4.8800012250940465,-1.4295410044909374,0.19727841333333332,0.005172613333333326,0.5226173466666666,0.7250683733333332,0.5586362137678871,0.5896274177317383,0.5896274177317383,0.5896274177317383
LBP08_S01,LBP08,-1607,44,1,43,-1607,1716490521.72,2024-05-23 18:55:21.720000+00:00,2024-05-24 03:55:21.720000+09:00,2024,5,23,18,55,21,720,,,,,,,,,-0.384521,0.193115,0.362549,-5.859375,168.273926,37.780762,,,,,,,,,,,0.0,1.0,1.0,1.0,0.0,0.0,0.0,5.0,0.0,0.028610013333333337,-0.21575852000000004,0.9576497066666667,0.20100910666666633,1.155599013333334,4.855957026666666,-9.433431108139063,2.3219036197328684,8.275498642805056,3.8772018011504463,-0.2177722883900401,1.6739984656646298,4.228757434457838,-1.4357580016104536,4.702156369140374,-1.427728741484636,-0.41313101333333335,0.40887352000000005,-0.5951007066666667,1.4171052400000002,0.8318651577089783,0.6242328091570585,0.6242328091570585,0.6242328091570585
LBP08_S01,LBP08,-1606,45,1,44,-1606,1716490521.76,2024-05-23 18:55:21.760000+00:00,2024-05-24 03:55:21.760000+09:00,2024,5,23,18,55,21,760,,,,,,,,,-0.0979,-0.31543,0.181152,-61.950684,-35.15625,2.807617,,,,,,,,,,,0.0,1.0,1.0,1.0,0.0,0.0,0.0,5.0,0.0,0.029306626666666665,-0.21878912,0.9545637733333333,-0.37272137333333366,-0.8479817199999995,4.178059893333334,-8.92896398302046,0.4710385891505095,10.774648505344746,3.520043241829628,-0.1989307448240197,2.1049844058784197,4.106243686701752,-1.4342926371461537,4.565019420887447,-1.4327407216262322,-0.12720662666666666,-0.09664087999999998,-0.7734117733333333,0.99725928,0.7897384102889377,0.6449210092985433,0.6449210092985433,0.6449210092985433
LBP08_S01,LBP08,-1605,46,1,45,-1605,1716490521.8,2024-05-23 18:55:21.800000+00:00,2024-05-24 03:55:21.800000+09:00,2024,5,23,18,55,21,800,,,,,,,,,0.371094,-0.090332,0.826904,56.518555,-69.946289,-10.437012,,,,,,,,,,,0.0,1.0,1.0,1.0,0.0,0.0,0.0,5.0,0.0,0.03949868,-0.22902674666666664,0.9775878666666665,-0.8414713733333337,-2.313639279999999,4.0673828,-8.854967599809296,-1.6098536863304946,12.263930369543049,3.1658445378372564,-0.2633248922772395,2.595541620660142,4.102285697172478,-1.3956219537277952,4.485665161388124,-1.436801942075556,0.33159531999999997,0.13869474666666665,-0.15068386666666655,0.6209739333333332,0.38974006295536384,0.6165675708159678,0.6165675708159678,0.6165675708159678
LBP08_S01,LBP08,-1604,47,1,46,-1604,1716490521.84,2024-05-23 18:55:21.840000+00:00,2024-05-24 03:55:21.840000+09:00,2024,5,23,18,55,21,840,,,,,,,,,0.415039,-0.207764,1.167725,-19.165039,-9.155273,21.240234,,,,,,,,,,,0.0,1.0,1.0,1.0,0.0,0.0,0.0,5.0,0.0,0.03589190666666667,-0.23343104,0.9965852666666666,-0.7413737200000003,-1.5608723599999994,3.9347330533333333,-9.308909620424645,-3.653158344312909,12.648787601056924,2.7934881530202706,-0.40945122604975587,3.1014931247024187,4.1941013304586034,-1.414269968691227,4.473340985944082,-1.436736471346355,0.3791470933333333,0.025667040000000002,0.17113973333333332,0.5759538666666666,0.4167734680265544,0.5965881605370265,0.5965881605370265,0.5965881605370265
LBP08_S01,LBP08,-1603,48,1,47,-1603,1716490521.88,2024-05-23 18:55:21.880000+00:00,2024-05-24 03:55:21.880000+09:00,2024,5,23,18,55,21,880,,,,,,,,,-0.24707,-0.598145,1.647705,-23.376465,11.169434,32.409668,,,,,,,,,,,0.0,1.0,1.0,1.0,0.0,0.0,0.0,5.0,0.0,0.03182616,-0.23400069333333334,1.0094270666666665,-0.5867513200000005,-0.3076171599999994,4.138183573333333,-10.060948585216908,-5.301742372312835,12.101876509010465,2.391050209611594,-0.6215209209422693,3.5855681850628374,4.354274746704368,-1.432145576313353,4.529358835450166,-1.4335005390020448,-0.27889616,-0.3641443066666667,0.6382779333333335,1.2813184000000002,0.7859916439255346,0.6138066590268908,0.6138066590268908,0.6138066590268908
LBP08_S01,LBP08,-1602,49,1,48,-1602,1716490521.92,2024-05-23 18:55:21.920000+00:00,2024-05-24 03:55:21.920000+09:00,2024,5,23,18,55,21,920,,,,,,,,,-0.28833,-0.572998,1.898926,21.789551,-74.157715,-7.8125,,,,,,,,,,,0.0,1.0,1.0,1.0,0.0,0.0,0.0,5.0,0.0,0.02661456,-0.2355957466666667,1.0061588399999999,-0.11149090666666708,1.6219075733333341,4.466959613333334,-10.596732276128273,-6.199324199603941,10.987960580294285,1.9671809185664633,-0.869493888926427,4.025086608274608,4.563676433903261,-1.455330178887448,4.649028812811784,-1.4264368144570854,-0.31494456,-0.3374022533333333,0.89276716,1.5451139733333332,1.0050191831017306,0.6464077026997942,0.6464077026997942,0.6464077026997942
LBP08_S01,LBP08,-1601,50,1,49,-1601,1716490521.96,2024-05-23 18:55:21.960000+00:00,2024-05-24 03:55:21.960000+09:00,2024,5,23,18,55,21,960,,,,,,,,,0.299316,-0.106934,1.496582,-1.098633,16.784668,11.291504,,,,,,,,,,,0.0,1.0,1.0,1.0,0.0,0.0,0.0,5.0,0.0,0.025979800000000004,-0.23046878666666668,0.9853385333333333,1.261393213333333,1.2687174666666674,3.875325493333334,-10.256458439209185,-6.012225508576762,9.755483789575644,1.556922580998096,-1.1099829092694975,4.415305959857634,4.811548264461918,-1.4555807251911281,4.826806103833464,-1.423090074728239,0.27333620000000003,0.12353478666666667,0.5112434666666668,0.9081144533333334,0.5927422744807139,0.6422795928367879,0.6422795928367879,0.6422795928367879
LBP08_S01,LBP08,-1600,51,1,50,-1600,1716490522.0,2024-05-23 18:55:22+00:00,2024-05-24 03:55:22+09:00,2024,5,23,18,55,22,0,18.0,55.0,20.0,40.678028,141.526031,21.642,3.0,15.0,-0.392578,0.033936,0.262695,-36.804199,168.212891,24.230957,-554.0,11.0,603.0,1.0,0.0,1014.799988,18.5,0.017838,-12.889151,3.979687,0.0,1.0,1.0,1.0,0.0,0.0,0.0,4.0,0.0,0.02979165333333333,-0.2246191733333333,0.9658723866666666,2.838541653333333,0.6575521066666675,3.490397106666667,-8.441817707847244,-4.411640152708496,8.812896426487182,1.2192498726842063,-1.2864485153778373,4.767821816917122,5.086614287778186,-1.4355211682063906,5.063483618108965,-1.4220677892425782,-0.4223696533333333,0.25855517333333333,-0.7031773866666666,1.3841022133333332,0.8600612413274492,0.6578354248718352,0.6578354248718352,0.6578354248718352
LBP08_S01,LBP08,-1599,52,1,51,-1599,1716490522.04,2024-05-23 18:55:22.040000+00:00,2024-05-24 03:55:22.040000+09:00,2024,5,23,18,55,22,40,,,,,,,,,-0.062012,-0.443604,0.178223,-73.059082,-58.349609,-3.723145,,,,,,,,,,,0.0,1.0,1.0,1.0,0.0,0.0,0.0,4.0,0.0,0.031940093333333336,-0.22015628,0.95768228,2.8198242,-1.0937499733333327,2.9402668933333334,-4.830315955957489,-1.1028067926461849,8.414118995844458,1.0260372344459068,-1.3305607870836846,5.1043865767509,5.373816775766451,-1.423099159662309,5.370344565983293,-1.427058348564549,-0.09395209333333333,-0.22344772,-0.77945928,1.0968590933333333,0.8162797612295873,0.6683983806290186,0.6683983806290186,0.6683983806290186
LBP08_S01,LBP08,-1598,53,1,52,-1598,1716490522.08,2024-05-23 18:55:22.080000+00:00,2024-05-24 03:55:22.080000+09:00,2024,5,23,18,55,22,80,,,,,,,,,0.343018,0.03418,0.72998,63.598633,-80.993652,-20.996094,,,,,,,,,,,0.0,1.0,1.0,1.0,0.0,0.0,0.0,4.0,0.0,0.04179685333333334,-0.22521488,0.9752734266666666,3.040364573333333,-2.317708306666666,2.729492146666667,0.4814950069642249,4.031340523434858,8.582501564331269,1.0452970347244759,-1.1693071661462904,5.447686639324151,5.668969470712971,-1.382748775134596,5.764933629813236,-1.4330246674958034,0.30122114666666666,0.25939488,-0.24529342666666665,0.8059094533333333,0.4671067845099997,0.65581765587158,0.65581765587158,0.65581765587158
LBP08_S01,LBP08,-1597,54,1,53,-1597,1716490522.12,2024-05-23 18:55:22.120000+00:00,2024-05-24 03:55:22.120000+09:00,2024,5,23,18,55,22,120,,,,,,,,,0.555664,-0.461182,1.197021,-28.015137,-20.141602,7.019043,,,,,,,,,,,0.0,1.0,1.0,1.0,0.0,0.0,0.0,4.0,0.0,0.038499320000000004,-0.23218428000000002,0.9975846266666667,2.932942693333333,-1.4884439866666657,3.6710611600000003,6.9662106350577515,10.708197968480503,9.10177090652335,1.323945460126786,-0.7409792474070702,5.811757475585085,6.006530344674652,-1.4022906043219894,6.2605174886701835,-1.43475853275314,0.51716468,-0.22899771999999996,0.1994363733333332,0.9455987733333332,0.5997283793627357,0.6525182866651774,0.6525182866651774,0.6525182866651774
LBP08_S01,LBP08,-1596,55,1,54,-1596,1716490522.16,2024-05-23 18:55:22.160000+00:00,2024-05-24 03:55:22.160000+09:00,2024,5,23,18,55,22,160,,,,,,,,,-0.209961,-0.258057,1.619141,34.118652,46.875,32.958984,,,,,,,,,,,0.0,1.0,1.0,1.0,0.0,0.0,0.0,4.0,0.0,0.03418290666666667,-0.23741865333333337,1.01381836,2.4373372266666666,-0.31087237333333223,4.143880173333333,13.788952800323942,18.090502076774946,9.589401822139827,1.8755035721397437,-0.01735916433607232,6.195333548470678,6.473018829456754,-1.4240697822895454,6.857300526202859,-1.4324882181350131,-0.2441439066666667,-0.020638346666666613,0.60532264,0.8701048933333333,0.6530296218489366,0.6525466941753861,0.6525466941753861,0.6525466941753861
LBP08_S01,LBP08,-1595,56,1,55,-1595,1716490522.2,2024-05-23 18:55:22.200000+00:00,2024-05-24 03:55:22.200000+09:00,2024,5,23,18,55,22,200,,,,,,,,,-0.182373,-0.676758,1.880615,54.321289,-57.617188,-2.197266,,,,,,,,,,,0.0,1.0,1.0,1.0,0.0,0.0,0.0,4.0,0.0,0.02868486666666667,-0.2336686533333333,1.0135937466666667,2.4047851466666663,1.9482422000000013,4.798990853333334,20.010955914362444,24.849174861901158,9.637386058807936,2.6759418087142413,0.976607830139974,6.5808289908229956,7.1708951759157635,-1.4455275469475046,7.54041787288592,-1.4275470708159665,-0.21105786666666668,-0.44308934666666666,0.8670212533333332,1.5211684666666665,0.9962928514965276,0.6706385971922885,0.6706385971922885,0.6706385971922885
LBP08_S01,LBP08,-1594,57,1,56,-1594,1716490522.24,2024-05-23 18:55:22.240000+00:00,2024-05-24 03:55:22.240000+09:00,2024,5,23,18,55,22,240,,,,,,,,,0.31665,-0.116455,1.599609,11.535645,38.513184,28.198242,,,,,,,,,,,0.0,1.0,1.0,1.0,0.0,0.0,0.0,4.0,0.0,0.021686160000000003,-0.22898439999999998,0.9931705733333333,1.634928373333333,1.614583346666668,4.04459632,24.795345901248183,29.485648170777168,8.97019037440328,3.667755644764169,2.156033756971061,6.939636605799127,8.13999196875804,-1.4739331580037696,8.284129375952805,-1.426528388830495,0.29496384,0.11252939999999997,0.6064384266666668,1.0139316666666667,0.6836915226254072,0.6712912434639444,0.6712912434639444,0.6712912434639444
LBP08_S01,LBP08,-1593,58,1,57,-1593,1716490522.28,2024-05-23 18:55:22.280000+00:00,2024-05-24 03:55:22.280000+09:00,2024,5,23,18,55,22,280,,,,,,,,,-0.519775,0.03418,0.322021,18.249512,218.933105,60.48584,,,,,,,,,,,0.0,1.0,1.0,1.0,0.0,0.0,0.0,4.0,0.0,0.026793573333333338,-0.2255078266666667,0.9740787733333334,3.2080077999999994,1.0196940266666679,3.51155596,27.554880067844024,30.81258426647502,7.553960788726844,4.769950847477929,3.3885371276300615,7.241795037348201,9.310113335273844,-1.449484228886718,9.058592198010784,-1.4278964276739035,-0.5465685733333333,0.2596878266666667,-0.6520577733333334,1.4583141733333334,0.8895809757626997,0.6816859926210279,0.6816859926210279,0.6816859926210279
LBP08_S01,LBP08,-1592,59,1,58,-1592,1716490522.32,2024-05-23 18:55:22.320000+00:00,2024-05-24 03:55:22.320000+09:00,2024,5,23,18,55,22,320,,,,,,,,,-0.030518,-0.308838,0.37793,-3.112793,-8.605957,-34.667969,,,,,,,,,,,0.0,1.0,1.0,1.0,0.0,0.0,0.0,4.0,0.0,0.02913732,-0.21457033333333334,0.9637239466666665,3.951822906666666,0.35563153333333464,2.9052734,28.021112113190444,28.392258336775086,5.6074276776798415,5.890795332005547,4.524227461101065,7.466092144455394,10.53150680923,-1.4326270327061816,9.834870201714155,-1.4355498563038325,-0.05965532,-0.09426766666666667,-0.5857939466666665,0.7397169333333331,0.5963218075287785,0.677805802389562,0.677805802389562,0.677805802389562
LBP08_S01,LBP08,-1591,60,1,59,-1591,1716490522.36,2024-05-23 18:55:22.360000+00:00,2024-05-24 03:55:22.360000+09:00,2024,5,23,18,55,22,360,,,,,,,,,0.231689,-0.012939,1.05249,99.121094,-6.530762,-29.418945,,,,,,,,,,,0.0,1.0,1.0,1.0,0.0,0.0,0.0,4.0,0.0,0.03558588,-0.21943361333333333,0.9733398266666667,3.0550129999999993,-1.3313801866666655,2.8263346,26.248785967876763,22.725932718169105,3.5098599457853954,6.940746770720618,5.433264769827829,7.6064865422868095,11.642721731292529,-1.4061692520006608,10.585361246098861,-1.4449914017629393,0.19610312000000002,0.20649461333333333,0.07915017333333318,0.48174790666666656,0.2955692963555483,0.6611868238663441,0.6611868238663441,0.6611868238663441
LBP08_S01,LBP08,-1590,61,1,60,-1590,1716490522.4,2024-05-23 18:55:22.400000+00:00,2024-05-24 03:55:22.400000+09:00,2024,5,23,18,55,22,400,,,,,,,,,0.345459,-0.123047,1.523193,-39.306641,45.654297,-1.098633,,,,,,,,,,,0.0,1.0,1.0,1.0,0.0,0.0,0.0,4.0,0.0,0.03156896,-0.22060548000000002,0.9958984266666666,1.3777669066666662,-0.7950846133333321,3.63525388,22.578213619556205,15.096782683221063,1.655464775167181,7.843875315502866,6.0371360771566716,7.672705133293497,12.52372931844705,-1.4253343483516752,11.28057175155971,-1.450027277717616,0.31389004000000004,0.09755848000000002,0.5272945733333334,0.9387430933333334,0.6213567262836173,0.6595272364670638,0.6595272364670638,0.6595272364670638
LBP08_S01,LBP08,-1589,62,1,61,-1589,1716490522.44,2024-05-23 18:55:22.440000+00:00,2024-05-24 03:55:22.440000+09:00,2024,5,23,18,55,22,440,,,,,,,,,-0.537598,-0.575195,1.810791,0.0,-34.790039,6.835938,,,,,,,,,,,0.0,1.0,1.0,1.0,0.0,0.0,0.0,4.0,0.0,0.029859973333333335,-0.22683269333333334,1.0154361866666666,0.9619140399999996,0.10986329333333458,3.9778645466666664,17.5685462322055,7.136573320005001,0.33087530474643045,8.546617164791087,6.322599009956871,7.685940145483354,13.118444996346248,-1.4367795480963952,11.887358970238296,-1.4509458261014525,-0.5674579733333334,-0.3483623066666667,0.7953548133333335,1.7111750933333334,1.0372820866563717,0.6746374304746361,0.6746374304746361,0.6746374304746361
LBP08_S01,LBP08,-1588,63,1,62,-1588,1716490522.48,2024-05-23 18:55:22.480000+00:00,2024-05-24 03:55:22.480000+09:00,2024,5,23,18,55,22,480,,,,,,,,,-0.065674,-0.462158,2.041992,102.905273,-128.662109,-2.441406,,,,,,,,,,,0.0,1.0,1.0,1.0,0.0,0.0,0.0,4.0,0.0,0.024664666666666668,-0.22553712,1.01815104,1.8123372133333329,2.347005226666668,4.719238253333334,11.905812019840772,0.30564628276025363,-0.33141451131234206,9.022849645584717,6.334824861267282,7.6726835650308605,13.431749507746671,-1.4592830614338843,12.37340348745683,-1.445380579233441,-0.09033866666666666,-0.23662088,1.02384096,1.3508005066666666,1.05470414189042,0.6861271003616325,0.6892553809137046,0.6892553809137046
LBP08_S01,LBP08,-1587,64,1,63,-1587,1716490522.52,2024-05-23 18:55:22.520000+00:00,2024-05-24 03:55:22.520000+09:00,2024,5,23,18,55,22,520,,,,,,,,,0.274902,-0.218018,1.433838,-18.981934,71.411133,34.667969,,,,,,,,,,,0.0,1.0,1.0,1.0,0.0,0.0,0.0,4.0,0.0,0.015803986666666672,-0.21791668,0.99692708,1.8522135199999994,2.4487304800000014,4.990234346666667,6.285259751775672,-4.510650223275117,-0.3253991312561852,9.274260035655743,6.154398852336277,7.659667599780613,13.511440788521712,-1.4967060589130574,12.71561963277755,-1.440783055823625,0.2590980133333333,-0.00010131999999998809,0.43691092,0.6961102533333333,0.5079595877570074,0.6903878643551365,0.682540721907901,0.682540721907901
LBP08_S01,LBP08,-1586,65,1,64,-1586,1716490522.56,2024-05-23 18:55:22.560000+00:00,2024-05-24 03:55:22.560000+09:00,2024,5,23,18,55,22,560,,,,,,,,,-0.549805,0.069336,-0.073975,-41.687012,89.050293,0.610352,,,,,,,,,,,0.0,1.0,1.0,1.0,0.0,0.0,0.0,4.0,0.0,0.02014318666666667,-0.21322266666666667,0.9783626266666666,2.254231746666666,2.2143554800000014,4.404296853333333,1.2695962189294119,-7.166730203789173,0.2882240329781208,9.325043884412919,5.86772964418471,7.671196561099738,13.425123884065252,-1.4744285418363126,12.90599849943447,-1.4394208739279066,-0.5699481866666667,0.2825586666666667,-1.0523376266666666,1.90484448,1.2296726459068277,0.7267723172875984,0.7020811477650055,0.7020811477650055
LBP08_S01,LBP08,-1585,66,1,65,-1585,1716490522.6,2024-05-23 18:55:22.600000+00:00,2024-05-24 03:55:22.600000+09:00,2024,5,23,18,55,22,600,,,,,,,,,-0.019531,-0.225586,0.274414,-4.943848,-60.119629,-20.751953,,,,,,,,,,,0.0,1.0,1.0,1.0,0.0,0.0,0.0,4.0,0.0,0.023876920000000003,-0.20947592,0.9641536400000001,2.5651041333333326,1.3232422000000013,4.031575506666666,-2.8539618794380557,-8.183699758251324,1.4309849781311743,9.210885409235397,5.540381653854657,7.728435960224985,13.238767362701616,-1.4547130307858709,12.952826696328028,-1.443192987530653,-0.04340792,-0.01611008,-0.6897396400000002,0.7492576400000002,0.6912919449723559,0.7261286166969866,0.701709106289397,0.701709106289397
LBP08_S01,LBP08,-1584,67,1,66,-1584,1716490522.64,2024-05-23 18:55:22.640000+00:00,2024-05-24 03:55:22.640000+09:00,2024,5,23,18,55,22,640,,,,,,,,,0.238281,0.089844,0.706055,13.183594,-88.623047,-42.053223,,,,,,,,,,,0.0,1.0,1.0,1.0,0.0,0.0,0.0,4.0,0.0,0.031529919999999996,-0.20977214666666666,0.96851236,2.175292933333333,-1.0872395733333322,3.2137044133333332,-6.164868981563451,-8.521399569471878,3.031603708258226,8.96429064997286,5.199525671075781,7.849700108555314,13.000437140943385,-1.418280689323653,12.88012528171708,-1.44771325402694,0.20675108,0.29961614666666664,-0.26245736,0.7688245866666666,0.4487757906156675,0.7127684632154255,0.6932779957669394,0.6932779957669394
LBP08_S01,LBP08,-1583,68,1,67,-1583,1716490522.68,2024-05-23 18:55:22.680000+00:00,2024-05-24 03:55:22.680000+09:00,2024,5,23,18,55,22,680,,,,,,,,,0.313721,-0.376709,1.280518,-33.874512,16.052246,42.297363,,,,,,,,,,,0.0,1.0,1.0,1.0,0.0,0.0,0.0,4.0,0.0,0.035283173333333334,-0.21361654666666666,0.98988932,1.2817382399999997,-0.5493163866666656,3.9485676933333336,-9.09421874703504,-9.26997357752921,5.0428086633702245,8.600521900091458,4.828726727974613,8.051412455090123,12.732274788481027,-1.4035089947885606,12.72785123657906,-1.4498578201794061,0.2784378266666667,-0.16309245333333336,0.2906286800000001,0.7321589600000001,0.43427157550510337,0.7077938776849142,0.6849229499520415,0.6849229499520415
LBP08_S01,LBP08,-1582,69,1,68,-1582,1716490522.72,2024-05-23 18:55:22.720000+00:00,2024-05-24 03:55:22.720000+09:00,2024,5,23,18,55,22,720,,,,,,,,,-0.19751,-0.435791,1.617676,-36.010742,10.559082,48.156738,,,,,,,,,,,0.0,1.0,1.0,1.0,0.0,0.0,0.0,4.0,0.0,0.032617160000000006,-0.21802410666666663,1.0102864533333333,0.2164713199999996,0.5973307466666676,4.31477864,-12.284440873476415,-11.294882448498337,7.4621797965218875,8.109144265152402,4.376931430034679,8.349899646950998,12.435295475799196,-1.4190052137489972,12.551177458391006,-1.4474782634576413,-0.23012716,-0.21776689333333335,0.6073895466666666,1.0552835999999999,0.6850569253731078,0.7019215483914794,0.6849271366839498,0.6849271366839498
LBP08_S01,LBP08,-1581,70,1,69,-1581,1716490522.76,2024-05-23 18:55:22.760000+00:00,2024-05-24 03:55:22.760000+09:00,2024,5,23,18,55,22,760,,,,,,,,,-0.009277,-0.520264,1.704102,-10.925293,-34.912109,5.67627,,,,,,,,,,,0.0,1.0,1.0,1.0,0.0,0.0,0.0,4.0,0.0,0.027757133333333333,-0.22256512,1.0218294133333334,-0.3556315466666671,2.506510426666668,4.9682617066666666,-16.348933304374594,-14.884712994892201,10.336584638633576,7.455186932977418,3.781542910238991,8.763363032496342,12.111003700228132,-1.443890388028123,12.413460053195232,-1.4405160928088345,-0.03703413333333333,-0.29769887999999994,0.6822725866666666,1.0170055999999998,0.7453133788560551,0.700144547134164,0.6867570228103772,0.6867570228103772
LBP08_S01,LBP08,-1580,71,1,70,-1580,1716490522.8,2024-05-23 18:55:22.800000+00:00,2024-05-24 03:55:22.800000+09:00,2024,5,23,18,55,22,800,,,,,,,,,0.086914,-0.216309,0.878906,16.662598,90.637207,10.253906,,,,,,,,,,,0.0,1.0,1.0,1.0,0.0,0.0,0.0,4.0,0.0,0.021832653333333337,-0.22211589333333331,1.01502928,-0.3637695733333337,4.340820320000001,4.541829426666667,-21.595497827363506,-19.51465561668781,13.712279181853734,6.591367019882878,3.000956685571478,9.31185419977049,11.79671517233756,-1.4705370133145463,12.37146787800319,-1.4348972755182376,0.06508134666666666,0.005806893333333313,-0.13612328000000007,0.20701152000000006,0.15099287748794635,0.6905946597154673,0.6709992538303057,0.6709992538303057
LBP08_S01,LBP08,-1579,72,1,71,-1579,1716490522.84,2024-05-23 18:55:22.840000+00:00,2024-05-24 03:55:22.840000+09:00,2024,5,23,18,55,22,840,,,,,,,,,-0.515625,0.288086,-0.226318,52.490234,77.514648,6.591797,,,,,,,,,,,0.0,1.0,1.0,1.0,0.0,0.0,0.0,4.0,0.0,0.024055960000000005,-0.21776693333333336,0.9948437333333334,-1.5177409200000003,3.5978190133333343,3.9835611866666665,-27.812747158330815,-23.870177504631396,17.523141198255914,5.478857133549646,2.0461495853862224,10.012779847700727,11.595704544966031,-1.4582252096210555,12.4613258302416,-1.4326513917737522,-0.53968096,0.5058529333333334,-1.2211617333333333,2.2666956266666665,1.427718007067968,0.7310324412771239,0.692619789637096,0.692619789637096
LBP08_S01,LBP08,-1578,73,1,72,-1578,1716490522.88,2024-05-23 18:55:22.880000+00:00,2024-05-24 03:55:22.880000+09:00,2024,5,23,18,55,22,880,,,,,,,,,-0.059326,-0.018066,-0.02417,-68.481445,-95.092773,-13.244629,,,,,,,,,,,0.0,1.0,1.0,1.0,0.0,0.0,0.0,4.0,0.0,0.02940426666666667,-0.2212727866666667,0.9845963466666666,-0.8805338800000004,3.136393226666667,3.7825520800000003,-34.229669198930274,-26.21704579063834,21.466456041695814,4.109670365592435,0.9974677537606886,10.87143808936856,11.665011725866142,-1.4354874942162383,12.69424602008399,-1.4349253246063292,-0.08873026666666667,0.2032067866666667,-1.0087663466666665,1.3007034,1.0328482950256264,0.7409067073211275,0.702070581453444,0.702070581453444
LBP08_S01,LBP08,-1577,74,1,73,-1577,1716490522.92,2024-05-23 18:55:22.920000+00:00,2024-05-24 03:55:22.920000+09:00,2024,5,23,18,55,22,920,,,,,,,,,0.314697,-0.086426,0.331299,-25.939941,-177.062988,-5.79834,,,,,,,,,,,0.0,1.0,1.0,1.0,0.0,0.0,0.0,4.0,0.0,0.03075842666666667,-0.21759440000000002,0.9827115733333335,-1.2003580933333338,2.2127278533333343,3.2926432266666668,-39.70866182869114,-25.0500662288965,24.949761931389943,2.521323892444789,-0.004534895395171379,11.869428566624158,12.13426673656397,-1.4270843524249894,13.061649313510898,-1.4426473975187493,0.28393857333333333,0.13116840000000002,-0.6514125733333335,1.0665195466666668,0.7226095787365985,0.7296103231465223,0.702625689488124,0.702625689488124
LBP08_S01,LBP08,-1576,75,1,74,-1576,1716490522.96,2024-05-23 18:55:22.960000+00:00,2024-05-24 03:55:22.960000+09:00,2024,5,23,18,55,22,960,,,,,,,,,0.506592,-0.050049,0.774902,-83.984375,-91.491699,33.447266,,,,,,,,,,,0.0,1.0,1.0,1.0,0.0,0.0,0.0,4.0,0.0,0.03362626666666667,-0.22393554666666668,1.0059049333333334,-1.114908866666667,0.5598958266666678,3.1013997466666665,-43.123829621767435,-19.76809676938148,27.174612631114996,0.7963707075740916,-0.7952587661704306,12.956413071868758,13.005202132144836,-1.4182403689303427,13.543429252401111,-1.4483024543716672,0.47296573333333336,0.17388654666666667,-0.23100293333333344,0.8778552133333335,0.5543423772613827,0.728074327257749,0.6987234970611045,0.6987234970611045
LBP08_S01,LBP08,-1575,76,1,75,-1575,1716490523.0,2024-05-23 18:55:23+00:00,2024-05-24 03:55:23+09:00,2024,5,23,18,55,23,0,18.0,55.0,21.0,40.678158,141.526169,21.73,3.0,15.0,0.305908,-0.262695,1.261963,-146.728516,13.916016,89.416504,-545.0,17.0,597.0,1.0,0.0,1015.0,18.58,0.01982,-14.55122,3.979687,0.0,1.0,1.0,1.0,0.0,0.0,0.0,4.0,0.0,0.031406213333333335,-0.23071614666666668,1.0296712133333334,-1.6373698000000005,0.15950520000000115,3.472493493333333,-43.767948908309485,-11.04276423065209,27.358538480755424,-0.9543472487582878,-1.236969335396514,14.050754611098974,14.137346885085718,-1.4322541933410158,14.113776851685543,-1.449038923695099,0.2745017866666667,-0.031978853333333335,0.2322917866666665,0.5387724266666665,0.36101710776152857,0.7081125619151122,0.6900643588739358,0.6900643588739358
LBP08_S01,LBP08,-1574,77,1,76,-1574,1716490523.04,2024-05-23 18:55:23.040000+00:00,2024-05-24 03:55:23.040000+09:00,2024,5,23,18,55,23,40,,,,,,,,,-0.078125,-0.360107,1.590332,-62.744141,25.57373,19.348145,,,,,,,,,,,0.0,1.0,1.0,1.0,0.0,0.0,0.0,4.0,0.0,0.02980790666666667,-0.23398437333333333,1.04231444,-1.1368815200000006,1.953938800000001,4.02669272,-41.59425523538433,-0.6709462033372244,25.01733352550948,-2.618117458173661,-1.263807183530003,15.051447952119354,15.329639039367288,-1.4410200176494223,14.741854243980782,-1.4465765223129095,-0.10793290666666666,-0.12612262666666668,0.5480175600000001,0.7820730933333335,0.5726077849341279,0.6983656828632938,0.6871279445254406,0.6871279445254406
LBP08_S01,LBP08,-1573,78,1,77,-1573,1716490523.08,2024-05-23 18:55:23.080000+00:00,2024-05-24 03:55:23.080000+09:00,2024,5,23,18,55,23,80,,,,,,,,,0.203125,-0.540283,1.668457,35.095215,25.268555,32.592773,,,,,,,,,,,0.0,1.0,1.0,1.0,0.0,0.0,0.0,4.0,0.0,0.020345013333333335,-0.23080078666666665,1.0317024533333334,-1.5738932400000003,4.026692706666668,4.577636733333333,-37.168378947453675,9.036585230370449,20.18487029195403,-4.104852616071808,-0.9023437743151852,15.858842763797515,16.406307722750107,-1.4807297239127628,15.38795201165937,-1.4442969638575371,0.18277998666666667,-0.3094822133333333,0.6367545466666666,1.1290167466666667,0.7311936245593488,0.7089291564652678,0.6882027172091945,0.6882027172091945
LBP08_S01,LBP08,-1572,79,1,78,-1572,1716490523.12,2024-05-23 18:55:23.120000+00:00,2024-05-24 03:55:23.120000+09:00,2024,5,23,18,55,23,120,,,,,,,,,0.039062,-0.136475,1.180664,37.231445,175.842285,42.96875,,,,,,,,,,,0.0,1.0,1.0,1.0,0.0,0.0,0.0,4.0,0.0,0.021302053333333335,-0.2285384133333333,1.0134244666666665,-2.3087565200000006,3.3927408800000016,4.237467453333334,-31.35834215715362,16.049076221980325,13.468413073485072,-5.359186302357953,-0.2603807254359721,16.397579286736917,17.253094864701325,-1.4755557822781753,15.999847109451585,-1.44505169036318,0.017759946666666665,0.09206341333333329,0.1672395333333334,0.27706289333333334,0.19172936470384017,0.6926091958789119,0.6763819231019241,0.6763819231019241
LBP08_S01,LBP08,-1571,80,1,79,-1571,1716490523.16,2024-05-23 18:55:23.160000+00:00,2024-05-24 03:55:23.160000+09:00,2024,5,23,18,55,23,160,,,,,,,,,-0.44165,0.308105,-0.057617,-1.342773,59.020996,-18.859863,,,,,,,,,,,0.0,1.0,1.0,1.0,0.0,0.0,0.0,4.0,0.0,0.02678057333333334,-0.22860351999999998,1.0023274533333333,-1.7651367333333337,3.498535160000001,4.184570306666666,-24.939594834615328,19.24047106818944,5.908925626308588,-6.356770095742566,0.5092381172916055,16.63393631178926,17.814479693072457,-1.45125508126244,16.51674902343365,-1.4478841763923076,-0.4684305733333333,0.53670852,-1.0599444533333333,2.0650835466666666,1.2770925892926028,0.7175717145766586,0.6903519385947307,0.6903519385947307
LBP08_S01,LBP08,-1570,81,1,80,-1570,1716490523.2,2024-05-23 18:55:23.200000+00:00,2024-05-24 03:55:23.200000+09:00,2024,5,23,18,55,23,200,,,,,,,,,0.193848,-0.1604,0.398193,-15.441895,-78.857422,-28.137207,,,,,,,,,,,0.0,1.0,1.0,1.0,0.0,0.0,0.0,4.0,0.0,0.027623680000000005,-0.22551758666666666,0.99697264,-2.4479166800000005,2.9256184933333347,4.104003906666667,-18.33278006142463,18.59781081353275,-1.3034970230651235,-7.090081298199551,1.2531505498329154,16.581796430866653,18.077489095289966,-1.4459129994926532,16.88323537516983,-1.4567907644041866,0.16622431999999998,0.06511758666666667,-0.59877964,0.8301215466666666,0.6248262814025053,0.7027130517728978,0.6888627191130892,0.6888627191130892
LBP08_S01,LBP08,-1569,82,1,81,-1569,1716490523.24,2024-05-23 18:55:23.240000+00:00,2024-05-24 03:55:23.240000+09:00,2024,5,23,18,55,23,240,,,,,,,,,0.287842,-0.481445,1.035889,-57.617188,-75.744629,-40.710449,,,,,,,,,,,0.0,1.0,1.0,1.0,0.0,0.0,0.0,4.0,0.0,0.03119464,-0.23500326666666665,1.01333332,-3.3072916800000005,0.8984375066666682,3.777669266666667,-11.59451881084776,14.988622151557623,-7.151933568492994,-7.5538620506334615,1.8526954358952203,16.295719088126933,18.05668222175192,-1.4354296250673317,17.064771298009106,-1.4626002357670458,0.25664736,-0.24644173333333336,0.022555679999999967,0.5256447733333334,0.35652510994819114,0.689626395265809,0.6814774389094247,0.6814774389094247
LBP08_S01,LBP08,-1568,83,1,82,-1568,1716490523.28,2024-05-23 18:55:23.280000+00:00,2024-05-24 03:55:23.280000+09:00,2024,5,23,18,55,23,280,,,,,,,,,0.182617,-0.447998,1.501465,-32.775879,7.995605,-10.437012,,,,,,,,,,,0.0,1.0,1.0,1.0,0.0,0.0,0.0,4.0,0.0,0.029534480000000005,-0.23570964000000003,1.0341634000000002,-2.7067057333333335,0.7470703200000016,3.6401367200000005,-4.622901664078381,9.684092003433193,-11.032363415670087,-7.738778117196596,2.240059116032548,15.85442455150013,17.78396270378825,-1.443034759272666,17.054803905002338,-1.4632628639952818,0.15308252,-0.21228835999999998,0.4673015999999999,0.8326724799999998,0.5356037631342782,0.6754673067606722,0.6783062720447477,0.6783062720447477
LBP08_S01,LBP08,-1567,84,1,83,-1567,1716490523.32,2024-05-23 18:55:23.320000+00:00,2024-05-24 03:55:23.320000+09:00,2024,5,23,18,55,23,320,,,,,,,,,-0.252686,-0.562256,1.626953,-24.536133,-10.742188,-4.943848,,,,,,,,,,,0.0,1.0,1.0,1.0,0.0,0.0,0.0,4.0,0.0,0.027070280000000006,-0.23959636000000004,1.04021484,-3.7475586000000005,2.1866862000000014,3.9469401066666667,2.571398149930769,3.917856895418776,-12.83105844172887,-7.6359221911993655,2.3967733918492993,15.341182213830976,17.303285876384624,-1.4554092127162659,16.872003761952534,-1.458589464016033,-0.27975628,-0.3226596399999999,0.5867381600000001,1.18915408,0.7256958645910515,0.680642269043163,0.6793145612478605,0.6793145612478605
LBP08_S01,LBP08,-1566,85,1,84,-1566,1716490523.36,2024-05-23 18:55:23.360000+00:00,2024-05-24 03:55:23.360000+09:00,2024,5,23,18,55,23,360,,,,,,,,,0.033936,-0.205078,1.629639,36.743164,-3.417969,4.02832,,,,,,,,,,,0.0,1.0,1.0,1.0,0.0,0.0,0.0,4.0,0.0,0.014677706666666668,-0.23693685333333334,1.0247558533333334,-3.487141933333333,4.217936200000001,3.509928386666667,9.685897866846824,-1.3381957410611998,-12.837857558819808,-7.248486276525493,2.3432455622068513,14.827667911478184,16.67006564950661,-1.5073062490491327,16.55182319273293,-1.453731987060182,0.019258293333333332,0.031858853333333326,0.6048831466666666,0.6560002933333333,0.6060276309865712,0.6930606024284041,0.6777877502007503,0.6777877502007503
LBP08_S01,LBP08,-1565,86,1,85,-1565,1716490523.4,2024-05-23 18:55:23.400000+00:00,2024-05-24 03:55:23.400000+09:00,2024,5,23,18,55,23,400,,,,,,,,,0.059814,-0.398438,0.881836,-7.019043,139.221191,40.771484,,,,,,,,,,,0.0,1.0,1.0,1.0,0.0,0.0,0.0,4.0,0.0,0.018356093333333337,-0.23370768000000003,1.0059374933333334,-3.5188802133333335,2.9467773466666682,2.9720052133333335,16.122428732948315,-5.384386912564443,-11.566361135176141,-6.60358912720756,2.1278700857042736,14.365013466071138,15.952706113478495,-1.4903489069696076,16.136701115193212,-1.4535076740635802,0.04145790666666666,-0.16473031999999999,-0.12410149333333342,0.33028972000000006,0.21037114108177443,0.6766211790203304,0.6682486357289344,0.6682486357289344
LBP08_S01,LBP08,-1564,87,1,86,-1564,1716490523.44,2024-05-23 18:55:23.440000+00:00,2024-05-24 03:55:23.440000+09:00,2024,5,23,18,55,23,440,,,,,,,,,-0.251953,-0.012939,-0.050537,34.729004,14.587402,-26.489258,,,,,,,,,,,0.0,1.0,1.0,1.0,0.0,0.0,0.0,4.0,0.0,0.0273958,-0.22699869333333333,0.9892154799999999,-3.196614586666667,2.1972656266666686,2.5398763066666667,21.14496271081496,-7.7282827721365175,-9.579315281021337,-5.757790618774962,1.8187387748188129,13.981840854830285,15.229965109299616,-1.4476462999317827,15.667962237526615,-1.4555715671486424,-0.2793488,0.21405969333333333,-1.03975248,1.5331609733333333,1.097698740109303,0.6790378451584477,0.6768376378165418,0.6768376378165418
LBP08_S01,LBP08,-1563,88,1,87,-1563,1716490523.48,2024-05-23 18:55:23.480000+00:00,2024-05-24 03:55:23.480000+09:00,2024,5,23,18,55,23,480,,,,,,,,,0.128418,-0.055664,0.290771,92.224121,-99.365234,-35.217285,,,,,,,,,,,0.0,1.0,1.0,1.0,0.0,0.0,0.0,4.0,0.0,0.030501280000000002,-0.22729165333333337,0.9841992,-3.2682291733333337,1.645507813333335,2.2566731866666667,24.11614133747958,-8.089829251814724,-7.386231110803784,-4.793144965275779,1.495145604746224,13.686391610398134,14.578306292252092,-1.4339957241202734,15.180978656617077,-1.463115715741304,0.09791672,0.17162765333333338,-0.6934282,0.9629725733333334,0.7210314861360114,0.6656909389282712,0.6759090196449519,0.6777041838620216
LBP08_S01,LBP08,-1562,89,1,88,-1562,1716490523.52,2024-05-23 18:55:23.520000+00:00,2024-05-24 03:55:23.520000+09:00,2024,5,23,18,55,23,520,,,,,,,,,0.457764,-0.150635,0.77417,-14.099121,-118.041992,-45.288086,,,,,,,,,,,0.0,1.0,1.0,1.0,0.0,0.0,0.0,4.0,0.0,0.03246092,-0.22987304000000003,1.0005533733333332,-2.9394531333333336,0.42236328000000145,2.3103841199999997,24.70708465077368,-6.507952866360971,-5.41344948374724,-3.804861579244832,1.234827490091785,13.469853631048245,14.051289172505257,-1.4269810127196676,14.703537257961704,-1.468541254655883,0.42530308,0.07923804000000004,-0.22638337333333314,0.7309244933333332,0.48827329290296767,0.6649034871341096,0.6776456757446231,0.674061282112809
LBP08_S01,LBP08,-1561,90,1,89,-1561,1716490523.56,2024-05-23 18:55:23.560000+00:00,2024-05-24 03:55:23.560000+09:00,2024,5,23,18,55,23,560,,,,,,,,,0.330566,-0.391846,1.426514,36.621094,62.316895,11.84082,,,,,,,,,,,0.0,1.0,1.0,1.0,0.0,0.0,0.0,4.0,0.0,0.027675773333333334,-0.23176756,1.0235514133333332,-2.132161466666667,0.5167643200000015,2.0833333466666666,22.998401834681136,-3.4410109035998566,-3.994528566889801,-2.8849255058575864,1.0971870539477908,13.310072488372652,13.663258917675272,-1.4490119512964204,14.256176673541233,-1.468917655394074,0.3028902266666667,-0.16007844000000002,0.40296258666666684,0.8659312533333335,0.5289106187401699,0.6368730060474433,0.6818226616675208,0.6713225903510611
LBP08_S01,LBP08,-1560,91,1,90,-1560,1716490523.6,2024-05-23 18:55:23.600000+00:00,2024-05-24 03:55:23.600000+09:00,2024,5,23,18,55,23,600,,,,,,,,,-0.231934,-0.633057,1.743164,8.361816,7.385254,29.968262,,,,,,,,,,,0.0,1.0,1.0,1.0,0.0,0.0,0.0,4.0,0.0,0.02438474666666667,-0.2391406133333333,1.0353938666666667,-2.9638672000000006,1.7521158800000016,2.58789064,19.44685339304765,0.2801753888912171,-3.333211059964322,-2.1070513701356806,1.1083940695034395,13.176744045974079,13.390100318623993,-1.4665519303432755,13.852938027811296,-1.462486148382065,-0.25631874666666665,-0.3939163866666667,0.7077701333333333,1.3580052666666667,0.8495928326062892,0.6432050415528007,0.6846668291248937,0.6746238911335654
LBP08_S01,LBP08,-1559,92,1,91,-1559,1716490523.64,2024-05-23 18:55:23.640000+00:00,2024-05-24 03:55:23.640000+09:00,2024,5,23,18,55,23,640,,,,,,,,,0.010986,-0.21875,1.702393,11.047363,-24.108887,-2.01416,,,,,,,,,,,0.0,1.0,1.0,1.0,0.0,0.0,0.0,4.0,0.0,0.013769506666666669,-0.2354492,1.0258430933333333,-2.052408866666667,4.179687506666668,2.98014324,14.752281203614178,3.684136628374192,-3.444274811327034,-1.5169601219911133,1.2557595346384072,13.038973053520998,13.186846412656562,-1.510871110993946,13.50145335264541,-1.4577190916990077,-0.0027835066666666696,0.016699199999999997,0.6765499066666667,0.6960326133333333,0.6767616917354874,0.6523244775975935,0.6825464704065095,0.6746627602354185
LBP08_S01,LBP08,-1558,93,1,92,-1558,1716490523.68,2024-05-23 18:55:23.680000+00:00,2024-05-24 03:55:23.680000+09:00,2024,5,23,18,55,23,680,,,,,,,,,0.164795,-0.084717,1.024658,-5.79834,129.882812,27.832031,,,,,,,,,,,0.0,1.0,1.0,1.0,0.0,0.0,0.0,4.0,0.0,0.016666640000000003,-0.23224932,1.00612304,-1.570638026666667,2.9394531333333345,1.9637044399999999,9.692045899510905,5.973912468605044,-4.12526198643276,-1.1292782860106771,1.494716033382609,12.873962574063688,13.009548717234537,-1.4972901484184578,13.202372410620347,-1.459482113898001,0.14812836,0.14753232,0.01853495999999999,0.31419564,0.20988411379395439,0.6433489791291476,0.6755714284070308,0.6663631415489638
LBP08_S01,LBP08,-1557,94,1,93,-1557,1716490523.72,2024-05-23 18:55:23.720000+00:00,2024-05-24 03:55:23.720000+09:00,2024,5,23,18,55,23,720,,,,,,,,,-0.464844,0.091309,-0.145996,-64.51416,39.367676,-18.859863,,,,,,,,,,,0.0,1.0,1.0,1.0,0.0,0.0,0.0,4.0,0.0,0.023984346666666666,-0.21907874666666666,0.9909244799999999,-2.220865893333334,2.9036458533333347,1.0327148666666666,4.98747370338792,6.763001042570607,-5.009059666466571,-0.9297793378751603,1.7652360750854332,12.673600187405025,12.829680032179885,-1.4591732200981764,12.94931753451481,-1.4627125367792955,-0.48882834666666664,0.3103877466666667,-1.13692048,1.936136573333333,1.2758847454331868,0.6669820919315507,0.6844518201615151,0.6770565030206168
LBP08_S01,LBP08,-1556,95,1,94,-1556,1716490523.76,2024-05-23 18:55:23.760000+00:00,2024-05-24 03:55:23.760000+09:00,2024,5,23,18,55,23,760,,,,,,,,,0.073486,-0.321777,0.227783,97.900391,-86.05957,-43.823242,,,,,,,,,,,0.0,1.0,1.0,1.0,0.0,0.0,0.0,4.0,0.0,0.02814776,-0.22453122666666667,0.9881770933333333,-2.131347666666667,2.911783866666668,0.48258466666666644,1.2358063932748684,6.115460181138379,-5.69653964451704,-0.8803470821441656,2.0098544823309683,12.445738601624344,12.637679192207242,-1.4429911789290442,12.730863267223835,-1.470655962014347,0.045338239999999995,-0.09724577333333331,-0.7603940933333333,0.9029781066666667,0.7679267371394993,0.6678866262628884,0.6840155866985262,0.6786232311950803
LBP08_S01,LBP08,-1555,96,1,95,-1555,1716490523.8,2024-05-23 18:55:23.800000+00:00,2024-05-24 03:55:23.800000+09:00,2024,5,23,18,55,23,800,,,,,,,,,0.381592,0.38208,0.801025,66.040039,-71.228027,-46.020508,,,,,,,,,,,0.0,1.0,1.0,1.0,0.0,0.0,0.0,4.0,0.0,0.029010386666666665,-0.23095050666666667,1.0065527466666666,-2.2900390800000006,0.4256185066666676,-0.043945280000000274,-1.1101130345981738,4.393432568802048,-5.909570578965644,-0.9247516035280925,2.18559178508305,12.209355778465717,12.43785936181964,-1.4426783401390308,12.534744674655233,-1.4733720706736588,0.3525816133333333,0.6130305066666666,-0.20552774666666662,1.1711398666666666,0.7364522053837599,0.6913049993787209,0.6909498295470943,0.6796033832999732
LBP08_S01,LBP08,-1554,97,1,96,-1554,1716490523.84,2024-05-23 18:55:23.840000+00:00,2024-05-24 03:55:23.840000+09:00,2024,5,23,18,55,23,840,,,,,,,,,0.359863,-0.387939,1.192871,-34.606934,33.691406,24.475098,,,,,,,,,,,0.0,1.0,1.0,1.0,0.0,0.0,0.0,4.0,0.0,0.024003880000000002,-0.23230466666666666,1.0265267066666666,-1.783854186666667,-0.42561846666666575,0.008138053333333062,-1.7739863402375662,2.0362896610102568,-5.582007033178262,-0.9957110571375951,2.2670433715234606,11.986075497138586,12.239155689049001,-1.4652765219217176,12.352488250648426,-1.4711150939791253,0.33585912,-0.15563433333333332,0.16634429333333345,0.6578377466666667,0.40582486139201923,0.650429273551683,0.6907308574144035,0.6750404079348407
LBP08_S01,LBP08,-1553,98,1,97,-1553,1716490523.88,2024-05-23 18:55:23.880000+00:00,2024-05-24 03:55:23.880000+09:00,2024,5,23,18,55,23,880,,,,,,,,,-0.368408,-0.093994,1.61084,-106.018066,9.277344,26.855469,,,,,,,,,,,0.0,1.0,1.0,1.0,0.0,0.0,0.0,4.0,0.0,0.024348933333333336,-0.23817706666666666,1.0339974133333332,-4.143880226666667,-0.5192057066666657,0.16276043999999976,-0.7404512225847797,-0.575144758478927,-4.841082537169986,-1.0253291060409864,2.2440375811843034,11.792432195651786,12.047757531196714,-1.4662999529332184,12.181973847202269,-1.4625062783915144,-0.39275693333333334,0.14418306666666666,0.5768425866666669,1.1137825866666669,0.7125967549653169,0.6376192119492707,0.689262959635199,0.6756560857550123
LBP08_S01,LBP08,-1552,99,1,98,-1552,1716490523.92,2024-05-23 18:55:23.920000+00:00,2024-05-24 03:55:23.920000+09:00,2024,5,23,18,55,23,920,,,,,,,,,0.025635,-0.415771,1.732178,8.300781,-40.100098,-22.094727,,,,,,,,,,,0.0,1.0,1.0,1.0,0.0,0.0,0.0,4.0,0.0,0.014814426666666668,-0.23589516,1.0142676,-3.984375013333333,0.9464518400000008,0.8097330933333331,1.65107647424293,-3.104200639544811,-3.9010295390536185,-0.9592860470712692,2.119869555602511,11.636391014089641,11.866746499595504,-1.506415265070181,12.026878522860017,-1.4547737045841704,0.010820573333333333,-0.17987584,0.7179104000000001,0.9086068133333334,0.7401808867102202,0.6383220642682156,0.6839661937073689,0.676696808351064
LBP08_S01,LBP08,-1551,100,1,99,-1551,1716490523.96,2024-05-23 18:55:23.960000+00:00,2024-05-24 03:55:23.960000+09:00,2024,5,23,18,55,23,960,,,,,,,,,0.167969,-0.318115,1.242432,14.404297,98.754883,13.916016,,,,,,,,,,,0.0,1.0,1.0,1.0,0.0,0.0,0.0,4.0,0.0,0.021416000000000004,-0.23167966666666662,0.9913248933333332,-3.5872396,0.789388040000001,0.043131519999999736,4.708543961337316,-5.155674445010896,-2.9404526608790382,-0.7709442886177765,1.9136425778020754,11.51877290765448,11.702072991989247,-1.4761730378895388,11.894109012432349,-1.4522450289323703,0.146553,-0.08643533333333336,0.2511071066666668,0.48409544000000015,0.3033209977498248,0.6282812090877532,0.6781777681727512,0.6707702081827904
LBP08_S01,LBP08,-1550,101,1,100,-1550,1716490524.0,2024-05-23 18:55:24+00:00,2024-05-24 03:55:24+09:00,2024,5,23,18,55,24,0,18.0,55.0,22.0,40.678288,141.526291,21.826,3.0,15.0,-0.51001,0.189941,-0.171143,15.686035,90.393066,35.949707,-553.0,18.0,605.0,1.0,0.0,1014.599976,18.65,0.015856,-11.226815,3.979687,0.0,1.0,1.0,1.0,0.0,0.0,0.0,11.0,0.0,0.027617173333333335,-0.22207354666666665,0.9743685200000001,-3.7597656400000004,1.2540690266666676,-0.4248046800000002,7.552546426015275,-6.217956302635461,-2.0321522623177435,-0.46884243157716554,1.6649243256966568,11.43748681716177,11.567536078555923,-1.4439821633979415,11.791224564629228,-1.4513659949018582,-0.5376271733333333,0.41201454666666665,-1.1455115200000001,2.09515324,1.3307875888450567,0.6670720283310944,0.6875922951231033,0.6810829797556384
LBP08_S01,LBP08,-1549,102,1,101,-1549,1716490524.04,2024-05-23 18:55:24.040000+00:00,2024-05-24 03:55:24.040000+09:00,2024,5,23,18,55,24,40,,,,,,,,,-0.118164,-0.092529,0.072266,52.429199,-86.608887,-48.583984,,,,,,,,,,,0.0,1.0,1.0,1.0,0.0,0.0,0.0,11.0,0.0,0.03222329333333333,-0.22479163999999996,0.9706901333333333,-4.055989586666667,-0.03906247999999915,-0.6363932266666668,9.40100795698908,-5.760982377461613,-1.1531185074547727,-0.09280211329760235,1.4344850305981922,11.391362076863578,11.48170237819499,-1.4247829551178388,11.724984103991318,-1.454660327043893,-0.15038729333333334,0.13226263999999996,-0.8984241333333334,1.1810740666666666,0.9204757831098257,0.6809867482581222,0.6896762155607081,0.6847659459610874
LBP08_S01,LBP08,-1548,103,1,102,-1548,1716490524.08,2024-05-23 18:55:24.080000+00:00,2024-05-24 03:55:24.080000+09:00,2024,5,23,18,55,24,80,,,,,,,,,0.450928,0.035156,0.745117,45.471191,-138.366699,-29.47998,,,,,,,,,,,0.0,1.0,1.0,1.0,0.0,0.0,0.0,11.0,0.0,0.03433266666666667,-0.23183265333333333,0.9927246399999999,-3.359375000000001,-0.31656898666666566,-0.07405598666666681,9.843290826891026,-3.489707985693315,-0.25363377179887847,0.3009295197780387,1.2948967111704597,11.381216725991623,11.458595473812023,-1.4199644103450177,11.700823818249807,-1.4542293379085975,0.4165953333333333,0.2669886533333333,-0.2476076399999999,0.9311916266666665,0.5533029515104971,0.6738711213361682,0.6914001389007179,0.6827740824088058
LBP08_S01,LBP08,-1547,104,1,103,-1547,1716490524.12,2024-05-23 18:55:24.120000+00:00,2024-05-24 03:55:24.120000+09:00,2024,5,23,18,55,24,120,,,,,,,,,0.617676,-0.330078,1.056396,-9.033203,-25.756836,1.098633,,,,,,,,,,,0.0,1.0,1.0,1.0,0.0,0.0,0.0,11.0,0.0,0.03192706666666667,-0.23791012,1.0143229466666668,-2.4088541600000006,-0.7055663866666655,0.18229166666666652,8.97065066083876,0.39257414007542873,0.669849631680679,0.6597555462115892,1.3105996767734769,11.40801071125885,11.501984927903198,-1.4338864635801727,11.722637248434355,-1.450724128341736,0.5857489333333333,-0.09216787999999998,0.04207305333333311,0.7199898666666664,0.5944466946847478,0.6899798145354045,0.6912945052071582,0.6814557631890437
LBP08_S01,LBP08,-1546,105,1,104,-1546,1716490524.16,2024-05-23 18:55:24.160000+00:00,2024-05-24 03:55:24.160000+09:00,2024,5,23,18,55,24,160,,,,,,,,,-0.023926,-0.166992,1.549561,12.634277,62.011719,30.944824,,,,,,,,,,,0.0,1.0,1.0,1.0,0.0,0.0,0.0,11.0,0.0,0.032721346666666665,-0.24459306666666664,1.0268978133333333,-2.6424153600000007,0.6486002800000011,1.1051432399999999,7.299685160823503,5.117185613065546,1.5521665737096921,0.9517429526445293,1.5152871012960987,11.470097374207239,11.608834714176037,-1.4342008386239251,11.792554189779368,-1.4423831836496555,-0.05664734666666667,0.07760106666666663,0.5226631866666667,0.6569115999999999,0.5314204118480328,0.6601529274376218,0.6888623210071401,0.6792493609634406
LBP08_S01,LBP08,-1545,106,1,105,-1545,1716490524.2,2024-05-23 18:55:24.200000+00:00,2024-05-24 03:55:24.200000+09:00,2024,5,23,18,55,24,200,,,,,,,,,-0.172607,-0.404053,1.765869,-37.658691,0.061035,9.277344,,,,,,,,,,,0.0,1.0,1.0,1.0,0.0,0.0,0.0,11.0,0.0,0.022132146666666668,-0.23814449333333335,1.0096452,-1.5812174400000005,2.8263346533333347,1.43310548,5.523211103854809,9.582172473653777,2.2994568103170763,1.1726713967987217,1.8985740002422498,11.562075646619922,11.775454755440538,-1.4756216615593765,11.91065941950882,-1.438515876309524,-0.19473914666666667,-0.16590850666666665,0.7562237999999999,1.1168714533333333,0.7983253744653647,0.667092891160136,0.6849029714665168,0.6809751002895554
LBP08_S01,LBP08,-1544,107,1,106,-1544,1716490524.24,2024-05-23 18:55:24.240000+00:00,2024-05-24 03:55:24.240000+09:00,2024,5,23,18,55,24,240,,,,,,,,,0.106445,-0.378174,1.695312,1.647949,60.180664,3.234863,,,,,,,,,,,0.0,1.0,1.0,1.0,0.0,0.0,0.0,11.0,0.0,0.024873040000000003,-0.23156571999999997,0.9905989733333335,-0.4231770800000005,2.1712239733333347,0.01790366666666671,4.198716531529691,12.790608714904202,2.8545104933114187,1.3406200580599092,2.410198348838418,11.676256066352378,11.997552831633904,-1.4609666305687656,12.074692699239957,-1.4376911096373584,0.08157196,-0.14660828000000004,0.7047130266666665,0.9328932666666665,0.7244090159409212,0.6818082473998452,0.6857173213328273,0.6815955847988606
LBP08_S01,LBP08,-1543,108,1,107,-1543,1716490524.28,2024-05-23 18:55:24.280000+00:00,2024-05-24 03:55:24.280000+09:00,2024,5,23,18,55,24,280,,,,,,,,,-0.212891,-0.297607,0.745361,0.061035,179.016113,13.48877,,,,,,,,,,,0.0,1.0,1.0,1.0,0.0,0.0,0.0,11.0,0.0,0.030380853333333336,-0.22166337333333336,0.9788151066666667,-1.1287434800000005,2.1085612133333345,-0.8772786266666667,3.5049378472524397,14.264116324572399,3.2358666897236126,1.480817571950007,2.980763001821314,11.805690733941322,12.265891833042174,-1.4312478572646037,12.280063460144913,-1.43876174817846,-0.24327185333333334,-0.07594362666666665,-0.23345410666666666,0.5526695866666667,0.3456145960098506,0.6742086807148681,0.6748379937377702,0.6768634581961985
LBP08_S01,LBP08,-1542,109,1,108,-1542,1716490524.32,2024-05-23 18:55:24.320000+00:00,2024-05-24 03:55:24.320000+09:00,2024,5,23,18,55,24,320,,,,,,,,,-0.126953,-0.125244,0.078613,-62.255859,-57.617188,-13.122559,,,,,,,,,,,0.0,1.0,1.0,1.0,0.0,0.0,0.0,11.0,0.0,0.03360676,-0.23171870666666664,0.98876628,-0.6380208266666674,2.075195333333334,-1.52425128,3.161840821828098,14.204996455901346,3.525314775419955,1.607291204823131,3.548962860057368,11.94670332495812,12.565915913045645,-1.4230058181493763,12.52059326013689,-1.4458404596177765,-0.16055976,0.10647470666666664,-0.91015328,1.1771877466666667,0.9303199948328363,0.6823936459245397,0.6815179574838514,0.6803836878717074
LBP08_S01,LBP08,-1541,110,1,109,-1541,1716490524.36,2024-05-23 18:55:24.360000+00:00,2024-05-24 03:55:24.360000+09:00,2024,5,23,18,55,24,360,,,,,,,,,0.304443,-0.634033,0.876221,79.528809,-92.895508,-15.380859,,,,,,,,,,,0.0,1.0,1.0,1.0,0.0,0.0,0.0,11.0,0.0,0.03186522666666668,-0.24431961333333332,1.0138834666666667,-0.3426106666666673,0.48258466666666794,-1.5820312266666667,2.5415607408301657,13.316613148159195,3.816623671055651,1.7089536344563376,4.081627385983736,12.099368271800346,12.883125289283763,-1.4374999644882236,12.789772136131539,-1.4533751664187364,0.27257777333333333,-0.38971338666666666,-0.1376624666666667,0.7999536266666667,0.4951021318791831,0.677956625960244,0.685508614194324,0.6778455843649605
LBP08_S01,LBP08,-1540,111,1,110,-1540,1716490524.4,2024-05-23 18:55:24.400000+00:00,2024-05-24 03:55:24.400000+09:00,2024,5,23,18,55,24,400,,,,,,,,,0.396484,0.043945,1.320068,4.943848,-13.977051,11.108398,,,,,,,,,,,0.0,1.0,1.0,1.0,0.0,0.0,0.0,11.0,0.0,0.03291665333333334,-0.24895178666666667,1.03989584,1.624348959999999,0.23681642666666772,-1.7154947733333332,0.9230555089318278,12.38757234654211,4.160534867681931,1.7458758548136109,4.57713027984542,12.265789666507622,13.207868875867302,-1.4357344966762822,13.081696906937447,-1.4575281896513046,0.3635673466666667,0.2928967866666667,0.28017216,0.9366362933333334,0.5444870819780435,0.6913212635960949,0.6839712213082126,0.6760434424408129
LBP08_S01,LBP08,-1539,112,1,111,-1539,1716490524.44,2024-05-23 18:55:24.440000+00:00,2024-05-24 03:55:24.440000+09:00,2024,5,23,18,55,24,440,,,,,,,,,-0.259033,-0.333496,1.749268,19.40918,31.555176,25.695801,,,,,,,,,,,0.0,1.0,1.0,1.0,0.0,0.0,0.0,11.0,0.0,0.033411453333333334,-0.25223629333333336,1.0531282533333335,0.8186848933333325,4.125976573333334,-1.4957682133333332,-2.2138574485845406,11.880503593294161,4.536841156441149,1.6573215568702293,5.052350423577186,12.447263312765267,13.53540998724455,-1.4354893405288567,13.391206275699634,-1.457574002994463,-0.29244445333333335,-0.08125970666666665,0.6961397466666666,1.0698439066666665,0.7594323176571534,0.6777906066980087,0.6784142259282281,0.6771552941103641
LBP08_S01,LBP08,-1538,113,1,112,-1538,1716490524.48,2024-05-23 18:55:24.480000+00:00,2024-05-24 03:55:24.480000+09:00,2024,5,23,18,55,24,480,,,,,,,,,-0.167969,-0.53833,1.988037,-31.433105,-65.368652,-10.131836,,,,,,,,,,,0.0,1.0,1.0,1.0,0.0,0.0,0.0,11.0,0.0,0.019531240000000002,-0.2503873333333333,1.0406282533333335,0.3548177066666659,6.359049493333334,-1.8269856666666668,-6.970954493003159,11.745483312826538,4.861300954994938,1.3784833771501028,5.522169756090248,12.641715350965065,13.863893473731784,-1.4907515247381826,13.713481095251217,-1.461057499542849,-0.18750024,-0.2879426666666667,0.9474087466666665,1.4228516533333333,1.0077949456847224,0.6892611450799572,0.6774760420041142,0.680359728123287
LBP08_S01,LBP08,-1537,114,1,113,-1537,1716490524.52,2024-05-23 18:55:24.520000+00:00,2024-05-24 03:55:24.520000+09:00,2024,5,23,18,55,24,520,,,,,,,,,0.187012,-0.317871,1.659424,26.855469,63.964844,8.117676,,,,,,,,,,,0.0,1.0,1.0,1.0,0.0,0.0,0.0,11.0,0.0,0.015019520000000001,-0.2508072533333333,1.0262109333333334,2.17122396,5.180664066666667,-2.79785156,-12.964107626536885,11.527715697125366,5.014091768384232,0.8599190720886274,5.983278383975263,12.842279021700435,14.1937736878497,-1.5092335315897725,14.043424529116413,-1.4654845735276534,0.17199248,-0.0670637466666667,0.6332130666666667,0.8722692933333334,0.6595739132886668,0.6961131698953852,0.6805083285147474,0.6838015071282104
LBP08_S01,LBP08,-1536,115,1,114,-1536,1716490524.56,2024-05-23 18:55:24.560000+00:00,2024-05-24 03:55:24.560000+09:00,2024,5,23,18,55,24,560,,,,,,,,,-0.39917,-0.004639,0.351562,-39.855957,180.419922,7.69043,,,,,,,,,,,0.0,1.0,1.0,1.0,0.0,0.0,0.0,11.0,0.0,0.02311848,-0.24957027999999998,1.0178092399999998,1.7765299599999995,4.122721360000001,-3.257649746666667,-19.4122487863916,10.67085458586838,4.873112170156929,0.08342912063296337,6.410112567409998,13.037203508506712,14.528082422235114,-1.4757310709496057,14.374766210332965,-1.4718504567887336,-0.42228848,0.24493127999999997,-0.6662472399999999,1.333467,0.8259565830422119,0.707995008467467,0.6724340072574552,0.6905467772675029
LBP08_S01,LBP08,-1535,116,1,115,-1535,1716490524.6,2024-05-23 18:55:24.600000+00:00,2024-05-24 03:55:24.600000+09:00,2024,5,23,18,55,24,600,,,,,,,,,-0.103027,-0.442627,0.186768,-90.026855,-34.179688,0.488281,,,,,,,,,,,0.0,1.0,1.0,1.0,0.0,0.0,0.0,11.0,0.0,0.023421213333333333,-0.25408850666666666,1.01420572,2.163085946666666,4.6891276,-3.6173502666666675,-25.334730826714562,8.822571069770447,4.3444266576989135,-0.9299601124356192,6.763015410200816,13.210980574814668,14.870548443062397,-1.476079794990962,14.699050070924866,-1.479578980762724,-0.12644821333333334,-0.18853849333333333,-0.82743772,1.1424244266666668,0.8580146237695451,0.7083318801139972,0.6757684608333989,0.6925551794545949
LBP08_S01,LBP08,-1534,117,1,116,-1534,1716490524.64,2024-05-23 18:55:24.640000+00:00,2024-05-24 03:55:24.640000+09:00,2024,5,23,18,55,24,640,,,,,,,,,0.255371,-0.540039,0.863281,39.978027,-86.120605,-5.310059,,,,,,,,,,,0.0,1.0,1.0,1.0,0.0,0.0,0.0,11.0,0.0,0.018860666666666664,-0.2589452666666667,1.0196581999999998,3.1551106933333326,2.1850585866666674,-3.9046224000000005,-29.78311931907188,5.9734760027191385,3.3891895186253205,-2.1212848851984942,7.001954450309581,13.346548155559681,15.220301027149734,-1.4958015960526256,15.005236692963493,-1.488283797166519,0.23651033333333335,-0.2810937333333334,-0.15637719999999988,0.6739812666666666,0.39925512316381806,0.6972316173711303,0.6747780474843619,0.6874415193947164
LBP08_S01,LBP08,-1533,118,1,117,-1533,1716490524.68,2024-05-23 18:55:24.680000+00:00,2024-05-24 03:55:24.680000+09:00,2024,5,23,18,55,24,680,,,,,,,,,0.285889,0.016113,1.096436,-45.349121,-19.958496,9.277344,,,,,,,,,,,0.0,1.0,1.0,1.0,0.0,0.0,0.0,11.0,0.0,0.024540999999999997,-0.264873,1.0428906133333333,3.9184570399999994,0.9277343733333343,-3.3015950533333336,-32.03872565191054,2.395149338387398,2.046268752202402,-3.4028339112749157,7.097760423845077,13.428398905647777,15.565326171694135,-1.475518597112646,15.280488947695806,-1.493346507193232,0.261348,0.280986,0.05354538666666664,0.5958793866666667,0.3874571172830393,0.7043345375106937,0.6738417583199207,0.6851591314415851
LBP08_S01,LBP08,-1532,119,1,118,-1532,1716490524.72,2024-05-23 18:55:24.720000+00:00,2024-05-24 03:55:24.720000+09:00,2024,5,23,18,55,24,720,,,,,,,,,-0.116699,-0.518311,1.5896,-70.3125,16.235352,13.305664,,,,,,,,,,,0.0,1.0,1.0,1.0,0.0,0.0,0.0,11.0,0.0,0.021874973333333332,-0.26768225333333334,1.0468619733333333,3.6580403733333324,3.5139974000000005,-2.13867188,-31.735968680598617,-1.5126179437026674,0.4448541589085482,-4.67227265849886,7.03725570609697,13.44619307200412,15.879332725211157,-1.4866646507601793,15.511758211973364,-1.4912427593776887,-0.13857397333333332,-0.2506287466666666,0.5427380266666666,0.9319407466666665,0.6136628392946072,0.6778456612651504,0.6724138765983505,0.6822497671960602
LBP08_S01,LBP08,-1531,120,1,119,-1531,1716490524.76,2024-05-23 18:55:24.760000+00:00,2024-05-24 03:55:24.760000+09:00,2024,5,23,18,55,24,760,,,,,,,,,-0.222412,-0.368408,1.743408,-16.906738,-46.508789,-7.507324,,,,,,,,,,,0.0,1.0,1.0,1.0,0.0,0.0,0.0,11.0,0.0,0.014186173333333333,-0.26096025333333334,1.0312141866666666,4.2024739733333325,4.144694013333335,-1.6202799600000002,-28.89989072699275,-5.3234494516772815,-1.2045619619044208,-5.82826828757857,6.824317728029879,13.398010593527943,16.125963895202787,-1.5147852042281258,15.68716579088092,-1.4890087985559197,-0.23659817333333333,-0.10744774666666668,0.7121938133333334,1.0562397333333333,0.7581185538150937,0.6774533339321743,0.6726699800975314,0.6818281691097422
LBP08_S01,LBP08,-1530,121,1,120,-1530,1716490524.8,2024-05-23 18:55:24.800000+00:00,2024-05-24 03:55:24.800000+09:00,2024,5,23,18,55,24,800,,,,,,,,,0.186279,-0.381836,1.280762,-21.54541,38.024902,12.573242,,,,,,,,,,,0.0,1.0,1.0,1.0,0.0,0.0,0.0,11.0,0.0,0.0119238,-0.25591468,1.0139811066666669,4.719238293333333,2.1785481866666676,-1.5535481866666665,-23.900225384118645,-8.583560713120946,-2.652562519330097,-6.784277302943316,6.480975299505041,13.291908092754738,16.269735096253573,-1.5227826607142325,15.796601707179937,-1.4887934830338465,0.1743552,-0.12592132,0.2667808933333331,0.567057413333333,0.34267763225123643,0.6617023510068735,0.6765036751927973,0.6812006700336872
LBP08_S01,LBP08,-1529,122,1,121,-1529,1716490524.84,2024-05-23 18:55:24.840000+00:00,2024-05-24 03:55:24.840000+09:00,2024,5,23,18,55,24,840,,,,,,,,,-0.514404,-0.008301,0.008301,0.366211,143.188477,-11.535645,,,,,,,,,,,0.0,1.0,1.0,1.0,0.0,0.0,0.0,11.0,0.0,0.020787733333333336,-0.25250321333333337,1.0018521999999999,4.7216797066666665,0.852050800000001,-2.0735677066666667,-17.338545056740443,-10.773293947348655,-3.68704665536982,-7.477819105212934,6.050043541611095,13.144426226539945,16.287932534567695,-1.4861164407959875,15.831908386888125,-1.4883463839950437,-0.5351917333333334,0.24420221333333336,-0.9935511999999999,1.7729451466666666,1.1546466556685973,0.6916552227779366,0.6710422481648098,0.6910389792022479
LBP08_S01,LBP08,-1528,123,1,122,-1528,1716490524.88,2024-05-23 18:55:24.880000+00:00,2024-05-24 03:55:24.880000+09:00,2024,5,23,18,55,24,880,,,,,,,,,0.028809,-0.355957,0.236328,-25.756836,-84.16748,-7.93457,,,,,,,,,,,0.0,1.0,1.0,1.0,0.0,0.0,0.0,11.0,0.0,0.02481768,-0.2523957866666667,0.99223956,5.139160173333332,1.0823567866666677,-1.7626953066666666,-9.907058927574932,-11.345013992862278,-4.224187625849968,-7.874101462315931,5.596242981896604,12.975458721505946,16.176586116507327,-1.4697140465827507,15.78742892972277,-1.4907523250857124,0.00399132,-0.10356121333333335,-0.75591156,0.8634640933333334,0.7629830549127865,0.6936706747758353,0.665644943362553,0.6907321980154112
LBP08_S01,LBP08,-1527,124,1,123,-1527,1716490524.92,2024-05-23 18:55:24.920000+00:00,2024-05-24 03:55:24.920000+09:00,2024,5,23,18,55,24,920,,,,,,,,,0.389648,-0.069824,0.644775,45.959473,-130.371094,-40.222168,,,,,,,,,,,0.0,1.0,1.0,1.0,0.0,0.0,0.0,11.0,0.0,0.02071612,-0.2540982533333333,1.0001790133333333,4.925130226666666,-0.5086262799999991,-1.50472004,-2.2699281392705073,-9.896157690623257,-4.376538647197746,-7.9648985878867515,5.200396674271674,12.800397175618036,15.947849476925295,-1.4868939233720808,15.661174895130168,-1.4972572682163072,0.36893188,0.1842742533333333,-0.35540401333333327,0.9086101466666666,0.544407701282166,0.6858397473587131,0.6620809058134642,0.6845907115911504
LBP08_S01,LBP08,-1526,125,1,124,-1526,1716490524.96,2024-05-23 18:55:24.960000+00:00,2024-05-24 03:55:24.960000+09:00,2024,5,23,18,55,24,960,,,,,,,,,0.532227,-0.128906,1.120361,-6.469727,-24.597168,-9.94873,,,,,,,,,,,0.0,1.0,1.0,1.0,0.0,0.0,0.0,11.0,0.0,0.024622373333333333,-0.26047196,1.02157224,5.677897146666666,-1.3419596133333325,-0.9261067600000001,4.99415372062373,-6.408115110576543,-4.455307874867896,-7.765132439061802,4.944072069848612,12.622184860623321,15.622441585225262,-1.4735779157288762,15.455980892679056,-1.4991120310192407,0.5076046266666667,0.13156596,0.09878875999999992,0.7379593466666666,0.5336021719843963,0.695050994328096,0.6616661017079246,0.6838021768911995
LBP08_S01,LBP08,-1525,126,1,125,-1525,1716490525.0,2024-05-23 18:55:25+00:00,2024-05-24 03:55:25+09:00,2024,5,23,18,55,25,0,18.0,55.0,23.0,40.678413,141.526413,21.934,3.0,15.0,-0.245605,-0.159668,1.489258,-12.145996,76.477051,28.259277,-550.0,19.0,602.0,1.0,0.0,1014.700012,18.73,0.016847,-12.05827,3.979687,0.0,1.0,1.0,1.0,0.0,0.0,0.0,5.0,0.0,0.0252962,-0.26222001333333333,1.0304133866666667,4.798177093333333,1.039225280000001,0.059407560000000026,11.382092467535571,-1.3903040305282355,-4.882434863452059,-7.30984874036038,4.888459908627482,12.426887466085239,15.223615240144268,-1.4716088046029323,15.17968154453628,-1.4951052694544562,-0.2709012,0.10255201333333333,0.45884461333333326,0.8322978266666666,0.5426257962769336,0.6635245226253711,0.6652982754782326,0.6795697042905259
LBP08_S01,LBP08,-1524,127,1,126,-1524,1716490525.04,2024-05-23 18:55:25.040000+00:00,2024-05-24 03:55:25.040000+09:00,2024,5,23,18,55,25,40,,,,,,,,,-0.420898,-0.585693,1.903076,-12.512207,-51.269531,-20.751953,,,,,,,,,,,0.0,1.0,1.0,1.0,0.0,0.0,0.0,5.0,0.0,0.012714813333333333,-0.25723954666666665,1.01738604,5.653483079999999,3.6857096533333342,0.48583985333333335,16.424162448320722,4.1901999745349,-6.0300541851481695,-6.652882242427551,5.0560679076088775,12.185685298679312,14.775506455496183,-1.5198610069593121,14.843926454188013,-1.4904872988306148,-0.43361281333333335,-0.32845345333333337,0.8856899599999999,1.6477562266666665,1.039398118209881,0.6682814160293734,0.6746340821437476,0.6825446157169298
LBP08_S01,LBP08,-1523,128,1,127,-1523,1716490525.08,2024-05-23 18:55:25.080000+00:00,2024-05-24 03:55:25.080000+09:00,2024,5,23,18,55,25,80,,,,,,,,,0.096191,-0.518799,1.618164,1.220703,11.657715,16.845703,,,,,,,,,,,0.0,1.0,1.0,1.0,0.0,0.0,0.0,5.0,0.0,0.007343719999999999,-0.25038733333333335,0.9980566133333334,4.0413411466666656,1.5681966266666678,-0.05940753333333333,19.671995113742803,9.178105507571962,-8.048255127571313,-5.866002437877839,5.423192127911756,11.86375509357646,14.302785825768146,-1.540568028418594,14.462198073496575,-1.4888005525027908,0.08884728,-0.26841166666666666,0.6201073866666665,0.9773663333333332,0.6815217039572099,0.6734101661272419,0.673640643731705,0.6854034813095592
LBP08_S01,LBP08,-1522,129,1,128,-1522,1716490525.12,2024-05-23 18:55:25.120000+00:00,2024-05-24 03:55:25.120000+09:00,2024,5,23,18,55,25,120,,,,,,,,,-0.240479,-0.184326,0.480713,40.344238,161.92627,36.437988,,,,,,,,,,,0.0,1.0,1.0,1.0,0.0,0.0,0.0,5.0,0.0,0.015738906666666667,-0.24709630666666665,0.9805566133333332,3.235677093333333,-0.5541992133333324,-0.5924479066666667,20.766955517821614,12.573431504816169,-10.758162501707844,-5.035324217164974,5.926129388104403,11.433428593508147,13.827392700700027,-1.5052122787895141,14.048075360207353,-1.4877274750898215,-0.25621790666666666,0.06277030666666666,-0.4998436133333332,0.8188318266666665,0.5651825942877211,0.6722396021113607,0.6811097083233827,0.6849428708418924
LBP08_S01,LBP08,-1521,130,1,129,-1521,1716490525.16,2024-05-23 18:55:25.160000+00:00,2024-05-24 03:55:25.160000+09:00,2024,5,23,18,55,25,160,,,,,,,,,0.007324,-0.018066,0.140137,70.251465,-46.142578,-43.273926,,,,,,,,,,,0.0,1.0,1.0,1.0,0.0,0.0,0.0,5.0,0.0,0.022578106666666667,-0.24137365333333335,0.96844072,3.257649746666666,-1.0709635333333325,-0.59570312,19.582840209997926,13.800119705972852,-13.664856671747938,-4.252010608765057,6.478134176343318,10.88683432663823,13.362970413775015,-1.4747175885802806,13.61446608660055,-1.4872595108715922,-0.015254106666666666,0.22330765333333336,-0.8283037200000001,1.0668654800000001,0.8580128486061714,0.6853032995816862,0.672728113509654,0.6876759805319889
LBP08_S01,LBP08,-1520,131,1,130,-1520,1716490525.2,2024-05-23 18:55:25.200000+00:00,2024-05-24 03:55:25.200000+09:00,2024,5,23,18,55,25,200,,,,,,,,,0.366455,0.311035,0.740723,5.554199,-60.302734,-72.021484,,,,,,,,,,,0.0,1.0,1.0,1.0,0.0,0.0,0.0,5.0,0.0,0.022275373333333334,-0.24298171999999998,0.9717122133333331,1.9547526133333326,-2.394205719999999,0.007324226666666694,16.37290216637799,12.801741967181828,-16.091693535946547,-3.5970945221099377,6.9902038550305905,10.243166585200369,12.91218419277092,-1.4766029544758208,13.173784387911889,-1.4918934078901047,0.3441796266666666,0.55401672,-0.2309892133333331,1.1291855599999998,0.6919177394230592,0.681046994179994,0.6740699426700649,0.6836176457043426
LBP08_S01,LBP08,-1519,132,1,131,-1519,1716490525.24,2024-05-23 18:55:25.240000+00:00,2024-05-24 03:55:25.240000+09:00,2024,5,23,18,55,25,240,,,,,,,,,0.628906,-0.525391,1.393555,18.249512,39.123535,-13.061523,,,,,,,,,,,0.0,1.0,1.0,1.0,0.0,0.0,0.0,5.0,0.0,0.024915346666666664,-0.25218419999999997,0.9937467200000001,2.106933599999999,-2.840169266666666,0.6803385466666666,11.828933206910266,9.962859277698204,-17.378333210959752,-3.123937193833527,7.3887182261385185,9.548033256761979,12.470648727653296,-1.4692489775177457,12.73855912555808,-1.4931086099263542,0.6039906533333333,-0.2732068000000001,0.39980828,1.2770057333333336,0.774140378508204,0.6830362486826854,0.6824222480412654,0.6848236304494466
LBP08_S01,LBP08,-1518,133,1,132,-1518,1716490525.28,2024-05-23 18:55:25.280000+00:00,2024-05-24 03:55:25.280000+09:00,2024,5,23,18,55,25,280,,,,,,,,,-0.455078,-0.447266,1.700195,6.347656,32.470703,20.996094,,,,,,,,,,,0.0,1.0,1.0,1.0,0.0,0.0,0.0,5.0,0.0,0.027971986666666667,-0.25689124,1.0143684666666666,1.1482747466666658,-1.6935221333333323,1.5470377600000003,6.996255644869534,5.939611131288467,-17.058463589890014,-2.844086968038746,7.626302671390057,8.865694713166379,12.035358983615124,-1.4589832724530587,12.322054778713094,-1.487774236826589,-0.48304998666666665,-0.19037475999999998,0.6858265333333333,1.35925128,0.8601964151795461,0.7036195214494733,0.6889141010821708,0.6844318363083378
LBP08_S01,LBP08,-1517,134,1,133,-1517,1716490525.32,2024-05-23 18:55:25.320000+00:00,2024-05-24 03:55:25.320000+09:00,2024,5,23,18,55,25,320,,,,,,,,,-0.406006,-0.4104,1.875977,34.851074,-72.44873,-30.761719,,,,,,,,,,,0.0,1.0,1.0,1.0,0.0,0.0,0.0,5.0,0.0,0.022685519999999997,-0.2638248266666667,1.0163932133333335,-0.24169921333333405,1.706542960000001,2.2395833333333335,3.054051844344146,1.4969458227601888,-14.962287853282065,-2.7219248942649803,7.686180504300465,8.267203199035096,11.611756740857262,-1.4822142811897872,11.938773892108655,-1.4811062366475194,-0.42869152,-0.1465751733333333,0.8595837866666665,1.4348504799999997,0.9716712340384541,0.7052735710176978,0.6938336084711187,0.6894364953284668
LBP08_S01,LBP08,-1516,135,1,134,-1516,1716490525.36,2024-05-23 18:55:25.360000+00:00,2024-05-24 03:55:25.360000+09:00,2024,5,23,18,55,25,360,,,,,,,,,0.257568,-0.453369,1.612793,-77.880859,-13.549805,-17.822266,,,,,,,,,,,0.0,1.0,1.0,1.0,0.0,0.0,0.0,5.0,0.0,0.012705053333333334,-0.2576171466666667,1.00009764,-1.3639322800000007,1.6650390533333344,1.717936186666667,1.0265293902896508,-2.598345275012261,-11.243485502746653,-2.680863718653394,7.582246693299974,7.81746377892523,11.215624598338625,-1.519916885914002,11.604627551119489,-1.4769426319998806,0.2448629466666667,-0.19575185333333334,0.61269536,1.05331016,0.6882385159951798,0.7129990263823377,0.6954778261712908,0.694672084923662
LBP08_S01,LBP08,-1515,136,1,135,-1515,1716490525.4,2024-05-23 18:55:25.400000+00:00,2024-05-24 03:55:25.400000+09:00,2024,5,23,18,55,25,400,,,,,,,,,-0.369629,0.048096,0.043457,-27.34375,155.578613,47.424316,,,,,,,,,,,0.0,1.0,1.0,1.0,0.0,0.0,0.0,5.0,0.0,0.022060519999999997,-0.2615038666666667,0.9858202933333333,-0.7470703066666673,0.709635400000001,0.9912109200000001,1.520532590506146,-5.637134995646651,-6.359946397523338,-2.6200424150331485,7.356761293474109,7.563065923024297,10.871362616606207,-1.483760824965425,11.336236286774348,-1.4747438841070344,-0.39168951999999996,0.3095998666666667,-0.9423632933333334,1.6436526800000002,1.0664526872486628,0.7338776505931626,0.7125994570946287,0.7006066977365293
LBP08_S01,LBP08,-1514,137,1,136,-1514,1716490525.44,2024-05-23 18:55:25.440000+00:00,2024-05-24 03:55:25.440000+09:00,2024,5,23,18,55,25,440,,,,,,,,,-0.04248,-0.259033,0.090088,29.785156,-46.569824,-50.65918,,,,,,,,,,,0.0,1.0,1.0,1.0,0.0,0.0,0.0,5.0,0.0,0.02615232,-0.2583951466666667,0.9761848666666666,-1.6341145733333342,0.8805338400000011,1.3720703066666669,4.5814650901638885,-7.027722581310514,-1.0288604181224146,-2.4367838114265927,7.075652390221688,7.5219115062994,10.61046298704632,-1.4665172759616631,11.148932590753919,-1.4750564906112853,-0.06863232,-0.0006378533333333269,-0.8860968666666666,0.95536704,0.8887510671284404,0.739050400572014,0.7084205036350114,0.6986262841428235
LBP08_S01,LBP08,-1513,138,1,137,-1513,1716490525.48,2024-05-23 18:55:25.480000+00:00,2024-05-24 03:55:25.480000+09:00,2024,5,23,18,55,25,480,,,,,,,,,0.399414,0.258301,0.770264,89.96582,-93.811035,-37.536621,,,,,,,,,,,0.0,1.0,1.0,1.0,0.0,0.0,0.0,5.0,0.0,0.024853493333333334,-0.2647297866666667,0.9805240533333334,-2.728678373333334,-0.07486981333333238,1.5470377466666667,9.710059246332518,-6.4039743981139985,3.849093145920699,-2.048381441573292,6.819493414297128,7.675875232136228,10.46997695972375,-1.4738880266278984,11.053785096457698,-1.4803899229311637,0.3745605066666667,0.5230307866666667,-0.21026005333333342,1.1078513466666668,0.6768057823211017,0.7258108340374693,0.7075359895587132,0.6935876393485659
LBP08_S01,LBP08,-1512,139,1,138,-1512,1716490525.52,2024-05-23 18:55:25.520000+00:00,2024-05-24 03:55:25.520000+09:00,2024,5,23,18,55,25,520,,,,,,,,,0.620361,-0.421875,1.157959,-41.19873,-25.57373,18.798828,,,,,,,,,,,0.0,1.0,1.0,1.0,0.0,0.0,0.0,5.0,0.0,0.028238906666666667,-0.27168616,1.0043228933333335,-1.4672851466666672,-1.9864909066666656,0.9464518133333335,16.00610324127579,-3.7696155570172816,7.320628231768955,-1.4081373119222604,6.668708792016436,7.968700361406986,10.485929290808363,-1.4635762323131254,11.054684941382856,-1.486282081559833,0.5921220933333334,-0.15018884,0.1536361066666665,0.8959470399999999,0.6298962726875638,0.7246237284134251,0.7103684491544051,0.6952134618143065
LBP08_S01,LBP08,-1511,140,1,139,-1511,1716490525.56,2024-05-23 18:55:25.560000+00:00,2024-05-24 03:55:25.560000+09:00,2024,5,23,18,55,25,560,,,,,,,,,-0.391602,-0.45874,1.578613,10.559082,68.237305,42.785645,,,,,,,,,,,0.0,1.0,1.0,1.0,0.0,0.0,0.0,5.0,0.0,0.03114581333333333,-0.27155596000000004,1.0220930666666668,-1.9612630133333337,-1.2093099066666657,1.9165038933333336,22.360688640683467,0.41050935225260576,8.579605313163098,-0.5137097662949217,6.68512916610654,8.31188457393351,10.679057770323604,-1.4527301096518184,11.146591075680053,-1.4859831210426155,-0.42274781333333333,-0.18718403999999994,0.5565199333333333,1.1664517866666666,0.7235108946699933,0.7205259008785363,0.7142604546730016,0.6884646384644821
LBP08_S01,LBP08,-1510,141,1,140,-1510,1716490525.6,2024-05-23 18:55:25.600000+00:00,2024-05-24 03:55:25.600000+09:00,2024,5,23,18,55,25,600,,,,,,,,,-0.199951,-0.681396,1.894287,66.345215,-89.294434,-1.525879,,,,,,,,,,,0.0,1.0,1.0,1.0,0.0,0.0,0.0,5.0,0.0,0.02409502666666666,-0.27309891999999997,1.0184049199999998,-1.9555663866666668,1.9051106666666677,2.9923502400000004,27.637977276277837,5.267643702146069,7.202877194715508,0.5918093247561917,6.895834914192383,8.59999966172213,11.039147232566643,-1.4797290195183295,11.31553540722647,-1.4799598129940135,-0.22404602666666665,-0.40829708000000003,0.8758820800000002,1.508225186666667,0.9920043072823697,0.7258854882190492,0.7171086841665232,0.6924741366286157
LBP08_S01,LBP08,-1509,142,1,141,-1509,1716490525.64,2024-05-23 18:55:25.640000+00:00,2024-05-24 03:55:25.640000+09:00,2024,5,23,18,55,25,640,,,,,,,,,0.297852,-0.411377,1.64917,-4.333496,12.939453,27.160645,,,,,,,,,,,0.0,1.0,1.0,1.0,0.0,0.0,0.0,5.0,0.0,0.012340466666666664,-0.2645214533333333,1.00080076,-1.0359700400000005,1.923014320000001,2.3152669066666665,30.832102357173138,9.753633200456783,3.338751302490748,1.8250934190431174,7.2859802422106545,8.733549713821759,11.519173784691098,-1.5225833007165281,11.540376221738052,-1.4770917155947236,0.28551153333333334,-0.14685554666666667,0.6483692400000001,1.0807363200000002,0.7235095428750711,0.7388556650074994,0.7180436411893149,0.6961372533254078
LBP08_S01,LBP08,-1508,143,1,142,-1508,1716490525.68,2024-05-23 18:55:25.680000+00:00,2024-05-24 03:55:25.680000+09:00,2024,5,23,18,55,25,680,,,,,,,,,-0.480469,0.106934,-0.013428,45.715332,179.382324,66.894531,,,,,,,,,,,0.0,1.0,1.0,1.0,0.0,0.0,0.0,5.0,0.0,0.013385386666666662,-0.2616536133333333,0.9808658533333334,-1.0066731600000005,-0.7568359466666656,1.0408528533333332,31.204498605564886,12.958905722911469,-2.245781005726706,3.073273363265713,7.8043364711271135,8.64371847359269,12.044357432866683,-1.5179048587397515,11.795871560265805,-1.4752277072656474,-0.49385438666666664,0.36858761333333334,-0.9942938533333334,1.8567358533333334,1.1697731620742204,0.7701483067991467,0.7372414221549203,0.7059439411463293
LBP08_S01,LBP08,-1507,144,1,143,-1507,1716490525.72,2024-05-23 18:55:25.720000+00:00,2024-05-24 03:55:25.720000+09:00,2024,5,23,18,55,25,720,,,,,,,,,0.008057,0.057617,0.189209,50.842285,-38.574219,-57.983398,,,,,,,,,,,0.0,1.0,1.0,1.0,0.0,0.0,0.0,5.0,0.0,0.022796186666666662,-0.2568261333333333,0.9644921599999999,-0.24251301333333378,-2.4153645866666653,0.049641906666666576,28.401513639351002,14.393346640338988,-8.311028305533183,4.209333908839753,8.380070336740673,8.311277341371364,12.53081808382925,-1.479224676017612,12.056493746413313,-1.4733047635860126,-0.014739186666666662,0.3144431333333333,-0.77528316,1.10446548,0.8367530734354459,0.7790719161647803,0.7284587887149654,0.7079665564538271
LBP08_S01,LBP08,-1506,145,1,144,-1506,1716490525.76,2024-05-23 18:55:25.760000+00:00,2024-05-24 03:55:25.760000+09:00,2024,5,23,18,55,25,760,,,,,,,,,0.403809,0.222412,0.820312,-63.842773,-39.611816,-61.462402,,,,,,,,,,,0.0,1.0,1.0,1.0,0.0,0.0,0.0,5.0,0.0,0.027275360000000002,-0.25281571999999997,0.9530435999999999,0.08544922666666623,-3.3992513066666654,0.11881509333333336,22.54543459398027,14.103096713218923,-13.458909386264974,5.111151292598963,8.94419420526943,7.772920965920765,12.905067913802775,-1.459683805427983,12.300279805387918,-1.4770668111214356,0.37653363999999995,0.47522771999999996,-0.13273159999999984,0.9844929599999998,0.6206743474210996,0.7735741479090206,0.7255137409205975,0.7063047027013611
LBP08_S01,LBP08,-1505,146,1,145,-1505,1716490525.8,2024-05-23 18:55:25.800000+00:00,2024-05-24 03:55:25.800000+09:00,2024,5,23,18,55,25,800,,,,,,,,,0.328857,-0.970459,1.625244,53.466797,88.134766,-38.269043,,,,,,,,,,,0.0,1.0,1.0,1.0,0.0,0.0,0.0,5.0,0.0,0.028121719999999996,-0.24988929333333332,0.96015624,-0.9073893066666671,-5.314941413333332,0.5761718533333333,14.28804489041226,12.572742230626515,-16.510202234013352,5.682673088215454,9.44710389449449,7.11251287656023,13.119770761722027,-1.4550798509725276,12.5117395489053,-1.4807804931097415,0.30073528,-0.7205697066666666,0.6650877599999999,1.6863927466666664,1.025672530247438,0.8008939438288685,0.7312981474178709,0.7179670980714876
LBP08_S01,LBP08,-1504,147,1,146,-1504,1716490525.84,2024-05-23 18:55:25.840000+00:00,2024-05-24 03:55:25.840000+09:00,2024,5,23,18,55,25,840,,,,,,,,,-0.64624,-0.656982,1.657471,74.645996,-41.931152,2.258301,,,,,,,,,,,0.0,1.0,1.0,1.0,0.0,0.0,0.0,5.0,0.0,0.030318986666666662,-0.2533821333333333,0.9788346266666668,-0.2905273333333337,-4.493815106666665,0.7975260266666667,4.800711661196572,10.471592457043947,-16.80281958771781,5.874701554663317,9.865967592776247,6.440400093051518,13.165416372323843,-1.4478771926709004,12.682885031803853,-1.4788865973834624,-0.6765589866666667,-0.40359986666666664,0.6786363733333332,1.7587952266666664,1.0397943267895806,0.7962998506737078,0.7439775367258221,0.7127947823344424
LBP08_S01,LBP08,-1503,148,1,147,-1503,1716490525.88,2024-05-23 18:55:25.880000+00:00,2024-05-24 03:55:25.880000+09:00,2024,5,23,18,55,25,880,,,,,,,,,0.019531,-0.365479,1.926758,79.040527,-113.525391,-23.254395,,,,,,,,,,,0.0,1.0,1.0,1.0,0.0,0.0,0.0,5.0,0.0,0.028007799999999996,-0.24746417333333331,0.98305988,-1.920572906666667,-1.846516933333332,1.05550128,-4.351473749038137,8.370338933765751,-14.309385779788078,5.700642604701792,10.200781150126877,5.8680246618599945,13.07619882119885,-1.454658589831551,12.812376307140312,-1.4710097884141564,-0.008476799999999996,-0.11801482666666668,0.94369812,1.0701897466666668,0.9510864824730387,0.803823987776118,0.7487473312759767,0.7117046248337413
LBP08_S01,LBP08,-1502,149,1,148,-1502,1716490525.92,2024-05-23 18:55:25.920000+00:00,2024-05-24 03:55:25.920000+09:00,2024,5,23,18,55,25,920,,,,,,,,,0.351807,-0.332764,1.32373,-86.364746,114.624023,10.681152,,,,,,,,,,,0.0,1.0,1.0,1.0,0.0,0.0,0.0,5.0,0.0,0.016855466666666662,-0.2496484133333333,0.9687304533333332,-2.810058586666667,-0.010579426666665389,1.0880533733333333,-11.501805003960474,6.549889535564997,-9.562297281123591,5.240570404543373,10.462776731549477,5.485532770615051,12.923789880554414,-1.5011967076673538,12.90395149559554,-1.46193937982719,0.33495153333333333,-0.08311558666666671,0.3549995466666669,0.7730666666666669,0.4951014124023828,0.8018517362209266,0.7438457417898199,0.7086711826159517
LBP08_S01,LBP08,-1501,150,1,149,-1501,1716490525.96,2024-05-23 18:55:25.960000+00:00,2024-05-24 03:55:25.960000+09:00,2024,5,23,18,55,25,960,,,,,,,,,-0.534424,0.088623,-0.162598,-118.774414,75.98877,8.605957,,,,,,,,,,,0.0,1.0,1.0,1.0,0.0,0.0,0.0,5.0,0.0,0.019544266666666664,-0.2491048,0.9475781066666665,-3.73291016,-1.317545573333332,0.45003253333333326,-15.312089497596093,4.962234473354272,-3.4506450434184317,4.62808682463953,10.661266110483648,5.347506968878314,12.793655205497421,-1.489866929534878,12.965366592003459,-1.4580898045175315,-0.5539682666666667,0.33772779999999997,-1.1101761066666664,2.001872173333333,1.2858584273472988,0.8319419864354427,0.7634964903817694,0.7184247299504307
LBP08_S01,LBP08,-1500,151,1,150,-1500,1716490526.0,2024-05-23 18:55:26+00:00,2024-05-24 03:55:26+09:00,2024,5,23,18,55,26,0,18.0,55.0,24.0,40.678535,141.52655,22.607,3.0,15.0,-0.032471,-0.294189,0.180664,-10.498047,-74.462891,16.601562,-559.0,8.0,604.0,1.0,0.0,1014.599976,18.799999,0.015856,-11.226815,3.979687,0.0,1.0,1.0,1.0,0.0,0.0,0.0,5.0,0.0,0.025830079999999995,-0.2415396933333333,0.9289811066666668,-3.727213546666667,-2.0296223999999987,0.42643227999999994,-15.187737830934338,3.318063052139654,3.0205470356315023,4.020577311402156,10.793988632569235,5.468328850303574,12.750602061552156,-1.4607900622555392,13.008120219941901,-1.4563604757818047,-0.05830107999999999,-0.05264930666666667,-0.7483171066666667,0.8592674933333334,0.7524290382166404,0.840334116113031,0.751929319369201,0.7236435556898321
LBP08_S01,LBP08,-1499,152,1,151,-1499,1716490526.04,2024-05-23 18:55:26.040000+00:00,2024-05-24 03:55:26.040000+09:00,2024,5,23,18,55,26,40,,,,,,,,,0.529297,-0.267334,0.960205,-92.346191,-53.771973,-15.136719,,,,,,,,,,,0.0,1.0,1.0,1.0,0.0,0.0,0.0,5.0,0.0,0.030221346666666662,-0.24480791999999998,0.9208984266666665,-5.187174493333334,-3.314615893333332,0.10823566666666662,-11.467253220812804,1.229187819382383,8.936333891030998,3.561887182569644,10.84315614534453,5.825782205944813,12.814086538055687,-1.4438152110234679,13.04744309912256,-1.457844474723137,0.49907565333333337,-0.02252608000000003,0.03930657333333343,0.5609083066666668,0.5011276671043704,0.8188032980688105,0.7435423570490919,0.722690487452102
LBP08_S01,LBP08,-1498,153,1,152,-1498,1716490526.08,2024-05-23 18:55:26.080000+00:00,2024-05-24 03:55:26.080000+09:00,2024,5,23,18,55,26,80,,,,,,,,,0.22583,-0.87915,1.398193,64.086914,67.749023,5.615234,,,,,,,,,,,0.0,1.0,1.0,1.0,0.0,0.0,0.0,5.0,0.0,0.03443358666666666,-0.24610022666666664,0.9343554666666667,-4.596354186666668,-5.142415373333332,0.03824867999999996,-5.26297048950345,-1.6425291651629488,13.610012674956241,3.351368362989506,10.777454978738012,6.3701827129430635,12.960109317418985,-1.4272007728700873,13.101664120757864,-1.4597625918068975,0.19139641333333335,-0.6330497733333333,0.46383753333333333,1.28828372,0.8077932036622988,0.8238541580570141,0.7486321620921279,0.7237118151734747
LBP08_S01,LBP08,-1497,154,1,153,-1497,1716490526.12,2024-05-23 18:55:26.120000+00:00,2024-05-24 03:55:26.120000+09:00,2024,5,23,18,55,26,120,,,,,,,,,-0.302979,-0.500732,1.5896,111.633301,-11.962891,21.42334,,,,,,,,,,,0.0,1.0,1.0,1.0,0.0,0.0,0.0,5.0,0.0,0.03132485333333333,-0.24725582666666668,0.9539550666666666,-3.5026041866666673,-5.271809893333333,-0.10416668000000005,1.9842678025357903,-5.441787454474182,16.655944783023998,3.4307390750909375,10.559783480559044,7.036420504264023,13.14496904790843,-1.440728922921026,13.18999251232747,-1.456767797138647,-0.33430385333333335,-0.2534761733333333,0.6356449333333333,1.22342496,0.7616125774129275,0.8317113573820224,0.7519754797466915,0.7313102580095958
LBP08_S01,LBP08,-1496,155,1,154,-1496,1716490526.16,2024-05-23 18:55:26.160000+00:00,2024-05-24 03:55:26.160000+09:00,2024,5,23,18,55,26,160,,,,,,,,,-0.015625,-0.136475,1.684814,55.908203,-35.27832,26.367188,,,,,,,,,,,0.0,1.0,1.0,1.0,0.0,0.0,0.0,5.0,0.0,0.03063474666666666,-0.24467770666666666,0.9631380133333333,-4.074707053333334,-4.2179362,-0.004069013333333385,9.013492738329054,-10.00694033888663,18.011153743132855,3.7912787846240996,10.15950586700358,7.756866653989337,13.33260419318719,-1.4423905180707164,13.328461677773277,-1.4481794485900248,-0.04625974666666666,0.10820270666666665,0.7216759866666668,0.8761384400000001,0.7312072343891053,0.8266391328133398,0.755971216197513,0.7240317866108825
LBP08_S01,LBP08,-1495,156,1,155,-1495,1716490526.2,2024-05-23 18:55:26.200000+00:00,2024-05-24 03:55:26.200000+09:00,2024,5,23,18,55,26,200,,,,,,,,,-0.006104,-0.371094,0.696045,-34.973145,115.112305,59.082031,,,,,,,,,,,0.0,1.0,1.0,1.0,0.0,0.0,0.0,5.0,0.0,0.02427081333333333,-0.2476041333333333,0.9566601466666667,-3.0273437733333335,-1.4550781333333325,0.5851236933333333,15.063098358689462,-14.847325570359851,17.90772478188111,4.393802718971678,9.565612844189186,8.47317564526458,13.512999553528626,-1.4699198403858484,13.525371905692912,-1.4394580560684607,-0.030374813333333327,-0.12348986666666667,-0.26061514666666663,0.4144798266666666,0.2899872947673296,0.8105619150271106,0.7458044546035524,0.7195672667890802
LBP08_S01,LBP08,-1494,157,1,156,-1494,1716490526.24,2024-05-23 18:55:26.240000+00:00,2024-05-24 03:55:26.240000+09:00,2024,5,23,18,55,26,240,,,,,,,,,-0.288818,0.022705,-0.137695,-16.784668,-28.442383,-1.831055,,,,,,,,,,,0.0,1.0,1.0,1.0,0.0,0.0,0.0,5.0,0.0,0.02422849333333333,-0.24017249333333335,0.9361523333333333,-1.3704427333333338,-2.118326839999999,0.18391926666666664,19.873587724514923,-19.26618241047355,16.78671762120151,5.188746227952275,8.794965547770245,9.14464435011264,13.707626588676888,-1.4670583635085066,13.778603748856105,-1.4357485979807922,-0.31304649333333334,0.2628774933333333,-1.0738473333333332,1.6497713199999997,1.1490216615872062,0.8255571663502705,0.754296707516478,0.7301338874776004
LBP08_S01,LBP08,-1493,158,1,157,-1493,1716490526.28,2024-05-23 18:55:26.280000+00:00,2024-05-24 03:55:26.280000+09:00,2024,5,23,18,55,26,280,,,,,,,,,0.012939,-0.06958,0.208984,5.981445,-139.465332,-5.432129,,,,,,,,,,,0.0,1.0,1.0,1.0,0.0,0.0,0.0,5.0,0.0,0.03296221333333333,-0.23076819999999998,0.9236490799999999,-1.1433919600000004,-2.3421224133333323,-0.3767903733333334,23.437295279047248,-22.620822062704494,15.159110832694157,6.126238039114165,7.8901326652620645,9.751008783420406,13.9594827368949,-1.4247106431490446,14.07611099364269,-1.4346081393495045,-0.02002321333333333,0.16118819999999998,-0.7146650799999998,0.8958764933333332,0.7328906749733131,0.8204649367420214,0.7620422290957473,0.7327643796354543
LBP08_S01,LBP08,-1492,159,1,158,-1492,1716490526.32,2024-05-23 18:55:26.320000+00:00,2024-05-24 03:55:26.320000+09:00,2024,5,23,18,55,26,320,,,,,,,,,0.412109,-0.306396,0.717285,-24.353027,-110.229492,-43.945312,,,,,,,,,,,0.0,1.0,1.0,1.0,0.0,0.0,0.0,5.0,0.0,0.03584633333333333,-0.23583005333333332,0.9247070133333334,-0.9887695600000005,-2.658691413333332,-0.7576497466666667,25.685430838227646,-24.61177782946475,13.457285414893299,7.153655272643271,6.905661552083474,10.289300200016138,14.308481535012476,-1.415313222181134,14.398761783750516,-1.4392012917220511,0.3762626666666667,-0.07056594666666668,-0.20742201333333343,0.6542506266666668,0.4354044542391907,0.7990142655500508,0.7521439182838744,0.7288938274974295
LBP08_S01,LBP08,-1491,160,1,159,-1491,1716490526.36,2024-05-23 18:55:26.360000+00:00,2024-05-24 03:55:26.360000+09:00,2024,5,23,18,55,26,360,,,,,,,,,0.336182,-0.197021,0.908691,68.054199,13.85498,27.34375,,,,,,,,,,,0.0,1.0,1.0,1.0,0.0,0.0,0.0,5.0,0.0,0.039889293333333325,-0.24236,0.9465234133333333,-0.5078125333333338,-3.8346354266666656,-0.2620442666666667,26.298398898537034,-25.425265013571778,11.945724886617322,8.205591228584753,5.888650951540603,10.76712919548083,14.762757484693799,-1.402653004319236,14.723877799396268,-1.4410444108364253,0.2962927066666666,0.04533899999999999,-0.037832413333333315,0.37946411999999996,0.3021196525277419,0.7835695110113532,0.7482842686968456,0.7248417211179784
LBP08_S01,LBP08,-1490,161,1,160,-1490,1716490526.4,2024-05-23 18:55:26.400000+00:00,2024-05-24 03:55:26.400000+09:00,2024,5,23,18,55,26,400,,,,,,,,,-0.247803,-0.526123,1.477295,-23.071289,19.897461,60.119629,,,,,,,,,,,0.0,1.0,1.0,1.0,0.0,0.0,0.0,5.0,0.0,0.035354786666666665,-0.24602862666666667,0.9680891733333332,-0.06917321333333373,-3.8256836133333323,-0.34586588000000007,24.72711660462363,-25.60306402257742,10.734655628932412,9.194675892769698,4.864528390637506,11.196515420638127,15.282920493184081,-1.4236954813788552,15.028497008491048,-1.4383102324787098,-0.2831577866666667,-0.2800943733333333,0.5092058266666668,1.0724579866666668,0.6464686875899263,0.7667701510250038,0.7503239008090832,0.7306563550714203
LBP08_S01,LBP08,-1489,162,1,161,-1489,1716490526.44,2024-05-23 18:55:26.440000+00:00,2024-05-24 03:55:26.440000+09:00,2024,5,23,18,55,26,440,,,,,,,,,0.041016,-0.490967,1.553955,91.186523,-47.912598,16.906738,,,,,,,,,,,0.0,1.0,1.0,1.0,0.0,0.0,0.0,5.0,0.0,0.03353187999999999,-0.2482161333333333,0.9799837066666667,-0.9025065466666672,-2.255045586666666,-0.04150390666666662,20.3971694367931,-25.676668926781755,9.87158689283316,10.010562670241422,3.837461633566236,11.591378896351452,15.789158985921501,-1.43241062471059,15.292209085479055,-1.4301286052688522,0.007484120000000004,-0.24275086666666668,0.5739712933333333,0.82420628,0.6232391522444105,0.7561496744296425,0.7476000375008283,0.7243302272332218
LBP08_S01,LBP08,-1488,163,1,162,-1488,1716490526.48,2024-05-23 18:55:26.480000+00:00,2024-05-24 03:55:26.480000+09:00,2024,5,23,18,55,26,480,,,,,,,,,0.178955,-0.186768,0.953857,26.245117,79.223633,38.696289,,,,,,,,,,,0.0,1.0,1.0,1.0,0.0,0.0,0.0,5.0,0.0,0.023577453333333328,-0.24830402666666662,0.9717903466666666,-0.45166018666666713,0.3263346266666675,0.5582682266666666,12.986796561227996,-25.760786268971785,9.428590548975658,10.530034532690541,2.807030182807365,11.968522518310479,16.186617218497258,-1.4731322965955538,15.500120046130174,-1.4204116133142652,0.15537754666666667,0.06153602666666663,-0.017933346666666683,0.23484692,0.16807875983817744,0.7358005935303256,0.7308057137838975,0.7169575242159174
LBP08_S01,LBP08,-1487,164,1,163,-1487,1716490526.52,2024-05-23 18:55:26.520000+00:00,2024-05-24 03:55:26.520000+09:00,2024,5,23,18,55,26,520,,,,,,,,,-0.48584,0.2229,-0.202881,50.048828,80.444336,-13.305664,,,,,,,,,,,0.0,1.0,1.0,1.0,0.0,0.0,0.0,5.0,0.0,0.026507133333333332,-0.24399413333333334,0.9525618266666667,0.09765621333333285,-1.4477539199999994,-0.19694010666666667,2.6460423370892108,-25.34639031660198,9.509825273697416,10.63587622617411,1.7931745701432857,12.348915529258376,16.396129204365977,-1.4591601140647679,15.646900733605076,-1.4163862307447068,-0.5123471333333334,0.4668941333333333,-1.1554428266666668,2.1346840933333335,1.3474189558082617,0.7645015008551534,0.7445626146342893,0.7284127997213212
LBP08_S01,LBP08,-1486,165,1,164,-1486,1716490526.56,2024-05-23 18:55:26.560000+00:00,2024-05-24 03:55:26.560000+09:00,2024,5,23,18,55,26,560,,,,,,,,,-0.072266,0.12207,-0.023193,-84.289551,-96.496582,-29.052734,,,,,,,,,,,0.0,1.0,1.0,1.0,0.0,0.0,0.0,5.0,0.0,0.035956999999999996,-0.23602213333333333,0.9339225066666668,0.5843098533333329,-2.1069336133333327,-0.5802408933333334,-9.936769326312643,-23.448337891446883,10.170299444098998,10.238405453121604,0.8552410544854104,12.755727507022335,16.378796284134978,-1.415048734493562,15.741414864852706,-1.4153166308151497,-0.10822299999999999,0.35809213333333334,-0.9571155066666668,1.42343064,1.0276245845570298,0.776666048450635,0.7485959746645857,0.7350623192655461
LBP08_S01,LBP08,-1485,166,1,165,-1485,1716490526.6,2024-05-23 18:55:26.600000+00:00,2024-05-24 03:55:26.600000+09:00,2024,5,23,18,55,26,600,,,,,,,,,0.397705,-0.38623,0.430664,-52.062988,-151.794434,-10.009766,,,,,,,,,,,0.0,1.0,1.0,1.0,0.0,0.0,0.0,5.0,0.0,0.04150713333333333,-0.23134440000000003,0.9254036266666666,0.987955693333333,-2.8059895999999998,-1.09375,-23.630533389440902,-19.084745723539694,11.310044034070984,9.293184117543968,0.09185122554382263,13.208129268385175,16.150120323408693,-1.3881035682872722,15.807865854024595,-1.4189311689841975,0.35619786666666664,-0.15488559999999998,-0.49473962666666665,1.0058230933333332,0.628994250768254,0.7621456461900705,0.7440155672045599,0.7321210048410389
LBP08_S01,LBP08,-1484,167,1,166,-1484,1716490526.64,2024-05-23 18:55:26.640000+00:00,2024-05-24 03:55:26.640000+09:00,2024,5,23,18,55,26,640,,,,,,,,,0.523926,0.210449,0.793701,12.695312,-62.866211,-2.258301,,,,,,,,,,,0.0,1.0,1.0,1.0,0.0,0.0,0.0,5.0,0.0,0.04601885333333333,-0.23253581333333334,0.9371939866666668,-0.0813802400000004,-4.265950546666667,-1.1661783866666666,-37.04818247519494,-11.869423109772868,12.63298512766736,7.81125681853617,-0.3829256988470921,13.71344867349187,15.786736195188075,-1.369888443962638,15.878690607234564,-1.4190145289050047,0.47790714666666667,0.44298481333333334,-0.14349298666666677,1.0643849466666668,0.6672488463096532,0.7598952183274537,0.7493754416674766,0.7319941669020278
LBP08_S01,LBP08,-1483,168,1,167,-1483,1716490526.68,2024-05-23 18:55:26.680000+00:00,2024-05-24 03:55:26.680000+09:00,2024,5,23,18,55,26,680,,,,,,,,,0.14209,-0.205322,1.27002,-103.515625,30.639648,73.059082,,,,,,,,,,,0.0,1.0,1.0,1.0,0.0,0.0,0.0,5.0,0.0,0.04384762666666666,-0.23949870666666664,0.9572297866666666,-1.1124674800000005,-4.009602893333333,-0.3849283866666666,-48.733672742296214,-2.4064136306174486,13.718180624625981,5.861909908844321,-0.47918224407179005,14.26217589847691,15.427289611643925,-1.3844568174534597,15.981243880443412,-1.4145317229377277,0.09824237333333333,0.03417670666666664,0.31279021333333334,0.4452092933333333,0.32963211122986424,0.7262895762936794,0.748218941546413,0.73359080686784
LBP08_S01,LBP08,-1482,169,1,168,-1482,1716490526.72,2024-05-23 18:55:26.720000+00:00,2024-05-24 03:55:26.720000+09:00,2024,5,23,18,55,26,720,,,,,,,,,-0.266846,-0.598877,1.506592,-53.100586,5.92041,31.616211,,,,,,,,,,,0.0,1.0,1.0,1.0,0.0,0.0,0.0,5.0,0.0,0.040123666666666655,-0.24664389333333334,0.9686099866666668,-0.8878581066666671,-3.2877604533333327,0.7902018133333334,-57.30130804480959,7.730260240790835,14.171441566307557,3.569857587051938,-0.16997183444015668,14.829033561129211,15.25362284748878,-1.4046172228855638,16.127005750387642,-1.4046039460958963,-0.3069696666666667,-0.35223310666666663,0.5379820133333332,1.1971847866666665,0.7125469699294795,0.7213213321534409,0.7501966241591106,0.7260796365277905
LBP08_S01,LBP08,-1481,170,1,169,-1481,1716490526.76,2024-05-23 18:55:26.760000+00:00,2024-05-24 03:55:26.760000+09:00,2024,5,23,18,55,26,760,,,,,,,,,0.302734,-0.674805,1.774414,26.000977,-0.061035,21.179199,,,,,,,,,,,0.0,1.0,1.0,1.0,0.0,0.0,0.0,5.0,0.0,0.03129554666666666,-0.24300782666666668,0.9606835466666667,-0.9269206133333338,-1.8489583733333321,1.4501952933333333,-61.54146732158273,16.43017903903896,13.766582589423082,1.1081988941886287,0.4872353271214018,15.379696864706135,15.427267376412704,-1.4387983860097127,16.309145457242728,-1.3934416225878887,0.27143845333333333,-0.43179717333333334,0.8137304533333333,1.51696608,0.9603566439238711,0.7349086240135516,0.754241385961286,0.7286453686182488
LBP08_S01,LBP08,-1480,171,1,170,-1480,1716490526.8,2024-05-23 18:55:26.800000+00:00,2024-05-24 03:55:26.800000+09:00,2024,5,23,18,55,26,800,,,,,,,,,-0.014893,-0.137939,0.952881,-38.208008,183.776855,5.92041,,,,,,,,,,,0.0,1.0,1.0,1.0,0.0,0.0,0.0,5.0,0.0,0.033834613333333326,-0.23671550666666666,0.93797196,-1.1328125333333336,-2.4723307733333324,0.83577472,-60.54508588190304,21.698076520395958,12.492656554447713,-1.3136045410874928,1.3551583879372402,15.879403126884045,15.991168025283741,-1.4245290805869275,16.507625468844928,-1.38789414453073,-0.04872761333333332,0.09877650666666665,0.014909039999999929,0.1624131599999999,0.11114611124170959,0.6983275672533225,0.7496107555410956,0.7203079540296882
LBP08_S01,LBP08,-1479,172,1,171,-1479,1716490526.84,2024-05-23 18:55:26.840000+00:00,2024-05-24 03:55:26.840000+09:00,2024,5,23,18,55,26,840,,,,,,,,,-0.388672,0.077637,-0.029297,-118.774414,30.578613,-14.648438,,,,,,,,,,,0.0,1.0,1.0,1.0,0.0,0.0,0.0,5.0,0.0,0.04199542666666666,-0.23361656,0.9185351066666667,-1.3134765866666673,-2.788899786666666,0.6689452933333333,-53.89154253932919,22.252541267611942,10.489504369657054,-3.46926624266066,2.245260038641718,16.298983301670326,16.814691718010007,-1.387582565037818,16.698052216871737,-1.3869997546918014,-0.4306674266666667,0.31125356,-0.9478321066666667,1.6897530933333336,1.0866181083676703,0.700200518516446,0.7482501845950769,0.7293851973226968
LBP08_S01,LBP08,-1478,173,1,172,-1478,1716490526.88,2024-05-23 18:55:26.880000+00:00,2024-05-24 03:55:26.880000+09:00,2024,5,23,18,55,26,880,,,,,,,,,0.333252,-0.385498,0.540039,-59.753418,-62.37793,-27.648926,,,,,,,,,,,0.0,1.0,1.0,1.0,0.0,0.0,0.0,5.0,0.0,0.04405272,-0.22729819999999998,0.9102278133333335,0.16601559999999968,-3.300781293333333,0.4069010266666666,-41.882122600240436,17.853225682866647,7.927836041339335,-5.144551146670278,2.9593890659563837,16.6160967433239,17.644235917939543,-1.373854528177243,16.85995594444497,-1.38979909040126,0.28919928,-0.15819980000000003,-0.3701888133333334,0.8175878933333335,0.4956845345476294,0.6819844405994295,0.7429042141877739,0.7264930343837943
LBP08_S01,LBP08,-1477,174,1,173,-1477,1716490526.92,2024-05-23 18:55:26.920000+00:00,2024-05-24 03:55:26.920000+09:00,2024,5,23,18,55,26,920,,,,,,,,,0.33252,-0.182617,1.009521,-58.227539,-27.282715,6.469727,,,,,,,,,,,0.0,1.0,1.0,1.0,0.0,0.0,0.0,5.0,0.0,0.05069985333333333,-0.22967125333333333,0.93000972,-0.30192060000000037,-4.92350264,0.28320312000000003,-25.717036470154028,9.284483641463478,4.92144798535383,-6.173232605476439,3.330768411614923,16.812954662738054,18.217526272916817,-1.3475368789846907,16.98015730597076,-1.3914643408524152,0.28182014666666666,0.047054253333333323,0.07951127999999985,0.40838567999999986,0.2965783900947899,0.674043519707126,0.7379476279640264,0.7205783344289219
LBP08_S01,LBP08,-1476,175,1,174,-1476,1716490526.96,2024-05-23 18:55:26.960000+00:00,2024-05-24 03:55:26.960000+09:00,2024,5,23,18,55,26,960,,,,,,,,,0.070557,-0.793213,1.567871,-67.687988,27.099609,27.038574,,,,,,,,,,,0.0,1.0,1.0,1.0,0.0,0.0,0.0,5.0,0.0,0.047744119999999994,-0.22871748,0.9517349733333335,-1.188964866666667,-4.6744791999999995,0.9692382800000001,-7.481091764463323,-1.9153261789242502,1.5315562867408072,-6.472476276054972,3.254155364457953,16.874216914207686,18.36359640015696,-1.3595739539219742,17.048811637037964,-1.389076569829125,0.02281288,-0.5644955199999999,0.6161360266666666,1.2034444266666666,0.8359421169857109,0.6560468672926625,0.7439944268640525,0.727679949352067
LBP08_S01,LBP08,-1475,176,1,175,-1475,1716490527.0,2024-05-23 18:55:27+00:00,2024-05-24 03:55:27+09:00,2024,5,23,18,55,27,0,18.0,55.0,25.0,40.678661,141.526688,23.08,3.0,15.0,-0.256104,-0.331787,1.61377,110.290527,-52.978516,-9.094238,-552.0,21.0,603.0,1.0,0.0,1014.400024,18.870001,0.013874,-9.564723,3.979687,0.0,1.0,1.0,1.0,0.0,0.0,0.0,6.0,0.0,0.04543942666666666,-0.2411068,0.9669986399999999,-2.4877929866666673,-3.8891601866666656,1.3045247333333332,10.13732209759935,-13.816121526916207,-2.1423717081629423,-6.066983392150998,2.7015105033813045,16.78852204588117,18.0543878036768,-1.3791596698979853,17.051703212908016,-1.3825281163753405,-0.30154342666666667,-0.09068019999999999,0.64677136,1.0389949866666668,0.7193500739932992,0.6547237087237288,0.74752891241838,0.7195274491540437
LBP08_S01,LBP08,-1474,177,1,176,-1474,1716490527.04,2024-05-23 18:55:27.040000+00:00,2024-05-24 03:55:27.040000+09:00,2024,5,23,18,55,27,40,,,,,,,,,0.099854,-0.082764,1.405029,15.380859,-28.320312,24.169922,,,,,,,,,,,0.0,1.0,1.0,1.0,0.0,0.0,0.0,6.0,0.0,0.040380839999999994,-0.23786786666666668,0.9681314533333333,-2.4617513200000003,-1.3850911866666653,1.2744140533333335,24.350881364100275,-24.430615375218814,-5.851912324472831,-5.092948137586987,1.724285888372552,16.554445552902255,17.40577347092041,-1.397881801057226,16.968590065444392,-1.373111060031919,0.059473160000000004,0.15510386666666667,0.4368975466666668,0.6514745733333335,0.46741173765609373,0.6533750715457978,0.7360891848073042,0.7134865952146605
LBP08_S01,LBP08,-1473,178,1,177,-1473,1716490527.08,2024-05-23 18:55:27.080000+00:00,2024-05-24 03:55:27.080000+09:00,2024,5,23,18,55,27,80,,,,,,,,,-0.077881,-0.080566,0.468506,45.898438,95.214844,51.208496,,,,,,,,,,,0.0,1.0,1.0,1.0,0.0,0.0,0.0,6.0,0.0,0.038160799999999995,-0.22900393333333333,0.9436750800000001,-3.075358093333334,-1.5356445733333326,0.7617187333333333,32.855559203021514,-31.99455630780001,-9.156482708256876,-3.778725769466126,0.44450363606055165,16.18818624457198,16.62930322690184,-1.4011093219650113,16.783742685849315,-1.3699811500153989,-0.1160418,0.14843793333333333,-0.47516908000000013,0.7396488133333334,0.5111606146677946,0.6415097679860176,0.7326819630215159,0.7129246973900911
LBP08_S01,LBP08,-1472,179,1,178,-1472,1716490527.12,2024-05-23 18:55:27.120000+00:00,2024-05-24 03:55:27.120000+09:00,2024,5,23,18,55,27,120,,,,,,,,,-0.263916,0.313232,-0.263916,59.936523,-24.414062,-49.682617,,,,,,,,,,,0.0,1.0,1.0,1.0,0.0,0.0,0.0,6.0,0.0,0.04187823999999999,-0.22375003999999998,0.9238573733333332,-4.139811226666667,-1.2719726933333324,0.6844075333333334,34.315215178472826,-35.22865402622632,-11.505468241669325,-2.406117162327213,-0.9646425249885013,15.727967514905208,15.940166158160812,-1.3807395126526623,16.502738216289377,-1.3712840538517488,-0.30579424,0.53698204,-1.187773373333333,2.030549653333333,1.3389045578006615,0.664601447201527,0.7481564022917746,0.7228508022316367
LBP08_S01,LBP08,-1471,180,1,179,-1471,1716490527.16,2024-05-23 18:55:27.160000+00:00,2024-05-24 03:55:27.160000+09:00,2024,5,23,18,55,27,160,,,,,,,,,0.054443,0.048096,0.054443,14.831543,-138.977051,-64.63623,,,,,,,,,,,0.0,1.0,1.0,1.0,0.0,0.0,0.0,6.0,0.0,0.04261390666666666,-0.21875329333333335,0.9137727333333333,-3.5221354400000005,-2.1468099333333326,-0.23518882666666666,28.621953117721077,-33.607741854349676,-12.433829566060732,-1.26123903761837,-2.3089521991624884,15.230614332262778,15.456183135113214,-1.3733138514718655,16.163712007785392,-1.3749434620734724,0.011829093333333339,0.26684929333333335,-0.8593297333333333,1.1380081199999998,0.8998866947523593,0.6713486256160571,0.7489938792146984,0.7277636860036943
LBP08_S01,LBP08,-1470,181,1,180,-1470,1716490527.2,2024-05-23 18:55:27.200000+00:00,2024-05-24 03:55:27.200000+09:00,2024,5,23,18,55,27,200,,,,,,,,,0.533203,-0.041992,0.537842,19.65332,-124.328613,-65.063477,,,,,,,,,,,0.0,1.0,1.0,1.0,0.0,0.0,0.0,6.0,0.0,0.05296873333333332,-0.22171880000000002,0.9313410933333334,-4.11539716,-4.059244826666666,-1.0115560133333334,16.887952665686726,-27.578469892346956,-11.779184572725706,-0.585720930990901,-3.4120909948563667,14.75944694935375,15.16003655064751,-1.330358517152712,15.834343298473774,-1.3755051067807527,0.4802342666666667,0.17972680000000002,-0.3934990933333333,1.05346016,0.6463499129521614,0.6856031303434504,0.7480825226852805,0.7257373465168516
LBP08_S01,LBP08,-1469,182,1,181,-1469,1716490527.24,2024-05-23 18:55:27.240000+00:00,2024-05-24 03:55:27.240000+09:00,2024,5,23,18,55,27,240,,,,,,,,,0.442383,-0.077393,0.83667,26.245117,-13.61084,8.422852,,,,,,,,,,,0.0,1.0,1.0,1.0,0.0,0.0,0.0,6.0,0.0,0.049065733333333326,-0.23147465333333334,0.9513443466666667,-5.16438804,-3.749186226666666,-0.13997398666666663,1.1961880317170486,-18.578579470583783,-9.79228454622337,-0.537873409722219,-4.155234173679718,14.367755567504815,14.966217922059254,-1.3562834648726176,15.592689701801708,-1.3738950842578532,0.3933172666666667,0.15408165333333335,-0.11467434666666665,0.6620732666666667,0.43770975992716704,0.6571506542770489,0.7413539103136597,0.7219146897700016
LBP08_S01,LBP08,-1468,183,1,182,-1468,1716490527.28,2024-05-23 18:55:27.280000+00:00,2024-05-24 03:55:27.280000+09:00,2024,5,23,18,55,27,280,,,,,,,,,-0.149414,-0.078125,1.278809,-74.401855,35.339355,47.790527,,,,,,,,,,,0.0,1.0,1.0,1.0,0.0,0.0,0.0,6.0,0.0,0.04338538666666666,-0.24014001333333332,0.9626496933333332,-4.049479186666667,-4.134928413333332,0.5712890266666667,-15.81607615762192,-8.730420634644634,-7.063727134455904,-1.1705164560270958,-4.5044509990655035,14.08520648212658,14.834191222340133,-1.3868835665407435,15.499760452875075,-1.3697086867726356,-0.19279938666666666,0.16201501333333332,0.3161593066666669,0.6709737066666669,0.404199425081717,0.6440030042813849,0.7322339705117031,0.7226958208242931
