file_name,test_id,_program_index,program_index,session_id,index,_index,unixtime,datetime_utc,datetime_jst,rtc_year,rtc_month,rtc_day,rtc_hour,rtc_min,rtc_sec,rtc_msec,gps_hour,gps_min,gps_sec,latitude,longitude,altitude,fix_type,SIV,acc_x,acc_y,acc_z,gyro_x,gyro_y,gyro_z,mag_x,mag_y,mag_z,illuminance,atmopress,water_pressure,water_temp,depth,alt_wps,battery_level,behavior_class,camera_command,camera_recording,camera_count,play_audio,speaker_on,audio_file,prev_sd_write_time_ms,delay_occurred_counter,acc_x_ma,acc_y_ma,acc_z_ma,gyro_x_ma,gyro_y_ma,gyro_z_ma,gyro_x_lowpass,gyro_y_lowpass,gyro_z_lowpass,angle_x,angle_y,angle_z,combined_angle_change,gravity_adjusted_angle,smoothed_angle_change,smoothed_gravity_angle,acc_x_dy,acc_y_dy,acc_z_dy,ODBA,VeDBA,smoothed_VeDBA_1s,smoothed_VeDBA_2s,smoothed_VeDBA_3s
LBP08_S04,LBP08,0,1,4,0,0,1716492724.0,2024-05-23 19:32:04+00:00,2024-05-24 04:32:04+09:00,2024,5,23,19,32,4,0,19.0,32.0,2.0,40.801849,141.598053,5.03,3.0,16.0,-0.075684,-0.784668,-0.130859,238.830566,-46.630859,26.184082,-544.0,28.0,594.0,0.0,0.0,1017.799988,21.129999,0.047567,-37.790871,3.895313,0.0,1.0,1.0,4.0,0.0,0.0,0.0,10.0,0.0,,,,,,,239.01031633507245,-46.169885826227286,26.778414060576193,9.560412653402897,-1.8467954330490914,1.0711365624230478,9.795890822698908,,20.09658799681232,,,,,,,,,
LBP08_S04,LBP08,1,2,4,1,1,1716492724.04,2024-05-23 19:32:04.040000+00:00,2024-05-24 04:32:04.040000+09:00,2024,5,23,19,32,4,40,,,,,,,,,0.267822,0.832764,0.609863,424.926758,-85.998535,-50.65918,,,,,,,,,,,0.0,1.0,1.0,4.0,0.0,0.0,0.0,10.0,0.0,,,,,,,178.52386031346333,-28.69430528834256,27.248394267250752,16.701367065941433,-2.994567644582794,2.161072333113078,17.10477508996368,,21.207241322385702,,,,,,,,,
LBP08_S04,LBP08,2,3,4,2,2,1716492724.08,2024-05-23 19:32:04.080000+00:00,2024-05-24 04:32:04.080000+09:00,2024,5,23,19,32,4,80,,,,,,,,,0.498291,-0.947998,1.760254,5.859375,-24.902344,103.149414,,,,,,,,,,,0.0,1.0,1.0,4.0,0.0,0.0,0.0,10.0,0.0,,,,,,,121.50951280977733,-12.696836077493295,27.31197166945651,21.561747578332525,-3.5024410876825254,3.2535511998913385,22.085326522710268,,21.963880274734493,,,,,,,,,
LBP08_S04,LBP08,3,4,4,3,3,1716492724.12,2024-05-23 19:32:04.120000+00:00,2024-05-24 04:32:04.120000+09:00,2024,5,23,19,32,4,120,,,,,,,,,-0.532471,-0.428223,1.812012,37.597656,54.382324,63.659668,,,,,,,,,,,0.0,1.0,1.0,4.0,0.0,0.0,0.0,10.0,0.0,,,,,,,71.70470662935777,0.5820673309327166,26.838726807989648,24.429935843506836,-3.479158394445217,4.327100272210925,25.052946038685082,,22.482098259823875,,,,,,,,,
LBP08_S04,LBP08,4,5,4,4,4,1716492724.16,2024-05-23 19:32:04.160000+00:00,2024-05-24 04:32:04.160000+09:00,2024,5,23,19,32,4,160,,,,,,,,,-0.301514,-0.653564,2.075684,57.250977,-87.82959,-12.756348,,,,,,,,,,,0.0,1.0,1.0,4.0,0.0,0.0,0.0,10.0,0.0,,,,,,,32.04373773849327,10.230782621335472,25.916676121310687,25.71168535304657,-3.069927089591798,5.363767317063353,26.444001510003663,,22.86184536464467,,,,,,,,,
LBP08_S04,LBP08,5,6,4,5,5,1716492724.2,2024-05-23 19:32:04.200000+00:00,2024-05-24 04:32:04.200000+09:00,2024,5,23,19,32,4,200,,,,,,,,,0.488037,-0.41333,1.655273,-56.518555,102.355957,29.35791,,,,,,,,,,,0.0,1.0,1.0,4.0,0.0,0.0,0.0,10.0,0.0,,,,,,,4.210184303388335,15.844718704216378,24.829572914380737,25.880092725182102,-2.436138341423143,6.356950233638582,26.76050795025261,,23.18125875824455,,,,,,,,,
LBP08_S04,LBP08,6,7,4,6,6,1716492724.24,2024-05-23 19:32:04.240000+00:00,2024-05-24 04:32:04.240000+09:00,2024,5,23,19,32,4,240,,,,,,,,,-0.916748,0.663574,-0.260498,-13.61084,139.404297,20.812988,,,,,,,,,,,0.0,1.0,1.0,4.0,0.0,0.0,0.0,10.0,0.0,,,,,,,-11.614509384764874,17.635940126073358,23.94105447024197,25.415512349791506,-1.7307007363802085,7.314592412448261,26.50371398882725,,24.863438228877058,,,,,,,,,
LBP08_S04,LBP08,7,8,4,7,7,1716492724.28,2024-05-23 19:32:04.280000+00:00,2024-05-24 04:32:04.280000+09:00,2024,5,23,19,32,4,280,,,,,,,,,0.007812,-0.495117,0.414307,-68.29834,-82.458496,13.85498,,,,,,,,,,,0.0,1.0,1.0,4.0,0.0,0.0,0.0,10.0,0.0,,,,,,,-16.724086318915305,16.390950074275032,23.540481748993162,24.746548897034895,-1.075062733409207,8.256211682407987,26.109624155449545,,25.902547609552094,,,,,,,,,
LBP08_S04,LBP08,8,9,4,8,8,1716492724.32,2024-05-23 19:32:04.320000+00:00,2024-05-24 04:32:04.320000+09:00,2024,5,23,19,32,4,320,,,,,,,,,0.523438,0.19043,0.900635,145.568848,-45.959473,-31.188965,,,,,,,,,,,0.0,1.0,1.0,4.0,0.0,0.0,0.0,10.0,0.0,,,,,,,-13.596725248104068,13.245344607546789,23.72209117499489,24.202679887110733,-0.5452489491073356,9.205095329407783,25.89982220321101,,26.543379998133254,,,,,,,,,
LBP08_S04,LBP08,9,10,4,9,9,1716492724.36,2024-05-23 19:32:04.360000+00:00,2024-05-24 04:32:04.360000+09:00,2024,5,23,19,32,4,360,,,,,,,,,0.558838,-0.71875,1.651611,-69.335938,36.071777,79.589844,,,,,,,,,,,0.0,1.0,1.0,4.0,0.0,0.0,0.0,10.0,0.0,,,,,,,-5.446071903539654,9.348312240093561,24.34793671684671,23.984837010969148,-0.17131645950359314,10.17901279808165,26.055979300643497,,26.971382852329235,,,,,,,,,
LBP08_S04,LBP08,10,11,4,10,10,1716492724.4,2024-05-23 19:32:04.400000+00:00,2024-05-24 04:32:04.400000+09:00,2024,5,23,19,32,4,400,,,,,,,,,-0.324463,-0.290039,1.919434,46.875,-24.963379,38.818359,,,,,,,,,,,0.0,1.0,1.0,4.0,0.0,0.0,0.0,10.0,0.0,,,,,,,4.24025664756126,5.566085315574666,25.101620726555204,24.154447276871597,0.051326953119393504,11.18307762714386,26.617685529023966,,27.29625002708883,,,,,,,,,
LBP08_S04,LBP08,11,12,4,11,11,1716492724.44,2024-05-23 19:32:04.440000+00:00,2024-05-24 04:32:04.440000+09:00,2024,5,23,19,32,4,440,,,,,,,,,0.258789,-0.634766,2.141846,-4.150391,-72.998047,16.052246,,,,,,,,,,,0.0,1.0,1.0,4.0,0.0,0.0,0.0,10.0,0.0,,,,,,,12.070449793313134,2.3489792924481825,25.593972921119054,24.63726526860412,0.1452861248173208,12.206836543988622,27.495868896714054,,27.54680676372227,,,,,,,,,
LBP08_S04,LBP08,12,13,4,12,12,1716492724.48,2024-05-23 19:32:04.480000+00:00,2024-05-24 04:32:04.480000+09:00,2024,5,23,19,32,4,480,,,,,,,,,0.095947,-0.2146,0.880615,-24.291992,201.35498,52.55127,,,,,,,,,,,0.0,1.0,1.0,4.0,0.0,0.0,0.0,10.0,0.0,,,,,,,15.020226025726798,-0.21601296739630585,25.46204634493549,25.238074309633195,0.1366456061214686,13.225318397786042,28.493650408521848,,27.68070185773184,,,,,,,,,
LBP08_S04,LBP08,13,14,4,13,13,1716492724.52,2024-05-23 19:32:04.520000+00:00,2024-05-24 04:32:04.520000+09:00,2024,5,23,19,32,4,520,,,,,,,,,-0.291748,0.001953,-0.168213,-69.030762,-27.954102,-15.869141,,,,,,,,,,,0.0,1.0,1.0,4.0,0.0,0.0,0.0,10.0,0.0,,,,,,,10.684388243599443,-2.246802676197596,24.42504106623863,25.66544983937717,0.04677349907356475,14.202320040435588,29.332974580644898,,27.610893844422105,,,,,,,,,
LBP08_S04,LBP08,14,15,4,14,14,1716492724.56,2024-05-23 19:32:04.560000+00:00,2024-05-24 04:32:04.560000+09:00,2024,5,23,19,32,4,560,,,,,,,,,0.339111,-0.347412,0.640869,-18.188477,-106.872559,6.469727,,,,,,,,,,,0.0,1.0,1.0,4.0,0.0,0.0,0.0,10.0,0.0,,,,,,,-2.399054602017505,-3.916660508897487,22.304614531230822,25.56948765529647,-0.10989292128233473,15.09450462168482,29.69267325759961,,27.248736605899428,,,,,,,,,
LBP08_S04,LBP08,15,16,4,15,15,1716492724.6,2024-05-23 19:32:04.600000+00:00,2024-05-24 04:32:04.600000+09:00,2024,5,23,19,32,4,600,,,,,,,,,0.433838,0.087646,1.060059,84.106445,-13.671875,1.403809,,,,,,,,,,,0.0,1.0,1.0,4.0,0.0,0.0,0.0,10.0,0.0,,,,,,,-24.33060417121878,-5.37294107011171,19.044281582266667,24.59626348844772,-0.32481056408680314,15.856275884975487,29.266075316587017,,26.55976667547851,,,,,,,,,
LBP08_S04,LBP08,16,17,4,16,16,1716492724.64,2024-05-23 19:32:04.640000+00:00,2024-05-24 04:32:04.640000+09:00,2024,5,23,19,32,4,640,,,,,,,,,-0.079834,-0.176025,1.583008,-76.35498,39.245605,83.129883,,,,,,,,,,,0.0,1.0,1.0,4.0,0.0,0.0,0.0,10.0,0.0,,,,,,,-53.44517633111284,-6.691916101680945,14.750526954677012,22.458456435203203,-0.592487208154041,16.446296963162567,27.84266492892296,,25.612341720852772,,,,,,,,,
LBP08_S04,LBP08,17,18,4,17,17,1716492724.68,2024-05-23 19:32:04.680000+00:00,2024-05-24 04:32:04.680000+09:00,2024,5,23,19,32,4,680,,,,,,,,,-0.275635,-0.575684,1.917725,5.004883,-75.439453,10.925293,,,,,,,,,,,0.0,1.0,1.0,4.0,0.0,0.0,0.0,10.0,0.0,,,,,,,-86.14194968056314,-7.80992009762022,9.73597855741867,19.01277844798068,-0.9048840120588498,16.835736105459315,25.411544022352217,,24.558848742821475,,,,,,,,,
LBP08_S04,LBP08,18,19,4,18,18,1716492724.72,2024-05-23 19:32:04.720000+00:00,2024-05-24 04:32:04.720000+09:00,2024,5,23,19,32,4,720,,,,,,,,,0.217529,0.173828,1.39209,-19.958496,45.898438,8.911133,,,,,,,,,,,0.0,1.0,1.0,4.0,0.0,0.0,0.0,10.0,0.0,,,,,,,-117.17735664751098,-8.433359579489988,4.5123456838270695,14.32568418208024,-1.2422183952384493,17.016229932812397,22.278249817984207,,23.527254874325518,,,,,,,,,
LBP08_S04,LBP08,19,20,4,19,19,1716492724.76,2024-05-23 19:32:04.760000+00:00,2024-05-24 04:32:04.760000+09:00,2024,5,23,19,32,4,760,,,,,,,,,-0.615234,0.0979,-0.068115,-136.230469,173.156738,-35.095215,,,,,,,,,,,0.0,1.0,1.0,4.0,0.0,0.0,0.0,10.0,0.0,,,,,,,-140.5334106915915,-8.010112568799505,-0.3036806129043504,8.70434775441658,-1.5626228979904295,17.004082708296224,19.16627999643435,,22.55494875350247,,,,,,,,,
LBP08_S04,LBP08,20,21,4,20,20,1716492724.8,2024-05-23 19:32:04.800000+00:00,2024-05-24 04:32:04.800000+09:00,2024,5,23,19,32,4,800,,,,,,,,,-0.16748,-0.103271,-0.159668,-250.183105,-73.669434,7.8125,,,,,,,,,,,0.0,1.0,1.0,4.0,0.0,0.0,0.0,10.0,0.0,,,,,,,-150.76370633207773,-5.864117393068871,-4.152018506228509,2.6737995011334696,-1.7971875937131845,16.838001968047084,17.143435982766572,,21.62129423431399,,,,,,,,,
LBP08_S04,LBP08,21,22,4,21,21,1716492724.84,2024-05-23 19:32:04.840000+00:00,2024-05-24 04:32:04.840000+09:00,2024,5,23,19,32,4,840,,,,,,,,,0.116211,-0.573242,0.424561,-248.413086,-171.325684,-56.091309,,,,,,,,,,,0.0,1.0,1.0,4.0,0.0,0.0,0.0,10.0,0.0,,,,,,,-144.48158128444194,-1.516384308433981,-6.6901895420496285,-3.1054637502442084,-1.8578429660505438,16.5703943863651,16.96093911640108,,20.70476767060073,,,,,,,,,
LBP08_S04,LBP08,22,23,4,22,22,1716492724.88,2024-05-23 19:32:04.880000+00:00,2024-05-24 04:32:04.880000+09:00,2024,5,23,19,32,4,880,,,,,,,,,0.083496,-0.642822,0.847656,-298.64502,-5.126953,30.456543,,,,,,,,,,,0.0,1.0,1.0,4.0,0.0,0.0,0.0,10.0,0.0,,,,,,,-121.4930962523575,4.935645183147233,-7.8825681742321985,-7.965187600338509,-1.6604171587246543,16.25509165939581,18.177711723562258,,19.82064923551193,,,,,,,,,
LBP08_S04,LBP08,23,24,4,23,23,1716492724.92,2024-05-23 19:32:04.920000+00:00,2024-05-24 04:32:04.920000+09:00,2024,5,23,19,32,4,920,,,,,,,,,0.13916,-1.208252,1.490967,-81.481934,20.385742,-10.131836,,,,,,,,,,,0.0,1.0,1.0,4.0,0.0,0.0,0.0,10.0,0.0,,,,,,,-85.10899994642648,12.613580790387516,-7.9851751671646625,-11.369547598195568,-1.1558739271091536,15.935684652709222,19.60991337241441,,19.028812039030033,,,,,,,,,
LBP08_S04,LBP08,24,25,4,24,24,1716492724.96,2024-05-23 19:32:04.960000+00:00,2024-05-24 04:32:04.960000+09:00,2024,5,23,19,32,4,960,,,,,,,,,0.182373,-0.77124,1.892578,62.988281,25.085449,-19.470215,,,,,,,,,,,0.0,1.0,1.0,4.0,0.0,0.0,0.0,10.0,0.0,,,,,,,-41.43307871517019,19.999294622776745,-7.443013141350083,-13.026870746802377,-0.3559021421980838,15.637964127055218,20.35612806571482,,18.40771220286649,,,,,,,,,
LBP08_S04,LBP08,25,26,4,25,25,1716492725.0,2024-05-23 19:32:05+00:00,2024-05-24 04:32:05+09:00,2024,5,23,19,32,5,0,19.0,32.0,3.0,40.801956,141.598083,4.868,3.0,16.0,0.181641,-0.30127,1.939453,41.564941,68.603516,9.338379,-541.0,42.0,588.0,0.0,0.0,1018.0,21.17,0.049549,-39.448975,3.895313,0.0,1.0,1.0,4.0,0.0,0.0,0.0,5.0,0.0,,,,,,,2.1829012174255196,25.394317459459575,-6.749411582384874,-12.939554698105356,0.6598705561802992,15.367987663759823,20.10080967945441,,17.99610550387888,,,,,,,,,
LBP08_S04,LBP08,26,27,4,26,26,1716492725.04,2024-05-23 19:32:05.040000+00:00,2024-05-24 04:32:05.040000+09:00,2024,5,23,19,32,5,40,,,,,,,,,-0.103271,-0.611084,0.878662,118.896484,172.424316,52.79541,,,,,,,,,,,0.0,1.0,1.0,4.0,0.0,0.0,0.0,5.0,0.0,,,,,,,38.99973689584491,27.48968557276431,-6.3223411801006,-11.379565222271559,1.7594579790908718,15.1150940165558,19.00148057803496,,17.729754883416486,,,,,,,,,
LBP08_S04,LBP08,27,28,4,27,27,1716492725.08,2024-05-23 19:32:05.080000+00:00,2024-05-24 04:32:05.080000+09:00,2024,5,23,19,32,5,80,,,,,,,,,-0.192139,0.892334,-0.083984,310.791016,-42.297363,-65.856934,,,,,,,,,,,0.0,1.0,1.0,4.0,0.0,0.0,0.0,5.0,0.0,,,,,,,64.44441190232158,25.79035385547056,-6.4363222472705734,-8.801788746178696,2.791072133309694,14.857641126664976,17.493172057533258,,17.45147044535004,,,,,,,,,
LBP08_S04,LBP08,28,29,4,28,28,1716492725.12,2024-05-23 19:32:05.120000+00:00,2024-05-24 04:32:05.120000+09:00,2024,5,23,19,32,5,120,,,,,,,,,0.269043,0.032959,0.967041,-115.41748,-71.350098,-30.761719,,,,,,,,,,,0.0,1.0,1.0,4.0,0.0,0.0,0.0,5.0,0.0,,,,,,,76.8825173537378,20.731298465606642,-7.21482993460151,-5.726488052029184,3.6203240719339598,14.569047929280917,16.06725145634878,,17.027211702939706,,,,,,,,,
LBP08_S04,LBP08,29,30,4,29,29,1716492725.16,2024-05-23 19:32:05.160000+00:00,2024-05-24 04:32:05.160000+09:00,2024,5,23,19,32,5,160,,,,,,,,,0.303223,-0.520264,1.61499,70.19043,79.833984,-24.658203,,,,,,,,,,,0.0,1.0,1.0,4.0,0.0,0.0,0.0,5.0,0.0,,,,,,,77.45648007095654,13.488949290650634,-8.648581843277785,-2.6282288491909225,4.1598820435599855,14.223104655549806,15.05021300655824,,16.429359806361752,,,,,,,,,
LBP08_S04,LBP08,30,31,4,30,30,1716492725.2,2024-05-23 19:32:05.200000+00:00,2024-05-24 04:32:05.200000+09:00,2024,5,23,19,32,5,200,,,,,,,,,-0.346436,-0.466797,1.783203,19.775391,-18.371582,18.493652,,,,,,,,,,,0.0,1.0,1.0,4.0,0.0,0.0,0.0,5.0,0.0,,,,,,,69.19314830233554,5.621447238660875,-10.593049104546262,0.13949708290249951,4.38473993310642,13.799382691367954,14.479929778142637,,15.718809229745375,,,,,,,,,
LBP08_S04,LBP08,31,32,4,31,31,1716492725.24,2024-05-23 19:32:05.240000+00:00,2024-05-24 04:32:05.240000+09:00,2024,5,23,19,32,5,240,,,,,,,,,0.025879,-0.294189,1.9021,-29.47998,-83.496094,11.474609,,,,,,,,,,,0.0,1.0,1.0,4.0,0.0,0.0,0.0,5.0,0.0,,,,,,,55.81484801123622,-1.3092210394024635,-12.736433981870295,2.3720910033519487,4.332371091530322,13.289925332093143,14.1780947357366,,14.993054132925831,,,,,,,,,
LBP08_S04,LBP08,32,33,4,32,32,1716492725.28,2024-05-23 19:32:05.280000+00:00,2024-05-24 04:32:05.280000+09:00,2024,5,23,19,32,5,280,,,,,,,,,-0.028809,-0.235596,0.768066,39.0625,149.597168,45.288086,,,,,,,,,,,0.0,1.0,1.0,4.0,0.0,0.0,0.0,5.0,0.0,,,,,,,40.697776261332734,-6.042637903037736,-14.586631109064031,4.000002053805258,4.090665575408813,12.706460087730582,13.935124299458948,,14.341762134581302,,,,,,,,,
LBP08_S04,LBP08,33,34,4,33,33,1716492725.32,2024-05-23 19:32:05.320000+00:00,2024-05-24 04:32:05.320000+09:00,2024,5,23,19,32,5,320,,,,,,,,,-0.188477,0.047852,-0.112793,45.593262,-34.423828,-62.316895,,,,,,,,,,,0.0,1.0,1.0,4.0,0.0,0.0,0.0,5.0,0.0,,,,,,,26.254435212622955,-7.831142665259612,-15.542216973726493,5.050179462310177,3.777419868798428,12.084771408781522,13.631394406634854,,13.819212214093216,-1.4648445937234456,,,,,,,,
LBP08_S04,LBP08,34,35,4,34,34,1716492725.36,2024-05-23 19:32:05.360000+00:00,2024-05-24 04:32:05.360000+09:00,2024,5,23,19,32,5,360,,,,,,,,,0.355957,-0.128418,0.602295,78.24707,-111.572266,-68.359375,,,,,,,,,,,0.0,1.0,1.0,4.0,0.0,0.0,0.0,5.0,0.0,,,,,,,13.793883415925274,-6.563433067399201,-15.062106114911588,5.6019347989471875,3.5148825461024598,11.48228716418506,13.250622299551074,,13.436570838490145,-1.4476773014437252,,,,,,,,
LBP08_S04,LBP08,35,36,4,35,35,1716492725.4,2024-05-23 19:32:05.400000+00:00,2024-05-24 04:32:05.400000+09:00,2024,5,23,19,32,5,400,,,,,,,,,0.386719,-0.231689,1.185059,-43.518066,-24.902344,-20.141602,,,,,,,,,,,0.0,1.0,1.0,4.0,0.0,0.0,0.0,5.0,0.0,,,,,,,3.737641180819136,-2.7871003855174346,-12.868483176384638,5.751440446179953,3.4033985306817622,10.967547837129674,12.843258711258963,,13.174093002625947,-1.4411258593153426,,,,,,,,
LBP08_S04,LBP08,36,37,4,36,36,1716492725.44,2024-05-23 19:32:05.440000+00:00,2024-05-24 04:32:05.440000+09:00,2024,5,23,19,32,5,440,,,,,,,,,-0.030273,-0.311523,1.561523,35.27832,86.547852,15.869141,,,,,,,,,,,0.0,1.0,1.0,4.0,0.0,0.0,0.0,5.0,0.0,,,,,,,-4.006012915692107,2.4124109583906206,-9.078619405348629,5.5911999295522685,3.499894969017387,10.604403060915729,12.48856059458965,,13.00459644165598,-1.448136817839673,,,,,,,,
LBP08_S04,LBP08,37,38,4,37,37,1716492725.48,2024-05-23 19:32:05.480000+00:00,2024-05-24 04:32:05.480000+09:00,2024,5,23,19,32,5,480,,,,,,,,,-0.272949,-0.454346,1.761963,23.620605,-47.058105,-6.04248,,,,,,,,,,,0.0,1.0,1.0,4.0,0.0,0.0,0.0,5.0,0.0,0.025976546666666666,-0.25168944,1.00671552,3.6035156266666672,1.2923176533333345,1.06689448,-9.685745367465136,7.691468589534779,-4.1992817371847,5.203770114853663,3.807553712598778,10.43643179142834,12.267672852652414,-1.4648445937234456,12.910714716165208,-1.4496340335445177,-0.29892554666666665,-0.20265656000000004,0.75524748,1.2568295866666666,0.8371528652566086,0.8371528652566086,0.8371528652566086,0.8371528652566086
LBP08_S04,LBP08,38,39,4,38,38,1716492725.52,2024-05-23 19:32:05.520000+00:00,2024-05-24 04:32:05.520000+09:00,2024,5,23,19,32,5,520,,,,,,,,,0.213379,-0.291504,1.401855,-26.794434,30.944824,12.634277,,,,,,,,,,,0.0,1.0,1.0,4.0,0.0,0.0,0.0,5.0,0.0,0.0331608,-0.2412044133333333,1.0176758000000001,1.1523437600000008,0.5183918666666676,-0.004882866666666624,-13.478704795584536,11.817261383412715,1.003933446078099,4.664621923030282,4.280244167935287,10.476589129271465,12.240837700318055,-1.4305100091640048,12.886290109876118,-1.4430513981209607,0.18021820000000002,-0.050299586666666674,0.38417919999999994,0.6146969866666666,0.4273199103045837,0.6322363877805961,0.6322363877805961,0.6322363877805961
LBP08_S04,LBP08,39,40,4,39,39,1716492725.56,2024-05-23 19:32:05.560000+00:00,2024-05-24 04:32:05.560000+09:00,2024,5,23,19,32,5,560,,,,,,,,,-0.561768,0.101807,0.01416,-20.874023,176.879883,24.963379,,,,,,,,,,,0.0,1.0,1.0,4.0,0.0,0.0,0.0,5.0,0.0,0.035719400000000005,-0.25594074666666666,1.0259310133333333,-4.111328119999999,1.728515560000001,0.4492187066666668,-15.428613707216854,13.990469478951526,5.69632318419268,4.047477374741607,4.839862947093348,10.704442056639172,12.425434647916257,-1.4280229750585773,12.928441058555801,-1.4472244842241229,-0.5974874,0.35774774666666664,-1.0117710133333333,1.96700616,1.228273270418842,0.8309153486600115,0.8309153486600115,0.8309153486600115
LBP08_S04,LBP08,40,41,4,40,40,1716492725.6,2024-05-23 19:32:05.600000+00:00,2024-05-24 04:32:05.600000+09:00,2024,5,23,19,32,5,600,,,,,,,,,-0.04126,-0.037109,0.077393,-45.715332,-64.575195,-12.817383,,,,,,,,,,,0.0,1.0,1.0,4.0,0.0,0.0,0.0,5.0,0.0,0.024300133333333335,-0.24495767999999998,1.0227995066666664,-4.155273426666666,3.0566405600000013,-0.5843099333333331,-15.52340989902149,13.992481307844978,9.154704418083977,3.4265409787807477,5.399562199407147,11.07063023336253,12.784964168442976,-1.4691696934126643,13.030297566662787,-1.4455128439589986,-0.06556013333333333,0.20784867999999998,-0.9454065066666664,1.2188153199999996,0.9702023849218762,0.8657371077254776,0.8657371077254776,0.8657371077254776
LBP08_S04,LBP08,41,42,4,41,41,1716492725.64,2024-05-23 19:32:05.640000+00:00,2024-05-24 04:32:05.640000+09:00,2024,5,23,19,32,5,640,,,,,,,,,0.406982,-0.360352,0.731689,-20.385742,-96.374512,-5.737305,,,,,,,,,,,0.0,1.0,1.0,4.0,0.0,0.0,0.0,5.0,0.0,0.027630213333333334,-0.24552408,1.0236295866666665,-4.33593748,1.2540689466666677,-1.6243489999999998,-13.836383385008963,12.109037208467926,10.900814539702493,2.873085643380389,5.883923687745864,11.50666281495063,13.239277480828889,-1.4556228963638969,13.178325876110666,-1.4414835166107793,0.3793517866666667,-0.11482792,-0.29194058666666645,0.7861202933333331,0.49226266911273703,0.7910422200029295,0.7910422200029295,0.7910422200029295
LBP08_S04,LBP08,42,43,4,42,42,1716492725.68,2024-05-23 19:32:05.680000+00:00,2024-05-24 04:32:05.680000+09:00,2024,5,23,19,32,5,680,,,,,,,,,0.447754,-0.250977,1.176514,7.141113,2.13623,14.953613,,,,,,,,,,,0.0,1.0,1.0,4.0,0.0,0.0,0.0,5.0,0.0,0.03838217333333333,-0.2433724,1.0160937733333333,-5.073242173333333,3.188476506666668,-0.98470056,-10.644659516856223,8.902946271886204,10.780194983528377,2.44729926270614,6.240041538621313,11.937870614291764,13.690878236568036,-1.410138221003176,13.353245569118792,-1.4393124494487155,0.40937182666666666,-0.007604600000000017,0.16042022666666678,0.5773966533333335,0.43974739514106065,0.7324930825259514,0.7324930825259514,0.7324930825259514
LBP08_S04,LBP08,43,44,4,43,43,1716492725.72,2024-05-23 19:32:05.720000+00:00,2024-05-24 04:32:05.720000+09:00,2024,5,23,19,32,5,720,,,,,,,,,0.034912,-0.029785,1.498535,-1.220703,83.80127,53.588867,,,,,,,,,,,0.0,1.0,1.0,4.0,0.0,0.0,0.0,5.0,0.0,0.02298504,-0.23913086666666666,0.9905989866666666,-3.5978189866666663,3.642578066666668,-1.155599,-6.470115840475068,4.98744802604859,8.989133087329588,2.1884946290871374,6.439539459663256,12.297435937784948,14.052903893431711,-1.472263000843096,13.532376589693845,-1.4403652587941589,0.011926959999999997,0.20934586666666666,0.5079360133333334,0.7292088400000001,0.5495151844182466,0.7063533827962792,0.7063533827962792,0.7063533827962792
LBP08_S04,LBP08,44,45,4,44,44,1716492725.76,2024-05-23 19:32:05.760000+00:00,2024-05-24 04:32:05.760000+09:00,2024,5,23,19,32,5,760,,,,,,,,,-0.276611,-0.655273,1.746338,-35.705566,-62.805176,-5.432129,,,,,,,,,,,0.0,1.0,1.0,4.0,0.0,0.0,0.0,5.0,0.0,0.03307618666666667,-0.24654297333333333,0.9959017200000001,-2.954101533333333,0.9684244133333345,-2.2322591466666664,-2.032128370806022,0.9160184681558902,6.041041186289754,2.1072094942548967,6.476180198389492,12.539077585236539,14.269187380620927,-1.4335313621031274,13.692307994318302,-1.444231261221144,-0.30968718666666667,-0.4087300266666667,0.7504362799999998,1.468853493333333,0.9089119861816584,0.7316732082194517,0.7316732082194517,0.7316732082194517
LBP08_S04,LBP08,45,46,4,45,45,1716492725.8,2024-05-23 19:32:05.800000+00:00,2024-05-24 04:32:05.800000+09:00,2024,5,23,19,32,5,800,,,,,,,,,0.171387,-0.356934,1.690918,13.85498,-5.981445,-2.502441,,,,,,,,,,,0.0,1.0,1.0,4.0,0.0,0.0,0.0,5.0,0.0,0.0386426,-0.24385092,1.0025228133333333,-1.6276041333333333,1.1653645200000013,-2.44222008,1.8703280063286616,-2.809273128638716,2.656496104958293,2.182022614508043,6.363809273243943,12.645337429434871,14.323541805737735,-1.409248897825026,13.811843484621544,-1.4481777719551718,0.1327444,-0.11308307999999997,0.6883951866666667,0.9342226666666666,0.7101385722093126,0.7292804708849918,0.7292804708849918,0.7292804708849918
LBP08_S04,LBP08,46,47,4,46,46,1716492725.84,2024-05-23 19:32:05.840000+00:00,2024-05-24 04:32:05.840000+09:00,2024,5,23,19,32,5,840,,,,,,,,,-0.227295,-0.248047,0.339355,3.90625,166.19873,16.357422,,,,,,,,,,,0.0,1.0,1.0,4.0,0.0,0.0,0.0,5.0,0.0,0.03669924,-0.24821941333333336,1.0060709866666668,-4.1276041333333335,2.2599283200000015,-1.634114613333333,4.518790292577264,-5.696585603717538,-0.4187644895797526,2.3627742262111338,6.135945849095242,12.628586849851681,14.237757524670926,-1.4197728449901417,13.874931131951067,-1.4518920368351373,-0.26399424,0.00017241333333337105,-0.6667159866666668,0.9308826400000001,0.7170796297179568,0.7280603867682883,0.7280603867682883,0.7280603867682883
LBP08_S04,LBP08,47,48,4,47,47,1716492725.88,2024-05-23 19:32:05.880000+00:00,2024-05-24 04:32:05.880000+09:00,2024,5,23,19,32,5,880,,,,,,,,,-0.052734,0.090576,-0.116943,36.92627,-56.396484,-35.095215,,,,,,,,,,,0.0,1.0,1.0,4.0,0.0,0.0,0.0,5.0,0.0,0.022666040000000002,-0.24358400000000002,1.0064778933333334,-4.365234333333333,2.2021483733333347,-1.9344075866666666,5.438042486844967,-7.289185918000949,-2.6249092117864965,2.5802959256849323,5.844378412375204,12.523590481380221,14.058983058402939,-1.4753726871778792,13.872523665833313,-1.4556890636004638,-0.07540004,0.33416,-1.1234208933333334,1.5329809333333335,1.174488218421056,0.768644735100358,0.768644735100358,0.768644735100358
LBP08_S04,LBP08,48,49,4,48,48,1716492725.92,2024-05-23 19:32:05.920000+00:00,2024-05-24 04:32:05.920000+09:00,2024,5,23,19,32,5,920,,,,,,,,,0.35498,-0.085449,0.454346,24.108887,-132.93457,-38.513184,,,,,,,,,,,0.0,1.0,1.0,4.0,0.0,0.0,0.0,5.0,0.0,0.024410826666666666,-0.24640952000000002,1.0037077066666669,-5.2986653200000005,1.2801106133333346,-2.5691732000000003,4.508246649013918,-7.299850621134482,-3.756029211547073,2.760625791645489,5.552384387529825,12.37334931291834,13.840151746562608,-1.4691700334338587,13.802556070968905,-1.4633149716753502,0.33056917333333335,0.16096052000000002,-0.5493617066666668,1.0408914000000002,0.6610465582004543,0.7596782203586994,0.7596782203586994,0.7596782203586994
LBP08_S04,LBP08,49,50,4,49,49,1716492725.96,2024-05-23 19:32:05.960000+00:00,2024-05-24 04:32:05.960000+09:00,2024,5,23,19,32,5,960,,,,,,,,,0.496094,-0.189209,0.964355,-17.822266,-35.827637,-16.296387,,,,,,,,,,,0.0,1.0,1.0,4.0,0.0,0.0,0.0,5.0,0.0,0.024261093333333334,-0.24075847999999997,0.9896517066666667,-4.906412706666667,3.6800129600000013,-2.281087266666667,1.9774025241941862,-5.794942781425547,-4.012953780536218,2.839721892613256,5.320586676272804,12.21283116169689,13.6207895509487,-1.4674880823988532,13.668304600502356,-1.4648074113925331,0.47183290666666666,0.05154947999999998,-0.025296706666666724,0.5486790933333334,0.47531417406802123,0.7378040629517242,0.7378040629517242,0.7378040629517242
LBP08_S04,LBP08,50,51,4,50,50,1716492726.0,2024-05-23 19:32:06+00:00,2024-05-24 04:32:06+09:00,2024,5,23,19,32,6,0,19.0,32.0,4.0,40.802059,141.598099,5.3,3.0,15.0,0.09082,-0.03418,1.434082,21.972656,72.143555,33.02002,-548.0,28.0,598.0,0.0,0.0,1017.799988,21.24,0.047567,-37.790871,3.895313,0.0,1.0,1.0,4.0,0.0,0.0,0.0,5.0,0.0,0.0147982,-0.2357487066666667,0.97472332,-4.4750976,1.5364582800000013,-3.1193034133333333,-1.6386197124202981,-3.2878213152859153,-3.905125031943928,2.7741771041164442,5.189073823661367,12.056626160419134,13.415840641738203,-1.5063123422123192,13.476104588270465,-1.4722837160836544,0.0760218,0.2015687066666667,0.45935868000000013,0.7369491866666669,0.5073654052789323,0.721344158832239,0.721344158832239,0.721344158832239
LBP08_S04,LBP08,51,52,4,51,51,1716492726.04,2024-05-23 19:32:06.040000+00:00,2024-05-24 04:32:06.040000+09:00,2024,5,23,19,32,6,40,,,,,,,,,-0.314697,-0.592285,1.65332,-89.599609,-53.771973,21.240234,,,,,,,,,,,0.0,1.0,1.0,4.0,0.0,0.0,0.0,5.0,0.0,0.017679053333333333,-0.2350000133333333,0.9784147333333332,-3.4147134800000005,0.6860351066666681,-3.2771810133333332,-5.726652912234501,-0.6325415213470919,-4.031797820583802,2.5451109876270643,5.163772162807484,11.895354247595781,13.215202819651331,-1.4935931640171625,13.233299032990217,-1.4811370441083926,-0.3323760533333333,-0.35728498666666664,0.6749052666666667,1.3645663066666667,0.8328406339157856,0.7287772571711422,0.7287772571711422,0.7287772571711422
LBP08_S04,LBP08,52,53,4,52,52,1716492726.08,2024-05-23 19:32:06.080000+00:00,2024-05-24 04:32:06.080000+09:00,2024,5,23,19,32,6,80,,,,,,,,,0.114746,-0.089844,1.581787,0.549316,14.831543,-8.239746,,,,,,,,,,,0.0,1.0,1.0,4.0,0.0,0.0,0.0,5.0,0.0,0.018945333333333335,-0.22998048000000001,0.9800358266666666,-3.19742832,1.013997346666668,-3.703613306666666,-9.736456055978662,1.262727404400072,-4.834961687544069,2.155652745387918,5.214281258983487,11.70195578009402,12.99120228792396,-1.486397301752038,12.946771587072607,-1.489551372418446,0.09580066666666667,0.14013648,0.6017511733333335,0.8376883200000002,0.6252363356112725,0.7223059495736502,0.7223059495736502,0.7223059495736502
LBP08_S04,LBP08,53,54,4,53,53,1716492726.12,2024-05-23 19:32:06.120000+00:00,2024-05-24 04:32:06.120000+09:00,2024,5,23,19,32,6,120,,,,,,,,,-0.245117,-0.082764,0.336426,-8.422852,166.015625,32.104492,,,,,,,,,,,0.0,1.0,1.0,4.0,0.0,0.0,0.0,5.0,0.0,0.019501973333333332,-0.23948568,0.9816959733333335,-4.5100910800000005,1.3330077600000014,-3.469238306666667,-13.25602716121464,1.7673290946017222,-6.431484577266021,1.6254116589393324,5.284974422767556,11.444696397003378,12.710389188766221,-1.487187398014924,12.622064326738439,-1.4917831654723406,-0.26461897333333334,0.15672168,-0.6452699733333335,1.0666106266666668,0.7148134193729233,0.7218652125030193,0.7218652125030193,0.7218652125030193
LBP08_S04,LBP08,54,55,4,54,54,1716492726.16,2024-05-23 19:32:06.160000+00:00,2024-05-24 04:32:06.160000+09:00,2024,5,23,19,32,6,160,,,,,,,,,0.004639,0.189209,0.002686,35.705566,-52.490234,-38.452148,,,,,,,,,,,0.0,1.0,1.0,4.0,0.0,0.0,0.0,5.0,0.0,0.014694026666666667,-0.24178712,0.9812207066666665,-3.3821614,1.5079752133333348,-4.078776066666666,-15.983624707330538,0.7416840648302326,-8.588933451595045,0.9860666706461109,5.314641785360766,11.101139058939577,12.347187258302014,-1.5082944090143429,12.263106643338654,-1.494129273896344,-0.010055026666666668,0.43099612,-0.9785347066666665,1.4195858533333332,1.0692936599304894,0.7411667929156565,0.7411667929156565,0.7411667929156565
LBP08_S04,LBP08,55,56,4,55,55,1716492726.2,2024-05-23 19:32:06.200000+00:00,2024-05-24 04:32:06.200000+09:00,2024,5,23,19,32,6,200,,,,,,,,,0.386719,-0.204834,0.626221,-21.66748,-107.910156,-39.672852,,,,,,,,,,,0.0,1.0,1.0,4.0,0.0,0.0,0.0,5.0,0.0,0.016923853333333336,-0.23809245333333337,0.9784700533333334,-2.7750650533333334,1.9067382266666684,-4.133300800000001,-17.649777411765037,-1.4654228174345325,-10.837698834308172,0.28007557417550943,5.256024872663384,10.66763110556725,11.895486252935262,-1.4977821780724065,11.872728969031977,-1.4941287119508577,0.36979514666666663,0.03325845333333338,-0.35224905333333334,0.7553026533333334,0.5117948522509547,0.7290945855122511,0.7290945855122511,0.7290945855122511
LBP08_S04,LBP08,56,57,4,56,56,1716492726.24,2024-05-23 19:32:06.240000+00:00,2024-05-24 04:32:06.240000+09:00,2024,5,23,19,32,6,240,,,,,,,,,0.442627,-0.197021,1.146973,1.77002,-3.417969,-29.724121,,,,,,,,,,,0.0,1.0,1.0,4.0,0.0,0.0,0.0,5.0,0.0,0.015963573333333335,-0.24580729333333337,0.9717057333333332,-2.414550733333334,2.726236920000001,-3.9257812666666663,-17.97559612734711,-4.209826742304119,-12.652520028466878,-0.43894827091837496,5.087631802971219,10.161530304428574,11.37248306549483,-1.5039161280906748,11.454039713211387,-1.487690536660168,0.4266634266666667,0.04878629333333337,0.1752672666666668,0.6507169866666669,0.4638322938702658,0.7158314709301519,0.7158314709301519,0.7158314709301519
LBP08_S04,LBP08,57,58,4,57,57,1716492726.28,2024-05-23 19:32:06.280000+00:00,2024-05-24 04:32:06.280000+09:00,2024,5,23,19,32,6,280,,,,,,,,,-0.172607,-0.137939,1.624512,-18.981934,69.519043,22.338867,,,,,,,,,,,0.0,1.0,1.0,4.0,0.0,0.0,0.0,5.0,0.0,0.0173926,-0.24489908,0.9699967466666667,0.24576827999999967,0.9928384800000015,-3.642578133333333,-16.722107396578323,-6.806034969872577,-13.619183456322522,-1.1078325667815079,4.815390404176316,9.616762966175672,10.811910455061259,-1.4976906177168259,11.012316020354753,-1.4849490967107477,-0.18999960000000002,0.10696007999999999,0.6545152533333333,0.9514749333333332,0.6898771800543658,0.7145955523170192,0.7145955523170192,0.7145955523170192
LBP08_S04,LBP08,58,59,4,58,58,1716492726.32,2024-05-23 19:32:06.320000+00:00,2024-05-24 04:32:06.320000+09:00,2024,5,23,19,32,6,320,,,,,,,,,-0.321777,-0.620605,1.875,-72.387695,-103.820801,-29.174805,,,,,,,,,,,0.0,1.0,1.0,4.0,0.0,0.0,0.0,5.0,0.0,0.018421240000000002,-0.2423339866666667,0.9728417999999999,3.48063156,0.578613226666668,-4.3001302133333335,-13.813919807937467,-8.711656278255841,-13.532563667835278,-1.6603893590990064,4.466924153046083,9.075460419462262,10.25057491256475,-1.4926311176738922,10.556535212040847,-1.483824599083952,-0.34019824,-0.37827101333333324,0.9021582000000001,1.6206274533333334,1.0357186972602959,0.72919205890535,0.72919205890535,0.72919205890535
LBP08_S04,LBP08,59,60,4,59,59,1716492726.36,2024-05-23 19:32:06.360000+00:00,2024-05-24 04:32:06.360000+09:00,2024,5,23,19,32,6,360,,,,,,,,,0.337402,-0.603271,1.524658,-54.321289,-1.281738,0.0,,,,,,,,,,,0.0,1.0,1.0,4.0,0.0,0.0,0.0,5.0,0.0,0.023808613333333336,-0.23614258666666668,0.9791568933333333,6.847330773333333,1.619466093333335,-3.771158853333334,-9.458657187107073,-9.593656063109881,-12.422712517470798,-2.0387356465832895,4.083177910521687,8.57855191876343,9.717012807881925,-1.467482462943992,10.099478915016356,-1.4815055708093623,0.31359338666666664,-0.36712841333333335,0.5455011066666667,1.2262229066666666,0.728488532107595,0.7291614707837084,0.7291614707837084,0.7291614707837084
LBP08_S04,LBP08,60,61,4,60,60,1716492726.4,2024-05-23 19:32:06.400000+00:00,2024-05-24 04:32:06.400000+09:00,2024,5,23,19,32,6,400,,,,,,,,,-0.579834,-0.324463,-0.09082,43.334961,134.338379,27.282715,,,,,,,,,,,0.0,1.0,1.0,4.0,0.0,0.0,0.0,5.0,0.0,0.029417333333333337,-0.23317058666666662,0.9860742133333334,10.650227919999999,1.999511666666668,-3.6702474,-4.172724135315741,-9.30810196266666,-10.53645427235431,-2.205644611995919,3.710853832015021,8.157093747869258,9.228948083532323,-1.4419305893054235,9.655848558943223,-1.4797117221982827,-0.6092513333333333,-0.09129241333333338,-1.0768942133333335,1.77743796,1.2406541172347303,0.7504736643858344,0.7504736643858344,0.7504736643858344
LBP08_S04,LBP08,61,62,4,61,61,1716492726.44,2024-05-23 19:32:06.440000+00:00,2024-05-24 04:32:06.440000+09:00,2024,5,23,19,32,6,440,,,,,,,,,-0.12793,0.151123,0.097168,44.86084,-68.29834,-74.645996,,,,,,,,,,,0.0,1.0,1.0,4.0,0.0,0.0,0.0,5.0,0.0,0.023056653333333333,-0.22514649333333334,0.9886132666666666,10.673828186666666,2.1451822400000014,-2.9134114666666666,1.322026760747145,-7.860187780288566,-8.297007755607204,-2.1527635415660336,3.3964463208034785,7.82521343764497,8.797965891084985,-1.4661787645229571,9.238948753162537,-1.4770845968526598,-0.15098665333333333,0.37626949333333337,-0.8914452666666666,1.4187014133333333,0.9793111684038571,0.7596271645465552,0.7596271645465552,0.7596271645465552
LBP08_S04,LBP08,62,63,4,62,62,1716492726.48,2024-05-23 19:32:06.480000+00:00,2024-05-24 04:32:06.480000+09:00,2024,5,23,19,32,6,480,,,,,,,,,0.515625,-0.041748,0.82373,29.174805,-89.660645,-39.245605,,,,,,,,,,,0.0,1.0,1.0,4.0,0.0,0.0,0.0,5.0,0.0,0.020924493333333332,-0.22357748,0.9874869599999999,9.851888079999998,1.050618440000001,-2.62369792,6.281821595640863,-5.39897593871623,-6.238263019597928,-1.901490677740399,3.180487283254829,7.575682916861052,8.43339420478491,-1.4751523254840815,8.85747763337596,-1.4723869121363513,0.49470050666666665,0.18182948,-0.16375695999999995,0.8402869466666666,0.5519120337895965,0.7482175312878748,0.751638121055903,0.751638121055903
LBP08_S04,LBP08,63,64,4,63,63,1716492726.52,2024-05-23 19:32:06.520000+00:00,2024-05-24 04:32:06.520000+09:00,2024,5,23,19,32,6,520,,,,,,,,,0.437256,-0.527344,1.179443,-41.015625,20.751953,34.484863,,,,,,,,,,,0.0,1.0,1.0,4.0,0.0,0.0,0.0,5.0,0.0,0.02360352,-0.22589193333333332,0.9785416533333333,9.354655013333332,1.4534504666666679,-2.1964518266666664,10.111994636445484,-2.244758601075806,-4.893899343065014,-1.4970108922825798,3.090696939211797,7.379926943138452,8.139826218521296,-1.4639971152690268,8.513992865858764,-1.470102287557849,0.41365248,-0.3014520666666667,0.2009013466666667,0.9160058933333334,0.5498573213118427,0.7531190277281652,0.7441647581024193,0.7441647581024193
LBP08_S04,LBP08,64,65,4,64,64,1716492726.56,2024-05-23 19:32:06.560000+00:00,2024-05-24 04:32:06.560000+09:00,2024,5,23,19,32,6,560,,,,,,,,,-0.364502,-0.740479,1.586914,-16.723633,49.987793,30.578613,,,,,,,,,,,0.0,1.0,1.0,4.0,0.0,0.0,0.0,5.0,0.0,0.017402346666666665,-0.22139649333333333,0.9691992133333333,8.399251373333334,-0.14648442666666558,-2.9565429733333333,12.467125078486674,1.108931898911947,-4.642569406128072,-0.9983258891431128,3.135054215168275,7.1942241668933296,7.910883697570694,-1.4903559229035463,8.2056586582184,-1.4677032029452017,-0.38190434666666667,-0.5190825066666667,0.6177147866666667,1.5187016400000002,0.8926752692871518,0.7396951076828975,0.7494687049304455,0.7494687049304455
LBP08_S04,LBP08,65,66,4,65,65,1716492726.6,2024-05-23 19:32:06.600000+00:00,2024-05-24 04:32:06.600000+09:00,2024,5,23,19,32,6,600,,,,,,,,,-0.183105,-0.374756,1.767578,49.499512,-78.430176,-5.737305,,,,,,,,,,,0.0,1.0,1.0,4.0,0.0,0.0,0.0,5.0,0.0,0.022337253333333335,-0.23033204,0.9766471199999999,2.8312175199999996,-0.36539718666666565,-2.8222656266666664,13.290526837951544,4.06899284271211,-5.561976680108816,-0.46670481562505106,3.297813928876759,6.9717450996889765,7.726488195128395,-1.4715109246161766,7.926739291776729,-1.4655425196328813,-0.20544225333333332,-0.14442396,0.7909308800000002,1.1407970933333336,0.8298412237376099,0.7340806612355268,0.7522401710962098,0.7522401710962098
LBP08_S04,LBP08,66,67,4,66,66,1716492726.64,2024-05-23 19:32:06.640000+00:00,2024-05-24 04:32:06.640000+09:00,2024,5,23,19,32,6,640,,,,,,,,,0.293945,-0.37915,1.008057,-31.738281,80.993652,38.085938,,,,,,,,,,,0.0,1.0,1.0,4.0,0.0,0.0,0.0,5.0,0.0,0.026542986666666667,-0.23878906666666666,0.9823730266666666,4.120280013333333,0.7071939600000011,-2.2591145866666666,12.832008750005725,6.081650913556022,-7.3757977802089245,0.04657553437517792,3.541079965419,6.67671318848062,7.557771867629057,-1.4569392809275916,7.672000891868246,-1.468711062394958,0.26740201333333335,-0.14036093333333333,0.025683973333333388,0.43344692000000007,0.3030918917211611,0.7265138301398639,0.7372685617837081,0.7372685617837081
LBP08_S04,LBP08,67,68,4,67,67,1716492726.68,2024-05-23 19:32:06.680000+00:00,2024-05-24 04:32:06.680000+09:00,2024,5,23,19,32,6,680,,,,,,,,,-0.498535,-0.038818,-0.113037,74.951172,58.105469,-37.231445,,,,,,,,,,,0.0,1.0,1.0,4.0,0.0,0.0,0.0,5.0,0.0,0.022145200000000004,-0.2365722666666667,0.9847688666666666,2.439778706666666,0.6404622000000012,-1.5844726666666669,11.651531318494687,6.777680663981191,-9.545882568787466,0.5126367871149654,3.8121871919782477,6.294877885729122,7.377062779889303,-1.474844371931803,7.440934801699884,-1.4673923453891502,-0.5206802,0.1977542666666667,-1.0978058666666666,1.8162403333333335,1.2310127300498002,0.7581644435362134,0.7531957930180981,0.7531957930180981
LBP08_S04,LBP08,68,69,4,68,68,1716492726.72,2024-05-23 19:32:06.720000+00:00,2024-05-24 04:32:06.720000+09:00,2024,5,23,19,32,6,720,,,,,,,,,0.019287,-0.035645,0.264648,72.570801,-66.711426,-81.054688,,,,,,,,,,,0.0,1.0,1.0,4.0,0.0,0.0,0.0,5.0,0.0,0.02416994666666667,-0.24270508000000002,0.9884863199999999,2.6334635999999993,0.23763017333333455,-2.0800781333333336,10.568761029895397,6.061736067962915,-11.482355251858019,0.9353872283107814,4.054656634696764,5.835583675654801,7.167232836161123,-1.4686402715474196,7.243005324196976,-1.465160856290861,-0.004882946666666672,0.20706008,-0.7238383199999999,0.9357813466666666,0.7528875303776642,0.7662993373745901,0.7531861598105847,0.7531861598105847
LBP08_S04,LBP08,69,70,4,69,69,1716492726.76,2024-05-23 19:32:06.760000+00:00,2024-05-24 04:32:06.760000+09:00,2024,5,23,19,32,6,760,,,,,,,,,0.401855,-0.295654,0.991211,-38.879395,-51.696777,-22.827148,,,,,,,,,,,0.0,1.0,1.0,4.0,0.0,0.0,0.0,5.0,0.0,0.029612653333333336,-0.24270834666666669,0.9888085866666667,2.342936253333333,1.9213866933333346,-2.39095052,10.507533464735166,4.118831359694005,-12.76989297805446,1.355688566900188,4.219409889084524,5.324787956532623,6.927819143465209,-1.4458756298207864,7.101604026912602,-1.4633500997964872,0.37224234666666667,-0.05294565333333329,0.002402413333333242,0.4275904133333332,0.3759965138782866,0.7449827184824552,0.7417561705399089,0.7417561705399089
LBP08_S04,LBP08,70,71,4,70,70,1716492726.8,2024-05-23 19:32:06.800000+00:00,2024-05-24 04:32:06.800000+09:00,2024,5,23,19,32,6,800,,,,,,,,,0.106445,-0.312988,1.465576,-28.076172,107.788086,0.366211,,,,,,,,,,,0.0,1.0,1.0,4.0,0.0,0.0,0.0,5.0,0.0,0.022431666666666666,-0.2366471466666667,0.9801953066666668,1.3216146399999995,2.2509765333333345,-2.4943033866666666,12.23239424899447,1.3599031155567842,-13.291922582753646,1.8449843368599668,4.273806013706795,4.793111053222477,6.681564084447477,-1.4736160169261885,7.051160163355954,-1.4613443266214794,0.08401333333333333,-0.07634085333333329,0.4853806933333332,0.6457348799999998,0.49847826785747296,0.7365163063083817,0.7346009381080726,0.7346009381080726
LBP08_S04,LBP08,71,72,4,71,71,1716492726.84,2024-05-23 19:32:06.840000+00:00,2024-05-24 04:32:06.840000+09:00,2024,5,23,19,32,6,840,,,,,,,,,-0.329346,-0.591309,1.743652,2.01416,-46.75293,5.065918,,,,,,,,,,,0.0,1.0,1.0,4.0,0.0,0.0,0.0,5.0,0.0,0.02805016,-0.24407878666666666,0.9846451733333333,1.3655599466666661,1.4298502266666675,-1.3142903600000002,16.057812141635107,-1.6515890596821443,-13.19351821687369,2.487296822525371,4.207742451319509,4.265370324547529,6.4873049894013635,-1.4529915944648821,7.126447053872752,-1.460616012923363,-0.35739616,-0.3472302133333333,0.7590068266666666,1.4636331999999999,0.9079604612321294,0.7441515395689486,0.7395540673401886,0.7395540673401886
LBP08_S04,LBP08,72,73,4,72,72,1716492726.88,2024-05-23 19:32:06.880000+00:00,2024-05-24 04:32:06.880000+09:00,2024,5,23,19,32,6,880,,,,,,,,,0.187012,-0.468994,1.705811,-27.526855,-67.871094,-3.78418,,,,,,,,,,,0.0,1.0,1.0,4.0,0.0,0.0,0.0,5.0,0.0,0.027640000000000005,-0.23989258666666666,0.9895996,1.5690104666666664,1.731770800000001,-0.6404622400000002,21.664328444984633,-4.274684252391297,-12.720853344256993,3.3538699603247566,4.036755081223857,3.7565361907772497,6.454099429755841,-1.4528374345011859,7.3519492251181715,-1.4612478106944553,0.159372,-0.22910141333333336,0.7162113999999999,1.1046848133333333,0.7686648564005581,0.7279186050881288,0.7403627003696432,0.7403627003696432
LBP08_S04,LBP08,73,74,4,73,73,1716492726.92,2024-05-23 19:32:06.920000+00:00,2024-05-24 04:32:06.920000+09:00,2024,5,23,19,32,6,920,,,,,,,,,-0.230225,-0.023682,0.362793,45.288086,166.748047,65.063477,,,,,,,,,,,0.0,1.0,1.0,4.0,0.0,0.0,0.0,5.0,0.0,0.029628933333333336,-0.24284181333333332,0.99134764,1.4518229599999994,1.8619791333333346,-0.10253905333333345,28.126446452707356,-5.8817183392809635,-12.042809614603836,4.478927818433051,3.801486347652619,3.2748238061930963,6.7258132456775614,-1.4458895503252904,7.737041379316689,-1.4599161246989292,-0.25985393333333334,0.21915981333333331,-0.6285546399999999,1.1075683866666666,0.7145880113146563,0.7300602632126967,0.7396660871519408,0.7396660871519408
LBP08_S04,LBP08,74,75,4,74,74,1716492726.96,2024-05-23 19:32:06.960000+00:00,2024-05-24 04:32:06.960000+09:00,2024,5,23,19,32,6,960,,,,,,,,,0.021729,0.325928,-0.124512,111.572266,-72.32666,-62.927246,,,,,,,,,,,0.0,1.0,1.0,4.0,0.0,0.0,0.0,5.0,0.0,0.02353842666666667,-0.2400846533333333,0.9931640533333332,0.05126957333333299,1.202799440000001,0.17903646666666656,34.15623536909425,-5.983198113921114,-11.158330758136637,5.845177233196821,3.562158423095774,2.828490575867631,7.406445062004215,-1.4702981911534692,8.275721953339106,-1.4590354818678797,-0.0018094266666666727,0.5660126533333333,-1.1176760533333332,1.6854981333333332,1.2528261483354657,0.7611607421833945,0.7531702992883493,0.7531702992883493
LBP08_S04,LBP08,75,76,4,75,75,1716492727.0,2024-05-23 19:32:07+00:00,2024-05-24 04:32:07+09:00,2024,5,23,19,32,7,0,19.0,32.0,5.0,40.802162,141.598129,5.742,3.0,15.0,0.463135,0.001709,0.691162,54.992676,-104.675293,-54.199219,-546.0,19.0,598.0,0.0,0.0,1018.299988,21.309999,0.052522,-41.935379,3.895313,0.0,1.0,1.0,4.0,0.0,0.0,0.0,6.0,0.0,0.0251758,-0.24210613333333333,0.9971321466666668,-0.7218424000000004,0.6941731333333343,0.03906250666666651,38.45892455238392,-4.379546050805821,-9.929305408977221,7.383534215292178,3.386976581063541,2.431318359508542,8.47935710029637,-1.4642277876350116,8.94821246373402,-1.459625589076007,0.4379592,0.24381513333333332,-0.3059701466666668,0.98774448,0.5872578741559901,0.7643564409384769,0.7489161345413659,0.7489161345413659
LBP08_S04,LBP08,76,77,4,76,76,1716492727.04,2024-05-23 19:32:07.040000+00:00,2024-05-24 04:32:07.040000+09:00,2024,5,23,19,32,7,40,,,,,,,,,0.459717,-0.272461,1.229004,30.151367,4.760742,-16.601562,,,,,,,,,,,0.0,1.0,1.0,4.0,0.0,0.0,0.0,6.0,0.0,0.025432960000000004,-0.24244468000000002,0.9917740800000001,-0.6486002133333337,2.2436523066666676,0.29866537333333315,40.050669703176595,-1.2853563546866889,-8.195916485071882,8.985561003419242,3.3355623268760737,2.1034817001056667,9.812793580083246,-1.4632572586385173,9.722926075521785,-1.4583073351767477,0.43428404,-0.030016319999999985,0.23722991999999987,0.7015302799999998,0.4957636955327309,0.7508733634031546,0.74258732356615,0.74258732356615
LBP08_S04,LBP08,77,78,4,77,77,1716492727.08,2024-05-23 19:32:07.080000+00:00,2024-05-24 04:32:07.080000+09:00,2024,5,23,19,32,7,80,,,,,,,,,-0.358154,-0.124268,1.525391,2.563477,74.707031,25.634766,,,,,,,,,,,0.0,1.0,1.0,4.0,0.0,0.0,0.0,6.0,0.0,0.026041693333333334,-0.24441082666666664,0.9906608,-0.25309241333333365,0.282389280000001,-0.3548177066666668,38.43333557226113,2.659405635247061,-5.887311325102074,10.522894426309687,3.441938552285956,1.8679892471015838,11.227984321874473,-1.461527511976542,10.557847333323261,-1.4619092086928167,-0.3841956933333333,0.12014282666666663,0.5347301999999999,1.03906872,0.6693108518225125,0.7526363440516042,0.7408000925480125,0.7408000925480125
LBP08_S04,LBP08,78,79,4,78,78,1716492727.12,2024-05-23 19:32:07.120000+00:00,2024-05-24 04:32:07.120000+09:00,2024,5,23,19,32,7,120,,,,,,,,,-0.282715,-0.470703,1.874268,24.047852,-80.810547,-14.343262,,,,,,,,,,,0.0,1.0,1.0,4.0,0.0,0.0,0.0,6.0,0.0,0.02651044,-0.24498699999999998,0.9924381333333334,1.2060547199999996,-0.20345057333333236,-1.0766601466666668,33.61939791699324,6.539618806436184,-3.0663126473856175,11.867670342989417,3.7035233045434035,1.7453367412061591,12.554038576385322,-1.4598338432369253,11.401002584027777,-1.4632516462139555,-0.30922544,-0.225716,0.8818298666666666,1.4167713066666665,0.9613490516688227,0.7624977693434402,0.7460512582413651,0.7460512582413651
LBP08_S04,LBP08,79,80,4,79,79,1716492727.16,2024-05-23 19:32:07.160000+00:00,2024-05-24 04:32:07.160000+09:00,2024,5,23,19,32,7,160,,,,,,,,,0.504883,-0.492188,1.510498,1.953125,57.250977,35.217285,,,,,,,,,,,0.0,1.0,1.0,4.0,0.0,0.0,0.0,6.0,0.0,0.027506533333333336,-0.23634441333333334,0.9935742133333332,1.5917969066666662,0.4606119333333343,-1.5152994666666668,26.07384503104491,9.435256351923211,0.08903617317363188,12.910624144231214,4.080933558620332,1.7488981881331045,13.652724247414318,-1.4517767019020569,12.19231326499897,-1.4677730033177292,0.4773764666666666,-0.2558435866666667,0.5169237866666667,1.25014384,0.7487018318312175,0.7496740962194695,0.7461128994876407,0.7461128994876407
LBP08_S04,LBP08,80,81,4,80,80,1716492727.2,2024-05-23 19:32:07.200000+00:00,2024-05-24 04:32:07.200000+09:00,2024,5,23,19,32,7,200,,,,,,,,,-0.666748,-0.095215,-0.256836,54.138184,136.413574,16.540527,,,,,,,,,,,0.0,1.0,1.0,4.0,0.0,0.0,0.0,6.0,0.0,0.02602866666666667,-0.24161458666666666,0.9962532399999999,0.975748733333333,1.185709600000001,-1.533203106666667,16.641026412244674,10.70160858270157,3.3237370173832823,13.576265200721,4.508997901928395,1.8818476688284358,14.428700202325144,-1.460433477933596,12.871685758333186,-1.4693250628952628,-0.6927766666666667,0.14639958666666666,-1.25308924,2.0922654933333336,1.4393071222840963,0.7867745870207951,0.7618673136421056,0.7618673136421056
LBP08_S04,LBP08,81,82,4,81,81,1716492727.24,2024-05-23 19:32:07.240000+00:00,2024-05-24 04:32:07.240000+09:00,2024,5,23,19,32,7,240,,,,,,,,,-0.159912,0.107666,0.137207,34.667969,-61.157227,-59.936523,,,,,,,,,,,0.0,1.0,1.0,4.0,0.0,0.0,0.0,6.0,0.0,0.019515,-0.2450944,0.9988248533333333,0.26936851999999967,-0.15380863999999903,-1.456705706666667,6.4705857064983725,10.141807630553247,6.330962284048751,13.835088628980936,4.914670207150525,2.1350861601903857,14.836517567416118,-1.4890103296255746,13.393040970532368,-1.4696161704723576,-0.179427,0.3527604,-0.8616178533333333,1.3938052533333334,0.948166268815708,0.8061479460186126,0.7660072904237413,0.7660072904237413
LBP08_S04,LBP08,82,83,4,82,82,1716492727.28,2024-05-23 19:32:07.280000+00:00,2024-05-24 04:32:07.280000+09:00,2024,5,23,19,32,7,280,,,,,,,,,0.425293,-0.293213,0.910889,31.188965,-67.687988,-1.89209,,,,,,,,,,,0.0,1.0,1.0,4.0,0.0,0.0,0.0,6.0,0.0,0.024941426666666672,-0.24463867999999997,1.0015396933333334,1.0392252799999997,0.1334634933333344,-1.1694335733333336,-3.0960274154800627,8.00634378562197,8.7713367141674,13.711247532361734,5.234923958575404,2.4859396287570816,14.885651936801002,-1.4662618097125735,13.735501719134339,-1.4691395093184587,0.4003515733333333,-0.04857432000000003,-0.09065069333333342,0.5395765866666667,0.4133502087041348,0.7950868671646034,0.7583408321254889,0.7583408321254889
LBP08_S04,LBP08,83,84,4,83,83,1716492727.32,2024-05-23 19:32:07.320000+00:00,2024-05-24 04:32:07.320000+09:00,2024,5,23,19,32,7,320,,,,,,,,,0.377686,-0.137207,1.166748,-41.931152,36.132812,29.418945,,,,,,,,,,,0.0,1.0,1.0,4.0,0.0,0.0,0.0,6.0,0.0,0.019049493333333334,-0.24577474666666665,0.9864876133333333,1.0180664266666664,2.7091470800000015,-0.3873697733333338,-10.719975576965293,4.846624455174607,10.320436528363922,13.282448509283121,5.4287889367823885,2.8987570898916384,14.638920055389514,-1.4911031213630264,13.906097692333736,-1.4729394699240976,0.3586365066666667,0.10856774666666666,0.18026038666666655,0.6474646399999999,0.41581354779704294,0.7702906611860734,0.7510530175653092,0.7510530175653092
LBP08_S04,LBP08,84,85,4,84,84,1716492727.36,2024-05-23 19:32:07.360000+00:00,2024-05-24 04:32:07.360000+09:00,2024,5,23,19,32,7,360,,,,,,,,,-0.493652,-0.371094,1.682129,-87.158203,31.738281,57.067871,,,,,,,,,,,0.0,1.0,1.0,4.0,0.0,0.0,0.0,6.0,0.0,0.01976238666666667,-0.23873373333333334,0.9801822799999999,2.542317733333333,-0.01302087999999884,-0.894368466666667,-15.326614061951814,1.321070930179296,10.759866596700835,12.669383946805048,5.481631773989561,3.329151753759672,14.200169995346341,-1.4858187869288046,13.936063978276215,-1.479938589474394,-0.5134143866666666,-0.13236026666666664,0.7019467200000001,1.3477213733333335,0.8796833352673786,0.7763384533124648,0.753732815850769,0.753732815850769
LBP08_S04,LBP08,85,86,4,85,85,1716492727.4,2024-05-23 19:32:07.400000+00:00,2024-05-24 04:32:07.400000+09:00,2024,5,23,19,32,7,400,,,,,,,,,-0.193604,-0.501953,1.71167,-23.132324,-94.116211,-8.789062,,,,,,,,,,,0.0,1.0,1.0,4.0,0.0,0.0,0.0,6.0,0.0,0.024358733333333334,-0.24092448,0.9890169066666665,2.379557306666666,-0.9545898933333323,-1.0074869600000003,-16.34962930550428,-1.956263741774838,10.07657377428523,12.015398774584877,5.403381224318567,3.7322147047310814,13.692909222288195,-1.467138863405959,13.874014621050828,-1.4835247103574087,-0.21796273333333333,-0.26102852,0.7226530933333335,1.2016443466666669,0.7986683508689723,0.7586590226578344,0.7546498675858344,0.7546498675858344
LBP08_S04,LBP08,86,87,4,86,86,1716492727.44,2024-05-23 19:32:07.440000+00:00,2024-05-24 04:32:07.440000+09:00,2024,5,23,19,32,7,440,,,,,,,,,0.247559,-0.210938,1.087646,25.268555,106.994629,37.658691,,,,,,,,,,,0.0,1.0,1.0,4.0,0.0,0.0,0.0,6.0,0.0,0.026595066666666667,-0.24257813333333336,0.9991178133333333,1.6731770933333332,0.6437174000000011,-0.8650715866666668,-13.853259585333342,-4.500646163929544,8.50534046296961,11.461268391171544,5.2233553777613855,4.0724283232498655,13.237401066102985,-1.4584906470995282,13.777385292545366,-1.4921061742575,0.22096393333333333,0.031640133333333376,0.08852818666666662,0.3411322533333333,0.24013204223088816,0.7290918576109157,0.7443595110787355,0.7443595110787355
LBP08_S04,LBP08,87,88,4,87,87,1716492727.48,2024-05-23 19:32:07.480000+00:00,2024-05-24 04:32:07.480000+09:00,2024,5,23,19,32,7,480,,,,,,,,,-0.61377,0.161133,-0.239014,8.056641,40.588379,-10.314941,,,,,,,,,,,0.0,1.0,1.0,4.0,0.0,0.0,0.0,6.0,0.0,0.016969413333333332,-0.2445638133333333,1.0078092266666665,2.1166992399999995,2.285156200000001,-0.28971350666666695,-8.486340301450435,-6.006618501305637,6.474079931849174,11.121814779113526,4.98309063770916,4.331391520523832,12.933944053868428,-1.4995271180329313,13.702797142248286,-1.497111222232514,-0.6307394133333334,0.4056968133333333,-1.2468232266666666,2.2832594533333332,1.454988065393107,0.765214898875056,0.7567162150814655,0.7582934043005858
LBP08_S04,LBP08,88,89,4,88,88,1716492727.52,2024-05-23 19:32:07.520000+00:00,2024-05-24 04:32:07.520000+09:00,2024,5,23,19,32,7,520,,,,,,,,,-0.075684,0.058105,0.108643,10.498047,-91.73584,-27.709961,,,,,,,,,,,0.0,1.0,1.0,4.0,0.0,0.0,0.0,6.0,0.0,0.010006533333333335,-0.25145834666666667,1.0153417733333334,2.0141601866666665,0.0032551600000010695,-1.1214192400000003,-1.310558988213536,-6.402601647403957,4.46989595857221,11.069392419584984,4.7269865718130015,4.5101873588667205,12.853701435810118,-1.5298250387398875,13.696551850420875,-1.5022402440375415,-0.08569053333333333,0.3095633466666667,-0.9066987733333334,1.3019526533333334,0.9619121574585641,0.7816970923209249,0.7674080600245449,0.7622091495536238
LBP08_S04,LBP08,89,90,4,89,89,1716492727.56,2024-05-23 19:32:07.560000+00:00,2024-05-24 04:32:07.560000+09:00,2024,5,23,19,32,7,560,,,,,,,,,0.434082,0.029053,0.762451,-1.89209,-82.275391,-25.512695,,,,,,,,,,,0.0,1.0,1.0,4.0,0.0,0.0,0.0,6.0,0.0,0.020442733333333334,-0.25266928,1.01683592,3.0615234666666664,1.2646484000000011,-1.4371744400000004,6.410713810193969,-5.90746786126155,2.891701209350945,11.325820971992743,4.4906878573625395,4.625855407240758,13.032230675160433,-1.4876379107322055,13.787104721863267,-1.5049307505507707,0.41363926666666667,0.28172228,-0.2543849199999999,0.9497464666666666,0.5614058901546567,0.7684463171556252,0.7540707124192614,0.7584204088102472
LBP08_S04,LBP08,90,91,4,90,90,1716492727.6,2024-05-23 19:32:07.600000+00:00,2024-05-24 04:32:07.600000+09:00,2024,5,23,19,32,7,600,,,,,,,,,0.475586,-0.625244,1.18457,-14.343262,10.253906,18.981934,,,,,,,,,,,0.0,1.0,1.0,4.0,0.0,0.0,0.0,6.0,0.0,0.005989613333333334,-0.25168945333333337,0.9907096133333333,3.8793945599999997,3.4488931866666674,-0.885416626666667,13.401108603285365,-5.024184436170312,1.9622067470794715,11.861865316124158,4.289720479915727,4.704343677123937,13.462406917270538,-1.546248116934509,13.981222482661327,-1.513491632472287,0.4695963866666667,-0.37355454666666665,0.1938603866666666,1.03701132,0.6305914804564663,0.7604763274243794,0.7472784943299531,0.7560532064333253
LBP08_S04,LBP08,91,92,4,91,91,1716492727.64,2024-05-23 19:32:07.640000+00:00,2024-05-24 04:32:07.640000+09:00,2024,5,23,19,32,7,640,,,,,,,,,-0.44043,-0.348633,1.547363,8.239746,52.368164,37.414551,,,,,,,,,,,0.0,1.0,1.0,4.0,0.0,0.0,0.0,6.0,0.0,0.007708360000000003,-0.25048828,0.9879036266666666,4.03401696,0.3035481333333344,-1.8920898000000004,18.52747947723408,-4.396912396241803,1.732301911244937,12.602964495213522,4.113843984066055,4.773635753573735,14.0906360644453,-1.5390608093757137,14.264496236686602,-1.5236829299291457,-0.44813836,-0.09814472000000002,0.5594593733333334,1.1057424533333333,0.7235020153240032,0.777292732368493,0.7519032812541784,0.755461366594974
LBP08_S04,LBP08,92,93,4,92,92,1716492727.68,2024-05-23 19:32:07.680000+00:00,2024-05-24 04:32:07.680000+09:00,2024,5,23,19,32,7,680,,,,,,,,,-0.108398,-0.298584,1.711426,50.537109,-45.532227,6.835938,,,,,,,,,,,0.0,1.0,1.0,4.0,0.0,0.0,0.0,6.0,0.0,0.013112,-0.25380858666666667,0.9999153333333334,3.7361654,0.5769856266666678,-1.4892577733333334,20.94065629253605,-4.540759126421164,2.148420431704437,13.440590746914964,3.932213619009208,4.859572570841912,14.823199018526896,-1.5175520277628496,14.605465507430619,-1.53244527099043,-0.12150999999999999,-0.04477541333333335,0.7115106666666665,0.8777960799999999,0.7231991057237385,0.7569801873954506,0.757572315465832,0.7548852547937018
LBP08_S04,LBP08,93,94,4,93,93,1716492727.72,2024-05-23 19:32:07.720000+00:00,2024-05-24 04:32:07.720000+09:00,2024,5,23,19,32,7,720,,,,,,,,,0.145508,-0.404785,0.884766,7.080078,107.36084,24.475098,,,,,,,,,,,0.0,1.0,1.0,4.0,0.0,0.0,0.0,6.0,0.0,0.013186866666666667,-0.25752277333333334,1.0109960533333333,3.7581380533333335,2.872721306666668,-0.5558267733333335,20.203200775940825,-5.562740631900768,3.115052182979425,14.248718777952597,3.7097039937331773,4.9841746581610895,15.544448769813423,-1.5180081864953199,14.961707922415405,-1.5410299555341649,0.13232113333333334,-0.14726222666666666,-0.12623005333333326,0.40581341333333326,0.23479580936204686,0.7362565185548258,0.751277927964708,0.7457608785580588
LBP08_S04,LBP08,94,95,4,94,94,1716492727.76,2024-05-23 19:32:07.760000+00:00,2024-05-24 04:32:07.760000+09:00,2024,5,23,19,32,7,760,,,,,,,,,-0.508057,0.166016,-0.196289,63.293457,43.151855,-13.85498,,,,,,,,,,,0.0,1.0,1.0,4.0,0.0,0.0,0.0,6.0,0.0,-0.00015949333333333074,-0.26080077333333335,1.0186034666666666,3.399251333333333,2.8987629733333344,0.2563477066666665,16.374335249463144,-7.032692901305765,4.501115086293473,14.903692187931123,3.428396277680947,5.164219261612828,16.14134760332695,-1.571427606143966,15.286481294690308,-1.542372962268216,-0.5078975066666667,0.42681677333333334,-1.2148924666666665,2.1496067466666666,1.3842312454356434,0.7765859078171202,0.7607843131497877,0.7567689883318103
LBP08_S04,LBP08,95,96,4,95,95,1716492727.8,2024-05-23 19:32:07.800000+00:00,2024-05-24 04:32:07.800000+09:00,2024,5,23,19,32,7,800,,,,,,,,,-0.090332,0.089111,0.053711,-7.568359,-104.736328,-41.503906,,,,,,,,,,,0.0,1.0,1.0,4.0,0.0,0.0,0.0,6.0,0.0,0.00044922666666666854,-0.26609049333333334,1.0223762533333334,3.5449219066666666,0.6013996933333348,-0.11555984000000019,10.00809331138203,-8.101942659519246,6.096459636388134,15.304015920386403,3.104318571300177,5.408077647068354,16.525646762540944,-1.569051837974545,15.5355068027676,-1.5440024149651577,-0.09078122666666666,0.35520149333333334,-0.9686652533333334,1.4146479733333335,1.035722793510245,0.7980756888432309,0.7672959975758062,0.761497018928055
LBP08_S04,LBP08,96,97,4,96,96,1716492727.84,2024-05-23 19:32:07.840000+00:00,2024-05-24 04:32:07.840000+09:00,2024,5,23,19,32,7,840,,,,,,,,,0.520264,-0.108887,0.898193,4.089355,-93.261719,-16.418457,,,,,,,,,,,0.0,1.0,1.0,4.0,0.0,0.0,0.0,6.0,0.0,0.006201173333333336,-0.25935547999999997,1.008623,4.624837266666666,4.280598920000002,0.7820638666666665,2.0416020248916014,-7.837011311334693,7.578056972986271,15.385680001382067,2.7908381188467892,5.711199925987805,16.647093773543162,-1.5461140577123726,15.67403923365234,-1.5412299291150864,0.5140628266666666,0.15046847999999996,-0.11043000000000003,0.7749613066666665,0.5468968258584371,0.7836331434282833,0.763892341498616,0.7579203490435613
LBP08_S04,LBP08,97,98,4,97,97,1716492727.88,2024-05-23 19:32:07.880000+00:00,2024-05-24 04:32:07.880000+09:00,2024,5,23,19,32,7,880,,,,,,,,,0.50415,-0.419922,1.366455,-13.427734,23.376465,38.024902,,,,,,,,,,,0.0,1.0,1.0,4.0,0.0,0.0,0.0,6.0,0.0,-0.0035123599999999982,-0.24847006666666668,0.9849999599999999,5.73811852,3.5164387600000016,0.2962240266666666,-6.404923404492457,-5.609183632940417,8.551867837275893,15.129483065202368,2.5664707735291725,6.053274639478841,16.496368203716308,-1.5853739634702795,15.683645941366496,-1.543692574426292,0.50766236,-0.17145193333333333,0.3814550400000001,1.0605693333333335,0.6577421871416711,0.7791962366579277,0.7535574208730282,0.75627808409435
LBP08_S04,LBP08,98,99,4,98,98,1716492727.92,2024-05-23 19:32:07.920000+00:00,2024-05-24 04:32:07.920000+09:00,2024,5,23,19,32,7,920,,,,,,,,,-0.337891,-0.606445,1.681396,-79.711914,31.311035,46.630859,,,,,,,,,,,0.0,1.0,1.0,4.0,0.0,0.0,0.0,6.0,0.0,0.006549493333333335,-0.24491211999999998,0.9897428,5.061848986666666,-0.23030602666666558,-0.6608072266666668,-14.252970903509187,-1.3501865845721304,8.685038444174731,14.559364229062002,2.512463310146287,6.400676177245829,16.10143515855912,-1.5432551060803996,15.56668023395144,-1.544721579885772,-0.3444404933333333,-0.36153288000000006,0.6916531999999999,1.397626573333333,0.8530705866685618,0.7847355396720842,0.7573979014423904,0.7578392534907082
LBP08_S04,LBP08,99,100,4,99,99,1716492727.96,2024-05-23 19:32:07.960000+00:00,2024-05-24 04:32:07.960000+09:00,2024,5,23,19,32,7,960,,,,,,,,,0.022461,-0.653564,1.808105,1.342773,-57.006836,2.258301,,,,,,,,,,,0.0,1.0,1.0,4.0,0.0,0.0,0.0,6.0,0.0,0.016230493333333335,-0.24973308000000002,1.00380856,4.88118492,0.44759110666666774,0.43701178666666646,-20.639105468196313,4.424442999035267,7.86923307146449,13.73380001033415,2.689441030107698,6.715445500104409,15.522485755933346,-1.5039324377016217,15.345889942323343,-1.545278727631619,0.006230506666666663,-0.40383092,0.8042964400000001,1.2143578666666668,0.900006108067075,0.7706227380613485,0.7658917401223714,0.7600958702300157
LBP08_S04,LBP08,100,101,4,100,100,1716492728.0,2024-05-23 19:32:08+00:00,2024-05-24 04:32:08+09:00,2024,5,23,19,32,8,0,19.0,32.0,6.0,40.802265,141.598175,5.742,3.0,15.0,0.382568,-0.474854,1.268555,4.272461,98.815918,41.381836,-543.0,21.0,594.0,0.0,0.0,1017.900024,21.379999,0.048558,-38.620209,3.895313,0.0,1.0,1.0,4.0,0.0,0.0,0.0,5.0,0.0,0.012796253333333335,-0.25201172,1.0127376,4.00716148,3.0712890266666673,1.4534505866666663,-24.991387893127342,10.790712151423502,6.318504421629922,12.734144494609057,3.121069516164638,6.968185676969606,14.847731226117972,-1.5185232584337967,15.058271446431098,-1.5422834353389319,0.3697717466666667,-0.22284228,0.2558174000000002,0.8484314266666668,0.5018290232053901,0.7672055840233244,0.7657810124809007,0.756060450745256
LBP08_S04,LBP08,101,102,4,101,101,1716492728.04,2024-05-23 19:32:08.040000+00:00,2024-05-24 04:32:08.040000+09:00,2024,5,23,19,32,8,40,,,,,,,,,-0.568359,-0.273926,0.177979,47.241211,52.429199,-4.211426,,,,,,,,,,,0.0,1.0,1.0,4.0,0.0,0.0,0.0,5.0,0.0,0.0017513333333333352,-0.2538378933333333,1.0216243200000001,4.06982424,2.0507812133333347,1.1189779333333332,-27.024658904746733,16.679271364752605,4.533445654149378,11.653158138419187,3.788240370754742,7.149523503135581,14.186703141586822,-1.56368726248777,14.745541498411475,-1.5341694863517268,-0.5701103333333333,-0.020088106666666716,-0.8436453200000001,1.4338437600000002,1.0184138403226846,0.7881115898149227,0.7694924766090386,0.7600966567387548
LBP08_S04,LBP08,102,103,4,102,102,1716492728.08,2024-05-23 19:32:08.080000+00:00,2024-05-24 04:32:08.080000+09:00,2024,5,23,19,32,8,80,,,,,,,,,0.177979,0.222168,0.474609,-106.811523,-58.71582,-55.786133,,,,,,,,,,,0.0,1.0,1.0,4.0,0.0,0.0,0.0,5.0,0.0,0.010289746666666669,-0.24619139999999998,1.02568356,4.55485028,0.6323241866666677,0.6575521599999997,-26.71673319357239,21.115764584585996,3.134654616900897,10.58448881067629,4.632870954138182,7.274909687811617,13.653541944376345,-1.52784208235765,14.445439236202379,-1.5255332174634728,0.16768925333333334,0.4683594,-0.55107456,1.1871232133333334,0.7424037876594141,0.7910353072483987,0.7718358256500014,0.7598285829648254
LBP08_S04,LBP08,103,104,4,103,103,1716492728.12,2024-05-23 19:32:08.120000+00:00,2024-05-24 04:32:08.120000+09:00,2024,5,23,19,32,8,120,,,,,,,,,0.584473,-0.601318,1.396484,-18.737793,9.094238,11.474609,,,,,,,,,,,0.0,1.0,1.0,4.0,0.0,0.0,0.0,5.0,0.0,0.011256533333333334,-0.24513020000000002,1.00962888,3.6564127733333325,4.586588506666668,1.0774740399999998,-24.313226842688362,23.38153392969025,2.6360446581991175,9.611959736968757,5.568132311325792,7.380351474139581,13.336545853532431,-1.5235796639537884,14.186560927550513,-1.5182814506890376,0.5732164666666667,-0.3561878,0.3868551200000001,1.3162593866666668,0.7778841497272407,0.7836967111707354,0.7730972402570877,0.7600980690359063
LBP08_S04,LBP08,104,105,4,104,104,1716492728.16,2024-05-23 19:32:08.160000+00:00,2024-05-24 04:32:08.160000+09:00,2024,5,23,19,32,8,160,,,,,,,,,-0.026611,-0.354004,1.794678,-55.847168,74.829102,25.939941,,,,,,,,,,,0.0,1.0,1.0,4.0,0.0,0.0,0.0,5.0,0.0,0.006855493333333334,-0.24044921333333336,0.99569984,4.16666668,2.1402994533333346,-0.0065103466666668434,-20.346077271823066,23.10363827096305,3.2543816000488395,8.798116646095835,6.492277842164314,7.510526738141535,13.265162644404526,-1.5414746832170962,13.98655718916512,-1.516613433289266,-0.03346649333333333,-0.11355478666666663,0.79897816,0.94599944,0.807700932219301,0.7860566751862587,0.7678653857028641,0.7607981111415444
LBP08_S04,LBP08,105,106,4,105,105,1716492728.2,2024-05-23 19:32:08.200000+00:00,2024-05-24 04:32:08.200000+09:00,2024,5,23,19,32,8,200,,,,,,,,,-0.19458,-0.926758,2.062012,34.301758,-48.583984,-18.676758,,,,,,,,,,,0.0,1.0,1.0,4.0,0.0,0.0,0.0,5.0,0.0,0.01944664,-0.24063802666666664,1.0066373333333334,2.912597666666666,0.42724606666666776,0.1879883466666665,-15.606261812908627,20.311030033901336,4.825611999072229,8.17386617357949,7.304719043520367,7.703551218104424,13.398347282344726,-1.4879123481024934,13.852025612841596,-1.5141810720873639,-0.21402664,-0.6861199733333333,1.0553746666666668,1.9555212800000001,1.2768647960839088,0.7795589821382513,0.783166784579523,0.7682773384595497
LBP08_S04,LBP08,106,107,4,106,106,1716492728.24,2024-05-23 19:32:08.240000+00:00,2024-05-24 04:32:08.240000+09:00,2024,5,23,19,32,8,240,,,,,,,,,0.434082,-0.294434,1.92627,-51.269531,42.785645,-11.84082,,,,,,,,,,,0.0,1.0,1.0,4.0,0.0,0.0,0.0,5.0,0.0,0.026448600000000003,-0.24379232,1.0204915066666667,1.648763026666666,2.1134439866666677,1.2939453866666664,-11.027100471232224,15.466236307069805,6.847252051698787,7.732782154730201,7.923368495803159,7.977441300172376,13.646071151452194,-1.4597513688298314,13.778770039082328,-1.5152980187883538,0.40763340000000003,-0.05064167999999997,0.9057784933333333,1.3640535733333332,0.9945673670164258,0.78141502606628,0.7937814860424462,0.7715100531532193
LBP08_S04,LBP08,107,108,4,107,107,1716492728.28,2024-05-23 19:32:08.280000+00:00,2024-05-24 04:32:08.280000+09:00,2024,5,23,19,32,8,280,,,,,,,,,-0.567383,0.218994,0.12207,-37.536621,174.316406,37.536621,,,,,,,,,,,0.0,1.0,1.0,4.0,0.0,0.0,0.0,5.0,0.0,0.013779333333333333,-0.24411458666666666,1.0298957999999998,2.298177093333333,3.8606770533333346,1.8050130933333328,-7.485564114318776,9.435127123980514,8.625327069658688,7.43335959015745,8.30077358076238,8.322454382958723,13.907585117197641,-1.5128562957259286,13.752365757184966,-1.5102499920727321,-0.5811623333333333,0.46310858666666666,-0.9078257999999998,1.9520967199999997,1.1731866449442228,0.8118084835158835,0.8034476753402434,0.7771674699390081
LBP08_S04,LBP08,108,109,4,108,108,1716492728.32,2024-05-23 19:32:08.320000+00:00,2024-05-24 04:32:08.320000+09:00,2024,5,23,19,32,8,320,,,,,,,,,0.23291,-0.509521,0.220947,48.88916,-96.008301,26.184082,,,,,,,,,,,0.0,1.0,1.0,4.0,0.0,0.0,0.0,5.0,0.0,0.01058272,-0.24577149333333334,1.0367512666666665,2.020670586666666,0.6917317466666676,1.3745117866666665,-5.572638992533459,3.3400900201672807,9.48181636210753,7.210454030456112,8.43437718156907,8.701727037443025,14.1013977747052,-1.5265749320826842,13.750164701690972,-1.507078265333504,0.22232728000000002,-0.26374950666666663,-0.8158042666666665,1.3018810533333331,0.8857368814781543,0.8306054168631278,0.8004480390246006,0.7786753784326074
LBP08_S04,LBP08,109,110,4,109,109,1716492728.36,2024-05-23 19:32:08.360000+00:00,2024-05-24 04:32:08.360000+09:00,2024,5,23,19,32,8,360,,,,,,,,,0.325195,0.185547,0.973877,93.505859,-88.928223,-17.822266,,,,,,,,,,,0.0,1.0,1.0,4.0,0.0,0.0,0.0,5.0,0.0,0.021800173333333332,-0.24501953333333337,1.0288183333333332,1.8277994933333332,2.6790364400000013,1.7211914799999999,-5.411473552223301,-1.7139570774354165,8.964627273506757,6.993995088367179,8.365818898471653,9.060312128383295,14.177169992698088,-1.4796088256825979,13.746056745605534,-1.5057175833423289,0.3033948266666667,0.4305665333333334,-0.054941333333333175,0.7889026933333333,0.5295795602015109,0.8166012658604932,0.7964698595864789,0.7752631069499896
LBP08_S04,LBP08,110,111,4,110,110,1716492728.4,2024-05-23 19:32:08.400000+00:00,2024-05-24 04:32:08.400000+09:00,2024,5,23,19,32,8,400,,,,,,,,,0.535889,-0.452881,1.316162,-52.307129,-15.136719,20.202637,,,,,,,,,,,0.0,1.0,1.0,4.0,0.0,0.0,0.0,5.0,0.0,0.009518266666666666,-0.23783203999999997,1.0039517866666667,3.9501953199999993,4.486490866666668,1.6284180399999997,-6.6107958715862605,-4.955861659994177,7.000389946910095,6.729563253503729,8.167584432071886,9.340327726259698,14.115175488525335,-1.529692725443697,13.71775722605248,-1.5086537699141804,0.5263707333333333,-0.21504896,0.3122102133333333,1.0536299066666666,0.6486812941781182,0.810601783592859,0.7846304031253466,0.7735525419125319
LBP08_S04,LBP08,111,112,4,111,111,1716492728.44,2024-05-23 19:32:08.440000+00:00,2024-05-24 04:32:08.440000+09:00,2024,5,23,19,32,8,440,,,,,,,,,-0.487061,-0.104736,1.697754,-69.763184,37.109375,36.987305,,,,,,,,,,,0.0,1.0,1.0,4.0,0.0,0.0,0.0,5.0,0.0,0.013414759999999998,-0.2391894533333333,1.0025813466666667,3.5856119866666663,1.2532551866666677,0.2416992799999996,-8.4003982527111,-6.155913979927479,3.9461063403715704,6.393547323395285,7.921347872874787,9.498171979874561,13.922660322613172,-1.5132069953315535,13.653840871834012,-1.513083161859747,-0.50047576,0.1344534533333333,0.6951726533333333,1.3301018666666666,0.8670748153437184,0.8356794945173722,0.7823856760641439,0.774799505558281
LBP08_S04,LBP08,112,113,4,112,112,1716492728.48,2024-05-23 19:32:08.480000+00:00,2024-05-24 04:32:08.480000+09:00,2024,5,23,19,32,8,480,,,,,,,,,-0.150146,-0.605957,2.05957,-34.362793,-85.205078,-16.540527,,,,,,,,,,,0.0,1.0,1.0,4.0,0.0,0.0,0.0,5.0,0.0,0.017685586666666666,-0.24302409333333336,1.0169954133333332,3.004557293333333,2.4886067466666675,1.1962891199999994,-9.898953520381918,-5.61851601805236,0.5186626387588261,5.997589182580008,7.696607232152692,9.518918485424914,13.631531389436404,-1.4961248149653683,13.55693336364494,-1.5235369091081872,-0.16783158666666667,-0.3629329066666666,1.0425745866666667,1.57333908,1.116624155652983,0.8221449381277673,0.7936799185014116,0.7785257894302328
LBP08_S04,LBP08,113,114,4,113,113,1716492728.52,2024-05-23 19:32:08.520000+00:00,2024-05-24 04:32:08.520000+09:00,2024,5,23,19,32,8,520,,,,,,,,,0.232666,-0.316895,1.0,-21.30127,147.155762,32.104492,,,,,,,,,,,0.0,1.0,1.0,4.0,0.0,0.0,0.0,5.0,0.0,0.014749386666666663,-0.24916993333333332,1.0289843466666666,1.4656575466666664,5.101725240000001,2.8068034399999995,-10.381761111301387,-3.980873922414938,-2.3950018047003896,5.582318738127952,7.537372275256095,9.423118413236898,13.295466292678041,-1.5099728440420388,13.441849000302525,-1.5310334865253474,0.21791661333333334,-0.06772506666666667,-0.028984346666666605,0.3146260266666666,0.23003136171697863,0.7928697062981038,0.7872833993095143,0.7758952754490646
LBP08_S04,LBP08,114,115,4,114,114,1716492728.56,2024-05-23 19:32:08.560000+00:00,2024-05-24 04:32:08.560000+09:00,2024,5,23,19,32,8,560,,,,,,,,,-0.516113,-0.045654,-0.069336,8.789062,29.785156,-24.047852,,,,,,,,,,,0.0,1.0,1.0,4.0,0.0,0.0,0.0,5.0,0.0,-9.733333333334926e-06,-0.24887696,1.0357812266666668,1.1246744799999997,4.322102840000001,3.4594727066666664,-9.427457977474322,-1.9444539538031373,-4.011544820172891,5.205220419028979,7.459594117103969,9.262656620429983,12.982167448874003,-1.5708365489356118,13.330555951827538,-1.5305562880892538,-0.5161032666666667,0.20322296,-1.105117226666667,1.8244434533333336,1.2365056562792551,0.8198736969430879,0.7941600070493564,0.7760050405938701
LBP08_S04,LBP08,115,116,4,115,115,1716492728.6,2024-05-23 19:32:08.600000+00:00,2024-05-24 04:32:08.600000+09:00,2024,5,23,19,32,8,600,,,,,,,,,-0.006104,-0.080322,0.210693,63.720703,-101.013184,-66.955566,,,,,,,,,,,0.0,1.0,1.0,4.0,0.0,0.0,0.0,5.0,0.0,0.009537786666666666,-0.2543977866666667,1.0334407333333333,0.4402669199999996,2.7237955466666675,3.2584635866666662,-6.9197799686147725,-0.07889076305816983,-3.9306315382545995,4.9284292202843885,7.456438486581643,9.105431358899798,12.759183740160056,-1.5322062675581591,13.246832783116536,-1.5315244276698388,-0.015641786666666664,0.17407578666666668,-0.8227477333333333,1.0124653066666667,0.8411069359474348,0.8282943151627264,0.794385321293553,0.7742837679408776
LBP08_S04,LBP08,116,117,4,116,116,1716492728.64,2024-05-23 19:32:08.640000+00:00,2024-05-24 04:32:08.640000+09:00,2024,5,23,19,32,8,640,,,,,,,,,0.481689,0.287842,0.816895,8.544922,-46.569824,-38.635254,,,,,,,,,,,0.0,1.0,1.0,4.0,0.0,0.0,0.0,5.0,0.0,0.0015625333333333321,-0.24726562666666665,1.0053189866666667,1.3321939999999997,5.6624348666666675,3.61979172,-2.97692177821852,1.2425451300481143,-2.3107170560909984,4.809352349155648,7.506140291783567,9.013002676656159,12.676996069561461,-1.5642888413142333,13.212399162644465,-1.534394423818458,0.48012646666666664,0.5351076266666667,-0.1884239866666667,1.2036580799999999,0.7432127520851688,0.8290827446331731,0.8031877385008331,0.7776297690471766
LBP08_S04,LBP08,117,118,4,117,117,1716492728.68,2024-05-23 19:32:08.680000+00:00,2024-05-24 04:32:08.680000+09:00,2024,5,23,19,32,8,680,,,,,,,,,0.336914,-0.64624,1.377441,-39.0625,56.518555,13.61084,,,,,,,,,,,0.0,1.0,1.0,4.0,0.0,0.0,0.0,5.0,0.0,-0.003958306666666667,-0.23919921333333335,0.9866503733333334,1.98974608,2.766113240000001,2.3738607333333333,2.0987455524380407,1.8261405211574697,0.15495997959101512,4.893302171253169,7.579185912629866,9.0192010758398,12.756741483773503,-1.5878220698975303,13.24473044989524,-1.5401107790015909,0.3408723066666667,-0.40704078666666665,0.39079062666666653,1.1387037199999999,0.6592370175839634,0.8265242611075821,0.7917522242515163,0.7805562973464154
LBP08_S04,LBP08,118,119,4,118,118,1716492728.72,2024-05-23 19:32:08.720000+00:00,2024-05-24 04:32:08.720000+09:00,2024,5,23,19,32,8,720,,,,,,,,,-0.453613,-0.290771,1.691406,-54.199219,-16.662598,59.326172,,,,,,,,,,,0.0,1.0,1.0,4.0,0.0,0.0,0.0,5.0,0.0,0.011435573333333332,-0.23979165333333333,1.0021549333333333,1.184895813333333,0.4410806933333344,2.202962306666666,7.820721028467659,1.6517505804891128,2.4817902184753997,5.206131012391875,7.6452559358494305,9.118472684578816,12.988467289955324,-1.5218029477217465,13.355869260262466,-1.5513468530808137,-0.4650485733333333,-0.050979346666666675,0.6892510666666667,1.2052789866666667,0.8330282721775214,0.8504535596202012,0.7933550390875135,0.7843364718498724
LBP08_S04,LBP08,119,120,4,119,119,1716492728.76,2024-05-23 19:32:08.760000+00:00,2024-05-24 04:32:08.760000+09:00,2024,5,23,19,32,8,760,,,,,,,,,0.130371,-0.621094,1.949951,22.033691,-41.259766,16.113281,,,,,,,,,,,0.0,1.0,1.0,4.0,0.0,0.0,0.0,5.0,0.0,0.01995770666666667,-0.25158853333333336,1.0203320133333333,-0.5533854400000005,3.2698567466666675,3.141276106666666,13.521545524797885,0.9134076266341183,3.765521768634496,5.746992833383791,7.681792240914795,9.269093555324195,13.339938305588072,-1.4892902214884476,13.551614660195714,-1.5552315078118146,0.11041329333333331,-0.36950546666666667,0.9296189866666666,1.4095377466666665,1.0064377008103502,0.8353418178351893,0.8059638628261548,0.7856368147115883
LBP08_S04,LBP08,120,121,4,120,120,1716492728.8,2024-05-23 19:32:08.800000+00:00,2024-05-24 04:32:08.800000+09:00,2024,5,23,19,32,8,800,,,,,,,,,-0.270508,-0.442139,0.562012,12.268066,187.194824,56.152344,,,,,,,,,,,0.0,1.0,1.0,4.0,0.0,0.0,0.0,5.0,0.0,0.0030957333333333312,-0.2572070266666666,1.0317317466666667,-0.4085286666666671,4.0144856533333355,3.476562573333333,18.434766105348874,0.055774883507666365,3.5179750985521765,6.484383477597746,7.684023236255102,9.409812559266282,13.770839283804616,-1.5583926869298885,13.831060799868183,-1.552862169840944,-0.2736037333333334,-0.1849319733333334,-0.4697197466666667,0.9282554533333335,0.5741911511539481,0.8168805521409377,0.8074781204920843,0.7838241824308501
LBP08_S04,LBP08,121,122,4,121,121,1716492728.84,2024-05-23 19:32:08.840000+00:00,2024-05-24 04:32:08.840000+09:00,2024,5,23,19,32,8,840,,,,,,,,,-0.173828,0.280029,-0.133545,118.225098,-37.963867,-21.66748,,,,,,,,,,,0.0,1.0,1.0,4.0,0.0,0.0,0.0,5.0,0.0,0.00010743999999999901,-0.26024413333333335,1.0315103866666668,0.6282551866666662,4.374186186666668,3.0135091866666666,21.868822728490933,-0.28240755631805414,1.820243029657447,7.359136386737383,7.67272693400238,9.48262228045258,14.245973195120909,-1.5703705471628837,14.186837759915775,-1.5528318205295952,-0.17393544,0.5402731333333333,-1.1650553866666669,1.87926396,1.2959562685101793,0.8468429298470072,0.8152380366376453,0.7915425376147464
LBP08_S04,LBP08,122,123,4,122,122,1716492728.88,2024-05-23 19:32:08.880000+00:00,2024-05-24 04:32:08.880000+09:00,2024,5,23,19,32,8,880,,,,,,,,,0.291992,-0.07373,0.545654,24.719238,-127.01416,-43.579102,,,,,,,,,,,0.0,1.0,1.0,4.0,0.0,0.0,0.0,5.0,0.0,-0.00930662666666667,-0.25470702666666667,0.9984537466666665,2.8173827866666663,3.482259106666668,1.3769531999999995,23.397891434233916,0.5332182798199268,-0.7563128698688486,8.29505204410674,7.694055665195178,9.452369765657826,14.74291949310867,-1.608485555757598,14.606199368123574,-1.5505057197472123,0.3012986266666666,0.18097702666666665,-0.45279974666666656,0.9350753999999999,0.5732025446504264,0.8434613441473574,0.8113287904026426,0.7835253952978046
LBP08_S04,LBP08,123,124,4,123,123,1716492728.92,2024-05-23 19:32:08.920000+00:00,2024-05-24 04:32:08.920000+09:00,2024,5,23,19,32,8,920,,,,,,,,,0.522705,-0.209473,1.211914,-28.869629,-13.061523,-27.832031,,,,,,,,,,,0.0,1.0,1.0,4.0,0.0,0.0,0.0,5.0,0.0,0.005240906666666664,-0.24560871999999997,0.99353512,3.974609346666666,2.982584626666668,1.1442057999999997,22.96533723054174,2.8464662141765458,-3.397754859399025,9.21366553332841,7.8079143137622395,9.316459571281865,15.252920292010531,-1.548819391352047,15.072611949457349,-1.5479579055576473,0.5174640933333333,0.03613571999999998,0.21837887999999994,0.7719786933333332,0.5628180997260673,0.8318512446696577,0.8082933921708708,0.7822156825181461
LBP08_S04,LBP08,124,125,4,124,124,1716492728.96,2024-05-23 19:32:08.960000+00:00,2024-05-24 04:32:08.960000+09:00,2024,5,23,19,32,8,960,,,,,,,,,-0.22583,-0.338135,1.616211,15.441895,87.280273,26.855469,,,,,,,,,,,0.0,1.0,1.0,4.0,0.0,0.0,0.0,5.0,0.0,0.005400399999999997,-0.23449869333333334,0.9970572666666667,2.814941373333333,3.710123693333335,2.2989909599999994,20.85215870425849,6.483245057859849,-5.336951724510248,10.04775188149875,8.067244116076633,9.102981502301455,15.776628845598706,-1.5471431692269042,15.567306787721256,-1.5486108567803938,-0.2312304,-0.10363630666666668,0.6191537333333333,0.9540204400000001,0.6689987499571818,0.8226109503452619,0.7966168442033051,0.7847981435300015
LBP08_S04,LBP08,125,126,4,125,125,1716492729.0,2024-05-23 19:32:09+00:00,2024-05-24 04:32:09+09:00,2024,5,23,19,32,9,0,19.0,32.0,7.0,40.802368,141.598221,5.988,3.0,14.0,-0.431396,-0.55127,1.999023,14.282227,-98.999023,-29.35791,-549.0,23.0,599.0,0.0,0.0,1018.0,21.440001,0.049549,-39.448975,3.895313,0.0,1.0,1.0,4.0,0.0,0.0,0.0,4.0,0.0,0.010113946666666663,-0.26873697333333335,1.0217577866666667,0.20019527999999923,3.8256835866666674,1.759440173333333,17.551136365531438,10.720399329933096,-6.071452770489399,10.749797336120007,8.496060089273957,8.86012339148188,16.31695334063596,-1.531902774444673,16.07051383945466,-1.5620313171488647,-0.44150994666666665,-0.2825330266666667,0.9772652133333333,1.7013081866666666,1.1089649414451639,0.8468963870748528,0.8070509855490886,0.7928194706788847
LBP08_S04,LBP08,126,127,4,126,126,1716492729.04,2024-05-23 19:32:09.040000+00:00,2024-05-24 04:32:09.040000+09:00,2024,5,23,19,32,9,40,,,,,,,,,0.468018,-0.683105,1.765381,-11.047363,40.83252,-2.441406,,,,,,,,,,,0.0,1.0,1.0,4.0,0.0,0.0,0.0,4.0,0.0,0.007926453333333331,-0.27561197333333337,1.02644528,3.605956999999999,5.581054680000001,2.412109439999999,13.629265740813787,14.48173681438885,-5.459619299936598,11.294967965752559,9.075329561849511,8.641738619484416,16.870612151639445,-1.5410278334904044,16.562429749451844,-1.5792752484915293,0.4600915466666667,-0.4074930266666666,0.7389357200000002,1.6065202933333333,0.9611247558917649,0.8446048236976162,0.8163582067562694,0.7945299256385645
LBP08_S04,LBP08,127,128,4,127,127,1716492729.08,2024-05-23 19:32:09.080000+00:00,2024-05-24 04:32:09.080000+09:00,2024,5,23,19,32,9,80,,,,,,,,,-0.969238,-0.016357,-0.377686,61.889648,178.649902,33.14209,,,,,,,,,,,0.0,1.0,1.0,4.0,0.0,0.0,0.0,4.0,0.0,0.001871759999999998,-0.22700194666666665,1.0066568666666669,5.236002573333333,4.819335933333334,3.824869853333333,9.633915956331508,16.678317323797117,-3.7037262977827505,11.680324604005818,9.742462254801396,8.493589567573105,17.42086729711125,-1.5623439280018794,17.0241057666207,-1.5970847507972312,-0.97110976,0.21064494666666664,-1.3843428666666668,2.5660975733333338,1.70406297771366,0.8830711912997858,0.8370532492740924,0.8089142808665963
LBP08_S04,LBP08,128,129,4,128,128,1716492729.12,2024-05-23 19:32:09.120000+00:00,2024-05-24 04:32:09.120000+09:00,2024,5,23,19,32,9,120,,,,,,,,,-0.116211,0.007324,0.125977,3.173828,-69.885254,-43.395996,,,,,,,,,,,0.0,1.0,1.0,4.0,0.0,0.0,0.0,4.0,0.0,0.012145199999999998,-0.29938801333333337,0.9602310933333332,-12.900390653333334,2.7701822933333338,0.8227539599999992,6.042651926988997,16.551189784555497,-1.255492606547354,11.922030681085378,10.404509846183615,8.443369863311212,17.935415672594402,-1.5283324599492132,17.438386916079644,-1.5998549912969235,-0.1283562,0.30671201333333337,-0.8342540933333332,1.2693223066666666,0.8980687420486523,0.8878785749926424,0.8357876430816888,0.8113576851689394
LBP08_S04,LBP08,129,130,4,129,129,1716492729.16,2024-05-23 19:32:09.160000+00:00,2024-05-24 04:32:09.160000+09:00,2024,5,23,19,32,9,160,,,,,,,,,0.409912,-0.059814,0.903564,13.366699,-31.982422,-8.239746,,,,,,,,,,,0.0,1.0,1.0,4.0,0.0,0.0,0.0,4.0,0.0,-0.01348956,-0.26775064,0.8623242000000001,13.396809866666667,1.7553710933333344,1.179199266666666,3.2225140550687996,13.886366800882131,1.3200585149098016,12.05093124328813,10.9599645182189,8.496172203907603,18.372008822922098,-1.623494825173157,17.79083720539264,-1.60852840676047,0.42340156,0.20793663999999998,0.04123979999999994,0.6725779999999999,0.4735052780793084,0.8745107488270427,0.8302837120066507,0.8034138400775903
LBP08_S04,LBP08,130,131,4,130,130,1716492729.2,2024-05-23 19:32:09.200000+00:00,2024-05-24 04:32:09.200000+09:00,2024,5,23,19,32,9,200,,,,,,,,,0.392334,-0.483398,1.457275,-20.019531,64.27002,30.334473,,,,,,,,,,,0.0,1.0,1.0,4.0,0.0,0.0,0.0,4.0,0.0,-0.04083006666666667,-0.2673958266666666,0.76988604,-13.84684246666667,2.841796880000001,6.0555013466666665,1.3726800669505217,9.048248226764478,3.4941392432939122,12.10583844596615,11.321894447289479,8.635937773639359,18.689998383776484,-1.730832000356534,18.070356681077484,-1.6427952022649428,0.4331640666666667,-0.21600217333333338,0.68738896,1.3365552,0.8407090042730656,0.857064517154609,0.8183117496464302,0.8077993621045517
LBP08_S04,LBP08,131,132,4,131,131,1716492729.24,2024-05-23 19:32:09.240000+00:00,2024-05-24 04:32:09.240000+09:00,2024,5,23,19,32,9,240,,,,,,,,,-0.55835,-0.442871,1.717529,-25.146484,-1.464844,31.188965,,,,,,,,,,,0.0,1.0,1.0,4.0,0.0,0.0,0.0,4.0,0.0,-0.05420897333333334,-0.3293391866666667,0.7431184533333333,2.6367187333333306,4.721679693333334,4.22119144,0.4625103931736654,2.866185727787304,4.9077873751843395,12.124338861693097,11.436541876400971,8.832249268646732,18.862733366809415,-1.7484655702199021,18.26925191146847,-1.6897886528387105,-0.5041410266666667,-0.11353181333333334,0.9744105466666668,1.5920833866666668,1.1029612689766164,0.8614002732330165,0.8214076496496482,0.8163210817726364
LBP08_S04,LBP08,132,133,4,132,132,1716492729.28,2024-05-23 19:32:09.280000+00:00,2024-05-24 04:32:09.280000+09:00,2024,5,23,19,32,9,280,,,,,,,,,-0.126953,-0.534668,1.907471,-8.056641,-102.783203,-5.554199,,,,,,,,,,,0.0,1.0,1.0,4.0,0.0,0.0,0.0,4.0,0.0,-0.014052720000000001,-0.22488932,0.7159342133333333,18.015136706666667,4.479980480000001,6.3907877866666665,0.2102002954978718,-3.5570393751904756,5.44994566819044,12.132746873513012,11.294260301393352,9.05024709537435,18.885730987698132,-1.6361879607545209,18.382997387804174,-1.7202705373120548,-0.11290028,-0.30977868000000003,1.1915367866666666,1.6142157466666667,1.2363127507983351,0.863925317467181,0.8378669004915322,0.823606889382556
LBP08_S04,LBP08,133,134,4,133,133,1716492729.32,2024-05-23 19:32:09.320000+00:00,2024-05-24 04:32:09.320000+09:00,2024,5,23,19,32,9,320,,,,,,,,,0.109619,-0.115479,0.843506,8.605957,172.119141,38.146973,,,,,,,,,,,0.0,1.0,1.0,4.0,0.0,0.0,0.0,4.0,0.0,-0.016523426666666667,-0.2797884,0.6155500933333332,-8.165690119999999,1.7081705866666674,6.7862956,0.14422541023606927,-9.066005953008798,5.244006546725203,12.138515889922456,10.931620063273,9.260007357243358,18.77742318514055,-1.6355535459875126,18.410351084509408,-1.7499425707573295,0.12614242666666667,0.1643094,0.22795590666666676,0.5184077333333335,0.3080152368275593,0.8408164516811573,0.8357109342721426,0.8139041765767863
LBP08_S04,LBP08,134,135,4,134,134,1716492729.36,2024-05-23 19:32:09.360000+00:00,2024-05-24 04:32:09.360000+09:00,2024,5,23,19,32,9,360,,,,,,,,,-0.391113,0.213135,-0.24707,29.174805,-58.59375,-36.437988,,,,,,,,,,,0.0,1.0,1.0,4.0,0.0,0.0,0.0,4.0,0.0,-0.07908853333333334,-0.2688671733333334,0.49690751999999994,18.428548173333333,1.3330078266666674,6.094563826666667,-0.2514974519493579,-12.680683716192965,4.541686964699655,12.128455991844481,10.42439271462528,9.441674835831344,18.571823602447118,-1.8898111242716313,18.35425642309181,-1.7856462401689686,-0.31202446666666667,0.4820021733333334,-0.74397752,1.5380041599999998,0.9397807793108055,0.857224500445529,0.836912883153011,0.8167214065394957
LBP08_S04,LBP08,135,136,4,135,135,1716492729.4,2024-05-23 19:32:09.400000+00:00,2024-05-24 04:32:09.400000+09:00,2024,5,23,19,32,9,400,,,,,,,,,0.174805,-0.057617,0.264893,-7.385254,-146.66748,-44.494629,,,,,,,,,,,0.0,1.0,1.0,4.0,0.0,0.0,0.0,4.0,0.0,-0.09990233333333333,-0.24058917333333335,0.44882484000000006,1.205240879999998,1.2784830800000009,9.50439456,-1.358314803528243,-13.809833445996404,3.574168191359348,12.074123399703351,9.871999376785425,9.584641563485718,18.305905644545803,-2.0018372801823507,18.223220850274313,-1.8070547312915604,0.2747073333333333,0.18297217333333335,-0.18393184000000007,0.6416113466666667,0.37785428007000277,0.8463914198812045,0.8284966017370317,0.8052174087106326
LBP08_S04,LBP08,136,137,4,136,136,1716492729.44,2024-05-23 19:32:09.440000+00:00,2024-05-24 04:32:09.440000+09:00,2024,5,23,19,32,9,440,,,,,,,,,0.598145,-0.210449,1.1521,31.311035,-17.456055,7.69043,,,,,,,,,,,0.0,1.0,1.0,4.0,0.0,0.0,0.0,4.0,0.0,-0.07874021333333334,-0.33703774666666664,0.4772004933333333,-7.821451826666668,3.6954752666666675,10.489095079999998,-3.282582878583613,-12.395847534505727,2.4416030931872053,11.942820084560006,9.376165475405196,9.682305687213207,18.008066914996498,-1.8458466782238456,18.03235491837149,-1.822133061781901,0.6768852133333334,0.12658874666666664,0.6748995066666665,1.4783734666666666,0.9642031149663746,0.8502765518661107,0.8429780231917414,0.8050159679981328
LBP08_S04,LBP08,137,138,4,137,137,1716492729.48,2024-05-23 19:32:09.480000+00:00,2024-05-24 04:32:09.480000+09:00,2024,5,23,19,32,9,480,,,,,,,,,0.258057,-0.212646,1.493408,-36.376953,107.116699,36.987305,,,,,,,,,,,0.0,1.0,1.0,4.0,0.0,0.0,0.0,4.0,0.0,-0.07748696000000001,-0.31271484,0.45433592000000006,1.7325846399999985,2.405598960000001,9.47428388,-5.809186591882394,-8.914713780394235,1.104435694560403,11.71045262088471,9.019576924189426,9.726483114995624,17.6944042641636,-1.8590642624546259,17.80334806501294,-1.8393492332570471,0.33554396,0.10006883999999999,1.03907208,1.4746848799999999,1.096482699027647,0.8494708936010972,0.8358079158644323,0.8122769102013069
LBP08_S04,LBP08,138,139,4,138,138,1716492729.52,2024-05-23 19:32:09.520000+00:00,2024-05-24 04:32:09.520000+09:00,2024,5,23,19,32,9,520,,,,,,,,,-0.391113,-0.664307,1.845947,-36.315918,-55.786133,9.399414,,,,,,,,,,,0.0,1.0,1.0,4.0,0.0,0.0,0.0,4.0,0.0,-0.08319333333333333,-0.30214192,0.453763,-1.6219075466666684,3.0257161466666678,10.722656279999999,-8.457577307970176,-4.202576877905122,-0.5231990072274867,11.372149528565904,8.851473849073221,9.705555154706524,17.374469058418423,-1.885369154065608,17.563096943440378,-1.8647360466966252,-0.30791966666666665,-0.36216508,1.3921839999999999,2.0622687466666667,1.4711065074111789,0.8991138994288653,0.8459918028634845,0.8245602326826313
LBP08_S04,LBP08,139,140,4,139,139,1716492729.56,2024-05-23 19:32:09.560000+00:00,2024-05-24 04:32:09.560000+09:00,2024,5,23,19,32,9,560,,,,,,,,,0.275879,-0.166992,1.891357,19.65332,-56.396484,-4.02832,,,,,,,,,,,0.0,1.0,1.0,4.0,0.0,0.0,0.0,4.0,0.0,-0.07120114666666666,-0.3081933466666667,0.46908852000000006,-0.5916341066666685,3.243001306666668,10.638834666666666,-10.606392088970605,0.8232932666810434,-2.4423913587035657,10.94789384500708,8.884405579740463,9.607859500358382,17.061653094747125,-1.8375797363990736,17.341188814156126,-1.8840708570375866,0.34708014666666664,0.1412013466666667,1.4222684799999998,1.910549973333333,1.470799128947303,0.9084856383355872,0.8641796676393375,0.8322685508114334
LBP08_S04,LBP08,140,141,4,140,140,1716492729.6,2024-05-23 19:32:09.600000+00:00,2024-05-24 04:32:09.600000+09:00,2024,5,23,19,32,9,600,,,,,,,,,-0.110596,-0.295166,0.563477,-17.883301,218.139648,25.756836,,,,,,,,,,,0.0,1.0,1.0,4.0,0.0,0.0,0.0,4.0,0.0,-0.08502277333333334,-0.31286132,0.47009113333333336,-0.07893880000000195,6.598307293333335,11.930338573333334,-11.639280418279498,5.426144102028281,-4.482364365547949,10.4823226282759,9.101451343821594,9.428564925736463,16.78133906474822,-1.8816153052599383,17.1668515564443,-1.8836675489526964,-0.025573226666666657,0.017695320000000014,0.09338586666666665,0.13665441333333334,0.09842781296529732,0.8787784734163018,0.8535363942895141,0.8225163720011359
LBP08_S04,LBP08,141,142,4,141,141,1716492729.64,2024-05-23 19:32:09.640000+00:00,2024-05-24 04:32:09.640000+09:00,2024,5,23,19,32,9,640,,,,,,,,,-0.036133,-0.028076,-0.036621,6.530762,-102.478027,-43.212891,,,,,,,,,,,0.0,1.0,1.0,4.0,0.0,0.0,0.0,4.0,0.0,-0.09636066666666666,-0.31460612000000004,0.45261392,-4.3424479200000015,5.0276692800000005,11.067708373333334,-11.081043912338743,9.190501396630747,-6.3035172532522115,10.039080871782351,9.469071399686824,9.176424235606374,16.572664833223936,-1.9206272849713621,17.06613732292206,-1.8762067676145537,0.060227666666666665,0.28653012000000005,-0.48923492,0.8359927066666668,0.5701558457533624,0.8718561971630295,0.8504694708981013,0.8260772247215652
LBP08_S04,LBP08,142,143,4,142,142,1716492729.68,2024-05-23 19:32:09.680000+00:00,2024-05-24 04:32:09.680000+09:00,2024,5,23,19,32,9,680,,,,,,,,,0.445801,-0.052979,0.707275,-19.104004,-70.373535,-22.644043,,,,,,,,,,,0.0,1.0,1.0,4.0,0.0,0.0,0.0,4.0,0.0,-0.0880664,-0.3221874933333333,0.44708332,-1.6666666666666685,4.192708333333335,11.223958373333332,-8.71324965734848,12.003007033542339,-7.482489035487511,9.690550885488411,9.949191681028518,8.877124674186874,16.483219771972486,-1.890056095150304,17.05984157798077,-1.8843035199012597,0.5338674,0.2692084933333333,0.26019168,1.0632675733333332,0.6520638956473405,0.8715692722855646,0.8490467666965733,0.8183579069295324
LBP08_S04,LBP08,143,144,4,143,143,1716492729.72,2024-05-23 19:32:09.720000+00:00,2024-05-24 04:32:09.720000+09:00,2024,5,23,19,32,9,720,,,,,,,,,0.544434,-0.272217,1.303711,-22.216797,59.753418,1.89209,,,,,,,,,,,0.0,1.0,1.0,4.0,0.0,0.0,0.0,4.0,0.0,-0.06443684,-0.2923925733333333,0.42759764,-1.5584309866666688,4.518229160000001,11.60725916,-4.658180935927805,13.916518621652306,-7.633512577961147,9.5042236480513,10.50585242589461,8.571784171068428,16.558341892298046,-1.82890164939713,17.162197807620657,-1.894108677287931,0.60887084,0.020175573333333308,0.8761133600000001,1.5051597733333333,1.0671013884032408,0.8809321969345931,0.8656928782773973,0.8225474250365401
LBP08_S04,LBP08,144,145,4,144,144,1716492729.76,2024-05-23 19:32:09.760000+00:00,2024-05-24 04:32:09.760000+09:00,2024,5,23,19,32,9,760,,,,,,,,,-0.54834,-0.319824,1.696533,9.82666,79.345703,15.50293,,,,,,,,,,,0.0,1.0,1.0,4.0,0.0,0.0,0.0,4.0,0.0,-0.08423826666666669,-0.31599282666666667,0.4251041466666667,-3.907063800000002,2.634277333333334,12.714029986666667,0.5957168529613608,14.997989254943274,-6.516460532146279,9.528052322169755,11.10577199609234,8.311125749782576,16.82845102532887,-1.8857780434227291,17.38019720443837,-1.8995844137413243,-0.4641017333333334,-0.0038311733333333264,1.2714288533333333,1.73936176,1.353490460203037,0.8948143073103008,0.8650780625727451,0.8355806776542034
LBP08_S04,LBP08,145,146,4,145,145,1716492729.8,2024-05-23 19:32:09.800000+00:00,2024-05-24 04:32:09.800000+09:00,2024,5,23,19,32,9,800,,,,,,,,,-0.133301,-0.437256,1.979736,-48.88916,-129.882812,-31.921387,,,,,,,,,,,0.0,1.0,1.0,4.0,0.0,0.0,0.0,4.0,0.0,-0.09249021333333333,-0.29139321333333335,0.44100584,-1.841634120000002,-0.8951822933333324,12.351888066666667,6.261710961096473,15.246222809658518,-4.105657729853992,9.778520760613613,11.71562090847868,8.146899440588417,17.29876330932342,-1.9272294668009222,17.71351035209324,-1.9096625094135409,-0.04081078666666667,-0.14586278666666663,1.53873016,1.7254037333333334,1.5461668662004575,0.9336933359121611,0.8752869440265494,0.8495498589654432
LBP08_S04,LBP08,146,147,4,146,146,1716492729.84,2024-05-23 19:32:09.840000+00:00,2024-05-24 04:32:09.840000+09:00,2024,5,23,19,32,9,840,,,,,,,,,0.511963,-0.534912,1.148682,-12.451172,102.294922,31.066895,,,,,,,,,,,0.0,1.0,1.0,4.0,0.0,0.0,0.0,4.0,0.0,-0.09602862666666669,-0.30479817333333337,0.45126299999999997,-2.2835286533333354,3.894856773333334,12.693684946666666,11.433952469155614,14.603689555877368,-0.6185634000491803,10.235878859379838,12.299768490713776,8.122156904586449,17.94510946558354,-1.9268142010909022,18.15505538854756,-1.9218385014824613,0.6079916266666666,-0.2301138266666667,0.697419,1.5355244533333332,0.9534146279982052,0.9199916702916822,0.8834173000693447,0.8501559145223243
LBP08_S04,LBP08,147,148,4,147,147,1716492729.88,2024-05-23 19:32:09.880000+00:00,2024-05-24 04:32:09.880000+09:00,2024,5,23,19,32,9,880,,,,,,,,,-0.734131,0.070068,-0.15918,131.652832,67.687988,-10.742188,,,,,,,,,,,0.0,1.0,1.0,4.0,0.0,0.0,0.0,4.0,0.0,-0.10314125333333335,-0.29819986666666665,0.44017901333333326,-1.1279296933333356,7.216796880000001,12.488606826666667,15.349841845495758,13.037655652717236,3.4912492174108194,10.849872533199669,12.821274716822465,8.261806873282882,18.7179665605625,-1.9571158363213381,18.69211005255107,-1.929148634649735,-0.6309897466666666,0.36826786666666667,-0.5993590133333333,1.5986166266666666,0.9449870416474443,0.934863050171563,0.8891621971594601,0.8525068769922827
LBP08_S04,LBP08,148,149,4,148,148,1716492729.92,2024-05-23 19:32:09.920000+00:00,2024-05-24 04:32:09.920000+09:00,2024,5,23,19,32,9,920,,,,,,,,,0.062012,-0.125488,0.26001,17.944336,-75.744629,-38.94043,,,,,,,,,,,0.0,1.0,1.0,4.0,0.0,0.0,0.0,4.0,0.0,-0.09214841333333332,-0.27692708,0.4295963333333333,1.0856119733333314,6.350911466666667,12.600911506666666,17.644782634213385,10.642515997242661,7.582858513035668,11.555663838568204,13.246975356712172,8.565121213804309,19.554463026595563,-1.9401265185995438,19.30771753137724,-1.9318171299081413,0.1541604133333333,0.15143908,-0.16958633333333328,0.4751858266666666,0.27469756541293733,0.9233382287990376,0.8775947367343477,0.8466416710469264
LBP08_S04,LBP08,149,150,4,149,149,1716492729.96,2024-05-23 19:32:09.960000+00:00,2024-05-24 04:32:09.960000+09:00,2024,5,23,19,32,9,960,,,,,,,,,0.342041,0.03833,0.956543,67.993164,20.324707,8.666992,,,,,,,,,,,0.0,1.0,1.0,4.0,0.0,0.0,0.0,4.0,0.0,-0.09668290666666667,-0.29875325333333336,0.4276008933333333,-1.279296880000002,7.500000013333334,13.533528693333333,18.4720655049579,7.709924425584987,10.932025496374404,12.29454645876652,13.555372333735571,9.002402233659286,20.394784571295816,-1.9383606931212403,19.98211410342178,-1.9449036338246253,0.43872390666666666,0.33708325333333333,0.5289421066666667,1.3047492666666667,0.7654302960842468,0.9271954906441202,0.8749032204946912,0.8401430596835769
LBP08_S04,LBP08,150,151,4,150,150,1716492730.0,2024-05-23 19:32:10+00:00,2024-05-24 04:32:10+09:00,2024,5,23,19,32,10,0,19.0,32.0,8.0,40.802467,141.598267,7.291,3.0,14.0,0.24292,-0.459229,1.590332,-60.424805,91.308594,66.589355,-553.0,18.0,602.0,0.0,0.0,1017.700012,21.5,0.046576,-36.961975,3.895313,0.0,1.0,1.0,4.0,0.0,0.0,0.0,4.0,0.0,-0.11075192000000002,-0.2793457066666667,0.41505206666666666,3.738606759999998,11.475423186666667,14.387207079999998,18.401910556973537,4.730810365735618,12.890293171865208,13.030622881045462,13.744604748364996,9.518013960533894,21.19678942929144,-2.0033752259491404,20.69389438190721,-1.9548968003260156,0.35367192000000003,-0.1798832933333333,1.1752799333333335,1.708835146666667,1.2404534444762274,0.9324550307653628,0.8896757089201078,0.8488523339545133
LBP08_S04,LBP08,151,152,4,151,151,1716492730.04,2024-05-23 19:32:10.040000+00:00,2024-05-24 04:32:10.040000+09:00,2024,5,23,19,32,10,40,,,,,,,,,-0.647217,-0.250488,1.73877,4.577637,-53.710938,32.348633,,,,,,,,,,,0.0,1.0,1.0,4.0,0.0,0.0,0.0,4.0,0.0,-0.11212886666666667,-0.2918196533333333,0.4271679466666667,1.8815104133333311,7.1769205733333346,13.457031306666666,18.128434330851114,2.3195368059487853,13.06052247534282,13.755760254279506,13.837386220602948,10.040434859547608,21.943211473259034,-1.9937286166441006,21.42061206765199,-1.9589395149124045,-0.5350881333333334,0.04133165333333333,1.3116020533333332,1.88802184,1.4171547418364847,0.9506962302031515,0.8976505269503839,0.8611375479052301
LBP08_S04,LBP08,152,153,4,152,152,1716492730.08,2024-05-23 19:32:10.080000+00:00,2024-05-24 04:32:10.080000+09:00,2024,5,23,19,32,10,80,,,,,,,,,0.35791,-0.53833,1.349854,-48.76709,-45.166016,10.559082,,,,,,,,,,,0.0,1.0,1.0,4.0,0.0,0.0,0.0,4.0,0.0,-0.09250321333333333,-0.3027246,0.4513639066666667,2.3404947999999974,6.185709640000001,13.096516986666668,18.123305931868778,1.069495002074419,11.415540087355689,14.480692491554258,13.880166020685925,10.497056463041835,22.639294560234166,-1.916741047734366,22.13869981436411,-1.9607662147796148,0.45041321333333334,-0.23560539999999996,0.8984900933333334,1.5845087066666665,1.032311200691226,0.9238261591222543,0.9034486752110201,0.8659775525568129
LBP08_S04,LBP08,153,154,4,153,153,1716492730.12,2024-05-23 19:32:10.120000+00:00,2024-05-24 04:32:10.120000+09:00,2024,5,23,19,32,10,120,,,,,,,,,-0.880859,0.064209,-0.234863,90.942383,139.587402,12.756348,,,,,,,,,,,0.0,1.0,1.0,4.0,0.0,0.0,0.0,4.0,0.0,-0.10487625333333334,-0.30035156,0.44577472,3.184407559999998,8.972167973333333,14.71435552,18.39822414566106,1.3717145545186955,8.298058733033386,15.2166214573807,13.935034602866672,10.82897881236317,23.302307612743437,-1.9597666885619682,22.823064959273047,-1.9616058455250058,-0.7759827466666667,0.36456056000000003,-0.68063772,1.8211810266666668,1.0946786427617268,0.9316905551507771,0.9097845650717099,0.8677552804380516
LBP08_S04,LBP08,154,155,4,154,154,1716492730.16,2024-05-23 19:32:10.160000+00:00,2024-05-24 04:32:10.160000+09:00,2024,5,23,19,32,10,160,,,,,,,,,0.09082,0.112793,0.110352,51.269531,-159.973145,-58.227539,,,,,,,,,,,0.0,1.0,1.0,4.0,0.0,0.0,0.0,4.0,0.0,-0.11275710666666666,-0.29993164,0.4409830533333333,3.188476573333331,8.916829426666668,14.40185552,18.46566193501774,3.2541909476433695,4.301915706354735,15.95524793478141,14.065202240772408,11.001055440617359,23.94625381018318,-1.9857097084366322,23.447227608941215,-1.9630494753996373,0.20357710666666667,0.41272464,-0.3306310533333333,0.9469328,0.5666587687931869,0.9354166947793323,0.9049637218031874,0.8653280395975446
LBP08_S04,LBP08,155,156,4,155,155,1716492730.2,2024-05-23 19:32:10.200000+00:00,2024-05-24 04:32:10.200000+09:00,2024,5,23,19,32,10,200,,,,,,,,,0.487793,-0.139648,0.906006,-6.225586,-37.963867,3.723145,,,,,,,,,,,0.0,1.0,1.0,4.0,0.0,0.0,0.0,4.0,0.0,-0.10724929333333333,-0.30188477333333336,0.4379882666666667,2.8369140666666643,7.7498372400000015,14.235026093333333,17.48658992872544,6.3104691777464215,0.10054916655535981,16.654711531930428,14.317621007882265,11.005077407279574,24.565940166771213,-1.9676566126648114,23.98500444134154,-1.9609350927275222,0.5950422933333332,0.16223677333333336,0.4680177333333333,1.2252968,0.7742329753966019,0.9327576536242738,0.8949110853894413,0.8564603843057114
LBP08_S04,LBP08,156,157,4,156,156,1716492730.24,2024-05-23 19:32:10.240000+00:00,2024-05-24 04:32:10.240000+09:00,2024,5,23,19,32,10,240,,,,,,,,,0.479248,-0.7771,1.500488,-95.703125,151.000977,10.437012,,,,,,,,,,,0.0,1.0,1.0,4.0,0.0,0.0,0.0,4.0,0.0,-0.09975254666666666,-0.30075522666666665,0.43591796,3.2495117199999983,9.095865893333334,14.288737026666665,14.545334748688992,9.767536509252604,-3.6924608955710263,17.236524921877987,14.70832246825237,10.857378971456733,25.125986932704738,-1.9450811997630073,24.414207386948195,-1.9565926860241212,0.5790005466666667,-0.47634477333333336,1.06457004,2.1199153600000002,1.302096519536046,0.9407230636466511,0.9010616684398339,0.8611794543153157
LBP08_S04,LBP08,157,158,4,157,157,1716492730.28,2024-05-23 19:32:10.280000+00:00,2024-05-24 04:32:10.280000+09:00,2024,5,23,19,32,10,280,,,,,,,,,-0.839355,-0.7146,1.765869,42.053223,-11.84082,23.254395,,,,,,,,,,,0.0,1.0,1.0,4.0,0.0,0.0,0.0,4.0,0.0,-0.10697585333333334,-0.30421876000000003,0.43541992,2.9256184933333316,9.24560548,14.440104213333335,9.004870751232504,12.685418696465206,-6.584222551128929,17.596719751927285,15.215739216110977,10.594010069411576,25.56161800965188,-1.965512143775249,24.721766039012003,-1.9542527593567567,-0.7323791466666666,-0.41038124,1.33044908,2.473209466666667,1.5731772726202786,0.9541976445195287,0.9090614809933549,0.8766438151675311
LBP08_S04,LBP08,158,159,4,158,158,1716492730.32,2024-05-23 19:32:10.320000+00:00,2024-05-24 04:32:10.320000+09:00,2024,5,23,19,32,10,320,,,,,,,,,0.153564,-0.36499,1.150146,35.827637,63.110352,-5.310059,,,,,,,,,,,0.0,1.0,1.0,4.0,0.0,0.0,0.0,4.0,0.0,-0.10420892000000001,-0.3022754,0.4535058533333334,3.3626302133333312,5.078125013333334,13.735351600000001,0.8993011901373331,14.205056142662531,-8.196780925981177,17.63269179953278,15.783941461817479,10.266138832372329,25.796089523277256,-1.9545628173458576,24.90891005602305,-1.956791474856992,0.25777292,-0.06271459999999995,0.6966401466666665,1.0171276666666664,0.7454444937661294,0.9716948147970715,0.9062556332391144,0.8810388944471189
LBP08_S04,LBP08,159,160,4,159,159,1716492730.36,2024-05-23 19:32:10.360000+00:00,2024-05-24 04:32:10.360000+09:00,2024,5,23,19,32,10,360,,,,,,,,,-1.199707,0.044189,-0.797119,77.026367,-35.15625,-65.673828,,,,,,,,,,,0.0,1.0,1.0,4.0,0.0,0.0,0.0,4.0,0.0,-0.09565424,-0.31084961333333333,0.4726920533333333,1.5706380266666646,7.001953133333333,14.55078128,-8.74060100832343,13.737783882721267,-8.235513222448029,17.28306775919984,16.33345281712633,9.936718303474407,25.772552895299068,-1.9172168664000877,24.995512542717982,-1.9544019248823354,-1.10405276,0.3550386133333333,-1.2698110533333333,2.728902426666667,1.7197107387548591,1.0028920131748338,0.9300582568101814,0.8922392598269521
LBP08_S04,LBP08,160,161,4,160,160,1716492730.4,2024-05-23 19:32:10.400000+00:00,2024-05-24 04:32:10.400000+09:00,2024,5,23,19,32,10,400,,,,,,,,,0.897461,0.18042,1.342773,63.659668,-131.591797,-26.245117,,,,,,,,,,,0.0,1.0,1.0,4.0,0.0,0.0,0.0,4.0,0.0,-0.10911451999999999,-0.31193034666666664,0.46505860000000004,1.4396158933333312,9.456380213333334,14.925130239999998,-17.808792871177626,11.053166281138603,-6.458261242158955,16.570716044352736,16.775579468371873,9.678387853788049,25.488818885357972,-1.959951158915134,25.02390353977037,-1.952687475362373,1.00657552,0.49235034666666666,0.8777143999999999,2.3766402666666666,1.4233712478806844,1.044712691887261,0.9455520558842327,0.900568631787108
LBP08_S04,LBP08,161,162,4,161,161,1716492730.44,2024-05-23 19:32:10.440000+00:00,2024-05-24 04:32:10.440000+09:00,2024,5,23,19,32,10,440,,,,,,,,,0.259521,0.622314,1.351807,-61.706543,161.560059,124.267578,,,,,,,,,,,0.0,1.0,1.0,4.0,0.0,0.0,0.0,4.0,0.0,-0.11127922666666668,-0.30870442666666664,0.45875326666666666,2.1272786533333314,8.879394533333334,14.945475293333333,-23.457541647778164,6.300673070288078,-2.6527617044626757,15.63241437844161,17.027606391183397,9.572277385609542,25.0187979938971,-1.9703293499704544,25.06153051469145,-1.9466678473727008,0.3708002266666667,0.9310184266666667,0.8930537333333333,2.194872386666667,1.3423237647861008,1.05983751788005,0.9550570348730804,0.9152645214211776
LBP08_S04,LBP08,162,163,4,162,162,1716492730.48,2024-05-23 19:32:10.480000+00:00,2024-05-24 04:32:10.480000+09:00,2024,5,23,19,32,10,480,,,,,,,,,-0.260254,-2.406738,1.613525,-188.049316,49.255371,-50.78125,,,,,,,,,,,0.0,1.0,1.0,4.0,0.0,0.0,0.0,4.0,0.0,-0.10194654666666667,-0.3089453066666667,0.45419597333333334,1.3981119866666647,8.01106772,14.647623733333333,-22.863659968692513,0.0015563183982541216,3.359219399770051,14.717867979693908,17.027668643919327,9.706646161600345,24.51073473034465,-1.9421282027367195,25.19735672827381,-1.9438234654124582,-0.15830745333333332,-2.097792693333333,1.1593290266666667,3.415429173333333,2.402048964125312,1.1120601684839568,0.980765531042527,0.9278920000709403
LBP08_S04,LBP08,163,164,4,163,163,1716492730.52,2024-05-23 19:32:10.520000+00:00,2024-05-24 04:32:10.520000+09:00,2024,5,23,19,32,10,520,,,,,,,,,-0.239746,-0.45752,0.460205,265.930176,39.916992,21.240234,,,,,,,,,,,0.0,1.0,1.0,4.0,0.0,0.0,0.0,4.0,0.0,-0.09874017333333333,-0.30426430666666665,0.4518945466666667,1.5991210933333313,10.298665373333336,15.358072946666665,-14.250889171913897,-7.018532715492352,11.655932218243901,14.147832412817353,16.746927335299635,10.1728834503301,24.16833247969275,-1.9358711888154005,25.5257503753506,-1.9411387508295905,-0.14100582666666667,-0.15325569333333333,0.0083104533333333,0.3025719733333333,0.20842028290844503,1.0615527195038472,0.9803333094663563,0.9178454417436054
LBP08_S04,LBP08,164,165,4,164,164,1716492730.56,2024-05-23 19:32:10.560000+00:00,2024-05-24 04:32:10.560000+09:00,2024,5,23,19,32,10,560,,,,,,,,,-0.02002,3.674805,-0.72168,120.361328,-139.404297,80.444336,,,,,,,,,,,0.0,1.0,1.0,4.0,0.0,0.0,0.0,4.0,0.0,-0.11041010666666667,-0.30835936,0.45572266666666666,1.2654622399999982,8.490397133333333,15.365397159999999,2.1446385427743953,-13.806146695142901,22.08030262752902,14.233617954528329,16.19468146749392,11.056095555431261,24.230163780707077,-1.9685652132370093,26.121287435387437,-1.940020521015483,0.09039010666666668,3.98316436,-1.1774026666666666,5.250957133333333,4.154521119170198,1.168901599112763,1.038693618724175,0.9657536447971461
LBP08_S04,LBP08,165,166,4,165,165,1716492730.6,2024-05-23 19:32:10.600000+00:00,2024-05-24 04:32:10.600000+09:00,2024,5,23,19,32,10,600,,,,,,,,,1.246094,-6.054199,-2.297363,-1374.572754,-143.432617,-206.176758,,,,,,,,,,,0.0,1.0,1.0,4.0,0.0,0.0,0.0,4.0,0.0,-0.09358068,-0.31231443999999997,0.4847005333333333,0.9098307333333313,5.76253256,15.230306013333331,23.530699613481683,-19.524761248586213,34.09722407086145,15.174845939067596,15.41369101755047,12.41998451826572,24.942209915982037,-1.907460332768088,27.01810388162163,-1.939692098749763,1.3396746800000001,-5.74188456,-2.782063533333333,9.863622773333333,6.519497223874143,1.425744375549117,1.1522614244827094,1.044272388042715
LBP08_S04,LBP08,166,167,4,166,166,1716492730.64,2024-05-23 19:32:10.640000+00:00,2024-05-24 04:32:10.640000+09:00,2024,5,23,19,32,10,640,,,,,,,,,-2.363037,2.02417,-5.795654,1980.529785,-23.742676,64.147949,,,,,,,,,,,0.0,1.0,1.0,4.0,0.0,0.0,0.0,4.0,0.0,-0.09661453333333334,-0.3127538933333333,0.4858951866666667,1.6023763066666648,9.047037773333333,16.668294293333332,44.78390696685,-23.61457533181427,46.754099927389674,16.966202217741596,14.4691080042779,14.290148515361306,26.48424906852829,-1.9166373801605832,28.204541511881292,-1.935893451966909,-2.2664224666666666,2.336923893333333,-6.281549186666666,10.884895546666666,7.075008428627933,1.6859384788640996,1.2788973380135646,1.1289591402201007
LBP08_S04,LBP08,167,168,4,167,167,1716492730.68,2024-05-23 19:32:10.680000+00:00,2024-05-24 04:32:10.680000+09:00,2024,5,23,19,32,10,680,,,,,,,,,-2.158936,-0.271973,-5.221436,-1992.736816,35.949707,372.558594,,,,,,,,,,,0.0,1.0,1.0,4.0,0.0,0.0,0.0,4.0,0.0,-0.1024088,-0.31020832,0.47511719999999996,1.8139648533333312,8.875325533333335,16.673990906666663,59.61893226541753,-25.737803939951203,58.81692630077671,19.350959508358297,13.43959584667985,16.642825567392375,28.845554480419786,-1.938664997946572,29.633484730652185,-1.931606447202102,-2.0565272,0.03823531999999996,-5.696553199999999,7.79131572,6.056524120687177,1.902116887865693,1.3868430800756288,1.2000701404196132
LBP08_S04,LBP08,168,169,4,168,168,1716492730.72,2024-05-23 19:32:10.720000+00:00,2024-05-24 04:32:10.720000+09:00,2024,5,23,19,32,10,720,,,,,,,,,-0.85791,-5.050537,-1.122803,1243.347168,248.352051,-113.098145,,,,,,,,,,,0.0,1.0,1.0,4.0,0.0,0.0,0.0,4.0,0.0,-0.10328119999999999,-0.3098177066666667,0.4659570533333334,2.352701826666665,6.84326172,16.643066426666664,62.49587600024248,-25.566101993269505,69.03070744657515,21.850794548367997,12.41695176694907,19.40405386525538,31.75146012364566,-1.9433805192047797,31.24100838472541,-1.9260755763205935,-0.7546288,-4.740719293333334,-1.5887600533333335,7.084108146666667,5.056485197352019,2.0616922402236444,1.471312218579119,1.2643593322594795
LBP08_S04,LBP08,169,170,4,169,169,1716492730.76,2024-05-23 19:32:10.760000+00:00,2024-05-24 04:32:10.760000+09:00,2024,5,23,19,32,10,760,,,,,,,,,2.503662,7.999756,-2.235107,1216.674805,25.024414,148.864746,,,,,,,,,,,0.0,1.0,1.0,4.0,0.0,0.0,0.0,4.0,0.0,-0.09155918666666667,-0.3006022133333333,0.4579622666666667,2.7994791599999975,7.167154946666668,16.50309246666667,50.62120629919874,-22.653448941140418,76.35451140745742,23.875642800335946,11.510813809303453,22.45823432155368,34.74071735764097,-1.9139326437428916,32.96270951981124,-1.9242067901211217,2.5952211866666666,8.300358213333332,-2.693069266666667,13.588648666666666,9.104050832043843,2.3717146550972767,1.6332644812037886,1.367290260080922
LBP08_S04,LBP08,170,171,4,170,170,1716492730.8,2024-05-23 19:32:10.800000+00:00,2024-05-24 04:32:10.800000+09:00,2024,5,23,19,32,10,800,,,,,,,,,-0.275635,-4.02832,-7.475098,-1971.130371,-312.62207,-11.84082,,,,,,,,,,,0.0,1.0,1.0,4.0,0.0,0.0,0.0,4.0,0.0,-0.09383132000000001,-0.30062174666666663,0.45516604,2.4601236933333315,9.060058586666667,17.257486999999998,25.172150182552926,-16.615729116615654,80.0663695285753,24.882528807638064,10.846184644638827,25.66088910269669,37.3531951879546,-1.921964691086591,34.73877812367716,-1.9216735963913458,-0.18180368000000002,-3.727698253333333,-7.93026404,11.839765973333332,8.76458068535415,2.660451207863424,1.7970722718877925,1.470341698638841
LBP08_S04,LBP08,171,172,4,171,171,1716492730.84,2024-05-23 19:32:10.840000+00:00,2024-05-24 04:32:10.840000+09:00,2024,5,23,19,32,10,840,,,,,,,,,-4.172119,0.710205,-8.0,1998.657227,-121.398926,-68.29834,,,,,,,,,,,0.0,1.0,1.0,4.0,0.0,0.0,0.0,4.0,0.0,-0.09767572000000001,-0.30663736,0.4689355733333333,2.7107747333333316,5.53629556,16.67724610666667,-8.905916009177544,-7.572381543199566,79.77738143877863,24.526292167270963,10.543289382910844,28.851984360247833,39.30823018160603,-1.9274593023223836,36.50729096836309,-1.9243600856768186,-4.0744432800000006,1.01684236,-8.468935573333333,13.560221213333334,9.452932146815522,3.0004319086161173,1.9602117894538995,1.589088836251602
LBP08_S04,LBP08,172,173,4,172,172,1716492730.88,2024-05-23 19:32:10.880000+00:00,2024-05-24 04:32:10.880000+09:00,2024,5,23,19,32,10,880,,,,,,,,,-1.056885,1.700928,-2.239746,-1305.175781,19.287109,293.762207,,,,,,,,,,,0.0,1.0,1.0,4.0,0.0,0.0,0.0,4.0,0.0,-0.08814448,-0.31534503999999997,0.49095705333333334,1.3273111866666645,6.667480453333334,17.286783866666664,-44.51726025759152,3.4777277712716015,75.4692671235926,22.745601756967304,10.682398493761708,31.870755045191537,40.585971271076886,-1.8868194939216358,38.19742519779445,-1.9235119678712238,-0.9687405200000001,2.0162730399999997,-2.730703053333333,5.715716613333333,3.5299510382446804,3.103830468480006,2.0193467593257846,1.6273849542663088
LBP08_S04,LBP08,173,174,4,173,173,1716492730.92,2024-05-23 19:32:10.920000+00:00,2024-05-24 04:32:10.920000+09:00,2024,5,23,19,32,10,920,,,,,,,,,1.249268,-7.840088,3.80957,-756.713867,212.585449,120.483398,,,,,,,,,,,0.0,1.0,1.0,4.0,0.0,0.0,0.0,4.0,0.0,-0.09745112,-0.31559244,0.48628907999999993,1.2736002533333313,9.94628904,17.795410173333334,-74.71876862694191,14.68992441760032,67.59531366617335,19.756851011889626,11.269995470465721,34.57456759183847,41.385343830551044,-1.9171833268206828,39.73742450548185,-1.9222189132976677,1.34671912,-7.52449556,3.32328092,12.1944956,8.335219366871478,3.4262513405383483,2.174794784668693,1.7271469380023476
LBP08_S04,LBP08,174,175,4,174,174,1716492730.96,2024-05-23 19:32:10.960000+00:00,2024-05-24 04:32:10.960000+09:00,2024,5,23,19,32,10,960,,,,,,,,,0.116455,1.170654,0.093262,717.895508,-153.747559,-73.852539,,,,,,,,,,,0.0,1.0,1.0,4.0,0.0,0.0,0.0,4.0,0.0,-0.10453445333333333,-0.3133430933333333,0.47334962666666663,0.7739257733333312,8.736979146666668,17.12158204,-94.66418354158259,23.888316454608418,57.15560449112429,15.970283670226323,12.225528128650058,36.86079177148345,41.990849819366275,-1.9432332759392505,41.07772318400532,-1.9196935543724887,0.22098945333333334,1.4839970933333335,-0.3800876266666666,2.0850741733333336,1.5477565426937943,3.4575443904027297,2.192369940523425,1.7357836104640376
LBP08_S04,LBP08,175,176,4,175,175,1716492731.0,2024-05-23 19:32:11+00:00,2024-05-24 04:32:11+09:00,2024,5,23,19,32,11,0,19.0,32.0,9.0,40.802563,141.598312,8.378,3.0,14.0,-0.04541,0.318115,1.225586,-247.314453,145.324707,135.009766,-537.0,15.0,587.0,0.0,0.0,1018.0,21.549999,0.049549,-39.448975,3.895313,0.0,1.0,1.0,4.0,0.0,0.0,0.0,6.0,0.0,-0.10062169333333333,-0.3111230533333333,0.4644922133333333,1.691080719999998,6.482747373333333,16.492513026666664,-102.42062803317349,29.333760669788443,45.62193894163992,11.873458548899382,13.398878555441597,38.68566932914904,42.62733836284137,-1.9343252256228163,42.213292255335894,-1.9191959069227686,0.05521169333333333,0.6292380533333333,0.7610937866666667,1.4455435333333333,0.9890665351461763,3.447488914029528,2.1899719723974456,1.742280110623248
LBP08_S04,LBP08,176,177,4,176,176,1716492731.04,2024-05-23 19:32:11.040000+00:00,2024-05-24 04:32:11.040000+09:00,2024,5,23,19,32,11,40,,,,,,,,,0.331055,-0.727783,1.327393,124.511719,68.725586,-10.498047,,,,,,,,,,,0.0,1.0,1.0,4.0,0.0,0.0,0.0,6.0,0.0,-0.09125646666666667,-0.3074121066666667,0.45733726666666674,1.1100260266666646,7.343749973333334,16.57389324,-98.59833223816732,30.40757232006925,34.67806041537075,7.9295252593726895,14.615181448244366,40.07279174576387,43.38559136284184,-1.9081562021046314,43.189809665074804,-1.9222000653476061,0.42231146666666664,-0.4203708933333333,0.8700557333333333,1.7127380933333334,1.0545404885286387,3.4329843438972136,2.1918402870501827,1.7427617992659938
LBP08_S04,LBP08,177,178,4,177,177,1716492731.08,2024-05-23 19:32:11.080000+00:00,2024-05-24 04:32:11.080000+09:00,2024,5,23,19,32,11,80,,,,,,,,,-0.858643,-0.12793,0.549805,-68.359375,192.932129,41.07666,,,,,,,,,,,0.0,1.0,1.0,4.0,0.0,0.0,0.0,6.0,0.0,-0.09763016000000001,-0.31240234666666666,0.45506513333333326,0.504557279999998,8.32682288,17.318522146666666,-85.37061988498345,27.930049483553503,25.85296253024402,4.514700463973352,15.732383427586505,41.106910246973634,44.24554755729378,-1.9257344522110162,44.09023968423322,-1.9275083306888525,-0.76101284,0.18447234666666668,0.09473986666666673,1.0402250533333335,0.7887624684691775,3.423242394608332,2.1735342768652934,1.743379915010124
LBP08_S04,LBP08,178,179,4,178,178,1716492731.12,2024-05-23 19:32:11.120000+00:00,2024-05-24 04:32:11.120000+09:00,2024,5,23,19,32,11,120,,,,,,,,,-0.265869,-0.732178,0.085693,-338.500977,-108.703613,-53.222656,,,,,,,,,,,0.0,1.0,1.0,4.0,0.0,0.0,0.0,6.0,0.0,-0.09596674666666666,-0.31132486666666664,0.4712956,0.8715820266666647,5.533040333333334,17.304687506666667,-65.54716139121504,23.958284082828815,20.170675160235636,1.8928140083247498,16.69071479089966,41.91373725338306,45.154446908880395,-1.9181269299529873,45.00889282550334,-1.9329554412098182,-0.16990225333333336,-0.42085313333333335,-0.38560259999999996,0.9763579866666667,0.5955447091956981,3.403277037265691,2.1674837962082343,1.7409487224697033
LBP08_S04,LBP08,179,180,4,179,179,1716492731.16,2024-05-23 19:32:11.160000+00:00,2024-05-24 04:32:11.160000+09:00,2024,5,23,19,32,11,160,,,,,,,,,0.595459,-0.922607,1.379883,144.836426,12.207031,37.658691,,,,,,,,,,,0.0,1.0,1.0,4.0,0.0,0.0,0.0,6.0,0.0,-0.09506830666666667,-0.31663737333333336,0.4860612266666666,0.4850260266666646,8.633626266666667,18.547363293333333,-42.00160282810669,21.085672093406643,17.927255263602614,0.21274989520048204,17.534141674635926,42.63082746392717,46.096408070946694,-1.9089561692456893,46.02465533111549,-1.9341279218955005,0.6905273066666666,-0.6059696266666665,0.8938217733333333,2.1903187066666665,1.2817739707840867,3.4318816453453267,2.1836491700623295,1.747269696317234
LBP08_S04,LBP08,180,181,4,180,180,1716492731.2,2024-05-23 19:32:11.200000+00:00,2024-05-24 04:32:11.200000+09:00,2024,5,23,19,32,11,200,,,,,,,,,1.577637,1.307861,0.600586,42.419434,-24.169922,10.070801,,,,,,,,,,,0.0,1.0,1.0,4.0,0.0,0.0,0.0,6.0,0.0,-0.10848953333333335,-0.3168554666666667,0.47699548,1.1759439999999979,10.393066373333335,18.879394546666667,-17.40709425277245,21.47729655376672,18.663462844246123,-0.4835338749104159,18.393233536786596,43.37736597769701,47.118369285343725,-1.95200627533497,47.18380890832526,-1.9352960284774263,1.6861265333333333,1.6247164666666667,0.12359051999999993,3.4344335200000002,2.3447816316455508,3.4947035915952847,2.2137306226097793,1.7615085874580556
LBP08_S04,LBP08,181,182,4,181,181,1716492731.24,2024-05-23 19:32:11.240000+00:00,2024-05-24 04:32:11.240000+09:00,2024,5,23,19,32,11,240,,,,,,,,,-1.051025,-2.064453,1.739258,-227.416992,-98.510742,71.166992,,,,,,,,,,,0.0,1.0,1.0,4.0,0.0,0.0,0.0,6.0,0.0,-0.11598628,-0.3126822933333333,0.4624186533333333,1.456705719999998,8.16975908,18.640950533333335,5.873241457479808,26.018015250428835,21.33487402716617,-0.24860421661122356,19.43395414680375,44.23076093878366,48.31253037319012,-1.9805419557348443,48.49673116613458,-1.9328846201950163,-0.9350387200000001,-1.7517707066666666,1.2768393466666668,3.9636487733333334,2.360787312281823,3.5370512233051157,2.2388871434758837,1.7797248533949277
LBP08_S04,LBP08,182,183,4,182,182,1716492731.28,2024-05-23 19:32:11.280000+00:00,2024-05-24 04:32:11.280000+09:00,2024,5,23,19,32,11,280,,,,,,,,,-1.186279,2.063965,1.314697,117.370605,-90.393066,10.375977,,,,,,,,,,,0.0,1.0,1.0,4.0,0.0,0.0,0.0,6.0,0.0,-0.10199865333333334,-0.31082032000000004,0.45225589333333327,1.625162759999998,6.0506184533333345,18.29508464,25.8581539030386,33.92895199182579,24.61097813012659,0.7857219395103204,20.79111222647678,45.215200063988725,49.77250268377818,-1.9412905991312934,49.94517356198325,-1.9328676920561836,-1.0842803466666668,2.37478532,0.8624411066666667,4.321506773333334,2.7493769928337426,3.584099212113655,2.269148428316592,1.8007407247001213
LBP08_S04,LBP08,183,184,4,183,183,1716492731.32,2024-05-23 19:32:11.320000+00:00,2024-05-24 04:32:11.320000+09:00,2024,5,23,19,32,11,320,,,,,,,,,-0.032471,-1.514893,0.990234,15.74707,263.244629,51.818848,,,,,,,,,,,0.0,1.0,1.0,4.0,0.0,0.0,0.0,6.0,0.0,-0.09703770666666667,-0.30830404,0.44442712,2.4438476533333313,8.102213493333334,19.07633464,41.051223960701904,43.022515542765596,27.20175783529555,2.4277708979383967,22.512012848187403,46.303270377400544,51.54296888667251,-1.9289081336775078,51.49292099528149,-1.9352425934578226,0.06456670666666667,-1.20658896,0.54580688,1.8169625466666666,1.3258698760658962,3.6073162274056454,2.2895055211013586,1.8066091646279578
LBP08_S04,LBP08,184,185,4,184,184,1716492731.36,2024-05-23 19:32:11.360000+00:00,2024-05-24 04:32:11.360000+09:00,2024,5,23,19,32,11,360,,,,,,,,,-0.208252,0.68042,0.142578,180.175781,160.217285,-33.203125,,,,,,,,,,,0.0,1.0,1.0,4.0,0.0,0.0,0.0,6.0,0.0,-0.10593745333333333,-0.3090592533333333,0.45237958666666667,2.204589839999998,6.557617133333334,18.902180986666668,50.583155119643706,50.48971464918806,28.130134146805318,4.451097102724145,24.531601434154926,47.428475743272756,53.582385591463954,-1.9549143417585066,53.0943939758637,-1.9392540206018443,-0.10231454666666666,0.9894792533333333,-0.3098015866666667,1.4015953866666666,1.041880262956296,3.5802030083737026,2.291547510774268,1.8134398406646886
