file_name,test_id,_program_index,program_index,session_id,index,_index,unixtime,datetime_utc,datetime_jst,rtc_year,rtc_month,rtc_day,rtc_hour,rtc_min,rtc_sec,rtc_msec,gps_hour,gps_min,gps_sec,latitude,longitude,altitude,fix_type,SIV,acc_x,acc_y,acc_z,gyro_x,gyro_y,gyro_z,mag_x,mag_y,mag_z,illuminance,atmopress,water_pressure,water_temp,depth,alt_wps,battery_level,behavior_class,camera_command,camera_recording,camera_count,play_audio,speaker_on,audio_file,prev_sd_write_time_ms,delay_occurred_counter,acc_x_ma,acc_y_ma,acc_z_ma,gyro_x_ma,gyro_y_ma,gyro_z_ma,gyro_x_lowpass,gyro_y_lowpass,gyro_z_lowpass,angle_x,angle_y,angle_z,combined_angle_change,gravity_adjusted_angle,smoothed_angle_change,smoothed_gravity_angle,acc_x_dy,acc_y_dy,acc_z_dy,ODBA,VeDBA,smoothed_VeDBA_1s,smoothed_VeDBA_2s,smoothed_VeDBA_3s
LBP08_S07,LBP08,0,1,7,0,0,1716495549.0,2024-05-23 20:19:09+00:00,2024-05-24 05:19:09+09:00,2024,5,23,20,19,9,0,20.0,19.0,7.0,40.789227,141.62056,1.394,3.0,16.0,-0.5625,0.35791,-0.192627,-39.672852,116.455078,-26.000977,-545.0,42.0,592.0,491.0,0.0,1019.5,21.75,0.064414,-51.875576,3.825,0.0,1.0,1.0,7.0,0.0,0.0,0.0,3.0,0.0,,,,,,,-39.66256248111955,117.47533425902432,-25.814214458133396,-1.586502499244782,4.699013370360973,-1.0325685783253358,5.0659564451232635,,9.352206994638955,,,,,,,,,
LBP08_S07,LBP08,1,2,7,1,1,1716495549.04,2024-05-23 20:19:09.040000+00:00,2024-05-24 05:19:09.040000+09:00,2024,5,23,20,19,9,40,,,,,,,,,-0.081787,-0.184326,-0.047852,-88.256836,-81.848145,-35.400391,,,,,,,,,,,0.0,1.0,1.0,7.0,0.0,0.0,0.0,3.0,0.0,,,,,,,-37.90975981053035,73.23880873700402,-23.37220331890285,-3.102892891665996,7.628565719841134,-1.9674567110814498,8.467221808188686,,9.662433544886996,,,,,,,,,
LBP08_S07,LBP08,2,3,7,2,2,1716495549.08,2024-05-23 20:19:09.080000+00:00,2024-05-24 05:19:09.080000+09:00,2024,5,23,20,19,9,80,,,,,,,,,0.373047,-0.171631,0.395508,-57.922363,-173.522949,-80.383301,,,,,,,,,,,0.0,1.0,1.0,7.0,0.0,0.0,0.0,3.0,0.0,,,,,,,-33.41890169432016,34.71402473149696,-21.24436173454406,-4.439648959438802,9.017126709101014,-2.8172311804632124,10.438191821153847,,9.836514126585993,,,,,,,,,
LBP08_S07,LBP08,3,4,7,3,3,1716495549.12,2024-05-23 20:19:09.120000+00:00,2024-05-24 05:19:09.120000+09:00,2024,5,23,20,19,9,120,,,,,,,,,0.626953,-0.366699,1.071289,-134.58252,-66.28418,-33.447266,,,,,,,,,,,0.0,1.0,1.0,7.0,0.0,0.0,0.0,3.0,0.0,,,,,,,-24.592429380738476,6.010808184062981,-19.838036665210545,-5.423346134668341,9.257559036463533,-3.6107526470716342,11.320451284660187,,9.95831644820578,,,,,,,,,
LBP08_S07,LBP08,4,5,7,4,4,1716495549.16,2024-05-23 20:19:09.160000+00:00,2024-05-24 05:19:09.160000+09:00,2024,5,23,20,19,9,160,,,,,,,,,-0.314941,-0.053711,1.308838,-86.914062,84.838867,-13.977051,,,,,,,,,,,0.0,1.0,1.0,7.0,0.0,0.0,0.0,3.0,0.0,,,,,,,-11.541437378217195,-11.211346120459087,-19.58693846579379,-5.885003629797029,8.80910519164517,-4.394230185703385,11.46921361406879,,10.102881637355203,,,,,,,,,
LBP08_S07,LBP08,5,6,7,5,5,1716495549.2,2024-05-23 20:19:09.200000+00:00,2024-05-24 05:19:09.200000+09:00,2024,5,23,20,19,9,200,,,,,,,,,-0.068115,-0.31958,1.590088,39.489746,7.93457,-22.644043,,,,,,,,,,,0.0,1.0,1.0,7.0,0.0,0.0,0.0,3.0,0.0,,,,,,,3.8857319613079224,-17.726399350081792,-20.780308290454165,-5.729574351344712,8.100049217641898,-5.225442517321552,11.21356629612721,,10.317871289617695,,,,,,,,,
LBP08_S07,LBP08,6,7,7,6,6,1716495549.24,2024-05-23 20:19:09.240000+00:00,2024-05-24 05:19:09.240000+09:00,2024,5,23,20,19,9,240,,,,,,,,,0.255859,-0.351562,1.161377,90.881348,54.748535,76.049805,,,,,,,,,,,0.0,1.0,1.0,7.0,0.0,0.0,0.0,3.0,0.0,,,,,,,18.711617108507685,-16.00394010918284,-23.341761647000023,-4.981109667004405,7.459891613274584,-6.1591129832015525,10.88099761677996,,11.170959680627625,,,,,,,,,
LBP08_S07,LBP08,7,8,7,7,7,1716495549.28,2024-05-23 20:19:09.280000+00:00,2024-05-24 05:19:09.280000+09:00,2024,5,23,20,19,9,280,,,,,,,,,-0.358887,-0.291016,0.078125,49.743652,124.389648,25.20752,,,,,,,,,,,0.0,1.0,1.0,7.0,0.0,0.0,0.0,3.0,0.0,,,,,,,29.843586684744867,-9.186707601736673,-26.6973928460393,-3.7873661996146097,7.092423309205117,-7.227008697043125,10.810932699544301,,11.827823364827443,,,,,,,,,
LBP08_S07,LBP08,8,9,7,8,8,1716495549.32,2024-05-23 20:19:09.320000+00:00,2024-05-24 05:19:09.320000+09:00,2024,5,23,20,19,9,320,,,,,,,,,-0.036621,0.14502,0.081543,152.160645,-64.575195,-81.176758,,,,,,,,,,,0.0,1.0,1.0,7.0,0.0,0.0,0.0,3.0,0.0,,,,,,,35.107196811825695,-0.21929960604204896,-29.8553339490137,-2.3830783271415816,7.0836513249634345,-8.421222055003673,11.259403150550584,,12.421429628266297,,,,,,,,,
LBP08_S07,LBP08,9,10,7,9,9,1716495549.36,2024-05-23 20:19:09.360000+00:00,2024-05-24 05:19:09.360000+09:00,2024,5,23,20,19,9,360,,,,,,,,,0.317627,0.491699,0.623535,59.570312,-79.956055,-125.0,,,,,,,,,,,0.0,1.0,1.0,7.0,0.0,0.0,0.0,3.0,0.0,,,,,,,33.92210268729939,8.633071083298892,-31.708794195621078,-1.0261942196496059,7.42897416829539,-9.689573822828516,12.25277815998013,,13.03977227940427,,,,,,,,,
LBP08_S07,LBP08,10,11,7,10,10,1716495549.4,2024-05-23 20:19:09.400000+00:00,2024-05-24 05:19:09.400000+09:00,2024,5,23,20,19,9,400,,,,,,,,,0.562256,-0.48291,1.223389,-40.588379,0.305176,-50.842285,,,,,,,,,,,0.0,1.0,1.0,7.0,0.0,0.0,0.0,3.0,0.0,,,,,,,27.40534468037709,15.887098835736722,-31.432081633188588,0.07001956756547778,8.06445812172486,-10.94685708815606,13.596840355222557,,13.73132863431498,,,,,,,,,
LBP08_S07,LBP08,11,12,7,11,11,1716495549.44,2024-05-23 20:19:09.440000+00:00,2024-05-24 05:19:09.440000+09:00,2024,5,23,20,19,9,440,,,,,,,,,-0.344482,-0.426758,1.638916,-29.296875,52.062988,-2.441406,,,,,,,,,,,0.0,1.0,1.0,7.0,0.0,0.0,0.0,3.0,0.0,,,,,,,17.921039706836087,20.73798697942274,-28.771808487203934,0.7868611558389212,8.893977600901769,-12.097729427644218,15.035858650186874,,14.512107260676043,,,,,,,,,
LBP08_S07,LBP08,12,13,7,12,12,1716495549.48,2024-05-23 20:19:09.480000+00:00,2024-05-24 05:19:09.480000+09:00,2024,5,23,20,19,9,480,,,,,,,,,-0.030762,-0.570557,1.849854,6.103516,-18.798828,-27.893066,,,,,,,,,,,0.0,1.0,1.0,7.0,0.0,0.0,0.0,3.0,0.0,,,,,,,8.29743069681035,22.924240272757118,-24.10107931526006,1.1187583837113353,9.810947211812053,-13.06177260025462,16.374254455542378,,15.368870003540346,,,,,,,,,
LBP08_S07,LBP08,13,14,7,13,13,1716495549.52,2024-05-23 20:19:09.520000+00:00,2024-05-24 05:19:09.520000+09:00,2024,5,23,20,19,9,520,,,,,,,,,0.180176,-0.376953,1.125732,-41.137695,129.272461,37.963867,,,,,,,,,,,0.0,1.0,1.0,7.0,0.0,0.0,0.0,3.0,0.0,,,,,,,1.0140493071414132,22.627177533864153,-18.245768604214817,1.1593203559969918,10.716034313166618,-13.791603344423214,17.50387779603991,,16.26036777613724,,,,,,,,,
LBP08_S07,LBP08,14,15,7,14,14,1716495549.56,2024-05-23 20:19:09.560000+00:00,2024-05-24 05:19:09.560000+09:00,2024,5,23,20,19,9,560,,,,,,,,,-0.471436,-0.120605,0.05542,15.808105,39.0625,-8.605957,,,,,,,,,,,0.0,1.0,1.0,7.0,0.0,0.0,0.0,3.0,0.0,,,,,,,-2.391874764260484,20.372412465681364,-12.199345933438899,1.0636453654265725,11.530930811793873,-14.27957718176077,18.384777163175887,,17.12737703112316,,,,,,,,,
LBP08_S07,LBP08,15,16,7,15,15,1716495549.6,2024-05-23 20:19:09.600000+00:00,2024-05-24 05:19:09.600000+09:00,2024,5,23,20,19,9,600,,,,,,,,,0.107666,0.009521,0.342041,2.075195,-95.947266,-25.268555,,,,,,,,,,,0.0,1.0,1.0,7.0,0.0,0.0,0.0,3.0,0.0,,,,,,,-1.5751348749376346,16.884395681131718,-6.85862518244721,1.0006399704290672,12.206306639039141,-14.553922189058659,19.02135255973784,,17.91607107704239,,,,,,,,,
LBP08_S07,LBP08,16,17,7,16,16,1716495549.64,2024-05-23 20:19:09.640000+00:00,2024-05-24 05:19:09.640000+09:00,2024,5,23,20,19,9,640,,,,,,,,,0.560791,-0.506836,1.453613,-72.998047,-21.850586,-8.422852,,,,,,,,,,,0.0,1.0,1.0,7.0,0.0,0.0,0.0,3.0,0.0,,,,,,,2.717672786092748,12.905215427693479,-2.8568429861246436,1.109346881872777,12.722515256146881,-14.668195908503645,19.448625045422983,,18.59892058427706,,,,,,,,,
LBP08_S07,LBP08,17,18,7,17,17,1716495549.68,2024-05-23 20:19:09.680000+00:00,2024-05-24 05:19:09.680000+09:00,2024,5,23,20,19,9,680,,,,,,,,,0.047363,-0.479492,1.527832,85.571289,70.739746,-21.362305,,,,,,,,,,,0.0,1.0,1.0,7.0,0.0,0.0,0.0,3.0,0.0,,,,,,,9.022758141592886,9.05427123029712,-0.4981076053900718,1.4702572075364924,13.084686105358767,-14.688120212719248,19.72591042551328,,19.178550693766955,,,,,,,,,
LBP08_S07,LBP08,18,19,7,18,18,1716495549.72,2024-05-23 20:19:09.720000+00:00,2024-05-24 05:19:09.720000+09:00,2024,5,23,20,19,9,720,,,,,,,,,-0.351318,-0.809814,2.092285,61.096191,-20.996094,3.479004,,,,,,,,,,,0.0,1.0,1.0,7.0,0.0,0.0,0.0,3.0,0.0,,,,,,,15.678725520624855,5.796409756459265,0.24304330892180454,2.0974062283614865,13.316542495617137,-14.678398480362375,19.92949570040976,,19.67915984302803,,,,,,,,,
LBP08_S07,LBP08,19,20,7,19,19,1716495549.76,2024-05-23 20:19:09.760000+00:00,2024-05-24 05:19:09.760000+09:00,2024,5,23,20,19,9,760,,,,,,,,,0.196777,0.152588,1.453613,7.629395,47.058105,25.268555,,,,,,,,,,,0.0,1.0,1.0,7.0,0.0,0.0,0.0,3.0,0.0,,,,,,,21.329295322212662,3.5000262637632464,-0.3136000941994529,2.950578041249993,13.456543546167667,-14.690942484130353,20.139718619172402,,20.135604867045288,,,,,,,,,
LBP08_S07,LBP08,20,21,7,20,20,1716495549.8,2024-05-23 20:19:09.800000+00:00,2024-05-24 05:19:09.800000+09:00,2024,5,23,20,19,9,800,,,,,,,,,-0.563477,-0.202148,-0.038086,8.422852,129.089355,54.56543,,,,,,,,,,,0.0,1.0,1.0,7.0,0.0,0.0,0.0,3.0,0.0,,,,,,,25.256879161619395,2.486600967199369,-1.6273625660448776,3.9608532077147687,13.556007584855642,-14.756036986772148,20.425335427569255,,20.584852165213277,,,,,,,,,
LBP08_S07,LBP08,21,22,7,21,21,1716495549.84,2024-05-23 20:19:09.840000+00:00,2024-05-24 05:19:09.840000+09:00,2024,5,23,20,19,9,840,,,,,,,,,0.016846,0.152588,-0.005615,90.637207,-84.04541,-38.818359,,,,,,,,,,,0.0,1.0,1.0,7.0,0.0,0.0,0.0,3.0,0.0,,,,,,,27.459176978535922,2.975284979581354,-3.0676774330892287,5.059220286856205,13.675018984038896,-14.878744084095718,20.83215974508584,,21.0598457280452,,,,,,,,,
LBP08_S07,LBP08,22,23,7,22,22,1716495549.88,2024-05-23 20:19:09.880000+00:00,2024-05-24 05:19:09.880000+09:00,2024,5,23,20,19,9,880,,,,,,,,,0.434814,0.321289,0.680664,49.01123,-126.159668,-73.730469,,,,,,,,,,,0.0,1.0,1.0,7.0,0.0,0.0,0.0,3.0,0.0,,,,,,,28.469370742179592,4.918295372955832,-4.0953711535258295,6.197995116543389,13.87175079895713,-15.042558930236751,21.380345948153153,,21.58449140279796,,,,,,,,,
LBP08_S07,LBP08,23,24,7,23,23,1716495549.92,2024-05-23 20:19:09.920000+00:00,2024-05-24 05:19:09.920000+09:00,2024,5,23,20,19,9,920,,,,,,,,,0.533691,-0.528809,1.073486,-86.608887,-9.643555,-0.610352,,,,,,,,,,,0.0,1.0,1.0,7.0,0.0,0.0,0.0,3.0,0.0,,,,,,,28.996051355375428,7.845118648456428,-4.431877875515365,7.3578371707584065,14.185555544895387,-15.219834045257366,22.068328036212474,,22.16932853097594,,,,,,,,,
LBP08_S07,LBP08,24,25,7,24,24,1716495549.96,2024-05-23 20:19:09.960000+00:00,2024-05-24 05:19:09.960000+09:00,2024,5,23,20,19,9,960,,,,,,,,,-0.197021,-0.403076,1.44751,47.790527,92.834473,4.02832,,,,,,,,,,,0.0,1.0,1.0,7.0,0.0,0.0,0.0,3.0,0.0,,,,,,,29.51698727626848,10.879015480726556,-4.128126161991387,8.538516661809146,14.620716164124449,-15.384959091737022,22.877250144855783,,22.808844790583013,,,,,,,,,
LBP08_S07,LBP08,25,26,7,25,25,1716495550.0,2024-05-23 20:19:10+00:00,2024-05-24 05:19:10+09:00,2024,5,23,20,19,10,0,20.0,19.0,8.0,40.789318,141.620544,1.278,3.0,16.0,-0.274658,-0.692627,1.909668,-6.408691,-18.615723,1.586914,-543.0,35.0,593.0,210.0,0.0,1019.0,21.790001,0.059459,-47.735023,3.825,0.0,1.0,1.0,7.0,0.0,0.0,0.0,3.0,0.0,,,,,,,29.990293249869158,12.992225025457607,-3.4893510171693287,9.738128391803912,15.140405165142754,-15.524533132423795,23.7712881880571,,23.481882648457855,,,,,,,,,
LBP08_S07,LBP08,26,27,7,26,26,1716495550.04,2024-05-23 20:19:10.040000+00:00,2024-05-24 05:19:10.040000+09:00,2024,5,23,20,19,10,40,,,,,,,,,0.176758,-0.107178,1.417236,46.569824,96.252441,43.823242,,,,,,,,,,,0.0,1.0,1.0,7.0,0.0,0.0,0.0,3.0,0.0,,,,,,,29.812630549294884,13.395588540420054,-2.8983140155018283,10.930633613775708,15.676228706759556,-15.640465693043868,24.695081792950557,,24.155771572472275,,,,,,,,,
LBP08_S07,LBP08,27,28,7,27,27,1716495550.08,2024-05-23 20:19:10.080000+00:00,2024-05-24 05:19:10.080000+09:00,2024,5,23,20,19,10,80,,,,,,,,,-0.627197,0.130615,-0.154053,-38.208008,109.069824,38.757324,,,,,,,,,,,0.0,1.0,1.0,7.0,0.0,0.0,0.0,3.0,0.0,,,,,,,28.05492227963443,11.854805565788181,-2.638793868688866,12.052830504961085,16.150420929391082,-15.746017447791424,25.57428170729309,,24.793287270693423,,,,,,,,,
LBP08_S07,LBP08,28,29,7,28,28,1716495550.12,2024-05-23 20:19:10.120000+00:00,2024-05-24 05:19:10.120000+09:00,2024,5,23,20,19,10,120,,,,,,,,,0.002441,-0.156982,0.131104,131.286621,-62.072754,-50.292969,,,,,,,,,,,0.0,1.0,1.0,7.0,0.0,0.0,0.0,3.0,0.0,,,,,,,23.89042389656345,8.759053403822298,-2.8121150863113726,13.008447460823623,16.500783065543974,-15.858502051243878,26.32465829648046,,25.360321668443365,,,,,,,,,
LBP08_S07,LBP08,29,30,7,29,29,1716495550.16,2024-05-23 20:19:10.160000+00:00,2024-05-24 05:19:10.160000+09:00,2024,5,23,20,19,10,160,,,,,,,,,0.355713,0.551758,0.60791,92.529297,-105.102539,-63.415527,,,,,,,,,,,0.0,1.0,1.0,7.0,0.0,0.0,0.0,3.0,0.0,,,,,,,17.044687640958287,4.908164690795627,-3.370319443191523,13.690234966461954,16.6971096531758,-15.993314828971538,26.870097197920867,,25.832026351875264,,,,,,,,,
LBP08_S07,LBP08,30,31,7,30,30,1716495550.2,2024-05-23 20:19:10.200000+00:00,2024-05-24 05:19:10.200000+09:00,2024,5,23,20,19,10,200,,,,,,,,,0.486572,-0.351807,1.237549,8.117676,2.990723,4.211426,,,,,,,,,,,0.0,1.0,1.0,7.0,0.0,0.0,0.0,3.0,0.0,,,,,,,8.07131658964834,1.1476724309277022,-4.209108579230966,14.013087630047888,16.743016550412907,-16.161679172140776,27.16422466771343,,26.196220627578594,,,,,,,,,
LBP08_S07,LBP08,31,32,7,31,31,1716495550.24,2024-05-23 20:19:10.240000+00:00,2024-05-24 05:19:10.240000+09:00,2024,5,23,20,19,10,240,,,,,,,,,-0.258545,-0.411621,1.663574,-75.500488,24.169922,37.04834,,,,,,,,,,,0.0,1.0,1.0,7.0,0.0,0.0,0.0,3.0,0.0,,,,,,,-1.6790267359215216,-1.939789954583553,-5.235453365264493,13.945926560611028,16.665424952229564,-16.371097306751356,27.207316727297336,,26.454350547019498,,,,,,,,,
LBP08_S07,LBP08,32,33,7,32,32,1716495550.28,2024-05-23 20:19:10.280000+00:00,2024-05-24 05:19:10.280000+09:00,2024,5,23,20,19,10,280,,,,,,,,,-0.091553,-0.634766,1.999268,-38.330078,-62.561035,-21.911621,,,,,,,,,,,0.0,1.0,1.0,7.0,0.0,0.0,0.0,3.0,0.0,,,,,,,-10.385099300397886,-4.141020531501958,-6.371087391077884,13.530522588595112,16.499784130969488,-16.62594080239447,27.050689925652552,,26.6212722784292,,,,,,,,,
LBP08_S07,LBP08,33,34,7,33,33,1716495550.32,2024-05-23 20:19:10.320000+00:00,2024-05-24 05:19:10.320000+09:00,2024,5,23,20,19,10,320,,,,,,,,,0.276611,-0.102295,1.173096,-10.314941,110.168457,40.222168,,,,,,,,,,,0.0,1.0,1.0,7.0,0.0,0.0,0.0,3.0,0.0,,,,,,,-16.228695447771724,-5.51891461536362,-7.523839266909708,12.881374770684243,16.279027546354943,-16.92689437307086,26.78537487053152,,26.724957900893695,-1.4408528811986967,,,,,,,,
LBP08_S07,LBP08,34,35,7,34,34,1716495550.36,2024-05-23 20:19:10.360000+00:00,2024-05-24 05:19:10.360000+09:00,2024,5,23,20,19,10,360,,,,,,,,,-0.56958,0.008789,-0.206543,-25.024414,77.148438,-12.695312,,,,,,,,,,,0.0,1.0,1.0,7.0,0.0,0.0,0.0,3.0,0.0,,,,,,,-17.832155486621563,-6.240815619574112,-8.585466040620522,12.16808855121938,16.029394921571978,-17.27031301469568,26.519192901889014,,26.805998859446447,-1.4236044155573433,,,,,,,,
LBP08_S07,LBP08,35,36,7,35,35,1716495550.4,2024-05-23 20:19:10.400000+00:00,2024-05-24 05:19:10.400000+09:00,2024,5,23,20,19,10,400,,,,,,,,,-0.058105,0.06543,0.110596,28.625488,-89.538574,-55.541992,,,,,,,,,,,0.0,1.0,1.0,7.0,0.0,0.0,0.0,3.0,0.0,,,,,,,-14.54587330288855,-6.470256412885339,-9.480664671300099,11.586253619103838,15.770584665056564,-17.649539601547684,26.352587382466147,,26.91546874361905,-1.4120518111687375,,,,,,,,
LBP08_S07,LBP08,36,37,7,36,36,1716495550.44,2024-05-23 20:19:10.440000+00:00,2024-05-24 05:19:10.440000+09:00,2024,5,23,20,19,10,440,,,,,,,,,0.398926,0.013672,0.647217,2.685547,-130.859375,-50.476074,,,,,,,,,,,0.0,1.0,1.0,7.0,0.0,0.0,0.0,3.0,0.0,,,,,,,-6.56433009141093,-6.378845431728879,-10.23267104347599,11.3236804154474,15.515430847787409,-18.058846443286722,26.364299107047575,,27.109624727337764,-1.4041221834377464,,,,,,,,
LBP08_S07,LBP08,37,38,7,37,37,1716495550.48,2024-05-23 20:19:10.480000+00:00,2024-05-24 05:19:10.480000+09:00,2024,5,23,20,19,10,480,,,,,,,,,0.421387,-0.491699,1.0354,-66.28418,2.13623,-2.197266,,,,,,,,,,,0.0,1.0,1.0,7.0,0.0,0.0,0.0,3.0,0.0,0.029492173333333333,-0.23234374666666668,0.9411816266666667,7.539062546666666,5.415852826666666,1.5266927200000002,5.1067459310099705,-6.206263423300041,-10.976288878376998,11.527950252687798,15.267180310855407,-18.497897998421802,26.611137931938067,-1.4408528811986967,27.44167400374611,-1.4080466388125035,0.3918948266666667,-0.2593552533333333,0.09421837333333338,0.7454684533333334,0.479295112089904,0.479295112089904,0.479295112089904,0.479295112089904
LBP08_S07,LBP08,38,39,7,38,38,1716495550.52,2024-05-23 20:19:10.520000+00:00,2024-05-24 05:19:10.520000+09:00,2024,5,23,20,19,10,520,,,,,,,,,-0.284424,-0.433838,1.449219,15.50293,85.449219,26.184082,,,,,,,,,,,0.0,1.0,1.0,7.0,0.0,0.0,0.0,3.0,0.0,0.03755857333333333,-0.23295246666666666,0.9434895733333334,6.274414119999999,2.832031213333332,1.6031901200000003,18.82001184238201,-6.2413397200978835,-11.873750355030278,12.28075072638308,15.01752672205149,-18.972848012623015,27.135067882008002,-1.40635594991599,27.95330740066811,-1.408728916138596,-0.32198257333333336,-0.20088553333333334,0.5057294266666666,1.0285975333333335,0.6322895128258641,0.5557923124578841,0.5557923124578841,0.5557923124578841
LBP08_S07,LBP08,39,40,7,39,39,1716495550.56,2024-05-23 20:19:10.560000+00:00,2024-05-24 05:19:10.560000+09:00,2024,5,23,20,19,10,560,,,,,,,,,-0.251709,-0.523438,1.790283,42.541504,-37.597656,-11.352539,,,,,,,,,,,0.0,1.0,1.0,7.0,0.0,0.0,0.0,3.0,0.0,0.04347002666666666,-0.24373046666666667,0.9548404933333332,4.266764386666665,2.2184244533333324,2.0841471600000006,32.59954862281148,-6.679935413442579,-12.962496035550318,13.584732671295539,14.750329305513787,-19.491347854045028,27.964796039646863,-1.3889466023915258,28.6697173899373,-1.4085743886930564,-0.2951790266666667,-0.2797075333333333,0.8354425066666669,1.4103290666666668,0.9291561461524012,0.6802469236893898,0.6802469236893898,0.6802469236893898
LBP08_S07,LBP08,40,41,7,40,40,1716495550.6,2024-05-23 20:19:10.600000+00:00,2024-05-24 05:19:10.600000+09:00,2024,5,23,20,19,10,600,,,,,,,,,0.093018,-0.484131,1.05127,-1.525879,66.894531,48.522949,,,,,,,,,,,0.0,1.0,1.0,7.0,0.0,0.0,0.0,3.0,0.0,0.04634762666666667,-0.24783202666666668,0.9699772133333333,5.475260479999998,4.6085611733333325,3.2356771066666665,44.58174148256224,-7.453275107113204,-14.030302228101242,15.368002330598028,14.45219830122926,-20.052559943169076,29.105784504900555,-1.380333300244773,29.600215714312725,-1.4135800443688153,0.046670373333333334,-0.2362989733333333,0.08129278666666662,0.36426213333333324,0.2542122060592139,0.5737382442818458,0.5737382442818458,0.5737382442818458
LBP08_S07,LBP08,41,42,7,41,41,1716495550.64,2024-05-23 20:19:10.640000+00:00,2024-05-24 05:19:10.640000+09:00,2024,5,23,20,19,10,640,,,,,,,,,-0.442871,-0.202881,-0.149658,105.46875,49.499512,2.929688,,,,,,,,,,,0.0,1.0,1.0,7.0,0.0,0.0,0.0,3.0,0.0,0.0355208,-0.24715494666666668,0.9800585999999999,6.9042969466666655,5.691731746666666,4.215494813333333,53.50145406387821,-8.177193470929806,-14.617332674222505,17.508060493153156,14.125110562392067,-20.637253250137977,30.52780949138082,-1.4237444603115312,30.743380947587042,-1.4153034687228407,-0.47839180000000003,0.044273946666666675,-1.1297165999999998,1.6523823466666665,1.2276312528508886,0.7045168459956543,0.7045168459956543,0.7045168459956543
LBP08_S07,LBP08,42,43,7,42,42,1716495550.68,2024-05-23 20:19:10.680000+00:00,2024-05-24 05:19:10.680000+09:00,2024,5,23,20,19,10,680,,,,,,,,,-0.244629,0.150635,0.024414,193.237305,-71.166992,-82.275391,,,,,,,,,,,0.0,1.0,1.0,7.0,0.0,0.0,0.0,3.0,0.0,0.03936845333333333,-0.25379557333333336,0.9907845066666666,8.465983133333333,4.331868466666666,4.444987,59.06885078842106,-8.305376643000272,-14.177260332130468,19.870814524689997,13.792895496672056,-21.204343663423195,32.167023894872564,-1.412140302769059,32.09308850653428,-1.4140675802221438,-0.28399745333333337,0.4044305733333333,-0.9663705066666666,1.6547985333333333,1.085398819928296,0.767997174984428,0.767997174984428,0.767997174984428
LBP08_S07,LBP08,43,44,7,43,43,1716495550.72,2024-05-23 20:19:10.720000+00:00,2024-05-24 05:19:10.720000+09:00,2024,5,23,20,19,10,720,,,,,,,,,0.379883,0.390869,0.590088,101.806641,-140.991211,-99.79248,,,,,,,,,,,0.0,1.0,1.0,7.0,0.0,0.0,0.0,3.0,0.0,0.040904906666666664,-0.25653645333333336,0.9865169333333333,7.373046933333334,5.80566404,4.843750026666666,62.05605442239995,-7.432423045716468,-12.326031146222205,22.353056701585995,13.495598574843397,-21.697384909272085,33.94947476322339,-1.4076472240198188,33.64149118923281,-1.4107331791622952,0.33897809333333334,0.6474054533333333,-0.3964289333333334,1.3828124800000001,0.8313819025871596,0.7770521360705326,0.7770521360705326,0.7770521360705326
LBP08_S07,LBP08,44,45,7,44,44,1716495550.76,2024-05-23 20:19:10.760000+00:00,2024-05-24 05:19:10.760000+09:00,2024,5,23,20,19,10,760,,,,,,,,,0.574951,-0.337402,1.022949,-12.573242,-16.723633,-2.624512,,,,,,,,,,,0.0,1.0,1.0,7.0,0.0,0.0,0.0,3.0,0.0,0.029866506666666664,-0.25118814666666667,0.96701172,6.355794319999998,6.1352538800000005,3.53678388,63.980495253624085,-5.572185181424898,-9.032292515026123,24.91227651173096,13.272711167586401,-22.058676609873128,35.8241761456433,-1.448619634099129,35.37724519013122,-1.415895743463877,0.5450844933333333,-0.08621385333333331,0.05593728000000009,0.6872356266666667,0.5546881219864336,0.7492566343100201,0.7492566343100201,0.7492566343100201
LBP08_S07,LBP08,45,46,7,45,45,1716495550.8,2024-05-23 20:19:10.800000+00:00,2024-05-24 05:19:10.800000+09:00,2024,5,23,20,19,10,800,,,,,,,,,-0.025635,-0.513428,1.409912,-5.67627,56.57959,43.640137,,,,,,,,,,,0.0,1.0,1.0,7.0,0.0,0.0,0.0,3.0,0.0,0.03392249333333333,-0.24514973333333334,0.9673014400000002,5.293782599999999,3.1152343599999996,2.380371106666667,66.44515639768616,-3.2219762506183005,-4.623783463440224,27.570082767638404,13.143832117561669,-22.243627948410737,37.78423971520927,-1.4290908635550412,37.28057506090862,-1.4205419538845279,-0.059557493333333336,-0.26827826666666665,0.4426105599999999,0.7704463199999998,0.5209840987989314,0.7238930192532325,0.7238930192532325,0.7238930192532325
LBP08_S07,LBP08,46,47,7,46,46,1716495550.84,2024-05-23 20:19:10.840000+00:00,2024-05-24 05:19:10.840000+09:00,2024,5,23,20,19,10,840,,,,,,,,,-0.160889,-0.397217,1.856689,-3.051758,-14.343262,28.076172,,,,,,,,,,,0.0,1.0,1.0,7.0,0.0,0.0,0.0,3.0,0.0,0.04117184,-0.2506022133333334,0.9783170666666668,1.793619839999999,2.9752604,2.7799479333333332,70.39460038378226,-1.1473271478007079,0.3972773516727381,30.385866782989694,13.09793903164964,-22.227736854343828,39.86137469651997,-1.402944583715875,39.31880640618194,-1.4251780782634147,-0.20206084000000002,-0.1466147866666666,0.8783719333333332,1.22704756,0.9131602991800264,0.7428197472459119,0.7428197472459119,0.7428197472459119
LBP08_S07,LBP08,47,48,7,47,47,1716495550.88,2024-05-23 20:19:10.880000+00:00,2024-05-24 05:19:10.880000+09:00,2024,5,23,20,19,10,880,,,,,,,,,0.412598,-1.025635,1.434814,-7.995605,104.858398,78.979492,,,,,,,,,,,0.0,1.0,1.0,7.0,0.0,0.0,0.0,3.0,0.0,0.04210608,-0.2642838533333333,0.9897591200000001,0.747070373333332,4.841308586666667,4.41650392,75.62904078127514,-0.00407734729749246,5.605734105465059,33.4110284142407,13.09777593775774,-22.003507490125227,42.095164758923346,-1.4075088706002084,41.44528926892002,-1.428594955909365,0.37049192000000003,-0.7613511466666667,0.44505487999999993,1.5768979466666666,0.9565530186705539,0.762250044648152,0.762250044648152,0.762250044648152
LBP08_S07,LBP08,48,49,7,48,48,1716495550.92,2024-05-23 20:19:10.920000+00:00,2024-05-24 05:19:10.920000+09:00,2024,5,23,20,19,10,920,,,,,,,,,-0.766113,0.071045,-0.481201,172.607422,96.862793,-8.789062,,,,,,,,,,,0.0,1.0,1.0,7.0,0.0,0.0,0.0,3.0,0.0,0.02914384,-0.2661425733333333,0.9963151066666668,2.7596029199999985,5.485026026666667,4.82421876,80.81146395760437,-0.01976790380794475,10.808076603678662,36.64348697254487,13.096985221605422,-21.571184425978082,44.49260789099214,-1.4579815929318085,43.602030555822644,-1.429586532670585,-0.7952568400000001,0.33718757333333327,-1.4775161066666667,2.60996052,1.711485537957196,0.8413530024239058,0.8413530024239058,0.8413530024239058
LBP08_S07,LBP08,49,50,7,49,49,1716495550.96,2024-05-23 20:19:10.960000+00:00,2024-05-24 05:19:10.960000+09:00,2024,5,23,20,19,10,960,,,,,,,,,-0.251221,-0.123535,-0.060547,144.40918,-135.986328,-32.592773,,,,,,,,,,,0.0,1.0,1.0,7.0,0.0,0.0,0.0,3.0,0.0,0.03461584,-0.2625553333333333,1.00094076,4.272460986666665,4.547526026666667,4.645182293333333,83.96186373181797,-0.9144896153251355,16.01474649615395,40.00196152181759,13.060405636992417,-20.930594566131923,46.99809474742087,-1.4354087065980343,45.72428328565654,-1.4295271634112452,-0.28583684000000004,0.1390203333333333,-1.06148776,1.4863449333333332,1.1080548798733365,0.8618685314584773,0.8618685314584773,0.8618685314584773
LBP08_S07,LBP08,50,51,7,50,50,1716495551.0,2024-05-23 20:19:11+00:00,2024-05-24 05:19:11+09:00,2024,5,23,20,19,11,0,20.0,19.0,9.0,40.789406,141.620544,1.308,3.0,16.0,0.517334,0.758545,0.658203,236.26709,-96.801758,-86.364746,-540.0,8.0,589.0,80.0,0.0,1019.0,21.860001,0.059459,-47.735023,3.825,0.0,1.0,1.0,7.0,0.0,0.0,0.0,6.0,0.0,0.03694657333333333,-0.26324542666666667,0.99197916,4.410807333333332,6.70817056,5.7535807199999995,83.19944229725614,-2.0828501537898934,21.279244335918808,43.32993921370784,12.977091630840821,-20.07942479269517,49.488097957633784,-1.426694544033642,47.74528630868365,-1.4263168022491246,0.4803874266666666,1.0217904266666666,-0.33377616,1.8359540133333332,1.1773845084386902,0.8844053869570639,0.8844053869570639,0.8844053869570639
LBP08_S07,LBP08,51,52,7,51,51,1716495551.04,2024-05-23 20:19:11.040000+00:00,2024-05-24 05:19:11.040000+09:00,2024,5,23,20,19,11,40,,,,,,,,,0.834229,-1.109375,1.527832,-125.915527,23.254395,99.79248,,,,,,,,,,,0.0,1.0,1.0,7.0,0.0,0.0,0.0,6.0,0.0,0.028470013333333336,-0.2597656133333333,0.9761393200000001,6.717122439999998,5.22623696,4.9226887999999995,77.40477587968901,-2.889401687133234,26.5429242514721,46.4261302488954,12.861515563355491,-19.017707822636286,51.7926381187616,-1.4579132367710328,49.600590165457504,-1.4268186270706587,0.8057589866666667,-0.8496093866666667,0.5516926799999999,2.2070610533333332,1.294391157135966,0.9117377716356574,0.9117377716356574,0.9117377716356574
LBP08_S07,LBP08,52,53,7,52,52,1716495551.08,2024-05-23 20:19:11.080000+00:00,2024-05-24 05:19:11.080000+09:00,2024,5,23,20,19,11,80,,,,,,,,,-0.30957,-1.031494,1.737061,121.21582,14.343262,55.419922,,,,,,,,,,,0.0,1.0,1.0,7.0,0.0,0.0,0.0,6.0,0.0,0.037184213333333334,-0.25630208,0.9804687466666667,7.699381559999998,3.2202148266666666,4.324544266666667,66.57086826885006,-2.877702461588949,31.601290684657137,49.0889649796494,12.746407464891933,-17.753656195250002,53.73443676389878,-1.4220560703812617,51.232345461048666,-1.4268436400380622,-0.34675421333333334,-0.7751919199999999,0.7565922533333332,1.8785383866666665,1.1373622268660568,0.9258393000875574,0.9258393000875574,0.9258393000875574
LBP08_S07,LBP08,53,54,7,53,53,1716495551.12,2024-05-23 20:19:11.120000+00:00,2024-05-24 05:19:11.120000+09:00,2024,5,23,20,19,11,120,,,,,,,,,0.172607,-0.446045,2.051514,98.754883,-12.939453,55.419922,,,,,,,,,,,0.0,1.0,1.0,7.0,0.0,0.0,0.0,6.0,0.0,0.04169593333333334,-0.2607421733333334,0.9897428399999999,7.571614639999998,3.108723946666667,3.8696289066666667,51.795857493367095,-1.7986680784472524,36.195362430394,51.16079927938408,12.674460741754043,-16.305841698034243,55.172002061562374,-1.4070535314264183,52.593797934983044,-1.4289959844427622,0.1309110666666667,-0.18530282666666664,1.0617711600000002,1.3779850533333335,1.0857406878045084,0.9352452640709075,0.9352452640709075,0.9352452640709075
LBP08_S07,LBP08,54,55,7,54,54,1716495551.16,2024-05-23 20:19:11.160000+00:00,2024-05-24 05:19:11.160000+09:00,2024,5,23,20,19,11,160,,,,,,,,,-0.043945,-0.104004,0.516357,42.175293,182.373047,64.331055,,,,,,,,,,,0.0,1.0,1.0,7.0,0.0,0.0,0.0,6.0,0.0,0.03912757333333333,-0.25989908000000006,0.9913118533333333,8.449707093333332,4.007975253333334,4.2683919333333336,34.992050925182255,0.4733815589314464,40.13261935360913,52.56048131639137,12.693396004111301,-14.700536923889878,56.03420637591439,-1.4165160224779243,53.653390800887294,-1.4231714145607515,-0.08307257333333333,0.15589508000000007,-0.4749548533333333,0.7139225066666668,0.5067410000318867,0.9114394716242953,0.9114394716242953,0.9114394716242953
LBP08_S07,LBP08,55,56,7,55,55,1716495551.2,2024-05-23 20:19:11.200000+00:00,2024-05-24 05:19:11.200000+09:00,2024,5,23,20,19,11,200,,,,,,,,,-0.068848,0.50708,-0.084229,46.325684,-41.07666,18.920898,,,,,,,,,,,0.0,1.0,1.0,7.0,0.0,0.0,0.0,6.0,0.0,0.03458981333333333,-0.2597298133333334,0.9962337333333334,6.710612039999999,3.041178373333334,4.702962253333333,18.40755206656129,3.9870992401953793,43.3363109870092,53.29678339905382,12.852879973719116,-12.96708448440951,56.33727828294781,-1.434109111770379,54.39718774170046,-1.4186032492625478,-0.10343781333333334,0.7668098133333334,-1.0804627333333334,1.9507103600000002,1.3289455930073364,0.9334134780128763,0.9334134780128763,0.9334134780128763
LBP08_S07,LBP08,56,57,7,56,56,1716495551.24,2024-05-23 20:19:11.240000+00:00,2024-05-24 05:19:11.240000+09:00,2024,5,23,20,19,11,240,,,,,,,,,0.401367,-0.237061,0.61792,-123.718262,-147.583008,13.122559,,,,,,,,,,,0.0,1.0,1.0,7.0,0.0,0.0,0.0,6.0,0.0,0.04223954666666666,-0.2576595066666667,0.9951660266666666,6.209309959999999,3.5904947866666674,4.773763026666667,4.061027426356612,8.629433790163972,45.795055296592416,53.459224496108085,13.198057325325674,-11.135282272545814,56.17892765243155,-1.403194713389912,54.82848632072946,-1.4148279554321748,0.3591274533333333,0.02059850666666671,-0.3772460266666666,0.7569719866666667,0.5212594275889594,0.9128057754916805,0.9128057754916805,0.9128057754916805
LBP08_S07,LBP08,57,58,7,57,57,1716495551.28,2024-05-23 20:19:11.280000+00:00,2024-05-24 05:19:11.280000+09:00,2024,5,23,20,19,11,280,,,,,,,,,0.462402,-0.293213,1.130615,27.893066,5.79834,25.939941,,,,,,,,,,,0.0,1.0,1.0,7.0,0.0,0.0,0.0,6.0,0.0,0.03633134666666667,-0.26331706666666665,0.9852409066666666,6.013183653333332,5.6225586000000005,5.035807293333334,-6.769501149895063,13.961674037089766,47.46415944927081,53.188444450112286,13.756524286809265,-9.236715894574981,55.70968949826724,-1.429032314647209,54.964479991345705,-1.4115942998960915,0.4260706533333333,-0.029895933333333347,0.1453740933333333,0.60134068,0.4511802250478774,0.890823606422928,0.890823606422928,0.890823606422928
LBP08_S07,LBP08,58,59,7,58,58,1716495551.32,2024-05-23 20:19:11.320000+00:00,2024-05-24 05:19:11.320000+09:00,2024,5,23,20,19,11,320,,,,,,,,,-0.246338,-0.306641,1.595215,-93.505859,75.98877,82.458496,,,,,,,,,,,0.0,1.0,1.0,7.0,0.0,0.0,0.0,6.0,0.0,0.04343421333333333,-0.25974610666666664,0.9866048399999999,6.5584310399999985,3.0151367333333337,4.00227864,-13.837033862165203,19.137529005878744,48.19834439109043,52.63496309562568,14.522025447044415,-7.308782118931364,55.08853655003456,-1.3997358941117,54.830876454950555,-1.4132969416260122,-0.28977221333333336,-0.046894893333333354,0.6086101600000001,0.9452772666666669,0.6757021485063291,0.8810453583358098,0.8810453583358098,0.8810453583358098
LBP08_S07,LBP08,59,60,7,59,59,1716495551.36,2024-05-23 20:19:11.360000+00:00,2024-05-24 05:19:11.360000+09:00,2024,5,23,20,19,11,360,,,,,,,,,-0.168457,-1.372314,2.080566,-19.592285,-28.625488,39.794922,,,,,,,,,,,0.0,1.0,1.0,7.0,0.0,0.0,0.0,6.0,0.0,0.04672197333333333,-0.26375001333333337,0.9938606933333334,5.147298226666665,2.053222666666667,3.66292316,-17.88346580294394,23.032651165726165,47.763104692139926,51.91962446350792,15.443331493673462,-5.398257931245767,54.436064155552565,-1.3897270536159976,54.45574286387588,-1.4125999082914684,-0.21517897333333333,-1.1085639866666668,1.0867053066666668,2.410448266666667,1.5672091521671814,0.9108785667632607,0.9108785667632607,0.9108785667632607
LBP08_S07,LBP08,60,61,7,60,60,1716495551.4,2024-05-23 20:19:11.400000+00:00,2024-05-24 05:19:11.400000+09:00,2024,5,23,20,19,11,400,,,,,,,,,0.234863,-0.042725,1.82373,93.383789,53.527832,74.645996,,,,,,,,,,,0.0,1.0,1.0,7.0,0.0,0.0,0.0,6.0,0.0,0.04828773333333334,-0.2718392,0.9983008000000001,4.106445373333333,3.1290690266666674,4.341634106666667,-20.284345844222738,24.56982719693135,45.91375750072504,51.10825062973901,16.426124581550717,-3.5617076312167653,53.801083747923805,-1.388941605729914,53.863666710346436,-1.4148017688507568,0.18657526666666666,0.2291142,0.8254292,1.2411186666666665,0.8767194596825245,0.9094552706348967,0.9094552706348967,0.9094552706348967
LBP08_S07,LBP08,61,62,7,61,61,1716495551.44,2024-05-23 20:19:11.440000+00:00,2024-05-24 05:19:11.440000+09:00,2024,5,23,20,19,11,440,,,,,,,,,-0.626709,0.654785,-0.10791,78.735352,213.684082,28.259277,,,,,,,,,,,0.0,1.0,1.0,7.0,0.0,0.0,0.0,6.0,0.0,0.038059880000000004,-0.26926432,1.00280276,5.161946679999999,4.472656266666668,4.548339840000001,-22.538579045860807,23.09227350473178,42.49542237915675,50.20670746790458,17.349815521739988,-1.8618907360504953,53.15257482492402,-1.4255766814102002,53.07126932306992,-1.4129017137219715,-0.66476888,0.92404932,-1.11071276,2.6995309599999997,1.5904300188426193,0.9366942605632056,0.9366942605632056,0.9366942605632056
LBP08_S07,LBP08,62,63,7,62,62,1716495551.48,2024-05-23 20:19:11.480000+00:00,2024-05-24 05:19:11.480000+09:00,2024,5,23,20,19,11,480,,,,,,,,,0.09668,-0.319336,0.272949,-125.427246,-87.890625,12.390137,,,,,,,,,,,0.0,1.0,1.0,7.0,0.0,0.0,0.0,6.0,0.0,0.034713520000000005,-0.27118164,1.0080566666666668,5.142415439999999,2.773437506666667,4.183756506666667,-25.821293766529926,18.60548029974577,37.52333410468243,49.173855717243384,18.094034733729817,-0.3609573718631982,52.39840139994725,-1.4390824876804658,52.08529273596649,-1.4114162838805977,0.06196648,-0.04815436000000001,-0.7351076666666668,0.8452285066666668,0.739284768288047,0.9470938468111314,0.9291015877833918,0.9291015877833918
LBP08_S07,LBP08,63,64,7,63,63,1716495551.52,2024-05-23 20:19:11.520000+00:00,2024-05-24 05:19:11.520000+09:00,2024,5,23,20,19,11,520,,,,,,,,,0.511719,-0.810059,1.061768,-109.802246,-105.041504,36.92627,,,,,,,,,,,0.0,1.0,1.0,7.0,0.0,0.0,0.0,6.0,0.0,0.0438932,-0.2629850266666667,1.0020280266666666,5.805664133333331,3.8688151200000007,4.5320638,-30.747827365930537,11.784233495503091,31.230982441584167,47.943942622606166,18.565404073549942,0.8882819258001686,51.42066615081566,-1.4000831980809814,50.904283840407274,-1.4069892177126309,0.4678258,-0.5470739733333333,0.059739973333333474,1.0746397466666668,0.7223017207914073,0.9506943351297531,0.9214423334503553,0.9214423334503553
LBP08_S07,LBP08,64,65,7,64,64,1716495551.56,2024-05-23 20:19:11.560000+00:00,2024-05-24 05:19:11.560000+09:00,2024,5,23,20,19,11,560,,,,,,,,,0.251953,0.105469,1.55542,-12.634277,63.842773,32.958984,,,,,,,,,,,0.0,1.0,1.0,7.0,0.0,0.0,0.0,6.0,0.0,0.033717413333333335,-0.26218749333333335,0.9806934000000002,6.398112053333332,4.444987000000001,4.536132813333333,-37.34465635257573,3.7797218353056508,24.090060250049266,46.45015636850314,18.71659294696217,1.8518843358021393,50.11344484061993,-1.438534628070808,49.52389027444217,-1.4087029927121906,0.21823558666666665,0.36765649333333333,0.5747265999999999,1.1606186799999998,0.7163160846480185,0.9421807326695777,0.914116395993129,0.914116395993129
LBP08_S07,LBP08,65,66,7,65,65,1716495551.6,2024-05-23 20:19:11.600000+00:00,2024-05-24 05:19:11.600000+09:00,2024,5,23,20,19,11,600,,,,,,,,,-0.243408,-0.958008,1.910889,-35.705566,-32.226562,44.433594,,,,,,,,,,,0.0,1.0,1.0,7.0,0.0,0.0,0.0,6.0,0.0,0.03979162666666667,-0.26217771999999995,0.9822721733333333,8.601888093333333,1.9140625200000008,3.48225912,-45.12451082240157,-4.040513770553143,16.796616382972555,44.64517593560707,18.554972396140045,2.5237489911210416,48.41330441018267,-1.4151085604825264,47.94432737381515,-1.4113136493046907,-0.2831996266666667,-0.69583028,0.9286168266666668,1.9076467333333336,1.1944500901575954,0.9797902480335131,0.9237830751022487,0.9237830751022487
LBP08_S07,LBP08,66,67,7,66,66,1716495551.64,2024-05-23 20:19:11.640000+00:00,2024-05-24 05:19:11.640000+09:00,2024,5,23,20,19,11,640,,,,,,,,,0.010742,-0.297607,1.769775,34.179688,6.408691,21.66748,,,,,,,,,,,0.0,1.0,1.0,7.0,0.0,0.0,0.0,6.0,0.0,0.04548498666666667,-0.25428384,0.9880827200000001,8.692220119999996,0.6583659066666671,2.7539062533333336,-53.19661055088852,-10.313406269963904,10.199268156908373,42.51731151357153,18.142436145341488,2.9317197173973764,46.31916178139725,-1.388340414976175,46.177509315840545,-1.4119002545586197,-0.03474298666666667,-0.04332316000000003,0.78169228,0.8597584266666667,0.7836624221732877,0.962031494806409,0.9191123866712833,0.9191123866712833
LBP08_S07,LBP08,67,68,7,67,67,1716495551.68,2024-05-23 20:19:11.680000+00:00,2024-05-24 05:19:11.680000+09:00,2024,5,23,20,19,11,680,,,,,,,,,-0.346924,0.25293,0.19165,-18.310547,167.96875,7.629395,,,,,,,,,,,0.0,1.0,1.0,7.0,0.0,0.0,0.0,6.0,0.0,0.048652306666666666,-0.2673535066666667,0.9947038133333332,6.298828186666665,1.3647461200000006,4.144694013333334,-60.437014804751804,-13.863901482971126,5.148712979189461,40.099830921381454,17.587880086022643,3.137668236564955,43.89960054267511,-1.3847616529675402,44.25128135265506,-1.4138004729178661,-0.39557630666666665,0.5202835066666667,-0.8030538133333333,1.7189136266666667,1.0354085999327087,0.9600318860065855,0.9228638774216518,0.9228638774216518
LBP08_S07,LBP08,68,69,7,68,68,1716495551.72,2024-05-23 20:19:11.720000+00:00,2024-05-24 05:19:11.720000+09:00,2024,5,23,20,19,11,720,,,,,,,,,-0.171387,0.377441,-0.24707,-116.577148,-81.970215,-33.508301,,,,,,,,,,,0.0,1.0,1.0,7.0,0.0,0.0,0.0,6.0,0.0,0.0399544,-0.26632485333333333,0.9977051066666667,6.253255266666664,2.6619466400000005,4.4514974,-65.76867348850213,-13.919057128193801,2.285623302832999,37.469083981841365,17.03111780089489,3.2290931686782747,41.28460089038339,-1.4168736441072982,42.20925241792738,-1.4117748469647229,-0.2113414,0.6437658533333334,-1.2447751066666668,2.09988236,1.4172384158810283,0.9834661465383404,0.9383130817485074,0.9383130817485074
LBP08_S07,LBP08,69,70,7,69,69,1716495551.76,2024-05-23 20:19:11.760000+00:00,2024-05-24 05:19:11.760000+09:00,2024,5,23,20,19,11,760,,,,,,,,,0.401123,-0.434814,0.331055,-233.154297,-199.035645,-44.189453,,,,,,,,,,,0.0,1.0,1.0,7.0,0.0,0.0,0.0,6.0,0.0,0.040387346666666664,-0.2673730266666667,1.0015755466666667,7.402343799999997,2.5162760666666673,4.019368493333334,-68.51321491921381,-10.368558118288904,1.8360382159893236,34.72855538507281,16.616375476163334,3.3025346973178475,38.64043514928242,-1.4158336195409988,40.10653030332632,-1.411327427469462,0.36073565333333335,-0.1674409733333333,-0.6705205466666667,1.1986971733333334,0.7795925183317286,0.9924623223921522,0.9335033677055746,0.9335033677055746
LBP08_S07,LBP08,70,71,7,70,70,1716495551.8,2024-05-23 20:19:11.800000+00:00,2024-05-24 05:19:11.800000+09:00,2024,5,23,20,19,11,800,,,,,,,,,0.752197,-0.507812,1.279785,-26.855469,-44.372559,-10.498047,,,,,,,,,,,0.0,1.0,1.0,7.0,0.0,0.0,0.0,6.0,0.0,0.04569985333333334,-0.26566403999999993,0.9977343999999999,7.7604167199999985,4.625651066666666,4.830729173333333,-68.6581809830963,-3.9560444043917466,3.5093100970947773,31.982228145748955,16.458133699987663,3.4429071012016386,36.13290316817777,-1.3948076582692022,38.00329975665994,-1.4071654382796723,0.7064971466666666,-0.2421479600000001,0.28205060000000004,1.2306957066666668,0.7983272472743638,1.0035560483311692,0.9295275994575978,0.9295275994575978
LBP08_S07,LBP08,71,72,7,71,71,1716495551.84,2024-05-23 20:19:11.840000+00:00,2024-05-24 05:19:11.840000+09:00,2024,5,23,20,19,11,840,,,,,,,,,-0.14502,-0.307373,1.393799,-97.045898,91.247559,59.692383,,,,,,,,,,,0.0,1.0,1.0,7.0,0.0,0.0,0.0,6.0,0.0,0.032320946666666676,-0.2636197733333333,0.9802116133333334,7.879231813333331,5.28808596,4.6085612000000005,-66.86314872358057,3.7881974365154463,6.561825474263557,29.30770219680573,16.60966159744828,3.705380120172181,33.890295193069164,-1.4445788650026643,35.95854058948498,-1.408850231110854,-0.1773409466666667,-0.0437532266666667,0.4135873866666666,0.63468156,0.4521268435053785,0.9851147101041835,0.915887577858963,0.915887577858963
LBP08_S07,LBP08,72,73,7,72,72,1716495551.88,2024-05-23 20:19:11.880000+00:00,2024-05-24 05:19:11.880000+09:00,2024,5,23,20,19,11,880,,,,,,,,,-0.047607,-0.583252,1.909668,35.888672,-1.89209,31.066895,,,,,,,,,,,0.0,1.0,1.0,7.0,0.0,0.0,0.0,6.0,0.0,0.039303373333333336,-0.2655761466666667,0.98547528,8.204752639999999,3.224283866666667,4.512532546666666,-64.15739960051586,10.962744910131539,10.007765158474458,26.741406212785098,17.048171393853544,4.10569072651116,31.978112052670454,-1.4188262281490338,34.02506840836249,-1.41232045017867,-0.08691037333333333,-0.3176758533333333,0.92419272,1.3287789466666666,0.9811236132542113,0.9860975338875297,0.9176996899532754,0.9176996899532754
LBP08_S07,LBP08,73,74,7,73,73,1716495551.92,2024-05-23 20:19:11.920000+00:00,2024-05-24 05:19:11.920000+09:00,2024,5,23,20,19,11,920,,,,,,,,,0.274902,-0.370117,1.796387,3.90625,93.444824,36.987305,,,,,,,,,,,0.0,1.0,1.0,7.0,0.0,0.0,0.0,6.0,0.0,0.04584308,-0.26796548000000003,0.9936491066666665,8.232421919999997,2.6098632933333334,4.86165364,-61.472948331243074,15.92808450631428,12.8799455217369,24.282488279535375,17.685294774106115,4.620888547380636,30.39344500480509,-1.3956090031283732,32.24579767981507,-1.4140533965144293,0.22905891999999997,-0.10215151999999994,0.8027378933333335,1.1339483333333333,0.8410059733813517,0.951278351304496,0.9156268868026829,0.9156268868026829
LBP08_S07,LBP08,74,75,7,74,74,1716495551.96,2024-05-23 20:19:11.960000+00:00,2024-05-24 05:19:11.960000+09:00,2024,5,23,20,19,11,960,,,,,,,,,-0.39624,0.072754,0.314941,2.441406,192.077637,-3.356934,,,,,,,,,,,0.0,1.0,1.0,7.0,0.0,0.0,0.0,6.0,0.0,0.04632485333333333,-0.27306965333333333,1.0010351733333331,7.965494839999998,4.40348308,6.176757800000001,-59.26243965344712,17.86604818428181,14.428884140656825,21.91199069339749,18.399936701477387,5.1980439130069085,29.08113937395612,-1.396914736172912,30.651030235502596,-1.4158583972806678,-0.4425648533333333,0.3458236533333333,-0.6860941733333331,1.4744826799999997,0.8866695344336119,0.942422937486907,0.9148648512140232,0.9148648512140232
LBP08_S07,LBP08,75,76,7,75,75,1716495552.0,2024-05-23 20:19:12+00:00,2024-05-24 05:19:12+09:00,2024,5,23,20,19,12,0,20.0,19.0,10.0,40.789497,141.620529,0.816,3.0,16.0,0.04248,0.312256,-0.019531,-134.521484,-77.331543,-20.263672,-546.0,38.0,594.0,205.0,0.0,1019.5,21.92,0.064414,-51.875576,3.825,0.0,1.0,1.0,7.0,0.0,0.0,0.0,3.0,0.0,0.03679034666666667,-0.2725227866666666,1.0095215066666667,8.259277399999998,4.786783866666667,6.600748693333333,-57.392803366329815,16.992697528578187,14.205644802427077,19.6162785587443,19.079644602620515,5.7662697051039915,27.965712738433066,-1.4319564887943421,29.257383661241505,-1.4157388304347112,0.005689653333333329,0.5847787866666666,-1.0290525066666667,1.6195209466666667,1.1836163495691254,0.9426722111321244,0.9217559152744104,0.9217559152744104
LBP08_S07,LBP08,76,77,7,76,76,1716495552.04,2024-05-23 20:19:12.040000+00:00,2024-05-24 05:19:12.040000+09:00,2024,5,23,20,19,12,40,,,,,,,,,0.361572,-0.992676,0.803467,-238.830566,-127.868652,0.671387,,,,,,,,,,,0.0,1.0,1.0,7.0,0.0,0.0,0.0,3.0,0.0,0.03987954666666667,-0.27754232,1.0159896,7.725423226666665,3.264973973333334,6.150716146666666,-55.32227695815276,14.333235564669273,12.05368571103677,17.40338748041819,19.652974025207286,6.248417133545463,26.984439970172318,-1.4230426056543344,28.069309522822135,-1.4141070927028263,0.32169245333333335,-0.71513368,-0.2125225999999999,1.249348733333333,0.8124457337648596,0.9233943941972801,0.9190231607366716,0.9190231607366716
LBP08_S07,LBP08,77,78,7,77,77,1716495552.08,2024-05-23 20:19:12.080000+00:00,2024-05-24 05:19:12.080000+09:00,2024,5,23,20,19,12,80,,,,,,,,,0.588867,-0.479248,1.530762,32.714844,5.737305,5.981445,,,,,,,,,,,0.0,1.0,1.0,7.0,0.0,0.0,0.0,3.0,0.0,0.04514648,-0.2744466133333333,1.0074121333333332,7.381184946666664,5.6551106933333335,6.603190106666667,-52.39055032304097,11.205786584843558,8.07539317381868,15.30776546749655,20.10120548860103,6.57143286049821,26.10689325720086,-1.4020911163251335,27.08337546337334,-1.4083486156293268,0.54372052,-0.2048013866666667,0.5233498666666667,1.2718717733333333,0.7819659166419454,0.9091785417883158,0.9156803011246051,0.9156803011246051
LBP08_S07,LBP08,78,79,7,78,78,1716495552.12,2024-05-23 20:19:12.120000+00:00,2024-05-24 05:19:12.120000+09:00,2024,5,23,20,19,12,120,,,,,,,,,-0.185059,-0.315918,1.827393,-27.404785,14.953613,40.039062,,,,,,,,,,,0.0,1.0,1.0,7.0,0.0,0.0,0.0,3.0,0.0,0.035286453333333336,-0.26714844,0.9909017066666667,7.2111003066666655,5.503743506666667,6.0432942800000005,-48.01729599546639,8.70317673072769,2.6177798196371302,13.387073627677895,20.449332557830136,6.6761440532836955,25.336926447258673,-1.4349236517696824,26.29426234652697,-1.4103783541408499,-0.22034545333333333,-0.04876955999999999,0.8364912933333334,1.1056063066666666,0.866399603306545,0.9004048984083971,0.9145069511765561,0.9145069511765561
LBP08_S07,LBP08,79,80,7,79,79,1716495552.16,2024-05-23 20:19:12.160000+00:00,2024-05-24 05:19:12.160000+09:00,2024,5,23,20,19,12,160,,,,,,,,,-0.026367,-0.551758,2.113281,30.212402,-17.150879,3.234863,,,,,,,,,,,0.0,1.0,1.0,7.0,0.0,0.0,0.0,3.0,0.0,0.04043945333333334,-0.26562174666666666,0.9955729333333333,5.217285199999998,3.2739257999999998,5.747884119999999,-41.73654904116886,7.409289688155229,-3.7329835665210283,11.71761166603114,20.745704145356346,6.526824710622854,24.703969406671504,-1.414637951081433,25.700553421220924,-1.413987111667836,-0.06680645333333335,-0.2861362533333333,1.1177080666666668,1.4706507733333334,1.1556852426029998,0.9263626681112416,0.9201157486515896,0.9201157486515896
LBP08_S07,LBP08,80,81,7,80,80,1716495552.2,2024-05-23 20:19:12.200000+00:00,2024-05-24 05:19:12.200000+09:00,2024,5,23,20,19,12,200,,,,,,,,,0.047119,-0.525146,1.27002,-42.480469,118.469238,7.263184,,,,,,,,,,,0.0,1.0,1.0,7.0,0.0,0.0,0.0,3.0,0.0,0.051041666666666666,-0.2711263066666667,1.0069856933333334,2.0556641066666645,2.833658866666667,6.45100912,-33.16258589707955,7.398308630693468,-10.196447674645691,10.391108230147957,21.041636490584086,6.118966803637027,24.252161783984132,-1.378490280950355,25.308022154473967,-1.416495796435103,-0.003922666666666665,-0.2540196933333333,0.2630343066666665,0.5209766666666664,0.3656889913554309,0.8878324040451655,0.9075151405312224,0.9075151405312224
LBP08_S07,LBP08,81,82,7,81,81,1716495552.24,2024-05-23 20:19:12.240000+00:00,2024-05-24 05:19:12.240000+09:00,2024,5,23,20,19,12,240,,,,,,,,,-0.572021,0.049561,-0.301514,14.587402,79.467773,-21.972656,,,,,,,,,,,0.0,1.0,1.0,7.0,0.0,0.0,0.0,3.0,0.0,0.05036458666666667,-0.28070964,1.0169759200000001,1.1564127999999978,5.676269546666666,8.15592448,-22.035622980736168,8.39717214725976,-15.919900426046347,9.50968331091851,21.377523376474475,5.482170786595173,24.030954598581225,-1.3869940942676682,25.128472900310292,-1.418026243507802,-0.6223855866666667,0.33027064,-1.3184899200000002,2.271146146666667,1.4949442074131152,0.9267797952381316,0.9205691197952645,0.9205691197952645
LBP08_S07,LBP08,82,83,7,82,82,1716495552.28,2024-05-23 20:19:12.280000+00:00,2024-05-24 05:19:12.280000+09:00,2024,5,23,20,19,12,280,,,,,,,,,-0.054688,0.161865,0.099854,-29.907227,-102.111816,-61.523438,,,,,,,,,,,0.0,1.0,1.0,7.0,0.0,0.0,0.0,3.0,0.0,0.03677734666666667,-0.28819337333333334,1.0290429866666666,1.4973958666666645,5.829264346666666,8.440755213333334,-8.409625271909484,9.94927154599868,-20.16463931930625,9.17329830004213,21.775494238314423,4.675585213822923,24.08698088420672,-1.4391236132642655,25.17381074552359,-1.4167506814121587,-0.09146534666666667,0.4500583733333333,-0.9291889866666666,1.4707127066666668,1.0364895667544975,0.9501921689063964,0.9230891295117695,0.9230891295117695
LBP08_S07,LBP08,83,84,7,83,83,1716495552.32,2024-05-23 20:19:12.320000+00:00,2024-05-24 05:19:12.320000+09:00,2024,5,23,20,19,12,320,,,,,,,,,0.50708,-0.263916,0.907715,-110.351562,-75.073242,-51.208496,,,,,,,,,,,0.0,1.0,1.0,7.0,0.0,0.0,0.0,3.0,0.0,0.03867513333333334,-0.28642905333333335,1.0348698133333334,2.460123733333331,4.55566408,7.996419266666667,7.09227995237737,11.501892998285523,-22.489832543987077,9.456989498137226,22.235569958245843,3.7759919120634398,24.456355751744603,-1.4316965783982347,25.4475209879584,-1.4138752180350154,0.46840486666666664,0.022513053333333366,-0.12715481333333334,0.6180727333333333,0.4858788977113969,0.9425992388745992,0.9137867841543147,0.9137867841543147
LBP08_S07,LBP08,84,85,7,84,84,1716495552.36,2024-05-23 20:19:12.360000+00:00,2024-05-24 05:19:12.360000+09:00,2024,5,23,20,19,12,360,,,,,,,,,0.387695,-0.534424,1.481689,-18.920898,59.997559,-2.258301,,,,,,,,,,,0.0,1.0,1.0,7.0,0.0,0.0,0.0,3.0,0.0,0.04110352,-0.28443361333333333,1.0199219066666667,2.6066081066666644,6.65039064,8.229980466666666,23.1221906748275,12.464296543928358,-22.849813728072736,10.381877125130325,22.73414182000298,2.8619993629405305,25.155826706486604,-1.4220015838455804,25.937310632551664,-1.4091750408935224,0.34659148,-0.24999038666666668,0.4617670933333333,1.05834896,0.6291658731366915,0.9050775077133797,0.9078571818414476,0.9078571818414476
LBP08_S07,LBP08,85,86,7,85,85,1716495552.4,2024-05-23 20:19:12.400000+00:00,2024-05-24 05:19:12.400000+09:00,2024,5,23,20,19,12,400,,,,,,,,,-0.409912,-0.622314,1.715088,110.351562,48.583984,-20.263672,,,,,,,,,,,0.0,1.0,1.0,7.0,0.0,0.0,0.0,3.0,0.0,0.032135413333333335,-0.26780274666666665,0.9991829866666667,3.601074239999998,4.8478190266666665,6.730957026666666,37.710533506737896,12.326174778680308,-21.55668774982416,11.890298465399841,23.227188811150192,1.999731852947564,26.170220196796276,-1.4472609595213315,26.611993161943804,-1.4112409844263993,-0.4420474133333333,-0.3545112533333334,0.7159050133333332,1.5124636799999998,0.9130192399344396,0.9065294989234561,0.9079625299657944,0.9079625299657944
LBP08_S07,LBP08,86,87,7,86,86,1716495552.44,2024-05-23 20:19:12.440000+00:00,2024-05-24 05:19:12.440000+09:00,2024,5,23,20,19,12,440,,,,,,,,,0.065918,-0.157715,1.98584,84.16748,-18.249512,-15.869141,,,,,,,,,,,0.0,1.0,1.0,7.0,0.0,0.0,0.0,3.0,0.0,0.04235025333333334,-0.2705989733333333,1.0081836400000002,1.3549804933333307,1.58854168,6.014811186666666,48.66863709665307,10.846890846540031,-19.129443574117833,13.837043949265963,23.661064445011792,1.2345541099828508,27.43781842230527,-1.4102869846979038,27.423520221562775,-1.4139171077193486,0.023567746666666667,0.11288397333333333,0.9776563599999999,1.1141080799999998,0.9844339431200624,0.882289655894554,0.9094919582288797,0.9094919582288797
LBP08_S07,LBP08,87,88,7,87,87,1716495552.48,2024-05-23 20:19:12.480000+00:00,2024-05-24 05:19:12.480000+09:00,2024,5,23,20,19,12,480,,,,,,,,,0.144043,-0.622314,1.177734,16.479492,143.249512,55.236816,,,,,,,,,,,0.0,1.0,1.0,7.0,0.0,0.0,0.0,3.0,0.0,0.052067053333333335,-0.26881512,1.0181380666666666,-0.2311197733333359,2.0776367333333337,5.703938786666667,54.17143641209461,8.214415934091162,-16.1086119208346,16.003901405749748,23.98964108237544,0.5902096331494667,28.843995681548986,-1.3733364825537,28.313038699677463,-1.4162266962139418,0.09197594666666667,-0.35349888,0.15959593333333344,0.6050707600000002,0.39861246200165606,0.8686627636430982,0.9078783052271149,0.8994747132048165
LBP08_S07,LBP08,88,89,7,88,88,1716495552.52,2024-05-23 20:19:12.520000+00:00,2024-05-24 05:19:12.520000+09:00,2024,5,23,20,19,12,520,,,,,,,,,-0.455566,-0.115967,-0.062256,131.835938,18.127441,-24.353027,,,,,,,,,,,0.0,1.0,1.0,7.0,0.0,0.0,0.0,3.0,0.0,0.050546866666666676,-0.2832291866666667,1.0240950933333333,-3.094889306666669,3.8191732000000003,7.222493466666666,53.30654589002692,5.041347539019079,-12.927457693336466,18.136163241350825,24.191294983936203,0.07311132541600807,30.234822893191318,-1.3879218803547537,29.218850145591876,-1.4154395066939707,-0.5061128666666667,0.1672621866666667,-1.0863510933333334,1.7597261466666667,1.210076679752401,0.888173762001538,0.9194340485656456,0.9054478279461163
LBP08_S07,LBP08,89,90,7,89,89,1716495552.56,2024-05-23 20:19:12.560000+00:00,2024-05-24 05:19:12.560000+09:00,2024,5,23,20,19,12,560,,,,,,,,,0.182129,0.13916,0.380127,89.477539,-111.38916,-53.466797,,,,,,,,,,,0.0,1.0,1.0,7.0,0.0,0.0,0.0,3.0,0.0,0.03619464000000001,-0.27466148,1.02601892,-1.7504882666666692,4.04215496,6.627604146666667,46.393137349953584,2.142697896267348,-9.890129878476454,19.99188873534897,24.277002899786897,-0.3224938697230501,31.450794700592915,-1.4352973864102014,30.084183068638282,-1.415458902271575,0.14593436,0.41382148,-0.6458919200000001,1.2056477600000002,0.7808466091744821,0.8907549829825966,0.9164678578260872,0.9030968615541987
LBP08_S07,LBP08,90,91,7,90,90,1716495552.6,2024-05-23 20:19:12.600000+00:00,2024-05-24 05:19:12.600000+09:00,2024,5,23,20,19,12,600,,,,,,,,,0.446045,-0.323486,1.037598,-7.507324,-104.309082,-59.387207,,,,,,,,,,,0.0,1.0,1.0,7.0,0.0,0.0,0.0,3.0,0.0,0.043183573333333336,-0.26679364,1.0282357066666667,-2.667643213333336,3.9526367333333328,5.948893213333333,34.96480895800534,0.1805800976658476,-7.233894854098544,21.390481093669184,24.28422610369353,-0.6118496638869919,32.36743238017387,-1.4052515138798471,30.86356810716335,-1.4168708259271203,0.4028614266666667,-0.05669236,0.009362293333333271,0.46891607999999996,0.40693857683283235,0.859254522449606,0.9195223852415596,0.8939087451704696
LBP08_S07,LBP08,91,92,7,91,91,1716495552.64,2024-05-23 20:19:12.640000+00:00,2024-05-24 05:19:12.640000+09:00,2024,5,23,20,19,12,640,,,,,,,,,0.368164,-0.443604,1.571289,-7.141113,45.593262,21.484375,,,,,,,,,,,0.0,1.0,1.0,7.0,0.0,0.0,0.0,3.0,0.0,0.04178384000000001,-0.2662435066666667,1.01561852,-4.475097640000002,6.127929706666667,5.3328450400000005,21.427077789311113,-0.6277172973641351,-5.194057746140521,22.247564205241627,24.259117411798965,-0.8196119737326127,32.926139379728106,-1.4100899792136001,31.5278440942337,-1.4158520165600736,0.32638016,-0.1773604933333333,0.5556704799999999,1.0594111333333331,0.6683939226088903,0.8546437824670302,0.9083376386367196,0.8898084756693501
LBP08_S07,LBP08,92,93,7,92,92,1716495552.68,2024-05-23 20:19:12.680000+00:00,2024-05-24 05:19:12.680000+09:00,2024,5,23,20,19,12,680,,,,,,,,,-0.292969,-0.466797,1.896973,-44.86084,-1.77002,11.230469,,,,,,,,,,,0.0,1.0,1.0,7.0,0.0,0.0,0.0,3.0,0.0,0.03549477333333334,-0.26090496,1.0060937866666668,-5.554199200000003,4.584147146666667,4.4449869600000005,8.510826024372827,-0.5590402790120139,-3.996865469945281,22.58799724621654,24.236755800638484,-0.979486592530424,33.14509534335082,-1.4312517180645519,32.06834351435029,-1.416402339695663,-0.3284637733333333,-0.20589204,0.8908792133333332,1.4252350266666665,0.9715687084695306,0.852090186808503,0.9060610364075443,0.891268479826496
LBP08_S07,LBP08,93,94,7,93,93,1716495552.72,2024-05-23 20:19:12.720000+00:00,2024-05-24 05:19:12.720000+09:00,2024,5,23,20,19,12,720,,,,,,,,,0.222412,-0.654541,2.012207,23.498535,20.202637,8.789062,,,,,,,,,,,0.0,1.0,1.0,7.0,0.0,0.0,0.0,3.0,0.0,0.03597329333333334,-0.2659342533333333,1.0085319466666667,-7.530110666666669,4.047851573333334,3.9990234266666667,-1.2977710188308809,-0.1662689425143529,-3.7756503639029835,22.536086405463305,24.23010504293791,-1.1305126070865434,33.10968498220868,-1.4318905341742783,32.49990549037278,-1.4199574342746688,0.18643870666666668,-0.3886067466666667,1.0036750533333334,1.5787205066666667,1.092308659483234,0.8390929965525912,0.9112795715454658,0.8947955005222283
LBP08_S07,LBP08,94,95,7,94,94,1716495552.76,2024-05-23 20:19:12.760000+00:00,2024-05-24 05:19:12.760000+09:00,2024,5,23,20,19,12,760,,,,,,,,,-0.246338,-0.271729,0.709229,-7.080078,199.462891,44.921875,,,,,,,,,,,0.0,1.0,1.0,7.0,0.0,0.0,0.0,3.0,0.0,0.03526692000000001,-0.26927083999999996,1.00640304,-7.014160146666669,3.811848973333334,3.468424466666667,-6.199096192892808,0.05562578781902529,-4.476615020335681,22.28812255774759,24.232330074450672,-1.3095772078999708,32.94967709173726,-1.4361208204010363,32.860958840130586,-1.4225968642378102,-0.28160492000000004,-0.0024581600000000425,-0.2971740399999999,0.5812371199999999,0.40941395136061687,0.8242858538737466,0.9083740881329494,0.8864268531228903
LBP08_S07,LBP08,95,96,7,95,95,1716495552.8,2024-05-23 20:19:12.800000+00:00,2024-05-24 05:19:12.800000+09:00,2024,5,23,20,19,12,800,,,,,,,,,-0.030762,0.065674,0.064209,49.316406,-66.467285,-22.949219,,,,,,,,,,,0.0,1.0,1.0,7.0,0.0,0.0,0.0,3.0,0.0,0.034886066666666674,-0.2682845066666667,1.0027279066666668,-7.519531240000003,2.819824226666667,2.9703776,-5.333174370002223,-0.09875282762243293,-5.8340818434758726,22.0747955829475,24.228379961345777,-1.5429404816390058,32.81298006749982,-1.4370728658508642,33.208718222008216,-1.4195522824944515,-0.06564806666666667,0.3339585066666667,-0.9385189066666668,1.3381254800000002,0.9983264451084609,0.8322858217871106,0.9179209350591401,0.8883234563768829
LBP08_S07,LBP08,96,97,7,96,96,1716495552.84,2024-05-23 20:19:12.840000+00:00,2024-05-24 05:19:12.840000+09:00,2024,5,23,20,19,12,840,,,,,,,,,0.263428,-0.147705,0.538574,-15.197754,-156.188965,-64.27002,,,,,,,,,,,0.0,1.0,1.0,7.0,0.0,0.0,0.0,3.0,0.0,0.04026041333333334,-0.2664160133333333,1.0003450933333333,-6.614583333333337,2.304687506666667,2.1280924400000005,1.1350203788971307,-0.5448099542366377,-7.445307995292436,22.12019639810339,24.20658756317631,-1.8407528014507033,32.84281262347116,-1.4157902160537985,33.60913396543005,-1.419189158393746,0.22316758666666664,0.11871101333333331,-0.4617710933333333,0.8036496933333332,0.5264300704400472,0.8352579508644975,0.9101863304843404,0.8822918999446023
LBP08_S07,LBP08,97,98,7,97,97,1716495552.88,2024-05-23 20:19:12.880000+00:00,2024-05-24 05:19:12.880000+09:00,2024,5,23,20,19,12,880,,,,,,,,,0.552246,-0.2854,1.013672,-29.052734,-45.471191,-22.827148,,,,,,,,,,,0.0,1.0,1.0,7.0,0.0,0.0,0.0,3.0,0.0,0.039866533333333336,-0.25153972,0.9956641066666668,-6.74153646666667,2.921549480000001,1.7708333200000004,12.057389503538987,-1.0841423013129454,-8.90249542131954,22.60249197824495,24.163221871123792,-2.1968526183034847,33.15961544177389,-1.4088874283437562,34.123690343849795,-1.419358004440038,0.5123794666666667,-0.033860279999999965,0.01800789333333308,0.5642476399999997,0.5138127291587868,0.8165655155006805,0.901331524694105,0.8762512578005726
LBP08_S07,LBP08,98,99,7,98,98,1716495552.92,2024-05-23 20:19:12.920000+00:00,2024-05-24 05:19:12.920000+09:00,2024,5,23,20,19,12,920,,,,,,,,,-0.233398,-0.335693,1.411133,-7.446289,91.125488,14.892578,,,,,,,,,,,0.0,1.0,1.0,7.0,0.0,0.0,0.0,3.0,0.0,0.03954101333333334,-0.25880533333333333,0.9921582533333333,-9.107259120000002,3.086751306666667,1.1808268133333337,25.465071199062205,-1.5705870450167856,-9.899716552778116,23.621094826207436,24.10039838932312,-2.5928412804146093,33.84535639076939,-1.4143161799861665,34.79687395473054,-1.4166625758919,-0.2729390133333333,-0.07688766666666669,0.4189747466666667,0.7688014266666667,0.5059123013222899,0.8031617686183181,0.877220059961407,0.8702780488251164
LBP08_S07,LBP08,99,100,7,99,99,1716495552.96,2024-05-23 20:19:12.960000+00:00,2024-05-24 05:19:12.960000+09:00,2024,5,23,20,19,12,960,,,,,,,,,-0.447998,-0.546875,1.841553,46.325684,-34.606934,-23.31543,,,,,,,,,,,0.0,1.0,1.0,7.0,0.0,0.0,0.0,3.0,0.0,0.044332680000000006,-0.27417642666666664,1.0010449733333333,-9.698893240000004,2.834472666666667,1.1092122400000004,38.87672515928508,-1.9194836476498893,-10.257374055867304,25.17616383257884,24.023619043417124,-3.0031362426493016,34.92838851936915,-1.4048515689766148,35.64796690857972,-1.412011743992327,-0.49233068,-0.27269857333333336,0.8405080266666667,1.60553728,1.0115373217328127,0.808156480110286,0.8752897087985966,0.8725202595061909
LBP08_S07,LBP08,100,101,7,100,100,1716495553.0,2024-05-23 20:19:13+00:00,2024-05-24 05:19:13+09:00,2024,5,23,20,19,13,0,20.0,19.0,11.0,40.789593,141.620483,0.949,3.0,16.0,0.413818,-0.077881,1.45752,43.334961,63.537598,27.709961,-542.0,37.0,590.0,188.0,0.0,1019.299988,21.98,0.062432,-50.219452,3.825,0.0,1.0,1.0,7.0,0.0,0.0,0.0,4.0,0.0,0.0434082,-0.26254556,0.9971777866666668,-7.37955730666667,3.1819661600000004,0.8935546800000005,49.756726663100736,-1.982588845827481,-9.874613671903564,27.16643289910287,23.944315489584024,-3.398120789525444,36.37158981439219,-1.4016202728727924,36.66884016681044,-1.40829049158201,0.3704098,0.18466456,0.46034221333333314,1.0154165733333331,0.6190471492807843,0.7855737120987523,0.8641229616154383,0.868559742158919
LBP08_S07,LBP08,101,102,7,101,101,1716495553.04,2024-05-23 20:19:13.040000+00:00,2024-05-24 05:19:13.040000+09:00,2024,5,23,20,19,13,40,,,,,,,,,-0.586426,-0.047363,-0.182861,91.003418,139.465332,44.128418,,,,,,,,,,,0.0,1.0,1.0,7.0,0.0,0.0,0.0,4.0,0.0,0.03954101333333334,-0.25436521333333334,0.9898991333333333,-6.366373720000002,2.7303060000000006,-0.09521485333333307,56.053684187724286,-1.445658050810917,-8.673978747713438,29.40858026661184,23.886489167551588,-3.7450799394339818,38.071703163925584,-1.4117784396765214,37.8269245892198,-1.4018698817372743,-0.6259670133333334,0.20700221333333335,-1.1727601333333333,2.00572936,1.345381339413614,0.8068911363247026,0.8651427652609912,0.8758954590397604
LBP08_S07,LBP08,102,103,7,102,102,1716495553.08,2024-05-23 20:19:13.080000+00:00,2024-05-24 05:19:13.080000+09:00,2024,5,23,20,19,13,80,,,,,,,,,-0.171631,0.131348,-0.035645,127.075195,-80.749512,-40.283203,,,,,,,,,,,0.0,1.0,1.0,7.0,0.0,0.0,0.0,4.0,0.0,0.042578120000000004,-0.26192055999999997,0.9848698400000001,-6.7358398666666695,1.5559896000000004,-0.4223632799999998,56.67339703060845,0.10116816279665805,-6.60284207687049,31.675516147836177,23.890535894063454,-4.009193622508802,39.876931452158274,-1.4042974325831712,39.071052259594005,-1.3989082507573882,-0.21420912,0.39326856,-1.0205148400000001,1.6279925200000003,1.1144488530371746,0.8201904537805116,0.8646844977844137,0.8795099044033576
LBP08_S07,LBP08,103,104,7,103,103,1716495553.12,2024-05-23 20:19:13.120000+00:00,2024-05-24 05:19:13.120000+09:00,2024,5,23,20,19,13,120,,,,,,,,,0.429443,0.435059,0.566895,138.061523,-156.25,-104.919434,,,,,,,,,,,0.0,1.0,1.0,7.0,0.0,0.0,0.0,4.0,0.0,0.046510413333333334,-0.25601236,0.9791309066666668,-5.717773466666669,2.5423177200000002,-0.7975260399999997,51.716190444879814,2.90521349433586,-3.7027894417619263,33.74416376563137,24.00674443383689,-4.1573052001792785,41.6206145207005,-1.385382215178548,40.338060955621856,-1.3985519287790875,0.3829325866666667,0.69107136,-0.41223590666666676,1.4862398533333334,0.8911539896610252,0.8211806292346909,0.860792763821544,0.8796836967206363
LBP08_S07,LBP08,104,105,7,104,104,1716495553.16,2024-05-23 20:19:13.160000+00:00,2024-05-24 05:19:13.160000+09:00,2024,5,23,20,19,13,160,,,,,,,,,0.593262,-0.428467,1.104492,-86.975098,-52.124023,40.893555,,,,,,,,,,,0.0,1.0,1.0,7.0,0.0,0.0,0.0,4.0,0.0,0.043590493333333334,-0.25947590666666664,0.9809245333333333,-5.837402373333336,1.9531250133333338,-1.024576813333333,42.36883023794485,6.762941550743044,-0.18879655406833581,35.43891697514916,24.27726209586661,-4.164857062342012,43.15840967404449,-1.3989082962978672,41.55936361648075,-1.3993381184982117,0.5496715066666666,-0.16899109333333334,0.12356746666666674,0.8422300666666668,0.5881884678278014,0.798480758243683,0.8624217131774623,0.8753970021780946
LBP08_S07,LBP08,105,106,7,105,105,1716495553.2,2024-05-23 20:19:13.200000+00:00,2024-05-24 05:19:13.200000+09:00,2024,5,23,20,19,13,200,,,,,,,,,-0.165771,-0.274658,1.462646,4.699707,100.280762,27.22168,,,,,,,,,,,0.0,1.0,1.0,7.0,0.0,0.0,0.0,4.0,0.0,0.051328120000000005,-0.26434896,1.0014583866666666,-5.75113934666667,0.07486980000000026,-0.9318033866666665,30.478919825275142,10.933635751277114,3.5436032050487167,36.658073768160165,24.714607525917696,-4.023112934140063,44.39382429159337,-1.3728667674035078,42.667821062580956,-1.3979293480141366,-0.21709912,-0.010309039999999992,0.46118761333333325,0.6885957733333332,0.5098355802634729,0.8042466218000045,0.8460395129225852,0.8700990105561436
LBP08_S07,LBP08,106,107,7,106,106,1716495553.24,2024-05-23 20:19:13.240000+00:00,2024-05-24 05:19:13.240000+09:00,2024,5,23,20,19,13,240,,,,,,,,,-0.226074,-0.490234,1.953857,10.681152,13.244629,4.638672,,,,,,,,,,,0.0,1.0,1.0,7.0,0.0,0.0,0.0,4.0,0.0,0.048782546666666676,-0.27011393333333333,1.0083431466666666,-4.012044306666669,3.719075533333333,0.013020840000000268,17.985725921922608,14.374869903692696,7.012857132653004,37.37750280503707,25.289602322065402,-3.742598648833943,45.28408932721319,-1.386173906254937,43.60521803114505,-1.3985614109939462,-0.2748565466666667,-0.22012006666666667,0.9455138533333334,1.4404904666666667,1.0089575867399538,0.7848071569730783,0.8557934761056051,0.8720827045016265
LBP08_S07,LBP08,107,108,7,107,107,1716495553.28,2024-05-23 20:19:13.280000+00:00,2024-05-24 05:19:13.280000+09:00,2024,5,23,20,19,13,280,,,,,,,,,0.306885,-0.506592,1.711182,-11.474609,95.64209,38.94043,,,,,,,,,,,0.0,1.0,1.0,7.0,0.0,0.0,0.0,4.0,0.0,0.04297850666666667,-0.2659537866666667,1.0061686666666667,-0.20670576000000276,5.559895853333333,0.19856770666666695,6.435772875811323,16.19371927287383,9.797414231243504,37.63493372006952,25.937351092980357,-3.350702079584203,45.82970240205237,-1.4053242085607487,44.32951190320115,-1.3999262562503314,0.2639064933333333,-0.24063821333333335,0.7050133333333333,1.20955804,0.790314612744528,0.7749601588126795,0.862576163859538,0.870931041237442
LBP08_S07,LBP08,108,109,7,108,108,1716495553.32,2024-05-23 20:19:13.320000+00:00,2024-05-24 05:19:13.320000+09:00,2024,5,23,20,19,13,320,,,,,,,,,-0.726807,0.051025,-0.141113,-1.403809,159.851074,23.55957,,,,,,,,,,,0.0,1.0,1.0,7.0,0.0,0.0,0.0,4.0,0.0,0.03778970666666667,-0.26066408,0.9989225733333332,1.900227839999997,4.858398466666666,0.13346354666666696,-3.2595442530046377,16.04986600911683,11.649558671152793,37.50455194994933,26.57934573334503,-2.884719732738091,46.05838299935836,-1.422178077177408,44.81998707061043,-1.3987265007680236,-0.7645967066666667,0.31168908,-1.1400355733333332,2.21632136,1.4076360733166158,0.8118304458368881,0.8772148423557437,0.8783852777940973
LBP08_S07,LBP08,109,110,7,109,109,1716495553.36,2024-05-23 20:19:13.360000+00:00,2024-05-24 05:19:13.360000+09:00,2024,5,23,20,19,13,360,,,,,,,,,-0.045898,-0.137939,0.188232,-0.610352,-77.636719,-19.897461,,,,,,,,,,,0.0,1.0,1.0,7.0,0.0,0.0,0.0,4.0,0.0,0.04538412000000001,-0.25722332,0.9992350666666666,2.7530924133333303,3.64664716,-0.31575519999999974,-10.797730319832466,14.269684856411013,12.524611399187293,37.07264273715603,27.15013312760147,-2.3837352767705995,46.012962980371206,-1.3907638641358644,45.07867847085581,-1.4031334693862525,-0.09128212000000001,0.11928431999999997,-0.8110030666666665,1.0215695066666666,0.8247952161429493,0.8196556195571384,0.8623665636352591,0.8776511673605197
LBP08_S07,LBP08,110,111,7,110,110,1716495553.4,2024-05-23 20:19:13.400000+00:00,2024-05-24 05:19:13.400000+09:00,2024,5,23,20,19,13,400,,,,,,,,,0.432373,-0.11377,0.723633,30.700684,-135.620117,-29.35791,,,,,,,,,,,0.0,1.0,1.0,7.0,0.0,0.0,0.0,4.0,0.0,0.04043294666666668,-0.25369468,0.9979785600000001,2.1956379866666635,3.992513053333333,-0.5167643199999997,-16.2702329126789,11.610097365235465,12.532189716145721,36.42183342064887,27.61453702221089,-1.8824476881247705,45.7455595000332,-1.4079409026708887,45.12789027112467,-1.4073923543883213,0.3919400533333333,0.13992468000000002,-0.2743455600000001,0.8062102933333334,0.4984590331930521,0.803073211287483,0.8548013551054696,0.8725269493312298
LBP08_S07,LBP08,111,112,7,111,111,1716495553.44,2024-05-23 20:19:13.440000+00:00,2024-05-24 05:19:13.440000+09:00,2024,5,23,20,19,13,440,,,,,,,,,0.435059,-0.369141,1.201172,-17.333984,3.662109,48.156738,,,,,,,,,,,0.0,1.0,1.0,7.0,0.0,0.0,0.0,4.0,0.0,0.03622070666666667,-0.2551530133333333,1.0007650133333335,1.669108039999997,2.0304362266666667,-1.267903653333333,-19.887101542449383,8.83132270517619,11.858858462471563,35.6263493589509,27.967789930417936,-1.4080933496259078,45.31464188448661,-1.425426892240374,45.00521368654062,-1.4152097007786248,0.3988382933333333,-0.11398798666666671,0.20040698666666645,0.7132332666666665,0.460682326162161,0.7821231466091669,0.8322064012518604,0.8670356876889754
LBP08_S07,LBP08,112,113,7,112,112,1716495553.48,2024-05-23 20:19:13.480000+00:00,2024-05-24 05:19:13.480000+09:00,2024,5,23,20,19,13,480,,,,,,,,,-0.293701,-0.450684,1.671875,-44.250488,30.883789,29.602051,,,,,,,,,,,0.0,1.0,1.0,7.0,0.0,0.0,0.0,4.0,0.0,0.04528645333333334,-0.25872071999999996,1.0188997866666667,1.417643199999997,0.7446289333333328,-0.9993489599999998,-21.760722270339578,6.34820830747929,10.710570682858622,34.75592046813731,28.221718262717108,-0.9796705223115629,44.78168312625099,-1.3922998777600915,44.75802506734017,-1.41890162574627,-0.33898745333333336,-0.19196328000000001,0.6529752133333333,1.1839259466666667,0.7603545381027783,0.7965928296532119,0.8326277966481551,0.8707831467024806
LBP08_S07,LBP08,113,114,7,113,113,1716495553.52,2024-05-23 20:19:13.520000+00:00,2024-05-24 05:19:13.520000+09:00,2024,5,23,20,19,13,520,,,,,,,,,-0.052734,-0.810303,1.934326,-24.536133,-28.686523,-7.568359,,,,,,,,,,,0.0,1.0,1.0,7.0,0.0,0.0,0.0,4.0,0.0,0.035631506666666674,-0.2581868666666667,1.017474,2.5219726266666633,3.652343773333333,-0.4654947866666664,-21.816136365128298,4.148572299849899,9.285953145297452,33.88327501353218,28.387661154711104,-0.6082323964996649,44.20752852315428,-1.4294519013608398,44.43877384049225,-1.4221978155134942,-0.08836550666666668,-0.5521161333333333,0.916852,1.55733364,1.0738986345830819,0.791145707846439,0.8396597349239885,0.8766712683259101
LBP08_S07,LBP08,114,115,7,114,114,1716495553.56,2024-05-23 20:19:13.560000+00:00,2024-05-24 05:19:13.560000+09:00,2024,5,23,20,19,13,560,,,,,,,,,0.143311,-0.29126,1.146973,16.723633,141.662598,22.583008,,,,,,,,,,,0.0,1.0,1.0,7.0,0.0,0.0,0.0,4.0,0.0,0.0315918,-0.25017254666666666,1.0111002933333333,5.249837199999997,4.302571639999999,-0.5550130133333331,-19.833352274495503,1.9683435639560058,7.758589291939809,33.08994092255236,28.466394897269343,-0.2978888248220725,43.650527676733084,-1.4414971463185529,44.10116601491853,-1.423434914528449,0.11171919999999999,-0.04108745333333336,0.13587270666666673,0.28867936000000005,0.18063983748604545,0.7671374369789017,0.8289462099807491,0.8666910508770251
LBP08_S07,LBP08,115,116,7,115,115,1716495553.6,2024-05-23 20:19:13.600000+00:00,2024-05-24 05:19:13.600000+09:00,2024,5,23,20,19,13,600,,,,,,,,,-0.646484,0.063232,-0.187012,-14.282227,55.541992,6.530762,,,,,,,,,,,0.0,1.0,1.0,7.0,0.0,0.0,0.0,4.0,0.0,0.028365893333333336,-0.24241863999999996,1.0031803733333333,4.805501253333331,3.6214192933333336,-0.9643554533333331,-15.588351693441233,-0.4438968433519937,6.248652392597317,32.46640685481471,28.448639023535264,-0.047942729118179817,43.16705844575292,-1.4510402313065431,43.796603938264084,-1.4249728141736544,-0.6748498933333333,0.30565064,-1.1901923733333333,2.1706929066666665,1.401928164281342,0.806937020476842,0.8330957714632241,0.881993930319987
LBP08_S07,LBP08,116,117,7,116,116,1716495553.64,2024-05-23 20:19:13.640000+00:00,2024-05-24 05:19:13.640000+09:00,2024,5,23,20,19,13,640,,,,,,,,,-0.056396,-0.088379,0.200684,-44.067383,-117.736816,-19.226074,,,,,,,,,,,0.0,1.0,1.0,7.0,0.0,0.0,0.0,4.0,0.0,0.03557293333333334,-0.24604494666666668,1.0012207333333334,4.777018173333331,4.064127626666666,-1.0709635199999998,-9.044117524367644,-3.1569880971663724,4.7903850485944615,32.104642153840004,28.32235949964861,0.14367267282559865,42.81220313520869,-1.4230931559313895,43.57035585274788,-1.4260585751121344,-0.09196893333333334,0.15766594666666667,-0.8005367333333334,1.0501716133333334,0.8210821498807362,0.8130445495677158,0.833844166017373,0.8765732756137182
LBP08_S07,LBP08,117,118,7,117,117,1716495553.68,2024-05-23 20:19:13.680000+00:00,2024-05-24 05:19:13.680000+09:00,2024,5,23,20,19,13,680,,,,,,,,,0.550537,-0.262207,0.880371,-43.884277,-104.187012,-29.541016,,,,,,,,,,,0.0,1.0,1.0,7.0,0.0,0.0,0.0,4.0,0.0,0.03214194666666667,-0.24836265333333335,0.9982910533333335,4.338378853333331,4.233398466666666,-1.03922524,-0.5285091783921663,-6.051873002112052,3.323452502791039,32.08350178670432,28.080284579564125,0.27661077293724023,42.63719013357319,-1.4382861062329924,43.457506330861385,-1.4266496127812651,0.5183950533333334,-0.013844346666666674,-0.11792005333333344,0.6501594533333335,0.5318178600171609,0.795454515629621,0.823772351219062,0.8691921961482365
LBP08_S07,LBP08,118,119,7,118,118,1716495553.72,2024-05-23 20:19:13.720000+00:00,2024-05-24 05:19:13.720000+09:00,2024,5,23,20,19,13,720,,,,,,,,,0.329102,-0.327881,1.339355,34.362793,72.20459,28.076172,,,,,,,,,,,0.0,1.0,1.0,7.0,0.0,0.0,0.0,4.0,0.0,0.03246421333333334,-0.24351890666666667,1.0053418266666667,5.05371089333333,2.559407586666666,-1.3582356666666666,9.175808491506695,-8.906189297132787,1.7357832803548505,32.45053412636459,27.724037007678813,0.34604210415143427,42.682304743621124,-1.434549067326953,43.47916574369357,-1.4298775484811297,0.2966377866666667,-0.0843620933333333,0.33401317333333336,0.7150130533333333,0.4546160349462877,0.7699468106481432,0.8045199036003673,0.8641686512463582
LBP08_S07,LBP08,119,120,7,119,119,1716495553.76,2024-05-23 20:19:13.760000+00:00,2024-05-24 05:19:13.760000+09:00,2024,5,23,20,19,13,760,,,,,,,,,-0.444092,-0.898682,1.927979,13.000488,-5.249023,18.737793,,,,,,,,,,,0.0,1.0,1.0,7.0,0.0,0.0,0.0,4.0,0.0,0.039860040000000006,-0.2466016,1.0211068,4.435221319999997,3.6954753066666663,-0.9049479066666665,18.8835031268153,-11.44676345095898,-0.04225740301494662,33.2058742514372,27.266166469640453,0.3443518080308364,42.96734221382677,-1.4061428605879183,43.63947580332723,-1.4254575976676123,-0.48395203999999997,-0.6520804,0.9068722,2.0429046399999997,1.2173067042521213,0.8022625207638033,0.813274187318775,0.8730035656765675
LBP08_S07,LBP08,120,121,7,120,120,1716495553.8,2024-05-23 20:19:13.800000+00:00,2024-05-24 05:19:13.800000+09:00,2024,5,23,20,19,13,800,,,,,,,,,0.116699,-0.381104,1.846924,66.52832,-38.94043,10.314941,,,,,,,,,,,0.0,1.0,1.0,7.0,0.0,0.0,0.0,4.0,0.0,0.03769858666666667,-0.25341800000000003,1.0198991066666665,4.043782519999997,4.433593786666667,-0.6111653466666664,27.195791281339808,-13.331343167192683,-1.9360814785136597,34.293705902690796,26.732912742952745,0.26690854889029003,43.48307864487111,-1.4187985120556894,43.923841692362394,-1.4216338392255454,0.07900041333333332,-0.12768599999999997,0.8270248933333335,1.0337113066666668,0.8405444390963807,0.7959512405233202,0.8141185311552154,0.8772643702138667
LBP08_S07,LBP08,121,122,7,121,121,1716495553.84,2024-05-23 20:19:13.840000+00:00,2024-05-24 05:19:13.840000+09:00,2024,5,23,20,19,13,840,,,,,,,,,0.02124,-0.247559,0.735596,7.93457,142.76123,45.593262,,,,,,,,,,,0.0,1.0,1.0,7.0,0.0,0.0,0.0,4.0,0.0,0.034205746666666675,-0.25090497333333334,1.0128418133333332,6.332193973333331,3.743489613333333,-0.5330403466666664,32.762546111580825,-14.13358344905507,-3.6874071709645984,35.60420774715403,26.16756940499054,0.1194122620517061,44.18614666562166,-1.4313372689316815,44.29877027795783,-1.4168940989318364,-0.012965746666666677,0.0033459733333333352,-0.2772458133333332,0.29355753333333323,0.2775689952697041,0.7859967975165064,0.8106273741905019,0.8687898194950624
LBP08_S07,LBP08,122,123,7,122,122,1716495553.88,2024-05-23 20:19:13.880000+00:00,2024-05-24 05:19:13.880000+09:00,2024,5,23,20,19,13,880,,,,,,,,,-0.26001,0.22168,-0.120605,66.589355,-30.334473,-33.447266,,,,,,,,,,,0.0,1.0,1.0,7.0,0.0,0.0,0.0,4.0,0.0,0.03519208,-0.24585289333333335,1.0056608266666667,5.5322265199999965,1.9840495066666661,-0.9350585733333332,34.53435052981747,-13.434957691821587,-4.926095464744092,36.98558176834673,25.630171097317678,-0.07763155653805759,44.998277254572876,-1.4245792347587392,44.71371893252113,-1.4125411066063065,-0.29520208000000003,0.46753289333333337,-1.1262658266666667,1.8890008000000003,1.2546736574512571,0.8156312346482052,0.8160983750744428,0.8727647613454717
LBP08_S07,LBP08,123,124,7,123,123,1716495553.92,2024-05-23 20:19:13.920000+00:00,2024-05-24 05:19:13.920000+09:00,2024,5,23,20,19,13,920,,,,,,,,,0.0,-0.138672,0.193848,4.150391,-147.583008,-62.5,,,,,,,,,,,0.0,1.0,1.0,7.0,0.0,0.0,0.0,4.0,0.0,0.044274106666666674,-0.2424381866666667,1.00236004,4.5174153333333305,2.31445316,-0.5314127333333332,31.945006180491525,-11.050680583973401,-5.336969976117515,38.263382015566386,25.188143873958744,-0.2911103555827582,45.81062911949084,-1.3852523932256617,45.1053491945641,-1.4097770294370853,-0.044274106666666674,0.1037661866666667,-0.8085120399999999,0.9565523333333332,0.8163451089100946,0.8280485469517174,0.8156051577850176,0.8608295556248438
LBP08_S07,LBP08,124,125,7,124,124,1716495553.96,2024-05-23 20:19:13.960000+00:00,2024-05-24 05:19:13.960000+09:00,2024,5,23,20,19,13,960,,,,,,,,,0.477539,0.010254,0.686035,25.45166,-99.304199,-55.908203,,,,,,,,,,,0.0,1.0,1.0,7.0,0.0,0.0,0.0,4.0,0.0,0.040794293333333335,-0.24834313333333335,0.9992480533333334,3.776041639999997,2.4357096799999995,-0.15624997333333315,25.00339624871861,-7.283488782640685,-4.833286657319012,39.26351786551513,24.896804322653118,-0.4844418218755187,46.49418656708478,-1.4032595618978854,45.404353547822694,-1.4092816043374765,0.43674470666666665,0.25859713333333334,-0.3132130533333335,1.0085548933333335,0.5964233672048406,0.8114439887705985,0.8098002344404422,0.8540078021225973
LBP08_S07,LBP08,125,126,7,125,125,1716495554.0,2024-05-23 20:19:14+00:00,2024-05-24 05:19:14+09:00,2024,5,23,20,19,14,0,20.0,19.0,12.0,40.789688,141.620468,1.062,3.0,16.0,0.40332,-0.32251,1.10498,21.484375,33.813477,27.526855,-540.0,28.0,592.0,264.0,0.0,1018.5,22.040001,0.054504,-43.592819,3.825,0.0,1.0,1.0,7.0,0.0,0.0,0.0,5.0,0.0,0.04035158666666667,-0.2459766,1.00768556,4.2578124799999975,0.41666670666666616,-0.8365885066666664,14.301660558787797,-3.008387114607784,-3.624642331650323,39.83558428786664,24.776468838068805,-0.6294275151415316,46.916344301707255,-1.403642828369452,45.544427277844136,-1.411138802395964,0.36296841333333335,-0.07653340000000003,0.09729443999999998,0.5367962533333334,0.38349659509334777,0.8020219666031011,0.7937978393509267,0.8434226299446592
LBP08_S07,LBP08,126,127,7,126,126,1716495554.04,2024-05-23 20:19:14.040000+00:00,2024-05-24 05:19:14.040000+09:00,2024,5,23,20,19,14,40,,,,,,,,,-0.242188,-0.466797,1.672119,-25.085449,39.978027,55.175781,,,,,,,,,,,0.0,1.0,1.0,7.0,0.0,0.0,0.0,5.0,0.0,0.04652345333333334,-0.24696618666666667,1.0222656399999999,2.6920572666666636,2.157389373333333,0.17659508000000027,0.9545814856448179,0.5542950136891042,-2.124563745740505,39.87376754729243,24.79864063861637,-0.7144100649711518,46.96168968084175,-1.3795632326760916,45.472086378440096,-1.4085102352215704,-0.2887114533333333,-0.21983081333333335,0.64985336,1.1583956266666666,0.7443045608350993,0.7779788954599606,0.7924350158923315,0.836088141993981
LBP08_S07,LBP08,127,128,7,127,127,1716495554.08,2024-05-23 20:19:14.080000+00:00,2024-05-24 05:19:14.080000+09:00,2024,5,23,20,19,14,80,,,,,,,,,0.2146,-0.441406,1.90332,52.429199,7.629395,4.516602,,,,,,,,,,,0.0,1.0,1.0,7.0,0.0,0.0,0.0,5.0,0.0,0.038763040000000006,-0.24677086666666667,1.0155534,1.1588541466666638,3.9274089066666664,0.5623372666666668,-13.52347858643025,2.329228319190786,-0.7492831744409598,39.33282840383522,24.891809771384,-0.7443813919487902,46.55349275400284,-1.4106453345407806,45.15532117437417,-1.4067404247039612,0.17583696000000001,-0.19463513333333335,0.8877666,1.2582386933333334,0.9257056809295738,0.7704291685756566,0.7953098111780841,0.833266054714828
LBP08_S07,LBP08,128,129,7,128,128,1716495554.12,2024-05-23 20:19:14.120000+00:00,2024-05-24 05:19:14.120000+09:00,2024,5,23,20,19,14,120,,,,,,,,,0.067627,-0.404785,1.105225,-36.804199,150.20752,9.216309,,,,,,,,,,,0.0,1.0,1.0,7.0,0.0,0.0,0.0,5.0,0.0,0.03376304000000001,-0.2443001733333333,1.00500652,1.0498046666666636,4.090983119999999,0.8504232000000003,-27.40899554372867,1.9030932218953935,0.26961657202401995,38.236468582086076,24.967933500259818,-0.7335967290678294,45.67234827620703,-1.4295948163308663,44.589035618955464,-1.4041079008778843,0.03386396,-0.16048482666666672,0.10021847999999989,0.2945672666666666,0.19221313979700252,0.7424715345810955,0.7818260819078933,0.8213523540747278
LBP08_S07,LBP08,129,130,7,129,129,1716495554.16,2024-05-23 20:19:14.160000+00:00,2024-05-24 05:19:14.160000+09:00,2024,5,23,20,19,14,160,,,,,,,,,-0.515625,0.296387,-0.197998,-38.757324,66.589355,-2.258301,,,,,,,,,,,0.0,1.0,1.0,7.0,0.0,0.0,0.0,5.0,0.0,0.034335960000000006,-0.23992842666666667,0.99422852,1.383463519999997,2.3974609866666667,-0.15543617333333315,-39.02639694320003,-0.22069169582887233,0.9542420998931639,36.675412704358074,24.959105832426662,-0.6954270450721028,44.36807951404119,-1.4247148411727923,43.796015966782946,-1.4050802579389854,-0.54996096,0.5363154266666667,-1.19222652,2.2785029066666667,1.418271965948732,0.7756748745059326,0.7870778163748079,0.8335061002869525
LBP08_S07,LBP08,130,131,7,130,130,1716495554.2,2024-05-23 20:19:14.200000+00:00,2024-05-24 05:19:14.200000+09:00,2024,5,23,20,19,14,200,,,,,,,,,-0.032959,0.129883,0.098633,-101.867676,-81.298828,-14.526367,,,,,,,,,,,0.0,1.0,1.0,7.0,0.0,0.0,0.0,5.0,0.0,0.04195640000000001,-0.23939131999999996,0.9854622399999999,1.9205728933333304,2.406412813333333,-0.38574215999999983,-47.03760401882159,-2.8043851790515917,1.5087008664046317,34.79390854360521,24.8469304252646,-0.6350790104159175,42.75966965083072,-1.3925128403117542,42.82346348590375,-1.4096933541467334,-0.07491540000000002,0.36927431999999993,-0.88682924,1.33101896,0.963556921768299,0.7938237281661259,0.7990351749830651,0.8286342513370987
LBP08_S07,LBP08,131,132,7,131,131,1716495554.24,2024-05-23 20:19:14.240000+00:00,2024-05-24 05:19:14.240000+09:00,2024,5,23,20,19,14,240,,,,,,,,,0.348389,-0.487305,0.458252,-85.021973,-165.283203,-26.672363,,,,,,,,,,,0.0,1.0,1.0,7.0,0.0,0.0,0.0,5.0,0.0,0.03680341333333333,-0.23889001333333335,0.9795084666666668,2.1907551866666637,2.4308268666666666,-0.5452473599999998,-50.68546814682188,-4.441356296228766,2.164312265227854,32.766489817732335,24.669276173415447,-0.5485065198068033,41.018494624962415,-1.4136391637555894,41.73637289984547,-1.4166753644460865,0.3115855866666667,-0.24841498666666664,-0.5212564666666668,1.0812570400000001,0.6561279505255274,0.7797105427175488,0.7822588498453135,0.8304324983095862
LBP08_S07,LBP08,132,133,7,132,132,1716495554.28,2024-05-23 20:19:14.280000+00:00,2024-05-24 05:19:14.280000+09:00,2024,5,23,20,19,14,280,,,,,,,,,0.433838,-0.219238,0.85498,-10.009766,-68.603516,-11.413574,,,,,,,,,,,0.0,1.0,1.0,7.0,0.0,0.0,0.0,5.0,0.0,0.041051466666666675,-0.2422558933333333,0.9930891866666667,2.79378253333333,-0.17740881333333344,-1.1694335599999997,-49.901055815273494,-4.22041911446417,3.034281961123792,30.770447585121396,24.500459408836882,-0.42713524136185166,39.33542170038577,-1.3982539964979686,40.609739301565085,-1.422824223248326,0.39278653333333335,0.023017893333333317,-0.13810918666666672,0.5539136133333333,0.4169954815381705,0.7647777774692943,0.769868968140987,0.8299767017294568
LBP08_S07,LBP08,133,134,7,133,133,1716495554.32,2024-05-23 20:19:14.320000+00:00,2024-05-24 05:19:14.320000+09:00,2024,5,23,20,19,14,320,,,,,,,,,0.156738,-0.166504,1.416504,-25.634766,37.353516,19.287109,,,,,,,,,,,0.0,1.0,1.0,7.0,0.0,0.0,0.0,5.0,0.0,0.043750040000000004,-0.2536100666666667,1.0142805866666667,2.6538085733333308,2.43977868,-0.10091142666666646,-45.232991973698525,-2.127373239411777,4.053544196494499,28.961127906173456,24.41536447926041,-0.2649934735020717,37.88043259776568,-1.394975963836674,39.521304616785635,-1.4217242520942526,0.11298795999999998,0.08710606666666668,0.40222341333333334,0.60231744,0.42677560870862435,0.7255433588849749,0.7686869023609316,0.8266576811988208
LBP08_S07,LBP08,134,135,7,134,134,1716495554.36,2024-05-23 20:19:14.360000+00:00,2024-05-24 05:19:14.360000+09:00,2024,5,23,20,19,14,360,,,,,,,,,-0.197998,-0.256592,1.729492,-29.11377,17.63916,13.000488,,,,,,,,,,,0.0,1.0,1.0,7.0,0.0,0.0,0.0,5.0,0.0,0.03031905333333334,-0.25632816,1.0060253866666666,1.93603513333333,5.49967452,0.9448242533333336,-37.636872343747164,1.026916953357844,5.025799621062197,27.455653012423568,24.456441157394725,-0.06396148865958379,36.76866175829283,-1.4493905239753648,38.545369481627176,-1.421927634062124,-0.22831705333333335,-0.00026383999999995966,0.7234666133333334,0.9520475066666667,0.7586387065411075,0.7228970985009012,0.7712763590290198,0.8158767419238064
LBP08_S07,LBP08,135,136,7,135,135,1716495554.4,2024-05-23 20:19:14.400000+00:00,2024-05-24 05:19:14.400000+09:00,2024,5,23,20,19,14,400,,,,,,,,,0.210449,-0.587646,1.560791,-84.04541,65.917969,30.395508,,,,,,,,,,,0.0,1.0,1.0,7.0,0.0,0.0,0.0,5.0,0.0,0.024075560000000006,-0.2544303733333333,0.9949121066666665,2.3754882533333306,4.978027373333333,0.9570312800000002,-28.213386414383415,4.081198991841457,5.738888689122847,26.327117555848233,24.619689117068383,0.1655940589053301,36.045438441124446,-1.473462931362984,37.747049416525286,-1.4203525777612327,0.18637344,-0.3332156266666667,0.5658788933333335,1.0854679600000003,0.6826321373276029,0.7302640226662831,0.766668616976883,0.8132889109590741
LBP08_S07,LBP08,136,137,7,136,136,1716495554.44,2024-05-23 20:19:14.440000+00:00,2024-05-24 05:19:14.440000+09:00,2024,5,23,20,19,14,440,,,,,,,,,-0.267334,-0.498047,0.558594,34.362793,194.763184,22.888184,,,,,,,,,,,0.0,1.0,1.0,7.0,0.0,0.0,0.0,5.0,0.0,0.031201200000000005,-0.24638350666666667,0.98440104,2.5227864266666638,2.4853516,-0.13346350666666648,-17.978714161490615,6.110152343897205,6.075615158983654,25.60796898938861,24.86409521082427,0.4086186652646763,35.69535369803787,-1.4410518206984857,37.17635016173034,-1.4214324615565246,-0.2985352,-0.2516634933333334,-0.4258070399999999,0.9760057333333333,0.5777278034068797,0.7349458417560719,0.7585344941826194,0.7997862147532643
LBP08_S07,LBP08,137,138,7,137,137,1716495554.48,2024-05-23 20:19:14.480000+00:00,2024-05-24 05:19:14.480000+09:00,2024,5,23,20,19,14,480,,,,,,,,,0.027344,0.552979,-0.01709,48.522949,-61.828613,-3.78418,,,,,,,,,,,0.0,1.0,1.0,7.0,0.0,0.0,0.0,5.0,0.0,0.04166669333333334,-0.24854170666666667,0.9756119733333333,1.7569986666666642,2.9036458799999996,-0.23437495999999983,-7.720634922664452,6.797162922218191,6.058088400908106,25.299143592482032,25.135981727713,0.6509422013010006,35.66914590620837,-1.3996456230000456,36.862569521617516,-1.4254230988471934,-0.014322693333333338,0.8015207066666666,-0.9927019733333333,1.8085453733333332,1.275969353323052,0.7555704343648828,0.7760816320090475,0.8069420092203977
LBP08_S07,LBP08,138,139,7,138,138,1716495554.52,2024-05-23 20:19:14.520000+00:00,2024-05-24 05:19:14.520000+09:00,2024,5,23,20,19,14,520,,,,,,,,,0.22168,-0.196533,0.515869,-33.813477,-138.916016,-37.231445,,,,,,,,,,,0.0,1.0,1.0,7.0,0.0,0.0,0.0,5.0,0.0,0.03423180000000001,-0.2522558933333333,0.9763020666666665,1.074218719999997,2.62613936,-0.5655924133333332,2.0295318902370116,6.4243085114446945,5.81067845325732,25.380324868091513,25.392954068170788,0.8833693394312934,35.91299692462247,-1.431628636009582,36.8106520862668,-1.4340295939528644,0.18744819999999998,0.0557228933333333,-0.4604330666666665,0.7036041599999998,0.5002404196031633,0.7326241057656862,0.7618849068060625,0.803981191871221
LBP08_S07,LBP08,139,140,7,139,139,1716495554.56,2024-05-23 20:19:14.560000+00:00,2024-05-24 05:19:14.560000+09:00,2024,5,23,20,19,14,560,,,,,,,,,0.479736,-0.461182,1.178223,-40.344238,-24.230957,8.422852,,,,,,,,,,,0.0,1.0,1.0,7.0,0.0,0.0,0.0,5.0,0.0,0.040963573333333336,-0.2589486,1.0012922933333332,-0.03906253333333603,0.9358724266666663,-1.097818973333333,10.908697880091628,5.558470823126089,5.479169199482364,25.81667278329518,25.61529290109583,1.102536107410588,36.38487886302232,-1.4089642781638796,37.001161421299784,-1.4407372856924927,0.43877242666666666,-0.2022334,0.17693070666666677,0.8179365333333335,0.5145134259084805,0.7459790493025835,0.7565582431407425,0.801290489754694
LBP08_S07,LBP08,140,141,7,140,140,1716495554.6,2024-05-23 20:19:14.600000+00:00,2024-05-24 05:19:14.600000+09:00,2024,5,23,20,19,14,600,,,,,,,,,0.051514,-0.514893,1.480469,40.649414,41.748047,16.296387,,,,,,,,,,,0.0,1.0,1.0,7.0,0.0,0.0,0.0,5.0,0.0,0.04350914666666667,-0.2657161866666667,1.0185969866666666,-1.4689127866666694,3.2291667066666663,4.00000001832268e-08,18.568608286578694,4.6876005876071405,5.1657307675101025,26.559417114758325,25.802796924600116,1.309165338110992,37.05267710288127,-1.4033116782646717,37.39441405823511,-1.438637101880709,0.008004853333333325,-0.24917681333333336,0.4618720133333334,0.71905368,0.5248608564947761,0.710896356991121,0.7589166887339814,0.7923626333058563
LBP08_S07,LBP08,141,142,7,141,141,1716495554.64,2024-05-23 20:19:14.640000+00:00,2024-05-24 05:19:14.640000+09:00,2024,5,23,20,19,14,640,,,,,,,,,-0.208252,-0.557373,1.904297,25.20752,-37.780762,4.638672,,,,,,,,,,,0.0,1.0,1.0,7.0,0.0,0.0,0.0,5.0,0.0,0.03132816000000001,-0.27552088,1.0115494533333333,-2.839355493333336,6.896972693333334,1.6642253066666668,24.548581916367247,4.041256270100453,4.916342514475814,27.541360391413015,25.964447175404135,1.5058190386900245,37.88068822383414,-1.4535455366622778,37.937752976243566,-1.4356047640758292,-0.23958016,-0.28185212,0.8927475466666666,1.4141798266666665,0.9663526544142527,0.7167071771724615,0.7648758633700886,0.7947985030690692
LBP08_S07,LBP08,142,143,7,142,142,1716495554.68,2024-05-23 20:19:14.680000+00:00,2024-05-24 05:19:14.680000+09:00,2024,5,23,20,19,14,680,,,,,,,,,0.233398,-0.112549,1.731689,-11.84082,27.099609,14.587402,,,,,,,,,,,0.0,1.0,1.0,7.0,0.0,0.0,0.0,5.0,0.0,0.022399120000000005,-0.2673926266666667,0.9993554400000001,-1.0652669466666695,6.672363306666666,0.741373746666667,28.25400923165702,3.6564364189463667,4.75189258309161,28.671520760679297,26.11070463216199,1.695894742013689,38.81624734687859,-1.4843189475546783,38.573797796850506,-1.4329191974977082,0.21099888,0.15484362666666668,0.7323335599999999,1.0981760666666667,0.777695003959016,0.7265422629301358,0.7609983892798785,0.7913623217894199
LBP08_S07,LBP08,143,144,7,143,143,1716495554.72,2024-05-23 20:19:14.720000+00:00,2024-05-24 05:19:14.720000+09:00,2024,5,23,20,19,14,720,,,,,,,,,-0.362305,-0.054932,0.269287,13.85498,191.345215,37.353516,,,,,,,,,,,0.0,1.0,1.0,7.0,0.0,0.0,0.0,5.0,0.0,0.02812502666666667,-0.26671554666666664,0.98880532,-0.30192058666666943,3.636067733333333,0.1204427466666669,29.068512446585782,3.574166504792637,4.704076468920705,29.83426125854273,26.253671292353697,1.884057800770517,39.78552594809555,-1.4620528812329592,39.247409986874615,-1.4336673819691024,-0.39043002666666665,0.21178354666666663,-0.7195183199999999,1.3217318933333333,0.845573467640316,0.7421805602378968,0.75606368544302,0.7837401224795438
LBP08_S07,LBP08,144,145,7,144,144,1716495554.76,2024-05-23 20:19:14.760000+00:00,2024-05-24 05:19:14.760000+09:00,2024,5,23,20,19,14,760,,,,,,,,,-0.03418,-0.122803,0.167969,52.246094,-60.974121,-30.273438,,,,,,,,,,,0.0,1.0,1.0,7.0,0.0,0.0,0.0,5.0,0.0,0.03643557333333334,-0.2629981066666667,0.97629556,0.1554361866666639,2.89713544,0.18961592000000024,26.570865877692874,3.9814308855296416,4.820292524246494,30.897095893650445,26.412928527774884,2.0768695017403767,40.701188127646034,-1.4283886858575243,39.91007843312933,-1.435183939656637,-0.07061557333333335,0.14019510666666668,-0.8083265599999999,1.01913724,0.8234276256793349,0.7264253970949855,0.7643439589293943,0.7843245905775118
LBP08_S07,LBP08,145,146,7,145,145,1716495554.8,2024-05-23 20:19:14.800000+00:00,2024-05-24 05:19:14.800000+09:00,2024,5,23,20,19,14,800,,,,,,,,,0.363037,-0.111084,0.736328,131.164551,-96.984863,-15.380859,,,,,,,,,,,0.0,1.0,1.0,7.0,0.0,0.0,0.0,5.0,0.0,0.03237632,-0.2609994,0.97380532,0.5859374799999972,2.250976586666666,0.12776696000000023,20.776053251087234,5.170287890544248,5.12998461161201,31.728138023693933,26.619740043396654,2.2820688862048573,41.47882762120902,-1.4431395533141869,40.52178040176467,-1.441040374775937,0.33066068,0.14991539999999998,-0.23747732,0.7180534,0.4338278344799983,0.7101567329103301,0.7530539867168251,0.7794645984069203
LBP08_S07,LBP08,146,147,7,146,146,1716495554.84,2024-05-23 20:19:14.840000+00:00,2024-05-24 05:19:14.840000+09:00,2024,5,23,20,19,14,840,,,,,,,,,0.424561,-0.049316,1.417236,-33.081055,0.366211,26.000977,,,,,,,,,,,0.0,1.0,1.0,7.0,0.0,0.0,0.0,5.0,0.0,0.04054038666666667,-0.26545902666666665,0.9984928133333333,1.0294596266666638,-0.10823565333333392,-0.10091142666666643,12.284091635652258,7.33380361291567,5.596370329747487,32.21950168912002,26.913092187913282,2.505923699394757,42.0558019041073,-1.4141961549172763,41.05125313246215,-1.4442981362065281,0.38402061333333337,0.21614302666666665,0.41874318666666666,1.0189068266666665,0.6078943130358202,0.7233697456209747,0.7546832715687407,0.7815414980006595
LBP08_S07,LBP08,147,148,7,147,147,1716495554.88,2024-05-23 20:19:14.880000+00:00,2024-05-24 05:19:14.880000+09:00,2024,5,23,20,19,14,880,,,,,,,,,-0.418945,-0.318604,1.81543,-5.92041,24.047852,15.991211,,,,,,,,,,,0.0,1.0,1.0,7.0,0.0,0.0,0.0,5.0,0.0,0.04315430666666667,-0.27011724000000004,1.01755532,0.623372386666664,1.5445963866666659,0.42887373333333356,2.238972683757798,10.35088844869961,6.0879577579606154,32.30906059647033,27.327127725861267,2.7494420097131815,42.40526780644951,-1.4071274677139867,41.4757140880046,-1.4401098337497595,-0.46209930666666665,-0.04848675999999996,0.7978746800000001,1.3084607466666667,0.9233042511015609,0.7101149693669869,0.7628731020075961,0.7807705731719575
LBP08_S07,LBP08,148,149,7,148,148,1716495554.92,2024-05-23 20:19:14.920000+00:00,2024-05-24 05:19:14.920000+09:00,2024,5,23,20,19,14,920,,,,,,,,,-0.041016,-0.479492,2.005371,-35.583496,-53.710938,-19.348145,,,,,,,,,,,0.0,1.0,1.0,7.0,0.0,0.0,0.0,5.0,0.0,0.03260742666666667,-0.27064132,1.0132128666666667,-0.026855480000002766,5.5615234666666655,1.5714518533333335,-7.911751114375683,13.720686682866765,6.387865592615029,31.992590551895304,27.875955193175937,3.0049566334177826,42.539681387169495,-1.4467942128849305,41.780670896953225,-1.433859052640657,-0.07362342666666666,-0.20885067999999996,0.9921581333333331,1.2746322399999999,1.0165710880357008,0.7181240085320111,0.7730862777418643,0.7831114413673489
LBP08_S07,LBP08,149,150,7,149,149,1716495554.96,2024-05-23 20:19:14.960000+00:00,2024-05-24 05:19:14.960000+09:00,2024,5,23,20,19,14,960,,,,,,,,,0.283691,-0.194824,1.675049,-16.418457,95.64209,16.784668,,,,,,,,,,,0.0,1.0,1.0,7.0,0.0,0.0,0.0,5.0,0.0,0.026533200000000003,-0.26476892,0.9989485466666668,-0.05615236000000275,4.560546906666666,0.5883789466666669,-16.76366855165685,16.696636524066474,6.236602618519006,31.32204380982903,28.543820654138596,3.254420738158543,42.501898549375824,-1.4675286293568777,41.95997828611581,-1.428348097335738,0.25715780000000005,0.06994492000000002,0.6761004533333332,1.0032031733333333,0.7267284561183669,0.7233362120885523,0.7673901004295753,0.7809788936564789
LBP08_S07,LBP08,150,151,7,150,150,1716495555.0,2024-05-23 20:19:15+00:00,2024-05-24 05:19:15+09:00,2024,5,23,20,19,15,0,20.0,19.0,13.0,40.789783,141.620422,1.46,3.0,16.0,-0.681641,0.352295,-0.126465,-51.696777,140.74707,19.775391,-543.0,36.0,591.0,264.0,0.0,1019.299988,22.09,0.062432,-50.219452,3.825,0.0,1.0,1.0,7.0,0.0,0.0,0.0,5.0,0.0,0.03425129333333333,-0.26087568,0.9857649466666667,0.6542968533333305,2.868652373333332,-0.4199218399999998,-23.27188135691233,18.540584031609733,5.39453507531846,30.391168555552536,29.285444015402984,3.4702021411712813,42.34740440985607,-1.4358892925705833,42.01597573850276,-1.425087151783067,-0.7158922933333334,0.6131706800000001,-1.1122299466666667,2.4412929200000004,1.4579216414910159,0.766313213944459,0.78416759027378,0.7846362975487708
LBP08_S07,LBP08,151,152,7,151,151,1716495555.04,2024-05-23 20:19:15.040000+00:00,2024-05-24 05:19:15.040000+09:00,2024,5,23,20,19,15,40,,,,,,,,,0.058594,-0.391602,0.325439,-34.240723,-79.101562,-6.04248,,,,,,,,,,,0.0,1.0,1.0,7.0,0.0,0.0,0.0,5.0,0.0,0.03936196,-0.2531933866666667,0.9746907333333333,0.9513346133333306,3.033040386666666,-0.6355793999999998,-26.930744410869455,18.75482654429661,3.7097587376590804,29.31393877911776,30.035637077174847,3.6185924906776448,42.12529777925864,-1.4116625120945931,41.95941445874001,-1.4240769218164997,0.01923204,-0.13840861333333332,-0.6492517333333334,0.8068923866666667,0.66411943868837,0.7631058090585897,0.7705423522592751,0.7826586136144176
LBP08_S07,LBP08,152,153,7,152,152,1716495555.08,2024-05-23 20:19:15.080000+00:00,2024-05-24 05:19:15.080000+09:00,2024,5,23,20,19,15,80,,,,,,,,,0.346924,0.102295,0.936768,-0.610352,-45.349121,-24.719238,,,,,,,,,,,0.0,1.0,1.0,7.0,0.0,0.0,0.0,5.0,0.0,0.03708981333333334,-0.2551725466666666,0.9793196399999999,0.3507486799999972,1.6308593866666656,-0.5069986799999998,-27.77797399901088,17.187110002662454,1.1773692466786287,28.202819819157323,30.723121477281346,3.66568726054479,41.865815436364784,-1.4218111364636525,41.808869006136646,-1.4277422238433946,0.3098341866666667,0.3574675466666666,-0.04255163999999989,0.7098533733333332,0.474964116764593,0.7450761464919904,0.7577526575338236,0.7785652562827197
LBP08_S07,LBP08,153,154,7,153,153,1716495555.12,2024-05-23 20:19:15.120000+00:00,2024-05-24 05:19:15.120000+09:00,2024,5,23,20,19,15,120,,,,,,,,,0.355469,-0.587891,1.68042,-29.541016,48.156738,32.043457,,,,,,,,,,,0.0,1.0,1.0,7.0,0.0,0.0,0.0,5.0,0.0,0.04202796,-0.26250001333333334,1.00480792,0.7698567599999973,0.23030599999999918,-0.8634439999999999,-26.251907608971116,14.009620273658795,-2.022434227968071,27.15274351479848,31.2835062882277,3.584789891426067,41.578599839721434,-1.4069433281837698,41.589367146707744,-1.4279902724180165,0.31344103999999995,-0.3253909866666667,0.6756120800000001,1.3144441066666668,0.8127584280720287,0.7698979580229915,0.7561847463020436,0.7778500406129261
LBP08_S07,LBP08,154,155,7,154,154,1716495555.16,2024-05-23 20:19:15.160000+00:00,2024-05-24 05:19:15.160000+09:00,2024,5,23,20,19,15,160,,,,,,,,,-0.283691,-0.725586,1.893555,-2.685547,-4.455566,5.615234,,,,,,,,,,,0.0,1.0,1.0,7.0,0.0,0.0,0.0,5.0,0.0,0.04582026666666667,-0.2675586,1.0239387733333334,1.4388020799999972,1.8359375066666663,-0.6087239466666664,-22.978116186949183,9.652675532470518,-5.5201883389527175,26.233618867320512,31.669613309526518,3.3639823578679584,41.26116265151554,-1.3957792303308112,41.33010576290298,-1.4229956990956307,-0.3295112666666667,-0.4580274,0.8696162266666667,1.6571548933333333,1.0366287453534184,0.7546322291991792,0.765153551852556,0.7762626206495983
LBP08_S07,LBP08,155,156,7,155,155,1716495555.2,2024-05-23 20:19:15.200000+00:00,2024-05-24 05:19:15.200000+09:00,2024,5,23,20,19,15,200,,,,,,,,,0.071289,-0.161865,1.798828,11.169434,-7.080078,-16.662598,,,,,,,,,,,0.0,1.0,1.0,7.0,0.0,0.0,0.0,5.0,0.0,0.03577469333333333,-0.26659832,1.01707028,1.6861979066666641,5.325520839999999,0.23193361333333362,-18.57482833398715,4.755085311159065,-8.803371568337708,25.490625733961025,31.85981672197288,3.0118474951344503,40.91321482358147,-1.4330372536485168,41.061418062154715,-1.4161730703316562,0.035514306666666676,0.10473331999999999,0.7817577200000001,0.9220053466666668,0.789541301690947,0.7476716043960849,0.7707476662811054,0.7819139847874051
LBP08_S07,LBP08,156,157,7,156,156,1716495555.24,2024-05-23 20:19:15.240000+00:00,2024-05-24 05:19:15.240000+09:00,2024,5,23,20,19,15,240,,,,,,,,,-0.017334,-0.181641,0.880859,-31.799316,164.672852,12.023926,,,,,,,,,,,0.0,1.0,1.0,7.0,0.0,0.0,0.0,5.0,0.0,0.03050450666666667,-0.26145184,1.00178708,1.0904947866666639,3.7972005199999987,-0.666503893333333,-13.542539587052325,0.11221935200427405,-11.324067131026302,24.94892415047893,31.864305496053053,2.558884809893398,40.55034737807373,-1.4508491751862245,40.811550846859205,-1.41344456585227,-0.04783850666666667,0.07981084,-0.12092808,0.24857742666666666,0.15258405366908007,0.7275298485218271,0.753620195619688,0.7640158494041513
LBP08_S07,LBP08,157,158,7,157,157,1716495555.28,2024-05-23 20:19:15.280000+00:00,2024-05-24 05:19:15.280000+09:00,2024,5,23,20,19,15,280,,,,,,,,,-0.216797,-0.349365,0.009277,-59.265137,-46.75293,-39.489746,,,,,,,,,,,0.0,1.0,1.0,7.0,0.0,0.0,0.0,5.0,0.0,0.03980464,-0.2525423333333333,0.9831868133333334,0.34179687999999714,2.185872386666666,-1.1035156133333333,-8.253476638675206,-3.4470968685861556,-12.653667469106017,24.618785084931922,31.726421621309605,2.052738111129157,40.21024921216045,-1.4096079534602053,40.604061612434315,-1.412155596986793,-0.25660163999999996,-0.09682266666666667,-0.9739098133333334,1.32733412,1.0117901733749455,0.7513216361952982,0.7580497068322962,0.7636865241590907
LBP08_S07,LBP08,158,159,7,158,158,1716495555.32,2024-05-23 20:19:15.320000+00:00,2024-05-24 05:19:15.320000+09:00,2024,5,23,20,19,15,320,,,,,,,,,0.245117,-0.075439,0.378418,61.279297,-126.831055,-45.349121,,,,,,,,,,,0.0,1.0,1.0,7.0,0.0,0.0,0.0,5.0,0.0,0.042633413333333335,-0.2502994933333333,0.9714159733333332,-1.2166341066666695,2.205403639999999,-1.3053385199999996,-3.005198587240225,-5.286158510153203,-12.634986809635592,24.49857714144231,31.514975280903478,1.5473386387437333,39.947067549121876,-1.396848479661072,40.45652870152816,-1.4134667509829466,0.20248358666666666,0.17486049333333328,-0.5929979733333333,0.9703420533333332,0.6505554483482671,0.7602728297808836,0.7429080943329294,0.7658822115009156
LBP08_S07,LBP08,159,160,7,159,159,1716495555.36,2024-05-23 20:19:15.360000+00:00,2024-05-24 05:19:15.360000+09:00,2024,5,23,20,19,15,360,,,,,,,,,0.46167,-0.155518,0.943115,-78.918457,-71.960449,-32.409668,,,,,,,,,,,0.0,1.0,1.0,7.0,0.0,0.0,0.0,5.0,0.0,0.04215816,-0.25100912,0.9819921466666667,-1.1027018133333362,1.127115879999999,-1.3419596133333334,1.9222978123845493,-5.212010675096325,-11.46167870260608,24.57546905393769,31.306494853899625,1.08887149063949,39.81502154189321,-1.399302341717134,40.38076518644941,-1.4182305207292352,0.41951184,0.09549111999999998,-0.03887714666666664,0.5538801066666666,0.4319955676068697,0.7472071042235143,0.7350521013622077,0.7632532740938514
LBP08_S07,LBP08,160,161,7,160,160,1716495555.4,2024-05-23 20:19:15.400000+00:00,2024-05-24 05:19:15.400000+09:00,2024,5,23,20,19,15,400,,,,,,,,,0.27124,-0.366211,1.467529,34.240723,73.364258,10.009766,,,,,,,,,,,0.0,1.0,1.0,7.0,0.0,0.0,0.0,5.0,0.0,0.04156245333333334,-0.2622688933333333,1.0060578933333333,-2.058919253333336,0.9960937466666655,-0.6656900799999997,6.25302811496275,-3.593859343050032,-9.63023150330597,24.825590178536203,31.162740480177625,0.7036622305072513,39.84873225690093,-1.4086042477767224,40.38402111979569,-1.4212952309644968,0.22967754666666665,-0.1039421066666667,0.4614711066666668,0.7950907600000001,0.5258434360808184,0.7409355561736429,0.7355997894199631,0.7580909300424697
LBP08_S07,LBP08,161,162,7,161,161,1716495555.44,2024-05-23 20:19:15.440000+00:00,2024-05-24 05:19:15.440000+09:00,2024,5,23,20,19,15,440,,,,,,,,,-0.195068,-0.600586,1.752441,28.564453,-9.155273,12.268066,,,,,,,,,,,0.0,1.0,1.0,7.0,0.0,0.0,0.0,5.0,0.0,0.044329386666666665,-0.26319988,1.0236001999999997,-1.855468733333336,3.104654946666666,0.32714846666666697,9.753890662645375,-1.2323171385037501,-7.7647641153099345,25.21574580504202,31.113447794637477,0.3930716658948539,40.05040543500971,-1.3987728234398202,40.470088904855714,-1.4202509992037917,-0.23939738666666666,-0.33738611999999996,0.7288408000000002,1.3056243066666668,0.8380628940933516,0.7513489598011017,0.7431474007785869,0.7561393160554469
LBP08_S07,LBP08,162,163,7,162,162,1716495555.48,2024-05-23 20:19:15.480000+00:00,2024-05-24 05:19:15.480000+09:00,2024,5,23,20,19,15,480,,,,,,,,,0.11084,-0.444824,1.810547,52.612305,-8.178711,4.211426,,,,,,,,,,,0.0,1.0,1.0,7.0,0.0,0.0,0.0,5.0,0.0,0.03497392,-0.26408203999999996,1.0207421333333333,-2.333170560000003,6.445312493333333,1.4656575733333335,12.293982777489026,0.9836648144762072,-6.38365286917301,25.70750511614158,31.152794387216524,0.13772555112793355,40.39048632730322,-1.4349226764251901,40.63924196345371,-1.4120285425871981,0.07586608,-0.18074196000000003,0.7898048666666666,1.0464129066666668,0.8137659648876691,0.7328608242636865,0.7442156293142846,0.761674696093927
LBP08_S07,LBP08,163,164,7,163,163,1716495555.52,2024-05-23 20:19:15.520000+00:00,2024-05-24 05:19:15.520000+09:00,2024,5,23,20,19,15,520,,,,,,,,,0.007324,-0.190186,1.03125,14.404297,148.681641,51.635742,,,,,,,,,,,0.0,1.0,1.0,7.0,0.0,0.0,0.0,5.0,0.0,0.029557253333333335,-0.26145833333333335,1.00760412,-3.3292643066666696,5.052897119999998,0.8894857066666668,13.869978667572354,2.4588465649205404,-5.716078664091338,26.262304262844474,31.251148249813344,-0.09091759543571998,40.82096468893393,-1.4545810256466545,40.88678489842803,-1.4045617127460035,-0.022233253333333335,0.07127233333333335,0.023645879999999897,0.11715146666666659,0.07831469015156961,0.7159837950856227,0.7243039504256543,0.7465845362325826
LBP08_S07,LBP08,164,165,7,164,164,1716495555.56,2024-05-23 20:19:15.560000+00:00,2024-05-24 05:19:15.560000+09:00,2024,5,23,20,19,15,560,,,,,,,,,-0.399902,0.153809,-0.123291,-25.512695,21.362305,-24.536133,,,,,,,,,,,0.0,1.0,1.0,7.0,0.0,0.0,0.0,5.0,0.0,0.036363906666666675,-0.2583007733333333,0.99160152,-2.9044596266666693,3.0314127466666654,-0.3377278266666665,14.561169097499043,3.112045821168947,-5.658587428694842,26.844751026744436,31.375630082660102,-0.31726109258351365,41.29372198497841,-1.426426332683429,41.20127943655312,-1.4035169030994268,-0.43626590666666665,0.4121097733333333,-1.11489252,1.9632682,1.2661547052980888,0.746049446261207,0.7460142477818953,0.753055310847564
LBP08_S07,LBP08,165,166,7,165,165,1716495555.6,2024-05-23 20:19:15.600000+00:00,2024-05-24 05:19:15.600000+09:00,2024,5,23,20,19,15,600,,,,,,,,,0.071045,-0.138184,0.246582,-15.686035,-92.041016,-37.780762,,,,,,,,,,,0.0,1.0,1.0,7.0,0.0,0.0,0.0,5.0,0.0,0.036555960000000005,-0.25287109333333335,0.9692870666666666,-2.478027333333336,1.960449199999999,-1.5698241866666665,14.434535219231513,3.319131156229703,-5.892944654701295,27.422132435513696,31.50839532890929,-0.5529788787715655,41.77389267418171,-1.4225949360414647,41.56427271259761,-1.4070742193243841,0.03448903999999999,0.11468709333333335,-0.7227050666666667,0.8718812,0.7325607392176033,0.7543574415701201,0.7326268992806204,0.7573969396793611
LBP08_S07,LBP08,166,167,7,166,166,1716495555.64,2024-05-23 20:19:15.640000+00:00,2024-05-24 05:19:15.640000+09:00,2024,5,23,20,19,15,640,,,,,,,,,0.411133,-0.115723,0.762939,17.883301,-81.420898,-53.955078,,,,,,,,,,,0.0,1.0,1.0,7.0,0.0,0.0,0.0,5.0,0.0,0.05021156,-0.25261068,0.9821646666666667,-2.170410146666669,-0.817871120000001,0.03824872000000028,13.472134791105193,3.6191305185147646,-6.099809972781345,27.961017827157903,31.653160549649883,-0.7969712776828193,42.24187796405369,-1.368624609020288,41.952853997166486,-1.4080213269897566,0.36092144000000004,0.13688767999999996,-0.21922566666666665,0.7170347866666666,0.4439171270776793,0.7334600204766573,0.7250835988245593,0.7544039157389448
LBP08_S07,LBP08,167,168,7,167,167,1716495555.68,2024-05-23 20:19:15.680000+00:00,2024-05-24 05:19:15.680000+09:00,2024,5,23,20,19,15,680,,,,,,,,,0.278564,-0.426514,1.239502,-4.577637,-1.098633,-6.04248,,,,,,,,,,,0.0,1.0,1.0,7.0,0.0,0.0,0.0,5.0,0.0,0.06133134666666667,-0.26319988,1.0122330266666666,-5.811360666666669,-2.369791693333334,1.2410482000000003,11.5911259363813,4.369652653543669,-6.146618974074761,28.424662864613154,31.827946655791628,-1.0428360366458098,42.68567856190367,-1.3349396550482613,42.34480307353702,-1.4064976589583584,0.2172326533333333,-0.16331412,0.2272689733333335,0.6078157466666668,0.3542777352665589,0.7165233297289589,0.7215327963295474,0.7461733694295719
LBP08_S07,LBP08,168,169,7,168,168,1716495555.72,2024-05-23 20:19:15.720000+00:00,2024-05-24 05:19:15.720000+09:00,2024,5,23,20,19,15,720,,,,,,,,,-0.164062,-0.616943,1.565674,43.762207,22.033691,-3.173828,,,,,,,,,,,0.0,1.0,1.0,7.0,0.0,0.0,0.0,5.0,0.0,0.04888994666666666,-0.27111004,1.0085937066666668,-12.690429680000003,3.1046549199999998,2.2460937733333335,8.767722149545358,5.565667509021239,-6.142319859260458,28.775371750594967,32.050573356152476,-1.2885288310162282,43.092012930372725,-1.3864003831953036,42.72445767911638,-1.4033794404996462,-0.21295194666666667,-0.34583296,0.5570802933333332,1.1158652,0.6894109232031627,0.7102768279514728,0.7262286940946848,0.7408013996125042
LBP08_S07,LBP08,169,170,7,169,169,1716495555.76,2024-05-23 20:19:15.760000+00:00,2024-05-24 05:19:15.760000+09:00,2024,5,23,20,19,15,760,,,,,,,,,0.072266,-0.52417,1.727783,38.146973,3.845215,-1.89209,,,,,,,,,,,0.0,1.0,1.0,7.0,0.0,0.0,0.0,5.0,0.0,0.03654293333333333,-0.27708009333333333,0.9999478666666666,-13.435058586666669,3.718261693333332,1.6520182533333339,5.202918478936633,6.914305754366294,-6.3314573352121295,28.983488489752432,32.32714558632713,-1.5417871244247134,43.44495430233807,-1.4348755039667083,43.08676070641987,-1.3972623064355338,0.035723066666666664,-0.2470899066666667,0.7278351333333335,1.0106481066666668,0.7694631510234681,0.708118248965238,0.7172718230301117,0.7456020556080089
LBP08_S07,LBP08,170,171,7,170,170,1716495555.8,2024-05-23 20:19:15.800000+00:00,2024-05-24 05:19:15.800000+09:00,2024,5,23,20,19,15,800,,,,,,,,,0.171631,-0.785889,1.653564,38.818359,129.821777,57.189941,,,,,,,,,,,0.0,1.0,1.0,7.0,0.0,0.0,0.0,5.0,0.0,0.04122717333333334,-0.27775392,0.9999478666666668,-14.793294253333336,2.332356746666666,0.9912109600000004,1.4285411981038234,8.08137732286343,-6.894649721238061,29.040630137676583,32.65040067924166,-1.8175731132742359,43.734545102589685,-1.4180753244304467,43.437731140857366,-1.3961842218943397,0.13040382666666667,-0.50813508,0.6536161333333332,1.29215504,0.8381052841317337,0.7242893469513075,0.7172230399308188,0.7434657734616525
LBP08_S07,LBP08,171,172,7,171,171,1716495555.84,2024-05-23 20:19:15.840000+00:00,2024-05-24 05:19:15.840000+09:00,2024,5,23,20,19,15,840,,,,,,,,,-0.743896,-0.351562,-0.080566,-69.030762,73.303223,14.160156,,,,,,,,,,,0.0,1.0,1.0,7.0,0.0,0.0,0.0,5.0,0.0,0.049661426666666675,-0.2713444133333333,0.99401036,-10.36376950666667,3.07291664,0.2140299733333336,-1.7276981667637943,8.91862782785318,-7.776031470790818,28.971522211006032,33.00714579235579,-2.1286143721058686,43.96989619871512,-1.3835361431258364,43.79145088285987,-1.3964231322558933,-0.7935574266666667,-0.08021758666666667,-1.07457636,1.9483513733333333,1.3382386200148673,0.7535031192304694,0.738436432425722,0.7542898874559835
LBP08_S07,LBP08,172,173,7,172,172,1716495555.88,2024-05-23 20:19:15.880000+00:00,2024-05-24 05:19:15.880000+09:00,2024,5,23,20,19,15,880,,,,,,,,,0.083984,-0.143066,0.180176,3.90625,-84.594727,-21.911621,,,,,,,,,,,0.0,1.0,1.0,7.0,0.0,0.0,0.0,5.0,0.0,0.04787106666666667,-0.2957552133333333,0.99777664,-14.000651013333336,3.0582681999999997,0.6420898666666669,-3.3286885635421655,9.50679016438112,-8.64303107243247,28.838374668464347,33.387417398931035,-2.4743356150031675,44.18703238309676,-1.403740491838071,44.165407439330394,-1.4008544801333742,0.03611293333333333,0.15268921333333332,-0.81760064,1.0064027866666667,0.8325196372162639,0.7498717346750575,0.7299933520210221,0.7585393128967499
LBP08_S07,LBP08,173,174,7,173,173,1716495555.92,2024-05-23 20:19:15.920000+00:00,2024-05-24 05:19:15.920000+09:00,2024,5,23,20,19,15,920,,,,,,,,,0.301025,0.267822,0.622803,3.601074,-95.825195,-66.894531,,,,,,,,,,,0.0,1.0,1.0,7.0,0.0,0.0,0.0,5.0,0.0,0.04931964,-0.28579102666666667,0.9994530666666667,-14.392089813333335,3.332519493333333,0.03824872000000018,-2.599208966413951,9.991902231630363,-9.006339137725956,28.734406309807788,33.78709348819625,-2.834589180512206,44.44399496196884,-1.393409685005529,44.5764771016534,-1.4099560235118176,0.25170536,0.5536130266666667,-0.37665006666666667,1.1819684533333334,0.7153378532328353,0.737822405282943,0.7279732069074771,0.7613316535888905
LBP08_S07,LBP08,174,175,7,174,174,1716495555.96,2024-05-23 20:19:15.960000+00:00,2024-05-24 05:19:15.960000+09:00,2024,5,23,20,19,15,960,,,,,,,,,0.336914,-0.70874,1.182373,-11.108398,-3.234863,-30.883789,,,,,,,,,,,0.0,1.0,1.0,7.0,0.0,0.0,0.0,5.0,0.0,0.04341144,-0.28878906666666665,0.9924250666666665,-15.782063773333336,3.098144493333333,-0.13671873333333315,0.8184911310502,10.358434682750202,-8.430803615756568,28.767145955049795,34.201430875506254,-3.1718213251424685,44.803426329353414,-1.415645487271489,45.03873722320066,-1.4126467693025144,0.29350255999999997,-0.4199509333333334,0.18994793333333337,0.9034014266666668,0.5464272655273489,0.7306103576593023,0.7269732848739272,0.7551301861728177
LBP08_S07,LBP08,175,176,7,175,175,1716495556.0,2024-05-23 20:19:16+00:00,2024-05-24 05:19:16+09:00,2024,5,23,20,19,16,0,20.0,19.0,14.0,40.789883,141.620407,2.636,3.0,16.0,-0.143799,-0.356445,1.509277,-7.873535,42.724609,2.868652,-544.0,36.0,593.0,314.0,0.0,1019.0,22.129999,0.059459,-47.735023,3.825,0.0,1.0,1.0,7.0,0.0,0.0,0.0,3.0,0.0,0.04224933333333334,-0.3003418133333333,0.9911132133333332,-12.81005856,3.371581986666666,-1.5323893066666665,6.707156125024617,10.340488384247282,-6.716266694469505,29.03543220005078,34.615050410876144,-3.440471992921249,45.31109009420671,-1.424984039657,45.56261612062631,-1.409494782635924,-0.18604833333333334,-0.05610318666666669,0.5181637866666667,0.7603153066666668,0.5534033426922943,0.6944296257073533,0.7303714198259061,0.7542549354183045
LBP08_S07,LBP08,176,177,7,176,176,1716495556.04,2024-05-23 20:19:16.040000+00:00,2024-05-24 05:19:16.040000+09:00,2024,5,23,20,19,16,40,,,,,,,,,-0.081543,-0.549316,1.691406,7.507324,12.695312,4.211426,,,,,,,,,,,0.0,1.0,1.0,7.0,0.0,0.0,0.0,3.0,0.0,0.044876280000000004,-0.29388348000000003,0.9853742799999999,-7.589518186666669,3.5880533466666664,-1.992187493333333,14.259081168632566,9.56607855252774,-3.9585804515567347,29.605795446796083,34.99769355297725,-3.5988152109835183,45.9814435287589,-1.4129380877950974,46.15395107349522,-1.407171194146133,-0.12641928000000002,-0.25543252,0.70603172,1.08788352,0.7613858392926856,0.6983202817315259,0.7307130453950579,0.7464683287500254
LBP08_S07,LBP08,177,178,7,177,177,1716495556.08,2024-05-23 20:19:16.080000+00:00,2024-05-24 05:19:16.080000+09:00,2024,5,23,20,19,16,80,,,,,,,,,0.019287,-0.376221,1.262207,19.836426,91.247559,42.053223,,,,,,,,,,,0.0,1.0,1.0,7.0,0.0,0.0,0.0,3.0,0.0,0.039938133333333334,-0.2849284,0.9790721866666666,-7.880045533333335,3.4920247066666663,-2.7709960933333333,22.211946861033713,7.847273502878491,-0.48688057504660576,30.494273321237433,35.31158449309239,-3.6182904339853827,46.79637518513379,-1.4259550888326935,46.81197699039475,-1.405315633511458,-0.020651133333333335,-0.0912926,0.28313481333333346,0.3950785466666668,0.29820484678155834,0.6912499109322046,0.7181630287120976,0.7355850753332839
LBP08_S07,LBP08,178,179,7,178,178,1716495556.12,2024-05-23 20:19:16.120000+00:00,2024-05-24 05:19:16.120000+09:00,2024,5,23,20,19,16,120,,,,,,,,,-0.484131,-0.300293,0.03833,35.27832,118.835449,19.897461,,,,,,,,,,,0.0,1.0,1.0,7.0,0.0,0.0,0.0,3.0,0.0,0.042304666666666664,-0.27666016,0.9746483599999999,-6.248372360000001,3.6433918933333334,-4.79654948,29.111034483350135,5.411976399568361,3.2545980190146038,31.658714700571437,35.52806354907512,-3.488106513224799,47.714614145845296,-1.4133078411022744,47.52664406935993,-1.4066071011520216,-0.5264356666666666,-0.02363283999999999,-0.9363183599999999,1.4863868666666664,1.0744231445470322,0.7017164995912047,0.7358072288070981,0.7380286640650973
LBP08_S07,LBP08,179,180,7,179,179,1716495556.16,2024-05-23 20:19:16.160000+00:00,2024-05-24 05:19:16.160000+09:00,2024,5,23,20,19,16,160,,,,,,,,,-0.076416,0.181152,0.189941,46.081543,-68.969727,-28.320312,,,,,,,,,,,0.0,1.0,1.0,7.0,0.0,0.0,0.0,3.0,0.0,0.04537108000000001,-0.27899414666666666,0.970677,-5.884602840000002,4.49707028,-5.603027346666666,33.63690266638171,2.895809280662621,6.801589282742062,33.004190807226706,35.643895920301624,-3.2160429419151164,48.68374327659455,-1.4033556373008063,48.27680272966252,-1.4131847401525417,-0.12178708,0.46014614666666664,-0.780736,1.3626692266666667,0.9143933895447341,0.6968270853588574,0.7257296572790182,0.742378063021323
LBP08_S07,LBP08,180,181,7,180,180,1716495556.2,2024-05-23 20:19:16.200000+00:00,2024-05-24 05:19:16.200000+09:00,2024,5,23,20,19,16,200,,,,,,,,,0.263672,-0.223877,0.671387,61.950684,-127.441406,-19.348145,,,,,,,,,,,0.0,1.0,1.0,7.0,0.0,0.0,0.0,3.0,0.0,0.04751952,-0.27770508,0.9685773999999999,-6.243489560000003,3.66699216,-5.5696614533333335,34.911164054800686,1.0609023109650793,9.711181356759214,34.40063736941873,35.68633201274023,-2.827595687644748,49.64789463127882,-1.3948394395325319,49.0307991502095,-1.4166994351228739,0.21615248,0.05382808,-0.29719039999999997,0.56717096,0.3714047531451325,0.6801016234170248,0.7138866139065548,0.7405323186597451
LBP08_S07,LBP08,181,182,7,181,181,1716495556.24,2024-05-23 20:19:16.240000+00:00,2024-05-24 05:19:16.240000+09:00,2024,5,23,20,19,16,240,,,,,,,,,0.397217,-0.211426,1.015625,44.98291,-42.175293,9.82666,,,,,,,,,,,0.0,1.0,1.0,7.0,0.0,0.0,0.0,3.0,0.0,0.058476560000000004,-0.2916406266666667,0.9833853466666667,-6.873372360000003,3.314615853333333,-6.15397136,32.69074477038787,0.3967794445470781,11.579024664145251,35.70826716023425,35.70220319052211,-2.3644347010789377,50.55015536771037,-1.3649805367790886,49.74993017028211,-1.413104405041819,0.33874044,0.08021462666666668,0.03223965333333334,0.45119472,0.34959815112457304,0.6879821873152444,0.7077560179185357,0.7317408595182067
LBP08_S07,LBP08,182,183,7,182,182,1716495556.28,2024-05-23 20:19:16.280000+00:00,2024-05-24 05:19:16.280000+09:00,2024,5,23,20,19,16,280,,,,,,,,,0.002441,-0.356689,1.524414,20.812988,47.180176,34.301758,,,,,,,,,,,0.0,1.0,1.0,7.0,0.0,0.0,0.0,3.0,0.0,0.044612626666666676,-0.29994792,0.9808072133333333,-2.9223632533333355,5.502929653333332,-3.9558919200000005,27.389847086284497,0.8534662460582092,12.081850064579903,36.80386104368563,35.73634184036444,-1.8811606984957416,51.33370317274868,-1.4166551682437052,50.39381968724816,-1.408168980092636,-0.04217162666666668,-0.05674108,0.5436067866666666,0.6425194933333334,0.5481845809262953,0.6694379636172983,0.7103797999062982,0.7285124590939637
LBP08_S07,LBP08,183,184,7,183,183,1716495556.32,2024-05-23 20:19:16.320000+00:00,2024-05-24 05:19:16.320000+09:00,2024,5,23,20,19,16,320,,,,,,,,,-0.114502,-0.283447,1.710449,31.860352,-17.089844,6.408691,,,,,,,,,,,0.0,1.0,1.0,7.0,0.0,0.0,0.0,3.0,0.0,0.03052734666666667,-0.2834960933333333,0.9761750533333334,-4.501139293333336,6.709798133333333,-5.473632813333333,19.923591854578298,1.875300658487048,11.061471953298948,37.60080471786876,35.81135386670392,-1.4387018203637836,51.945581564994626,-1.459186075010731,50.92599715245178,-1.402674507384742,-0.14502934666666667,4.9093333333305456e-05,0.7342739466666667,0.8793523866666666,0.7484595797757941,0.6733541288743996,0.7168134793276417,0.7197234391800861
LBP08_S07,LBP08,184,185,7,184,184,1716495556.36,2024-05-23 20:19:16.360000+00:00,2024-05-24 05:19:16.360000+09:00,2024,5,23,20,19,16,360,,,,,,,,,0.150146,-0.487305,1.61792,-31.066895,46.325684,19.836426,,,,,,,,,,,0.0,1.0,1.0,7.0,0.0,0.0,0.0,3.0,0.0,0.03549153333333333,-0.3085742266666667,0.9729816933333334,-4.251302053333335,5.962727826666667,-4.80794272,11.42952821300835,2.7080958567704725,8.61567337054593,38.057985846389094,35.91967770097474,-1.0940748855419464,52.343390534823286,-1.4507924369748109,51.31819963058399,-1.3968314371635735,0.11465446666666668,-0.17873077333333331,0.6449383066666666,0.9383235466666666,0.6789961380368937,0.6832341516916004,0.7152206279575575,0.7177794514720053
