file_name,test_id,_program_index,program_index,session_id,index,_index,unixtime,datetime_utc,datetime_jst,rtc_year,rtc_month,rtc_day,rtc_hour,rtc_min,rtc_sec,rtc_msec,gps_hour,gps_min,gps_sec,latitude,longitude,altitude,fix_type,SIV,acc_x,acc_y,acc_z,gyro_x,gyro_y,gyro_z,mag_x,mag_y,mag_z,illuminance,atmopress,water_pressure,water_temp,depth,alt_wps,battery_level,behavior_class,camera_command,camera_recording,camera_count,play_audio,speaker_on,audio_file,prev_sd_write_time_ms,delay_occurred_counter,acc_x_ma,acc_y_ma,acc_z_ma,gyro_x_ma,gyro_y_ma,gyro_z_ma,gyro_x_lowpass,gyro_y_lowpass,gyro_z_lowpass,angle_x,angle_y,angle_z,combined_angle_change,gravity_adjusted_angle,smoothed_angle_change,smoothed_gravity_angle,acc_x_dy,acc_y_dy,acc_z_dy,ODBA,VeDBA,smoothed_VeDBA_1s,smoothed_VeDBA_2s,smoothed_VeDBA_3s
LBP08_S06,LBP08,0,1,6,0,0,1716495348.0,2024-05-23 20:15:48+00:00,2024-05-24 05:15:48+09:00,2024,5,23,20,15,48,0,20.0,15.0,46.0,40.784752,141.621323,-2.84,3.0,13.0,-0.639404,-0.043457,0.078125,34.790039,179.443359,15.136719,-542.0,28.0,592.0,169.0,0.0,1019.299988,23.440001,0.062432,-50.219452,3.832031,0.0,1.0,1.0,6.0,0.0,0.0,0.0,6.0,0.0,,,,,,,33.615908602858035,180.99338481927484,16.00186189434998,1.3446363441143214,7.239735392770994,0.6400744757739991,7.391313197923051,,13.296705635384157,,,,,,,,,
LBP08_S06,LBP08,1,2,6,1,1,1716495348.04,2024-05-23 20:15:48.040000+00:00,2024-05-24 05:15:48.040000+09:00,2024,5,23,20,15,48,40,,,,,,,,,0.047607,-0.02124,0.054688,24.658203,-92.590332,-28.686523,,,,,,,,,,,0.0,1.0,1.0,6.0,0.0,0.0,0.0,6.0,0.0,,,,,,,21.830903686316706,120.24440444171492,11.631134580044934,2.2178724915669896,12.049511570439591,1.1053198589757964,12.301683602891657,,13.581587519487334,,,,,,,,,
LBP08_S06,LBP08,2,3,6,2,2,1716495348.08,2024-05-23 20:15:48.080000+00:00,2024-05-24 05:15:48.080000+09:00,2024,5,23,20,15,48,80,,,,,,,,,0.352295,0.122314,0.608398,30.334473,-103.027344,-34.912109,,,,,,,,,,,0.0,1.0,1.0,6.0,0.0,0.0,0.0,6.0,0.0,,,,,,,11.502840191001727,66.26026710811092,7.145952447896537,2.6779860992070588,14.69992225476403,1.3911579568916579,15.006486740895618,,13.646889223646296,,,,,,,,,
LBP08_S06,LBP08,3,4,6,3,3,1716495348.12,2024-05-23 20:15:48.120000+00:00,2024-05-24 05:15:48.120000+09:00,2024,5,23,20,15,48,120,,,,,,,,,0.596191,-0.171143,1.151367,-76.538086,11.230469,43.395996,,,,,,,,,,,0.0,1.0,1.0,6.0,0.0,0.0,0.0,6.0,0.0,,,,,,,3.635759102586833,24.024672898853908,2.5398034771548645,2.823416463310532,15.660909170718186,1.4927500959778524,15.98324308229778,,13.589653968117677,,,,,,,,,
LBP08_S06,LBP08,4,5,6,4,4,1716495348.16,2024-05-23 20:15:48.160000+00:00,2024-05-24 05:15:48.160000+09:00,2024,5,23,20,15,48,160,,,,,,,,,-0.589355,-0.118408,1.571045,-69.702148,81.298828,56.274414,,,,,,,,,,,0.0,1.0,1.0,6.0,0.0,0.0,0.0,6.0,0.0,,,,,,,-1.4669872679245233,-4.197846817681783,-2.06382470563039,2.764736972593551,15.492995298010914,1.4101971077526367,15.800801552912686,,13.479081540300507,,,,,,,,,
LBP08_S06,LBP08,5,6,6,5,5,1716495348.2,2024-05-23 20:15:48.200000+00:00,2024-05-24 05:15:48.200000+09:00,2024,5,23,20,15,48,200,,,,,,,,,-0.330811,-0.576904,1.964355,57.373047,-100.585938,-27.099609,,,,,,,,,,,0.0,1.0,1.0,6.0,0.0,0.0,0.0,6.0,0.0,,,,,,,-4.260317831026055,-18.956377896011205,-6.349288487816486,2.594324259352509,14.734740182170466,1.1562255682399774,15.005996940003211,,13.358002117922481,,,,,,,,,
LBP08_S06,LBP08,6,7,6,6,6,1716495348.24,2024-05-23 20:15:48.240000+00:00,2024-05-24 05:15:48.240000+09:00,2024,5,23,20,15,48,240,,,,,,,,,0.53833,-0.240479,1.397705,-40.95459,97.106934,3.601074,,,,,,,,,,,0.0,1.0,1.0,6.0,0.0,0.0,0.0,6.0,0.0,,,,,,,-5.719963788746398,-22.945229625145714,-9.83687952163978,2.3655257078026533,13.816930997164636,0.7627503873743862,14.038699448600074,,13.833428506342932,,,,,,,,,
LBP08_S06,LBP08,7,8,6,7,7,1716495348.28,2024-05-23 20:15:48.280000+00:00,2024-05-24 05:15:48.280000+09:00,2024,5,23,20,15,48,280,,,,,,,,,-0.709229,0.535156,-0.466064,41.137695,81.115723,-24.597168,,,,,,,,,,,0.0,1.0,1.0,6.0,0.0,0.0,0.0,6.0,0.0,,,,,,,-6.897556724118912,-19.939052192145173,-12.02348371933237,2.0896234388378967,13.01936890947883,0.28181103860109136,13.189007179417338,,13.816605813687024,,,,,,,,,
LBP08_S06,LBP08,8,9,6,8,8,1716495348.32,2024-05-23 20:15:48.320000+00:00,2024-05-24 05:15:48.320000+09:00,2024,5,23,20,15,48,320,,,,,,,,,-0.029785,0.058594,0.055176,114.440918,-81.237793,-64.575195,,,,,,,,,,,0.0,1.0,1.0,6.0,0.0,0.0,0.0,6.0,0.0,,,,,,,-8.464322529935792,-13.728885799212726,-12.58385849406586,1.751050537640465,12.47021347751032,-0.22154330116154308,12.594502117763152,,13.53103246622934,,,,,,,,,
LBP08_S06,LBP08,9,10,6,9,9,1716495348.36,2024-05-23 20:15:48.360000+00:00,2024-05-24 05:15:48.360000+09:00,2024,5,23,20,15,48,360,,,,,,,,,0.501709,0.403564,0.802979,32.653809,-54.382324,-43.762207,,,,,,,,,,,0.0,1.0,1.0,6.0,0.0,0.0,0.0,6.0,0.0,,,,,,,-10.462105028860742,-7.341090343791258,-11.532720009142203,1.3325663364860354,12.17656986375867,-0.6828521015272312,12.268287316520258,,13.147960417394453,,,,,,,,,
LBP08_S06,LBP08,10,11,6,10,10,1716495348.4,2024-05-23 20:15:48.400000+00:00,2024-05-24 05:15:48.400000+09:00,2024,5,23,20,15,48,400,,,,,,,,,0.365723,-0.565186,1.371094,-118.835449,62.988281,40.161133,,,,,,,,,,,0.0,1.0,1.0,6.0,0.0,0.0,0.0,6.0,0.0,,,,,,,-12.38937422561219,-2.6433226222475934,-9.260513069378797,0.8369913674615478,12.070836958868767,-1.053272624302383,12.145577082127557,,12.781670230221373,,,,,,,,,
LBP08_S06,LBP08,11,12,6,11,11,1716495348.44,2024-05-23 20:15:48.440000+00:00,2024-05-24 05:15:48.440000+09:00,2024,5,23,20,15,48,440,,,,,,,,,-0.641846,-0.256104,1.784668,-119.934082,2.441406,27.954102,,,,,,,,,,,0.0,1.0,1.0,6.0,0.0,0.0,0.0,6.0,0.0,,,,,,,-13.568159269200669,-0.2979495343741336,-6.423452312274694,0.294264996693521,12.058918977493802,-1.310210716793371,12.13345667633257,,12.495198674069204,,,,,,,,,
LBP08_S06,LBP08,12,13,6,12,12,1716495348.48,2024-05-23 20:15:48.480000+00:00,2024-05-24 05:15:48.480000+09:00,2024,5,23,20,15,48,480,,,,,,,,,-0.018799,-0.784668,2.025879,-51.574707,-95.64209,-31.860352,,,,,,,,,,,0.0,1.0,1.0,6.0,0.0,0.0,0.0,6.0,0.0,,,,,,,-13.56263512991534,0.030674897179670535,-3.7486765526863954,-0.2482404085030926,12.060145973380989,-1.4601577789008269,12.15075326631876,,12.312437560269434,,,,,,,,,
LBP08_S06,LBP08,13,14,6,13,13,1716495348.52,2024-05-23 20:15:48.520000+00:00,2024-05-24 05:15:48.520000+09:00,2024,5,23,20,15,48,520,,,,,,,,,-0.086182,-0.471924,0.487305,3.967285,164.428711,39.733887,,,,,,,,,,,0.0,1.0,1.0,6.0,0.0,0.0,0.0,6.0,0.0,,,,,,,-12.386121659377961,-0.695386835908834,-1.8509798240256594,-0.743685274878211,12.032330499944635,-1.5341969718618533,12.152522593948907,,12.2322216871913,,,,,,,,,
LBP08_S06,LBP08,14,15,6,14,14,1716495348.56,2024-05-23 20:15:48.560000+00:00,2024-05-24 05:15:48.560000+09:00,2024,5,23,20,15,48,560,,,,,,,,,-0.184082,0.375977,-0.437744,98.266602,-61.096191,-20.080566,,,,,,,,,,,0.0,1.0,1.0,6.0,0.0,0.0,0.0,6.0,0.0,,,,,,,-10.384875040714409,-1.3390519966990286,-1.1280524246155461,-1.1590802765067874,11.978768420076674,-1.579319068846475,12.137899681181889,,12.241487898425587,,,,,,,,,
LBP08_S06,LBP08,15,16,6,15,15,1716495348.6,2024-05-23 20:15:48.600000+00:00,2024-05-24 05:15:48.600000+09:00,2024,5,23,20,15,48,600,,,,,,,,,0.285156,0.089111,0.306396,62.438965,-144.897461,-62.744141,,,,,,,,,,,0.0,1.0,1.0,6.0,0.0,0.0,0.0,6.0,0.0,,,,,,,-7.911796997547114,-1.0206378425831968,-1.7403366869579693,-1.475552156408672,11.937942906373346,-1.648932536324794,12.141281378481535,,12.32614274293702,,,,,,,,,
LBP08_S06,LBP08,16,17,6,16,16,1716495348.64,2024-05-23 20:15:48.640000+00:00,2024-05-24 05:15:48.640000+09:00,2024,5,23,20,15,48,640,,,,,,,,,0.669189,-0.30249,1.175781,-59.387207,-29.23584,25.390625,,,,,,,,,,,0.0,1.0,1.0,6.0,0.0,0.0,0.0,6.0,0.0,,,,,,,-5.029042866117434,0.5909482258952177,-3.6368320575339674,-1.6767138710533693,11.961580835409155,-1.7944058186261527,12.211088310602365,,12.479117947901809,,,,,,,,,
LBP08_S06,LBP08,17,18,6,17,17,1716495348.68,2024-05-23 20:15:48.680000+00:00,2024-05-24 05:15:48.680000+09:00,2024,5,23,20,15,48,680,,,,,,,,,-0.314941,-0.109863,1.574463,2.502441,145.324707,36.621094,,,,,,,,,,,0.0,1.0,1.0,6.0,0.0,0.0,0.0,6.0,0.0,,,,,,,-1.4246292965479257,3.2369840543741852,-6.585003822617476,-1.7336990429152863,12.091060197584122,-2.057805971530852,12.386848448636012,,12.705546677650956,,,,,,,,,
LBP08_S06,LBP08,18,19,6,18,18,1716495348.72,2024-05-23 20:15:48.720000+00:00,2024-05-24 05:15:48.720000+09:00,2024,5,23,20,15,48,720,,,,,,,,,-0.515869,-0.499023,1.956055,-51.269531,-33.14209,-35.27832,,,,,,,,,,,0.0,1.0,1.0,6.0,0.0,0.0,0.0,6.0,0.0,,,,,,,3.43984129729076,6.285884907527445,-10.195879546785797,-1.596105391023656,12.34249559388522,-2.4656411534022835,12.687164230106024,,13.02509752726697,,,,,,,,,
LBP08_S06,LBP08,19,20,6,19,19,1716495348.76,2024-05-23 20:15:48.760000+00:00,2024-05-24 05:15:48.760000+09:00,2024,5,23,20,15,48,760,,,,,,,,,0.217773,-0.639893,1.5896,-57.067871,41.015625,-9.521484,,,,,,,,,,,0.0,1.0,1.0,6.0,0.0,0.0,0.0,6.0,0.0,,,,,,,10.077097303859354,9.0742794570936,-13.96787796167508,-1.1930214988692818,12.705466772168963,-3.0243562718692867,13.114835761634568,,13.471179650864121,,,,,,,,,
LBP08_S06,LBP08,20,21,6,20,20,1716495348.8,2024-05-23 20:15:48.800000+00:00,2024-05-24 05:15:48.800000+09:00,2024,5,23,20,15,48,800,,,,,,,,,-0.581055,-0.147949,-0.1604,86.730957,136.108398,0.915527,,,,,,,,,,,0.0,1.0,1.0,6.0,0.0,0.0,0.0,6.0,0.0,,,,,,,18.772626612910674,11.17470544986438,-17.369879939086857,-0.44211643435285475,13.152454990163537,-3.719151469432761,13.675329131775458,,14.086616133778483,,,,,,,,,
LBP08_S06,LBP08,21,22,6,21,21,1716495348.84,2024-05-23 20:15:48.840000+00:00,2024-05-24 05:15:48.840000+09:00,2024,5,23,20,15,48,840,,,,,,,,,-0.119141,0.10498,-0.069092,74.21875,-89.111328,-35.339355,,,,,,,,,,,0.0,1.0,1.0,6.0,0.0,0.0,0.0,6.0,0.0,,,,,,,29.507855276287813,12.458878628969522,-19.952271402667257,0.7381977766986578,13.650810135322319,-4.517242325539452,14.39774397382404,,14.916100484990684,,,,,,,,,
LBP08_S06,LBP08,22,23,6,22,22,1716495348.88,2024-05-23 20:15:48.880000+00:00,2024-05-24 05:15:48.880000+09:00,2024,5,23,20,15,48,880,,,,,,,,,0.56665,0.079834,0.637939,65.246582,-113.464355,-77.514648,,,,,,,,,,,0.0,1.0,1.0,6.0,0.0,0.0,0.0,6.0,0.0,,,,,,,41.9701870489385,12.967122356273418,-21.445386665488613,2.417005258656198,14.169495029573255,-5.375057792158996,15.346261762478902,,15.996975709942182,,,,,,,,,
LBP08_S06,LBP08,23,24,6,23,23,1716495348.92,2024-05-23 20:15:48.920000+00:00,2024-05-24 05:15:48.920000+09:00,2024,5,23,20,15,48,920,,,,,,,,,0.465088,-0.371094,1.250488,23.681641,32.775879,-14.770508,,,,,,,,,,,0.0,1.0,1.0,6.0,0.0,0.0,0.0,6.0,0.0,,,,,,,55.5590070938346,12.722692164569665,-21.796484743292105,4.639365542409582,14.678402716156041,-6.24691718189068,16.613343829920435,,17.35049437818723,,,,,,,,,
LBP08_S06,LBP08,24,25,6,24,24,1716495348.96,2024-05-23 20:15:48.960000+00:00,2024-05-24 05:15:48.960000+09:00,2024,5,23,20,15,48,960,,,,,,,,,-0.42749,-0.48999,1.693604,47.668457,73.791504,28.076172,,,,,,,,,,,0.0,1.0,1.0,6.0,0.0,0.0,0.0,6.0,0.0,,,,,,,69.34059089675765,11.658655561870601,-21.117636939393467,7.412989178279888,15.144748938630865,-7.0916226594664185,18.29226451032548,,18.975173156551683,,,,,,,,,
LBP08_S06,LBP08,25,26,6,25,25,1716495349.0,2024-05-23 20:15:49+00:00,2024-05-24 05:15:49+09:00,2024,5,23,20,15,49,0,20.0,15.0,47.0,40.784843,141.621368,-4.106,3.0,13.0,-0.200195,-0.353271,1.983398,80.871582,-35.644531,-33.691406,-540.0,23.0,590.0,0.0,0.0,1019.700012,23.5,0.066396,-53.531441,3.832031,0.0,1.0,1.0,6.0,0.0,0.0,0.0,5.0,0.0,,,,,,,81.99661450164278,9.721870670105824,-19.566951405231066,10.6928537583456,15.533623765435099,-7.874300715675661,20.436124890603548,,20.842876922555106,,,,,,,,,
LBP08_S06,LBP08,26,27,6,26,26,1716495349.04,2024-05-23 20:15:49.040000+00:00,2024-05-24 05:15:49.040000+09:00,2024,5,23,20,15,49,40,,,,,,,,,0.324463,-0.63623,1.544189,-0.671387,126.586914,33.26416,,,,,,,,,,,0.0,1.0,1.0,6.0,0.0,0.0,0.0,5.0,0.0,,,,,,,91.8666916108995,7.063644635452653,-17.233829898310372,14.367521422781579,15.816169550853205,-8.563653911608075,23.019840560117352,,22.897712436687677,,,,,,,,,
LBP08_S06,LBP08,27,28,6,27,27,1716495349.08,2024-05-23 20:15:49.080000+00:00,2024-05-24 05:15:49.080000+09:00,2024,5,23,20,15,49,80,,,,,,,,,-0.559326,0.462891,-0.333984,137.756348,72.937012,-29.23584,,,,,,,,,,,0.0,1.0,1.0,6.0,0.0,0.0,0.0,5.0,0.0,,,,,,,97.16374917325787,4.146290392534286,-14.102350726521484,18.254071389711893,15.982021166554576,-9.127747940668934,25.9220351310865,,25.057694231790247,,,,,,,,,
LBP08_S06,LBP08,28,29,6,28,28,1716495349.12,2024-05-23 20:15:49.120000+00:00,2024-05-24 05:15:49.120000+09:00,2024,5,23,20,15,49,120,,,,,,,,,0.075684,-0.240967,0.038086,150.390625,-93.811035,-33.02002,,,,,,,,,,,0.0,1.0,1.0,6.0,0.0,0.0,0.0,5.0,0.0,,,,,,,96.35605856969227,1.6421238751247036,-10.11698535446968,22.10831373249958,16.047706121559564,-9.532427354847721,28.93395201375054,,27.219157887649565,,,,,,,,,
LBP08_S06,LBP08,29,30,6,29,29,1716495349.16,2024-05-23 20:15:49.160000+00:00,2024-05-24 05:15:49.160000+09:00,2024,5,23,20,15,49,160,,,,,,,,,0.428467,0.5,0.724609,134.277344,-113.647461,-66.589355,,,,,,,,,,,0.0,1.0,1.0,6.0,0.0,0.0,0.0,5.0,0.0,,,,,,,88.60545092518844,0.14299053436895412,-5.3057556781688096,25.65253176950712,16.053425742934323,-9.744657581974474,31.7918734216688,,29.263974645189457,,,,,,,,,
LBP08_S06,LBP08,30,31,6,30,30,1716495349.2,2024-05-23 20:15:49.200000+00:00,2024-05-24 05:15:49.200000+09:00,2024,5,23,20,15,49,200,,,,,,,,,0.349121,-0.435547,1.021729,69.274902,1.220703,18.554688,,,,,,,,,,,0.0,1.0,1.0,6.0,0.0,0.0,0.0,5.0,0.0,,,,,,,74.09019159502031,-0.15293818554123895,0.12487373710208405,28.616139433307932,16.047308215512672,-9.73966263249039,34.223684273101156,,31.069693126899587,,,,,,,,,
LBP08_S06,LBP08,31,32,6,31,31,1716495349.24,2024-05-23 20:15:49.240000+00:00,2024-05-24 05:15:49.240000+09:00,2024,5,23,20,15,49,240,,,,,,,,,-0.096191,-0.519287,1.679443,40.039062,19.40918,47.302246,,,,,,,,,,,0.0,1.0,1.0,6.0,0.0,0.0,0.0,5.0,0.0,,,,,,,54.07262106503181,0.43221356548331846,5.78950835162663,30.779044275909204,16.064596758132005,-9.508082298425325,35.99756192484976,,32.52235473145738,,,,,,,,,
LBP08_S06,LBP08,32,33,6,32,32,1716495349.28,2024-05-23 20:15:49.280000+00:00,2024-05-24 05:15:49.280000+09:00,2024,5,23,20,15,49,280,,,,,,,,,-0.02002,-0.445312,1.833252,60.72998,-6.652832,20.874023,,,,,,,,,,,0.0,1.0,1.0,6.0,0.0,0.0,0.0,5.0,0.0,,,,,,,30.680733137143214,1.212476261526501,11.214477342566754,32.00627360139493,16.113095808593066,-9.059503204722654,36.96089832107209,,33.53059201526939,,,,,,,,,
LBP08_S06,LBP08,33,34,6,33,33,1716495349.32,2024-05-23 20:15:49.320000+00:00,2024-05-24 05:15:49.320000+09:00,2024,5,23,20,15,49,320,,,,,,,,,0.154785,0.003906,1.104492,-87.219238,123.291016,25.146484,,,,,,,,,,,0.0,1.0,1.0,6.0,0.0,0.0,0.0,5.0,0.0,,,,,,,6.488115719485419,1.4888269696313925,15.953556469463035,32.26579823017435,16.172648887378323,-8.421360945944134,37.06151140531932,,34.03839126606172,-1.5145890858738282,,,,,,,,
LBP08_S06,LBP08,34,35,6,34,34,1716495349.36,2024-05-23 20:15:49.360000+00:00,2024-05-24 05:15:49.360000+09:00,2024,5,23,20,15,49,360,,,,,,,,,-0.542236,0.049805,-0.241211,-10.864258,69.519043,18.432617,,,,,,,,,,,0.0,1.0,1.0,6.0,0.0,0.0,0.0,5.0,0.0,,,,,,,-15.961433145958068,0.8848386913922512,19.65917238438555,31.627340904336023,16.208042435034013,-7.634994050568712,36.34944932742681,,34.03364710419713,-1.4891123760270648,,,,,,,,
LBP08_S06,LBP08,35,36,6,35,35,1716495349.4,2024-05-23 20:15:49.400000+00:00,2024-05-24 05:15:49.400000+09:00,2024,5,23,20,15,49,400,,,,,,,,,-0.051758,0.122314,0.114258,-19.897461,-81.481934,-31.433105,,,,,,,,,,,0.0,1.0,1.0,6.0,0.0,0.0,0.0,5.0,0.0,,,,,,,-34.5455908555226,-0.5241189587778415,22.09160431205431,30.24551727011512,16.1870776766829,-6.75132987808654,34.962740936181504,,33.55056741276816,-1.4717930055879063,,,,,,,,
LBP08_S06,LBP08,36,37,6,36,36,1716495349.44,2024-05-23 20:15:49.440000+00:00,2024-05-24 05:15:49.440000+09:00,2024,5,23,20,15,49,440,,,,,,,,,0.55957,-0.355225,0.890869,-5.187988,-122.924805,-5.92041,,,,,,,,,,,0.0,1.0,1.0,6.0,0.0,0.0,0.0,5.0,0.0,,,,,,,-47.79561349948032,-2.3374154292935674,23.105870496440954,28.33369273013591,16.09358105951116,-5.827095058228902,33.10221339823741,,32.66552732075347,-1.4642904774205223,,,,,,,,
LBP08_S06,LBP08,37,38,6,37,37,1716495349.48,2024-05-23 20:15:49.480000+00:00,2024-05-24 05:15:49.480000+09:00,2024,5,23,20,15,49,480,,,,,,,,,0.349365,-0.317139,1.517578,-95.092773,15.319824,84.594727,,,,,,,,,,,0.0,1.0,1.0,6.0,0.0,0.0,0.0,5.0,0.0,0.011051413333333336,-0.20045253333333332,0.9816276266666667,5.72184244,4.748535173333333,3.265787826666667,-54.97355014645759,-4.087982298149694,22.66911890728299,26.134750724277605,15.93006176758517,-4.920330301937582,31.000027639009822,-1.5145890858738282,31.48741984939768,-1.4712808835482307,0.33831358666666667,-0.11668646666666668,0.5359503733333334,0.9909504266666668,0.6444490803023577,0.6444490803023577,0.6444490803023577,0.6444490803023577
LBP08_S06,LBP08,38,39,6,38,38,1716495349.52,2024-05-23 20:15:49.520000+00:00,2024-05-24 05:15:49.520000+09:00,2024,5,23,20,15,49,520,,,,,,,,,-0.351562,-0.279541,1.845215,-62.805176,1.525879,40.527344,,,,,,,,,,,0.0,1.0,1.0,6.0,0.0,0.0,0.0,5.0,0.0,0.02197914666666667,-0.20882168,0.9834863466666667,5.168457026666666,0.9049479333333329,3.1656901733333336,-56.046119332293856,-5.438006265292255,20.918936665886378,23.892905950985853,15.71254151697348,-4.083572835302127,28.886510395104633,-1.4636356661803014,30.144339651585717,-1.469418458082039,-0.37354114666666666,-0.07071931999999997,0.8617286533333334,1.30598912,0.9418654269321021,0.7931572536172299,0.7931572536172299,0.7931572536172299
LBP08_S06,LBP08,39,40,6,39,39,1716495349.56,2024-05-23 20:15:49.560000+00:00,2024-05-24 05:15:49.560000+09:00,2024,5,23,20,15,49,560,,,,,,,,,0.164551,-0.340332,1.797852,-5.554199,7.873535,16.052246,,,,,,,,,,,0.0,1.0,1.0,6.0,0.0,0.0,0.0,5.0,0.0,0.02704750666666667,-0.20534186666666665,0.9953776133333334,5.161946613333333,0.9448242399999994,3.27392584,-51.60362527526005,-6.20289388551884,18.213005216356606,21.82876093997545,15.464425761552727,-3.355052626647863,26.96107650737912,-1.4371542647095898,28.768487441164837,-1.469064358774239,0.13750349333333334,-0.13499013333333337,0.8024743866666666,1.0749680133333332,0.825284610320745,0.8038663725184015,0.8038663725184015,0.8038663725184015
LBP08_S06,LBP08,40,41,6,40,40,1716495349.6,2024-05-23 20:15:49.600000+00:00,2024-05-24 05:15:49.600000+09:00,2024,5,23,20,15,49,600,,,,,,,,,-0.117188,-0.056885,0.697998,-34.790039,163.757324,32.348633,,,,,,,,,,,0.0,1.0,1.0,6.0,0.0,0.0,0.0,5.0,0.0,0.02748370666666667,-0.21657558666666668,1.0107031333333334,4.511718746666666,3.0989583599999997,4.174804746666667,-42.75026184581934,-6.255867250736392,15.10232971597331,20.118750466142675,15.21419107152327,-2.7509594380089304,25.373283352954243,-1.4417828929183698,27.481062172244464,-1.4708941642324513,-0.14467170666666668,0.1596905866666667,-0.3127051333333334,0.6170674266666667,0.3797571415955308,0.6978390647876839,0.6978390647876839,0.6978390647876839
LBP08_S06,LBP08,41,42,6,41,41,1716495349.64,2024-05-23 20:15:49.640000+00:00,2024-05-24 05:15:49.640000+09:00,2024,5,23,20,15,49,640,,,,,,,,,-0.101318,-0.467041,0.009277,-118.347168,-78.613281,-20.690918,,,,,,,,,,,0.0,1.0,1.0,6.0,0.0,0.0,0.0,5.0,0.0,0.015657546666666668,-0.22357428,1.0233984533333333,5.7763671866666675,2.9728190399999996,3.8289388666666673,-30.9766253200509,-5.458460612378515,12.204706377530238,18.879685453340638,14.99585264702813,-2.262771182907721,24.21648721129182,-1.499242508059064,26.379106037414907,-1.4645192120902237,-0.11697554666666668,-0.24346672,-1.0141214533333334,1.37456372,1.049476843182562,0.7681666204666595,0.7681666204666595,0.7681666204666595
LBP08_S06,LBP08,42,43,6,42,42,1716495349.68,2024-05-23 20:15:49.680000+00:00,2024-05-24 05:15:49.680000+09:00,2024,5,23,20,15,49,680,,,,,,,,,0.335938,-0.135498,0.701172,72.021484,-128.295898,-33.14209,,,,,,,,,,,0.0,1.0,1.0,6.0,0.0,0.0,0.0,5.0,0.0,0.02488930666666667,-0.22937832,1.02783204,6.697591133333333,1.9563802399999997,3.1665039733333336,-18.010369852184382,-3.715769307186376,10.024102359900187,18.159270659253263,14.847221874740676,-1.8618070885117133,23.530096342952508,-1.4601063307510822,25.52647096586312,-1.4557829914025997,0.31104869333333335,0.09388031999999999,-0.32666004000000004,0.7315890533333334,0.460729406311859,0.7169270847741928,0.7169270847741928,0.7169270847741928
LBP08_S06,LBP08,43,44,6,43,43,1716495349.72,2024-05-23 20:15:49.720000+00:00,2024-05-24 05:15:49.720000+09:00,2024,5,23,20,15,49,720,,,,,,,,,0.526367,-0.257324,1.259033,-93.017578,-13.73291,24.414062,,,,,,,,,,,0.0,1.0,1.0,6.0,0.0,0.0,0.0,5.0,0.0,0.021764306666666667,-0.21345058666666664,1.0010709733333334,6.495768213333333,5.074869826666666,3.500162826666667,-5.627541228270757,-1.1167407249282164,8.801474956081142,17.93416901012243,14.802552245743547,-1.5097480902684675,23.302989301110543,-1.4669397629274374,24.95058436885522,-1.44764030471216,0.5046026933333334,-0.04387341333333336,0.2579620266666667,0.8064381333333335,0.5684128444350511,0.695710764725744,0.695710764725744,0.695710764725744
LBP08_S06,LBP08,44,45,6,44,44,1716495349.76,2024-05-23 20:15:49.760000+00:00,2024-05-24 05:15:49.760000+09:00,2024,5,23,20,15,49,760,,,,,,,,,-0.286377,-0.490479,1.687256,-4.211426,73.730469,22.644043,,,,,,,,,,,0.0,1.0,1.0,6.0,0.0,0.0,0.0,5.0,0.0,0.018382146666666672,-0.21548508,0.9834472800000001,8.2088216,1.6373698266666663,3.435058666666667,4.5851054642182945,1.9803957649706332,8.467256645437331,18.117573228691164,14.881768076342372,-1.1710578244509742,23.475196638223025,-1.483702802439938,24.645338432862086,-1.4460602998927412,-0.30475914666666665,-0.27499392,0.7038087199999999,1.2835617866666666,0.8147677631460387,0.7105928895282808,0.7105928895282808,0.7105928895282808
LBP08_S06,LBP08,45,46,6,45,45,1716495349.8,2024-05-23 20:15:49.800000+00:00,2024-05-24 05:15:49.800000+09:00,2024,5,23,20,15,49,800,,,,,,,,,-0.312744,-0.500977,2.006836,120.605469,-39.916992,9.338379,,,,,,,,,,,0.0,1.0,1.0,6.0,0.0,0.0,0.0,5.0,0.0,0.03391926666666667,-0.21880864000000003,1.0011035200000002,6.518554679999999,-1.1840820000000005,2.7685547600000002,11.491720143433964,5.020981883145637,8.708226081091583,18.577242034428522,15.082607351668198,-0.8227287812073109,23.943179587885993,-1.4135195949524038,24.578764218747104,-1.4448794649791286,-0.3466632666666667,-0.28216836,1.0057324799999996,1.6345641066666663,1.1005872183375762,0.7539255927293136,0.7539255927293136,0.7539255927293136
LBP08_S06,LBP08,46,47,6,46,46,1716495349.84,2024-05-23 20:15:49.840000+00:00,2024-05-24 05:15:49.840000+09:00,2024,5,23,20,15,49,840,,,,,,,,,0.357666,-0.280518,1.698486,-9.94873,56.884766,34.729004,,,,,,,,,,,0.0,1.0,1.0,6.0,0.0,0.0,0.0,5.0,0.0,0.04369465333333333,-0.22813806666666664,1.0180957066666667,4.301757800000001,1.0026041999999993,3.7320964266666667,14.624420574991854,7.457317844647289,9.103375538061231,19.162218857428197,15.380900065454089,-0.4585937596848616,24.57586268271949,-1.377157005213983,24.702991073133923,-1.4424363523644055,0.31397134666666665,-0.05237993333333335,0.6803902933333332,1.0467415733333332,0.7511675014308752,0.7536497835994698,0.7536497835994698,0.7536497835994698
LBP08_S06,LBP08,47,48,6,47,47,1716495349.88,2024-05-23 20:15:49.880000+00:00,2024-05-24 05:15:49.880000+09:00,2024,5,23,20,15,49,880,,,,,,,,,-0.635742,0.166992,-0.293213,31.37207,123.535156,2.929688,,,,,,,,,,,0.0,1.0,1.0,6.0,0.0,0.0,0.0,5.0,0.0,0.03335610666666667,-0.24751957333333333,1.03217448,1.92708332,1.8294271199999992,5.615234453333334,14.267884064379947,8.955412130489663,9.262619203477213,19.732934220003393,15.739116550673675,-0.0880889915457731,25.24116166893082,-1.4331622189694302,24.963927160482474,-1.4311967716820115,-0.6690981066666667,0.4145115733333333,-1.3253874799999998,2.4089971599999997,1.5414811360872838,0.8252708156438164,0.8252708156438164,0.8252708156438164
LBP08_S06,LBP08,48,49,6,48,48,1716495349.92,2024-05-23 20:15:49.920000+00:00,2024-05-24 05:15:49.920000+09:00,2024,5,23,20,15,49,920,,,,,,,,,-0.085938,-0.155518,0.212891,-26.672363,-75.744629,-4.577637,,,,,,,,,,,0.0,1.0,1.0,6.0,0.0,0.0,0.0,5.0,0.0,0.029472640000000005,-0.24494794666666664,1.03684896,4.720865866666666,1.165364626666666,5.270182373333333,11.35832762086744,9.480025438423356,8.922976875315763,20.187267324838093,16.11831756821061,0.26883008346685744,25.834051035173314,-1.4478356179861134,25.30913071053972,-1.4214636589125953,-0.11541064000000001,0.08942994666666665,-0.82395796,1.0287985466666667,0.8367939119241811,0.8262310736671802,0.8262310736671802,0.8262310736671802
LBP08_S06,LBP08,49,50,6,49,49,1716495349.96,2024-05-23 20:15:49.960000+00:00,2024-05-24 05:15:49.960000+09:00,2024,5,23,20,15,49,960,,,,,,,,,0.47998,-0.253418,0.967285,9.460449,-91.61377,-25.085449,,,,,,,,,,,0.0,1.0,1.0,6.0,0.0,0.0,0.0,5.0,0.0,0.034602853333333336,-0.2427246266666667,1.0162792933333333,7.224934879999999,3.357747439999999,5.185546946666666,7.221781030587421,9.220631215427325,7.994898441972026,20.47613856606159,16.487142816827703,0.5886260211457385,26.295334366229266,-1.4253459155734638,25.693696120936664,-1.4141504799215154,0.44537714666666667,-0.010693373333333284,-0.04899429333333338,0.5050648133333333,0.4481914677740087,0.7971511039830901,0.7971511039830901,0.7971511039830901
LBP08_S06,LBP08,50,51,6,50,50,1716495350.0,2024-05-23 20:15:50+00:00,2024-05-24 05:15:50+09:00,2024,5,23,20,15,50,0,20.0,15.0,48.0,40.784935,141.621414,-4.98,3.0,14.0,0.325928,-0.513672,1.41748,-20.568848,41.503906,38.452148,-544.0,16.0,594.0,0.0,0.0,1019.599976,23.57,0.065405,-52.703289,3.832031,0.0,1.0,1.0,6.0,0.0,0.0,0.0,3.0,0.0,0.03636717333333334,-0.2418782666666667,0.9912890533333333,8.034667946666668,2.980143279999999,5.988769613333333,3.241188312693313,8.433926481193375,6.5767476511165714,20.60578609856932,16.82449987607544,0.8516959271904013,26.615551896822428,-1.417351766771138,26.084549171408348,-1.4113943113397762,0.28956082666666666,-0.27179373333333334,0.4261909466666668,0.9875455066666669,0.582542727050801,0.7818219342022124,0.7818219342022124,0.7818219342022124
LBP08_S06,LBP08,51,52,6,51,51,1716495350.04,2024-05-23 20:15:50.040000+00:00,2024-05-24 05:15:50.040000+09:00,2024,5,23,20,15,50,40,,,,,,,,,-0.385498,-0.709961,1.825928,25.512695,21.911621,26.977539,,,,,,,,,,,0.0,1.0,1.0,6.0,0.0,0.0,0.0,3.0,0.0,0.042262360000000006,-0.23315430666666667,0.9900162666666668,7.92887368,-1.5250650533333343,4.510905026666666,0.5510534771336494,7.330935806637458,4.950423553060797,20.62782823765467,17.11773730834094,1.0497128693128333,26.82584808477733,-1.386846701235125,26.46299872852549,-1.4125107371868633,-0.42776036,-0.47680669333333325,0.8359117333333332,1.7404787866666664,1.0531248616945355,0.7999087960350338,0.7999087960350338,0.7999087960350338
LBP08_S06,LBP08,52,53,6,52,52,1716495350.08,2024-05-23 20:15:50.080000+00:00,2024-05-24 05:15:50.080000+09:00,2024,5,23,20,15,50,80,,,,,,,,,-0.052002,-0.156982,1.749268,9.70459,-20.690918,-1.220703,,,,,,,,,,,0.0,1.0,1.0,6.0,0.0,0.0,0.0,3.0,0.0,0.049804680000000004,-0.24238933333333332,1.0079101466666667,5.72591144,-0.8577473466666676,4.886067786666667,-0.1767836670351206,6.078504107121692,3.5455720349023916,20.620756890973265,17.360877472625805,1.1915357507089288,26.982131843524986,-1.362775203056921,26.824678905074983,-1.4165522975507534,-0.10180668000000001,0.08540733333333331,0.7413578533333334,0.9285718666666667,0.7531736050730546,0.7969878465999102,0.7969878465999102,0.7969878465999102
LBP08_S06,LBP08,53,54,6,53,53,1716495350.12,2024-05-23 20:15:50.120000+00:00,2024-05-24 05:15:50.120000+09:00,2024,5,23,20,15,50,120,,,,,,,,,0.112793,0.028564,0.877197,-13.671875,158.325195,40.466309,,,,,,,,,,,0.0,1.0,1.0,6.0,0.0,0.0,0.0,3.0,0.0,0.04202148000000001,-0.24116212000000004,1.02427408,4.312337213333333,2.6595052533333323,6.518554773333333,1.1667026141742598,4.870275227593735,2.8477127936962705,20.667424995540234,17.555688481729554,1.3054442624567797,27.14864340508001,-1.3938079730166386,27.176307043205725,-1.4158286768448536,0.07077152,0.26972612,-0.14707708000000008,0.48757472000000013,0.31526569003729416,0.7686512491550503,0.7686512491550503,0.7686512491550503
LBP08_S06,LBP08,54,55,6,54,54,1716495350.16,2024-05-23 20:15:50.160000+00:00,2024-05-24 05:15:50.160000+09:00,2024,5,23,20,15,50,160,,,,,,,,,-0.404541,0.089355,-0.220703,-73.669434,-17.944336,-59.204102,,,,,,,,,,,0.0,1.0,1.0,6.0,0.0,0.0,0.0,3.0,0.0,0.028264973333333342,-0.25256186666666663,1.0339778533333335,4.754231746666666,2.2762044799999988,5.955403733333333,4.145404538773122,3.9565379915639505,3.2504302970962855,20.833241177091157,17.713950001392114,1.435461474340631,27.38372714293988,-1.456141116622545,27.529974070184096,-1.4065793617289954,-0.4328059733333333,0.34191686666666665,-1.2546808533333336,2.0294036933333333,1.3705663785404292,0.8020909785653492,0.8020909785653492,0.8020909785653492
LBP08_S06,LBP08,55,56,6,55,55,1716495350.2,2024-05-23 20:15:50.200000+00:00,2024-05-24 05:15:50.200000+09:00,2024,5,23,20,15,50,200,,,,,,,,,0.162354,-0.149658,0.324463,98.632812,-110.778809,-24.536133,,,,,,,,,,,0.0,1.0,1.0,6.0,0.0,0.0,0.0,3.0,0.0,0.036162106666666666,-0.25289716,1.0283137866666665,5.27099608,1.2898763599999992,6.01318368,7.913486818231663,3.559908805410189,4.8998203171916535,21.149780649820425,17.856346353608522,1.6314542870282973,27.72767515905742,-1.4246838534232726,27.89687605826348,-1.3971406867246663,0.12619189333333333,0.10323916,-0.7038507866666666,0.9332818399999999,0.7224878185767857,0.7979013385659511,0.7979013385659511,0.7979013385659511
LBP08_S06,LBP08,56,57,6,56,56,1716495350.24,2024-05-23 20:15:50.240000+00:00,2024-05-24 05:15:50.240000+09:00,2024,5,23,20,15,50,240,,,,,,,,,0.480469,0.254639,0.906006,-23.620605,-56.640625,-3.90625,,,,,,,,,,,0.0,1.0,1.0,6.0,0.0,0.0,0.0,3.0,0.0,0.03640298666666668,-0.2424479466666667,0.99538084,6.7277018,2.5545247999999994,6.75048836,11.451105817220592,3.716801841792228,7.61007844797811,21.60782488250925,18.005018427280213,1.9358574249474216,28.19266444821436,-1.4175726088528857,28.282501659665922,-1.3941686444604386,0.4440660133333333,0.4970869466666667,-0.08937484000000007,1.0305278,0.6725161104160816,0.7916320771584576,0.7916320771584576,0.7916320771584576
LBP08_S06,LBP08,57,58,6,57,57,1716495350.28,2024-05-23 20:15:50.280000+00:00,2024-05-24 05:15:50.280000+09:00,2024,5,23,20,15,50,280,,,,,,,,,0.271729,-0.499023,1.621338,22.216797,76.904297,60.852051,,,,,,,,,,,0.0,1.0,1.0,6.0,0.0,0.0,0.0,3.0,0.0,0.032880853333333335,-0.23152346666666668,0.9741503600000001,8.300781226666667,0.5151367733333325,6.48600268,13.844039584112354,4.178633729928727,10.907230916543346,22.161586465873743,18.172163776477362,2.3721466616091553,28.757443050238276,-1.4259260119104327,28.684250189123173,-1.39773434279195,0.23884814666666665,-0.2674995333333333,0.6471876399999998,1.1535353199999998,0.7399028847547643,0.7891687822820912,0.7891687822820912,0.7891687822820912
LBP08_S06,LBP08,58,59,6,58,58,1716495350.32,2024-05-23 20:15:50.320000+00:00,2024-05-24 05:15:50.320000+09:00,2024,5,23,20,15,50,320,,,,,,,,,-0.242188,-1.011963,2.084473,43.579102,-32.287598,33.14209,,,,,,,,,,,0.0,1.0,1.0,6.0,0.0,0.0,0.0,3.0,0.0,0.049290360000000005,-0.23102868000000001,0.9865429333333333,7.292480439999999,-3.014322853333334,5.705566480000001,14.520018995129204,4.486172420699984,14.187314820397203,22.74238722567891,18.351610673305363,2.9396392544250434,29.370721304957005,-1.3553424668275313,29.091079093507584,-1.400352406807522,-0.29147836,-0.78093432,1.0979300666666667,2.170342746666667,1.3785022589001525,0.8159566675829123,0.8159566675829123,0.8159566675829123
LBP08_S06,LBP08,59,60,6,59,59,1716495350.36,2024-05-23 20:15:50.360000+00:00,2024-05-24 05:15:50.360000+09:00,2024,5,23,20,15,50,360,,,,,,,,,0.181396,-0.105225,1.725586,73.608398,26.977539,11.535645,,,,,,,,,,,0.0,1.0,1.0,6.0,0.0,0.0,0.0,3.0,0.0,0.056367186666666666,-0.23644860000000004,1.00262692,6.19954424,-1.346028586666668,6.3972982400000005,13.359166263010707,4.202986390625404,16.906925070876547,23.27675387619934,18.51973012893038,3.615916257260105,29.96435424702309,-1.330959165530173,29.484120779109713,-1.4015124005070219,0.12502881333333332,0.13122360000000005,0.7229590800000001,0.9792114933333335,0.7453332601695353,0.8128860846518959,0.8128860846518959,0.8128860846518959
LBP08_S06,LBP08,60,61,6,60,60,1716495350.4,2024-05-23 20:15:50.400000+00:00,2024-05-24 05:15:50.400000+09:00,2024,5,23,20,15,50,400,,,,,,,,,-0.015381,-0.294922,0.880615,-24.902344,174.133301,45.166016,,,,,,,,,,,0.0,1.0,1.0,6.0,0.0,0.0,0.0,3.0,0.0,0.043701173333333336,-0.2422819333333333,1.0179459333333334,5.15055336,1.1873372933333326,7.875976613333332,10.634979632308553,3.168459221088096,18.71278898459342,23.702153061491682,18.646468497773903,4.3644278166438415,30.47180791084685,-1.3876313441288615,29.837738860338504,-1.397894761061586,-0.059082173333333335,-0.05264006666666671,-0.13733093333333335,0.24905317333333338,0.1584975238755029,0.7856198946195462,0.7856198946195462,0.7856198946195462
LBP08_S06,LBP08,61,62,6,61,61,1716495350.44,2024-05-23 20:15:50.440000+00:00,2024-05-24 05:15:50.440000+09:00,2024,5,23,20,15,50,440,,,,,,,,,-0.252686,0.025635,-0.186279,-25.085449,-27.893066,-20.751953,,,,,,,,,,,0.0,1.0,1.0,6.0,0.0,0.0,0.0,3.0,0.0,0.03582357333333334,-0.24643232,1.0289518,4.879557266666667,0.2132161999999992,7.915852920000001,6.808842167338524,1.6006928451246485,19.46703313611262,23.974506748185224,18.71049621157889,5.143109142088346,30.843333379349897,-1.422503684550239,30.121619640130564,-1.3920653743795648,-0.2885095733333334,0.27206732,-1.2152308,1.7758076933333333,1.2782974214890697,0.8053269956943271,0.8053269956943271,0.8053269956943271
LBP08_S06,LBP08,62,63,6,62,62,1716495350.48,2024-05-23 20:15:50.480000+00:00,2024-05-24 05:15:50.480000+09:00,2024,5,23,20,15,50,480,,,,,,,,,0.162109,-0.191895,0.247803,-78.369141,-135.620117,-4.455566,,,,,,,,,,,0.0,1.0,1.0,6.0,0.0,0.0,0.0,3.0,0.0,0.044023440000000004,-0.24600264,1.0245670266666664,4.0738932,0.9529622933333324,7.888997453333333,2.280586754445132,-0.03420002714387251,19.19276060045129,24.06573021836303,18.709128210493134,5.910819566106398,31.05042088736911,-1.3889558432126397,30.30498143544245,-1.3852676383810738,0.11808556,0.054107639999999985,-0.7767640266666664,0.9489572266666664,0.7875494837216876,0.8110510118311002,0.8046432452338409,0.8046432452338409
LBP08_S06,LBP08,63,64,6,63,63,1716495350.52,2024-05-23 20:15:50.520000+00:00,2024-05-24 05:15:50.520000+09:00,2024,5,23,20,15,50,520,,,,,,,,,0.534668,-0.280029,0.921631,-10.742188,-84.16748,3.479004,,,,,,,,,,,0.0,1.0,1.0,6.0,0.0,0.0,0.0,3.0,0.0,0.03861328,-0.23769209333333335,0.9930859066666666,3.078613253333333,2.212727919999999,8.320312560000001,-2.7579082840044724,-1.3083392955628776,18.004482620121994,23.95541388700285,18.65679463867062,6.630998870911278,31.079060261101276,-1.405407910011637,30.36309098976518,-1.382651586496404,0.49605472000000006,-0.04233690666666662,-0.07145490666666665,0.6098465333333333,0.5029597425113888,0.7934947844542718,0.7934697821700465,0.7934697821700465
LBP08_S06,LBP08,64,65,6,64,64,1716495350.56,2024-05-23 20:15:50.560000+00:00,2024-05-24 05:15:50.560000+09:00,2024,5,23,20,15,50,560,,,,,,,,,0.130859,-0.486572,1.48291,0.305176,50.048828,62.988281,,,,,,,,,,,0.0,1.0,1.0,6.0,0.0,0.0,0.0,3.0,0.0,0.03389648000000001,-0.22896488,0.97397784,2.919921853333333,-0.8308918666666675,7.518717506666666,-8.263837419672507,-2.0696922661660326,16.078240663306477,23.62486039021595,18.57400694802398,7.274128497443537,30.91990795522777,-1.419964722168187,30.28451307883632,-1.3896695112651778,0.09696252,-0.25760711999999997,0.50893216,0.8635017999999999,0.5785975302761932,0.7836273012524897,0.7857957731738374,0.7857957731738374
LBP08_S06,LBP08,65,66,6,65,65,1716495350.6,2024-05-23 20:15:50.600000+00:00,2024-05-24 05:15:50.600000+09:00,2024,5,23,20,15,50,600,,,,,,,,,-0.1604,-0.807373,2.000488,104.614258,11.901855,24.658203,,,,,,,,,,,0.0,1.0,1.0,6.0,0.0,0.0,0.0,3.0,0.0,0.04778645333333333,-0.23678064000000001,0.9869303066666667,1.0367838266666662,-3.6075845733333334,7.285970106666667,-14.1063759035411,-2.4562816236369405,13.66662831233051,23.060605354074305,18.4757556830785,7.820793629936757,30.566482956978014,-1.36638998660306,30.07625062266622,-1.3973576341837566,-0.20818645333333333,-0.57059236,1.013557693333333,1.7923365066666663,1.1816160283091408,0.8157016567210341,0.7994447474888479,0.7994447474888479
LBP08_S06,LBP08,66,67,6,66,66,1716495350.64,2024-05-23 20:15:50.640000+00:00,2024-05-24 05:15:50.640000+09:00,2024,5,23,20,15,50,640,,,,,,,,,0.024658,-0.355225,1.865479,24.475098,22.216797,8.361816,,,,,,,,,,,0.0,1.0,1.0,6.0,0.0,0.0,0.0,3.0,0.0,0.05186848000000001,-0.2366894933333333,1.0011458,-1.6910807600000004,-2.2737629600000004,8.187662826666667,-19.813095015392275,-2.6869394215700613,11.114707103947568,22.268081553458615,18.368278106215698,8.26538191409466,30.026282401333166,-1.3495952488679779,29.764282236028954,-1.4010561653379463,-0.02721048000000001,-0.1185355066666667,0.8643332000000001,1.0100791866666667,0.8728476139537726,0.8086364875518826,0.8018915097043454,0.8018915097043454
LBP08_S06,LBP08,67,68,6,67,67,1716495350.68,2024-05-23 20:15:50.680000+00:00,2024-05-24 05:15:50.680000+09:00,2024,5,23,20,15,50,680,,,,,,,,,-0.110107,-0.114502,0.714844,-30.090332,174.743652,15.075684,,,,,,,,,,,0.0,1.0,1.0,6.0,0.0,0.0,0.0,3.0,0.0,0.04168944000000001,-0.24829755999999997,1.01373044,-4.043782586666667,-0.12776686666666734,9.4278972,-24.500124908742883,-2.801016838683894,8.826350718847094,21.288076557108898,18.256237432668343,8.618435942848542,29.338538593465657,-1.3997654930637344,29.388997756520077,-1.40269183747981,-0.15179644,0.13379555999999998,-0.29888644,0.5844784399999999,0.36093838129002126,0.804644846551009,0.7876672152393671,0.7876672152393671
LBP08_S06,LBP08,68,69,6,68,68,1716495350.72,2024-05-23 20:15:50.720000+00:00,2024-05-24 05:15:50.720000+09:00,2024,5,23,20,15,50,720,,,,,,,,,-0.009277,0.034912,-0.01416,-82.641602,-66.589355,-11.352539,,,,,,,,,,,0.0,1.0,1.0,6.0,0.0,0.0,0.0,3.0,0.0,0.03565102666666667,-0.25071943999999996,1.0241373333333332,-4.5605469066666675,-0.14973952000000068,9.188639386666667,-27.084465609318674,-2.55714943524624,7.169889305129217,20.204697932736153,18.153951455258493,8.90523151505371,28.58494219566834,-1.4255217145152697,28.997459959559375,-1.402066019320888,-0.04492802666666667,0.28563143999999996,-1.0382973333333332,1.3688567999999999,1.0778057336569262,0.8250205621198841,0.7967340439399159,0.7967340439399159
LBP08_S06,LBP08,69,70,6,69,69,1716495350.76,2024-05-23 20:15:50.760000+00:00,2024-05-24 05:15:50.760000+09:00,2024,5,23,20,15,50,760,,,,,,,,,0.276855,-0.307617,0.482422,-127.563477,-152.404785,-22.949219,,,,,,,,,,,0.0,1.0,1.0,6.0,0.0,0.0,0.0,3.0,0.0,0.03899412000000001,-0.243724,1.0156607733333334,-5.382487000000001,1.3085938133333326,8.891601626666665,-26.69424544993803,-1.5842227855124082,6.361100355102376,19.13692811473863,18.090582543837996,9.159675529257806,27.881729685322142,-1.4078403947159597,28.635609352779746,-1.3977739936396527,0.23786088,-0.06389299999999998,-0.5332387733333334,0.8349926533333334,0.5873701584770991,0.8159246579331264,0.790389683774376,0.790389683774376
LBP08_S06,LBP08,70,71,6,70,70,1716495350.8,2024-05-23 20:15:50.800000+00:00,2024-05-24 05:15:50.800000+09:00,2024,5,23,20,15,50,800,,,,,,,,,0.530273,-0.278809,1.132324,-28.991699,-30.944824,3.78418,,,,,,,,,,,0.0,1.0,1.0,6.0,0.0,0.0,0.0,3.0,0.0,0.03381509333333334,-0.23599289333333331,0.9884342133333333,-6.23046876,1.9970703733333328,8.555501373333334,-23.057447926810436,0.31345515377587263,6.384081784987297,18.214630197666214,18.10312074998903,9.415038800657298,27.352124044474127,-1.4246166556707598,28.342698355362803,-1.3962001028416213,0.49645790666666667,-0.04281610666666666,0.14388978666666685,0.6831638000000002,0.5186597562843285,0.7926475594509965,0.7823976270834923,0.7823976270834923
LBP08_S06,LBP08,71,72,6,71,71,1716495350.84,2024-05-23 20:15:50.840000+00:00,2024-05-24 05:15:50.840000+09:00,2024,5,23,20,15,50,840,,,,,,,,,-0.115234,-0.198975,1.583008,8.178711,63.598633,41.809082,,,,,,,,,,,0.0,1.0,1.0,6.0,0.0,0.0,0.0,3.0,0.0,0.03058918666666667,-0.23708338666666667,0.9763997066666665,-4.844563813333333,-0.7796223466666673,7.382812573333334,-16.658780833463812,2.918682194371734,6.993693166930096,17.54827896432766,18.219868037763902,9.694786527334502,27.090488584261117,-1.4388604059688763,28.148221212075107,-1.4021628964905015,-0.14582318666666666,0.03810838666666666,0.6066082933333334,0.7905398666666668,0.6250522157746,0.7876029480247455,0.7779020439032381,0.7779020439032381
LBP08_S06,LBP08,72,73,6,72,72,1716495350.88,2024-05-23 20:15:50.880000+00:00,2024-05-24 05:15:50.880000+09:00,2024,5,23,20,15,50,880,,,,,,,,,-0.291748,-0.468506,1.964355,58.288574,-36.071777,2.319336,,,,,,,,,,,0.0,1.0,1.0,6.0,0.0,0.0,0.0,3.0,0.0,0.04410806666666667,-0.23810551999999996,0.9890787466666667,-4.729003920000001,-3.369954373333334,6.413574293333332,-8.597015318062057,5.605280750492045,7.799244097038881,17.204398351605178,18.444079267783582,10.006756291216057,27.135042917762103,-1.3826976616234186,28.070069433392614,-1.4076250089203033,-0.3358560666666667,-0.23040048000000002,0.9752762533333333,1.5415328000000001,1.0569046546481566,0.7682198887671804,0.7856521164239303,0.7856521164239303
LBP08_S06,LBP08,73,74,6,73,73,1716495350.92,2024-05-23 20:15:50.920000+00:00,2024-05-24 05:15:50.920000+09:00,2024,5,23,20,15,50,920,,,,,,,,,0.3396,-0.188721,1.681885,18.005371,67.443848,9.399414,,,,,,,,,,,0.0,1.0,1.0,6.0,0.0,0.0,0.0,3.0,0.0,0.050260413333333344,-0.24443038666666672,1.0030273066666666,-4.584147146666667,-2.1500650400000008,6.905110746666668,-0.24395751524792153,7.581759547967162,8.388715929541394,17.19464005099526,18.74734964970227,10.342304928397713,27.46055419330502,-1.3624876531992829,28.112668394076973,-1.4111925743297327,0.28933958666666665,0.05570938666666672,0.6788576933333335,1.023906666666667,0.7400464174449248,0.7643499889880103,0.7844195299650384,0.7844195299650384
LBP08_S06,LBP08,74,75,6,74,74,1716495350.96,2024-05-23 20:15:50.960000+00:00,2024-05-24 05:15:50.960000+09:00,2024,5,23,20,15,50,960,,,,,,,,,-0.828857,0.907471,-0.316895,-5.432129,154.296875,10.559082,,,,,,,,,,,0.0,1.0,1.0,6.0,0.0,0.0,0.0,3.0,0.0,0.03991536,-0.24401045333333335,1.0130566,-4.307454440000001,-0.04475904000000052,7.375488346666666,7.114024256877362,8.219600237905844,8.44357984220495,17.479201021270356,19.076133659218502,10.68004812208591,27.990797981058318,-1.4042258141878727,28.265178319301885,-1.4116513976166765,-0.8687723599999999,1.1514814533333333,-1.3299516,3.3502054133333337,1.9620005630002186,0.8249023527970586,0.8154085045185957,0.8154085045185957
LBP08_S06,LBP08,75,76,6,75,75,1716495351.0,2024-05-23 20:15:51+00:00,2024-05-24 05:15:51+09:00,2024,5,23,20,15,51,0,20.0,15.0,49.0,40.785034,141.621429,-4.936,3.0,14.0,0.180176,-0.671143,0.217529,-6.713867,-108.825684,7.629395,-546.0,27.0,596.0,162.0,0.0,1019.599976,23.639999,0.065405,-52.703289,3.832031,0.0,1.0,1.0,6.0,0.0,0.0,0.0,6.0,0.0,0.03466145333333334,-0.2443294533333333,1.01922848,-2.3225911600000004,-0.1163736266666672,5.935058653333333,12.513847079320264,7.279588123155216,7.814427455089293,17.979754904443165,19.36731718414471,10.992625220289483,28.621711524101062,-1.4260179230918637,28.501227379081445,-1.4102487969675743,0.14551454666666666,-0.4268135466666667,-0.80169948,1.3740275733333334,0.9198186468766845,0.8383933895900939,0.8180856876559826,0.8180856876559826
LBP08_S06,LBP08,76,77,6,76,76,1716495351.04,2024-05-23 20:15:51.040000+00:00,2024-05-24 05:15:51.040000+09:00,2024,5,23,20,15,51,40,,,,,,,,,0.427734,0.239746,0.946533,24.169922,-89.599609,-20.568848,,,,,,,,,,,0.0,1.0,1.0,6.0,0.0,0.0,0.0,6.0,0.0,0.04016600000000001,-0.24566084000000005,1.0097558266666669,-2.2281901200000003,1.9392904399999993,5.629069066666666,15.400065312963472,4.939394768716692,6.552703053646717,18.595757516961704,19.56489297489338,11.254733342435351,29.244764614508288,-1.4042163731659951,28.781843263083232,-1.4079942519312376,0.387568,0.48540684,-0.0632228266666669,0.9361976666666669,0.6243603773098586,0.8212428102147068,0.8132425548973294,0.8132425548973294
LBP08_S06,LBP08,77,78,6,77,77,1716495351.08,2024-05-23 20:15:51.080000+00:00,2024-05-24 05:15:51.080000+09:00,2024,5,23,20,15,51,80,,,,,,,,,0.38501,-0.720215,1.757812,-18.432617,58.532715,32.653809,,,,,,,,,,,0.0,1.0,1.0,6.0,0.0,0.0,0.0,6.0,0.0,0.031806626666666664,-0.2402995066666667,0.9830989199999999,-2.653808613333334,2.133789146666666,5.192871146666667,15.605305233654146,1.6650938149410734,4.905397928448203,19.21996972630787,19.631496727491022,11.45094925957328,29.764528200309233,-1.4354411471580288,29.06192744789447,-1.4089185939061064,0.35320337333333335,-0.4799154933333334,0.77471308,1.6078319466666668,0.9773698685751006,0.8302106607547887,0.8172456601089825,0.8172456601089825
LBP08_S06,LBP08,78,79,6,78,78,1716495351.12,2024-05-23 20:15:51.120000+00:00,2024-05-24 05:15:51.120000+09:00,2024,5,23,20,15,51,120,,,,,,,,,-0.290771,-0.696045,2.103516,18.310547,1.77002,17.456055,,,,,,,,,,,0.0,1.0,1.0,6.0,0.0,0.0,0.0,6.0,0.0,0.0331022,-0.24059246666666667,0.9761783466666666,-2.3071289200000007,-1.2882486133333342,4.44824224,13.297341026323751,-1.9518620757419654,3.2756684865398498,19.75186336736082,19.553422244461345,11.581975999034874,30.110041447917435,-1.4301099473847065,29.298628470929184,-1.4140797304220425,-0.32387319999999997,-0.45545253333333335,1.1273376533333335,1.9066633866666667,1.2582611193313964,0.8679304779265528,0.8277460281857065,0.8277460281857065
LBP08_S06,LBP08,79,80,6,79,79,1716495351.16,2024-05-23 20:15:51.160000+00:00,2024-05-24 05:15:51.160000+09:00,2024,5,23,20,15,51,160,,,,,,,,,0.103027,-0.553711,1.903564,-0.610352,5.065918,6.591797,,,,,,,,,,,0.0,1.0,1.0,6.0,0.0,0.0,0.0,6.0,0.0,0.04076821333333334,-0.23408205333333332,0.9856542666666667,-0.5550130400000005,-1.8570962666666673,4.114583386666666,8.936758313359533,-5.312328810326515,2.1429118606302713,20.1093336998952,19.340929092048285,11.667692473460086,30.24222028311773,-1.393814388224938,29.458778812073422,-1.419058737188443,0.062258786666666656,-0.31962894666666664,0.9179097333333334,1.2997974666666667,0.9739594953654487,0.8520662025995536,0.8311463413759331,0.8311463413759331
LBP08_S06,LBP08,80,81,6,80,80,1716495351.2,2024-05-23 20:15:51.200000+00:00,2024-05-24 05:15:51.200000+09:00,2024,5,23,20,15,51,200,,,,,,,,,-0.565186,0.617676,-0.042725,42.236328,133.300781,-2.075195,,,,,,,,,,,0.0,1.0,1.0,6.0,0.0,0.0,0.0,6.0,0.0,0.03930336,-0.23705732000000002,0.9905435866666666,-2.2314453333333337,-0.17333976000000098,4.905599013333334,3.2437385568169668,-7.8978813390361235,1.9383921343042276,20.23908324216788,19.02501383848684,11.745228158832255,30.15828288449199,-1.402071205307392,29.523085343580185,-1.4236183356069716,-0.60448936,0.85473332,-1.0332685866666667,2.4924912666666668,1.470925017417123,0.8820036905531672,0.8456867658314148,0.8456867658314148
LBP08_S06,LBP08,81,82,6,81,81,1716495351.24,2024-05-23 20:15:51.240000+00:00,2024-05-24 05:15:51.240000+09:00,2024,5,23,20,15,51,240,,,,,,,,,0.284668,-0.393066,0.075928,87.524414,-160.705566,-1.281738,,,,,,,,,,,0.0,1.0,1.0,6.0,0.0,0.0,0.0,6.0,0.0,0.028580706666666664,-0.23821292,0.9961295333333333,-1.0213216400000005,0.44759122666666573,4.903157613333334,-2.8670954872214094,-9.381109972870009,2.897417318536862,20.124399422679023,18.649769439572037,11.861124851573729,29.89133043237351,-1.4481038257175642,29.48661660484072,-1.4228360910063402,0.2560872933333333,-0.15485308000000003,-0.9202015333333333,1.3311419066666668,0.9676419999882688,0.8938087261360544,0.8483968821460114,0.8483968821460114
LBP08_S06,LBP08,82,83,6,82,82,1716495351.28,2024-05-23 20:15:51.280000+00:00,2024-05-24 05:15:51.280000+09:00,2024,5,23,20,15,51,280,,,,,,,,,0.456055,0.285889,0.858154,-85.632324,-130.493164,-74.584961,,,,,,,,,,,0.0,1.0,1.0,6.0,0.0,0.0,0.0,6.0,0.0,0.031914040000000005,-0.23882814666666666,0.9965331733333332,-0.9936523600000003,-0.574544200000001,4.63460292,-8.429987936410555,-9.748173637071831,4.9432827812551245,19.7871999052226,18.259842494089163,12.058856162823934,29.50205314810924,-1.4343090267827796,29.356914389720778,-1.4203425375991279,0.42414096,0.5247171466666667,-0.13837917333333327,1.08723728,0.6887470025837836,0.8917624908492153,0.844926232590311,0.844926232590311
LBP08_S06,LBP08,83,84,6,83,83,1716495351.32,2024-05-23 20:15:51.320000+00:00,2024-05-24 05:15:51.320000+09:00,2024,5,23,20,15,51,320,,,,,,,,,0.703369,-0.641113,1.32959,-51.818848,82.763672,7.69043,,,,,,,,,,,0.0,1.0,1.0,6.0,0.0,0.0,0.0,6.0,0.0,0.03680986666666667,-0.23671876000000003,0.9799967200000002,-2.5463867333333337,1.690266999999999,4.870605520000001,-12.64344500840058,-9.339914521245886,7.671178780148177,19.281462104886575,17.88624591323933,12.365703314029862,29.06205760474741,-1.4122777208632908,29.15149005442661,-1.4153028837470567,0.6665591333333334,-0.40439424,0.3495932799999999,1.4205466533333333,0.8544303605305821,0.8707996149144325,0.8451284480784017,0.8451284480784017
LBP08_S06,LBP08,84,85,6,84,84,1716495351.36,2024-05-23 20:15:51.360000+00:00,2024-05-24 05:15:51.360000+09:00,2024,5,23,20,15,51,360,,,,,,,,,-0.273682,-1.050049,1.858887,-145.446777,7.629395,97.473145,,,,,,,,,,,0.0,1.0,1.0,6.0,0.0,0.0,0.0,6.0,0.0,0.02740557333333334,-0.23189778666666663,0.9543717199999999,-2.1956380400000004,1.0611979866666656,4.274088586666667,-15.066126165960565,-8.721089981999496,10.46600652466269,18.678817058248153,17.537402313959348,12.784343575016369,28.63386329612599,-1.449821798373158,28.895489015916134,-1.4146832704041112,-0.3010875733333333,-0.8181512133333334,0.90451528,2.0237540666666667,1.256253567735447,0.8912364272170689,0.8536935547379235,0.8536935547379235
LBP08_S06,LBP08,85,86,6,85,85,1716495351.4,2024-05-23 20:15:51.400000+00:00,2024-05-24 05:15:51.400000+09:00,2024,5,23,20,15,51,400,,,,,,,,,0.074463,-0.372314,1.72168,90.698242,13.183594,14.282227,,,,,,,,,,,0.0,1.0,1.0,6.0,0.0,0.0,0.0,6.0,0.0,0.03495114666666667,-0.23375325333333333,0.9590624799999998,-1.5893554800000005,-2.0312499333333345,3.5001627999999996,-15.665889871075706,-8.40699989895368,12.712366625582922,18.052181463405127,17.2011223180012,13.292838240039686,28.2570241367064,-1.4181954770855478,28.619115651332073,-1.4155065928234716,0.03951185333333333,-0.13856074666666665,0.7626175200000003,0.9406901200000002,0.7761093665725275,0.91594090092495,0.8521102039590379,0.8521102039590379
LBP08_S06,LBP08,86,87,6,86,86,1716495351.44,2024-05-23 20:15:51.440000+00:00,2024-05-24 05:15:51.440000+09:00,2024,5,23,20,15,51,440,,,,,,,,,-0.25708,-0.089355,0.241943,67.871094,166.870117,21.606445,,,,,,,,,,,0.0,1.0,1.0,6.0,0.0,0.0,0.0,6.0,0.0,0.043834613333333335,-0.23227863999999998,0.96630532,-1.0970052266666672,-2.697753840000001,2.93538416,-14.674599374425625,-8.607529137117767,13.990650537929529,17.465197488428103,16.85682115251649,13.852464261556866,27.94774246330878,-1.3792808390938713,28.35418499744505,-1.4145060196569172,-0.3009146133333333,0.14292363999999996,-0.72436232,1.1682005733333334,0.7972938868599091,0.8967007595397836,0.8510138776170553,0.8510138776170553
LBP08_S06,LBP08,87,88,6,87,87,1716495351.48,2024-05-23 20:15:51.480000+00:00,2024-05-24 05:15:51.480000+09:00,2024,5,23,20,15,51,480,,,,,,,,,0.113525,-0.721191,0.151611,9.155273,-123.962402,28.381348,,,,,,,,,,,0.0,1.0,1.0,6.0,0.0,0.0,0.0,6.0,0.0,0.042679026666666675,-0.23337564,0.9695735466666667,-0.9806315200000006,-1.092936120000001,3.51399744,-12.350003115594255,-9.16000253106785,14.160618390368644,16.971197363804333,16.490421051273774,14.418888997171612,27.710284847367575,-1.3850446086373178,28.129929088082726,-1.4120973102614305,0.07084597333333333,-0.48781536000000003,-0.8179625466666667,1.37662388,0.9550108403253316,0.9033992138039294,0.8572251128175148,0.8530530337485902
LBP08_S06,LBP08,88,89,6,88,88,1716495351.52,2024-05-23 20:15:51.520000+00:00,2024-05-24 05:15:51.520000+09:00,2024,5,23,20,15,51,520,,,,,,,,,0.355957,0.182373,0.391846,-3.967285,-173.461914,-71.105957,,,,,,,,,,,0.0,1.0,1.0,6.0,0.0,0.0,0.0,6.0,0.0,0.033281240000000004,-0.23106769333333332,0.9734602666666666,-0.8740234400000004,-0.8756509600000008,3.3968099466666666,-8.826755723302542,-9.692072238996413,13.312376969357256,16.618127134872232,16.10273816171392,14.951384075945903,27.550031062812675,-1.4239138139552545,27.96903895086544,-1.408902367281459,0.32267576000000003,0.41344069333333333,-0.5816142666666666,1.31773072,0.7831526084906627,0.9146069284431002,0.854050856448686,0.8517087948013222
LBP08_S06,LBP08,89,90,6,89,89,1716495351.56,2024-05-23 20:15:51.560000+00:00,2024-05-24 05:15:51.560000+09:00,2024,5,23,20,15,51,560,,,,,,,,,0.381592,-0.31665,0.904297,-66.955566,-11.047363,8.056641,,,,,,,,,,,0.0,1.0,1.0,6.0,0.0,0.0,0.0,6.0,0.0,0.03757485333333334,-0.22624347999999997,0.9748567466666667,-0.9895833333333339,-1.0115559066666675,2.83691412,-4.168369214040589,-9.882291755653615,11.649440612004316,16.451392366310607,15.707446491487774,15.417361700426076,27.478486637277157,-1.402047612418539,27.885088152237188,-1.4057825351015405,0.34401714666666666,-0.09040652000000002,-0.07055974666666665,0.5049834133333333,0.3626290307033476,0.9059681884601863,0.8447977448563381,0.842480874724002
LBP08_S06,LBP08,90,91,6,90,90,1716495351.6,2024-05-23 20:15:51.600000+00:00,2024-05-24 05:15:51.600000+09:00,2024,5,23,20,15,51,600,,,,,,,,,-0.298584,0.181152,1.533691,-43.579102,118.896484,59.692383,,,,,,,,,,,0.0,1.0,1.0,6.0,0.0,0.0,0.0,6.0,0.0,0.04003578666666667,-0.22745442666666668,0.9677376,-1.3818359333333339,1.3891602399999994,3.2934570933333336,1.4284007785789081,-9.616693577565673,9.395605219287766,16.508528397453762,15.322778748385147,15.793185909197586,27.508976345621768,-1.392065473641848,27.881872427057306,-1.3999981156840466,-0.3386197866666667,0.4086064266666667,0.5659533999999999,1.3131796133333333,0.7758387866090743,0.8897370987921838,0.8527193777566089,0.841246761981133
LBP08_S06,LBP08,91,92,6,91,91,1716495351.64,2024-05-23 20:15:51.640000+00:00,2024-05-24 05:15:51.640000+09:00,2024,5,23,20,15,51,640,,,,,,,,,-0.362549,-1.157471,1.903564,-26.245117,-57.983398,-16.845703,,,,,,,,,,,0.0,1.0,1.0,6.0,0.0,0.0,0.0,6.0,0.0,0.03280922666666667,-0.22804361333333334,0.9534732799999999,-1.5999348933333337,-0.5460611066666674,2.5260417200000003,7.441277071272103,-8.94558178152495,6.774164647675001,16.806179480304646,14.96495547712415,16.064152495104587,27.648771338750226,-1.4240167317626995,27.954280798818267,-1.3996871481668147,-0.3953582266666667,-0.9294273866666666,0.9500907200000002,2.2748763333333333,1.3866563275408796,0.9102894473356681,0.8594629674437751,0.8511632995367647
LBP08_S06,LBP08,92,93,6,92,92,1716495351.68,2024-05-23 20:15:51.680000+00:00,2024-05-24 05:15:51.680000+09:00,2024,5,23,20,15,51,680,,,,,,,,,0.277344,-0.13501,1.149658,41.259766,71.350098,40.95459,,,,,,,,,,,0.0,1.0,1.0,6.0,0.0,0.0,0.0,6.0,0.0,0.03846677333333334,-0.23258462666666668,0.9588118266666665,0.3458658933333328,-1.8896483466666674,2.748209693333333,12.998500553437106,-7.925507369322493,4.03726502036914,17.32611950244213,14.647935182351251,16.225643095919352,27.893151775936406,-1.4023595969830618,28.089743443532,-1.4006340306817648,0.23887722666666664,0.09757462666666669,0.19084617333333354,0.5272980266666669,0.32094454203970224,0.9086896937656553,0.8566672701583322,0.8416951074386029
LBP08_S06,LBP08,93,94,6,93,93,1716495351.72,2024-05-23 20:15:51.720000+00:00,2024-05-24 05:15:51.720000+09:00,2024,5,23,20,15,51,720,,,,,,,,,-0.497803,0.284668,-0.513916,57.983398,61.706543,20.019531,,,,,,,,,,,0.0,1.0,1.0,6.0,0.0,0.0,0.0,6.0,0.0,0.04241533333333333,-0.22667967999999997,0.9647102666666666,-0.4166666533333339,-2.0019530266666674,2.154947973333333,17.06700347463407,-6.516681957529512,1.484490377736833,18.00879964142749,14.38726790405007,16.285022711028827,28.222549618464893,-1.3810793990641066,28.2695210346268,-1.4025332559552428,-0.5402183333333334,0.51134768,-1.4786262666666667,2.53019228,1.6551881868800997,0.9317849918945822,0.878402777007233,0.8559669158498572
LBP08_S06,LBP08,94,95,6,94,94,1716495351.76,2024-05-23 20:15:51.760000+00:00,2024-05-24 05:15:51.760000+09:00,2024,5,23,20,15,51,760,,,,,,,,,-0.046387,0.179443,-0.002686,60.913086,-111.938477,-29.35791,,,,,,,,,,,0.0,1.0,1.0,6.0,0.0,0.0,0.0,6.0,0.0,0.04187822666666667,-0.2383496,0.9709407333333333,0.05696614666666607,-0.9985350533333341,2.1923828666666663,18.764291287629533,-4.639710394188654,-0.573082655341479,18.759371292932673,14.201679488282524,16.262099404815167,28.601706044327162,-1.3919776041982186,28.469924507031646,-1.4016151625582505,-0.08826522666666667,0.41779259999999996,-0.9736267333333333,1.47968456,1.0631511758515886,0.9508162325895617,0.8833704452613442,0.8595390582636803
LBP08_S06,LBP08,95,96,6,95,95,1716495351.8,2024-05-23 20:15:51.800000+00:00,2024-05-24 05:15:51.800000+09:00,2024,5,23,20,15,51,800,,,,,,,,,0.649658,-0.11084,0.769043,11.108398,-128.601074,-57.617188,,,,,,,,,,,0.0,1.0,1.0,6.0,0.0,0.0,0.0,6.0,0.0,0.03672197333333334,-0.24077147999999998,0.9757714666666667,0.3621419199999994,-1.6137694266666673,1.6381836399999998,17.639177957281653,-2.3506280576461283,-1.8960927631585351,19.46493841122394,14.107654365976678,16.186255694288825,28.98110785431605,-1.415085801913232,28.66419689342169,-1.4001923244394512,0.6129360266666666,0.12993148,-0.20672846666666667,0.9495959733333332,0.6597798278299073,0.9564610354513848,0.8745542974511907,0.8561533085953112
LBP08_S06,LBP08,96,97,6,96,96,1716495351.84,2024-05-23 20:15:51.840000+00:00,2024-05-24 05:15:51.840000+09:00,2024,5,23,20,15,51,840,,,,,,,,,0.411621,-0.301514,1.137207,-7.751465,36.010742,16.540527,,,,,,,,,,,0.0,1.0,1.0,6.0,0.0,0.0,0.0,6.0,0.0,0.041451800000000004,-0.23121093333333334,0.9752343466666665,-0.22542318666666725,-0.8178709866666675,1.1791992666666666,13.799230352164104,0.021428110724018637,-2.3954878990907105,20.016907625310505,14.10851149040564,16.090436178325195,29.3023689104461,-1.3887496642433703,28.825566077612017,-1.3975943406911504,0.37016920000000003,-0.07030306666666666,0.16197265333333355,0.6024449200000003,0.41012546646022613,0.94786396547881,0.8677334567517778,0.8487195112263931
LBP08_S06,LBP08,97,98,6,97,97,1716495351.88,2024-05-23 20:15:51.880000+00:00,2024-05-24 05:15:51.880000+09:00,2024,5,23,20,15,51,880,,,,,,,,,-0.383301,-0.357666,1.786865,-13.427734,76.538086,33.38623,,,,,,,,,,,0.0,1.0,1.0,6.0,0.0,0.0,0.0,6.0,0.0,0.03857094666666667,-0.23570312000000002,0.9645474933333334,-2.329915373333334,1.3240560933333327,1.6137695733333333,7.858431857385456,1.9236877900598224,-2.152416474059942,20.331244899605924,14.185459002008033,16.004339519362798,29.508060758315523,-1.4040368613720977,28.931028528271003,-1.394159586216044,-0.42187194666666666,-0.12196287999999997,0.8223175066666665,1.366152333333333,0.9322322485586413,0.9428770692352293,0.8555484790012049,0.8500885724941348
LBP08_S06,LBP08,98,99,6,98,98,1716495351.92,2024-05-23 20:15:51.920000+00:00,2024-05-24 05:15:51.920000+09:00,2024,5,23,20,15,51,920,,,,,,,,,-0.125732,-0.682373,2.075928,3.356934,-40.283203,-11.779785,,,,,,,,,,,0.0,1.0,1.0,6.0,0.0,0.0,0.0,6.0,0.0,0.03587564000000001,-0.23467773333333336,0.9513118133333334,-2.4064127600000007,-1.7179360933333339,0.3279622799999998,0.7651114371051102,2.829326844636189,-1.3706229223419288,20.36184935709013,14.29863207579348,15.94951460246912,29.554065786861166,-1.4147328799853292,28.96461794044245,-1.3949339594504917,-0.16160764000000002,-0.44769526666666665,1.1246161866666669,1.7339190933333335,1.2211918966381912,0.96212288840296,0.863236438695485,0.8560741099803294
LBP08_S06,LBP08,99,100,6,99,99,1716495351.96,2024-05-23 20:15:51.960000+00:00,2024-05-24 05:15:51.960000+09:00,2024,5,23,20,15,51,960,,,,,,,,,0.1875,-0.457764,1.364746,-12.756348,129.272461,26.062012,,,,,,,,,,,0.0,1.0,1.0,6.0,0.0,0.0,0.0,6.0,0.0,0.04243164000000001,-0.23591472,0.9584797733333332,-0.6974283866666671,-3.200683493333334,-0.27669266666666675,-6.402376739605629,2.5402606896064945,-0.3039874476406353,20.105754287505903,14.40024250337774,15.937355104563496,29.42121050117763,-1.3878192312305486,28.919010808002632,-1.395723887182967,0.14506836,-0.22184928,0.4062662266666668,0.7731838666666668,0.48509192844200105,0.9030465430206313,0.8639744479088449,0.8501855039241654
LBP08_S06,LBP08,100,101,6,100,100,1716495352.0,2024-05-23 20:15:52+00:00,2024-05-24 05:15:52+09:00,2024,5,23,20,15,52,0,20.0,15.0,50.0,40.785133,141.621429,-4.594,3.0,14.0,-0.605957,0.27002,-0.377686,6.225586,58.837891,-1.342773,-546.0,28.0,593.0,168.0,0.0,1019.700012,23.719999,0.066396,-53.531441,3.832031,0.0,1.0,1.0,6.0,0.0,0.0,0.0,4.0,0.0,0.04676433333333334,-0.23130533333333334,0.9685774266666668,1.0131835999999994,-2.1012368800000005,-0.9440103866666667,-12.61287932834941,1.3417174311188564,0.7885529825808657,19.601239114371925,14.453911200622494,15.96889722386673,29.122668187525036,-1.3660856361588392,28.795259990128365,-1.3980426429109791,-0.6527213333333333,0.5013253333333333,-1.3462634266666669,2.5003100933333333,1.5779091997990562,0.9293701651375262,0.8838817773638101,0.8615561866722106
LBP08_S06,LBP08,101,102,6,101,101,1716495352.04,2024-05-23 20:15:52.040000+00:00,2024-05-24 05:15:52.040000+09:00,2024,5,23,20,15,52,40,,,,,,,,,-0.029297,0.018311,0.111084,-12.573242,-101.68457,-26.855469,,,,,,,,,,,0.0,1.0,1.0,6.0,0.0,0.0,0.0,4.0,0.0,0.041015640000000006,-0.22987630666666667,0.97716792,1.5942382933333328,0.19042978666666613,-0.6811523200000001,-17.018169152957967,-0.10962915483420536,1.64408624078297,18.920512348253606,14.449526034429127,16.03466067349805,28.7033958453401,-1.389669187011636,28.601419548082198,-1.39774637398502,-0.07031264000000001,0.24818730666666666,-0.86608392,1.1845838666666668,0.9036825565522387,0.9405430523072214,0.8808929312609642,0.8622042846703649
LBP08_S06,LBP08,102,103,6,102,102,1716495352.08,2024-05-23 20:15:52.080000+00:00,2024-05-24 05:15:52.080000+09:00,2024,5,23,20,15,52,80,,,,,,,,,0.482422,-0.123291,0.637451,-3.479004,-135.314941,-46.691895,,,,,,,,,,,0.0,1.0,1.0,6.0,0.0,0.0,0.0,4.0,0.0,0.03637046666666667,-0.2302767066666667,0.9850162266666667,1.4355468799999995,-0.5444334933333338,-1.4078775733333335,-19.05923066747501,-1.1157703409459714,1.9826053122399168,18.158143121554605,14.404895220791287,16.113964885987645,28.229045897650867,-1.4101033293275387,28.351039025226555,-1.397821670905789,0.44605153333333336,0.1069857066666667,-0.34756522666666667,0.9006024666666668,0.5755080352243879,0.9244685789731929,0.8773396198639908,0.8578604021030016
LBP08_S06,LBP08,103,104,6,103,103,1716495352.12,2024-05-23 20:15:52.120000+00:00,2024-05-24 05:15:52.120000+09:00,2024,5,23,20,15,52,120,,,,,,,,,0.381836,-0.234131,1.104248,-54.199219,6.225586,34.606934,,,,,,,,,,,0.0,1.0,1.0,6.0,0.0,0.0,0.0,4.0,0.0,0.03979494666666668,-0.22177410666666664,0.9773990399999999,-0.3483072933333341,0.39143890666666625,-1.4493814800000002,-18.55150558336402,-1.2860929517551292,1.5298796050368322,17.416082898220044,14.353451502721082,16.17516007018912,27.766478294066737,-1.3889786763888605,28.06187981871045,-1.395160442425785,0.34204105333333334,-0.012356893333333369,0.12684896,0.4812469066666667,0.3650142923658047,0.8887387058945693,0.878334591910561,0.8505044900173717
LBP08_S06,LBP08,104,105,6,104,104,1716495352.16,2024-05-23 20:15:52.160000+00:00,2024-05-24 05:15:52.160000+09:00,2024,5,23,20,15,52,160,,,,,,,,,-0.334961,-0.370605,1.668457,-42.175293,47.302246,26.428223,,,,,,,,,,,0.0,1.0,1.0,6.0,0.0,0.0,0.0,4.0,0.0,0.03339846666666667,-0.21827149333333334,0.9504101066666667,-1.114095053333334,1.135254013333333,-1.1092122000000002,-15.734510212308573,-0.6822560160656236,0.10141173981742599,16.786702489727702,14.326161262078458,16.179216539781816,27.36419786558446,-1.4151651614783396,27.754354471380573,-1.3955383033311057,-0.3683594666666667,-0.15233350666666667,0.7180468933333334,1.2387398666666667,0.8212706831258291,0.8826311534049844,0.8673486780022689,0.8500745810924961
LBP08_S06,LBP08,105,106,6,105,105,1716495352.2,2024-05-23 20:15:52.200000+00:00,2024-05-24 05:15:52.200000+09:00,2024,5,23,20,15,52,200,,,,,,,,,-0.10376,-0.617188,1.802246,30.517578,-0.427246,0.610352,,,,,,,,,,,0.0,1.0,1.0,6.0,0.0,0.0,0.0,4.0,0.0,0.03412762666666667,-0.21881837333333332,0.9411067200000001,-1.0563151066666676,-2.6114907733333337,-1.4152017866666666,-11.25438410441358,0.320964286122697,-2.2842748835547733,16.336527125551157,14.338999833523365,16.087845544439624,27.042703433854346,-1.4121231126536407,27.448883417712818,-1.3993812316142211,-0.13788762666666668,-0.39836962666666664,0.86113928,1.3973965333333331,0.9587868462787877,0.862145626559451,0.8720746585563091,0.8516501211676597
LBP08_S06,LBP08,106,107,6,106,106,1716495352.24,2024-05-23 20:15:52.240000+00:00,2024-05-24 05:15:52.240000+09:00,2024,5,23,20,15,52,240,,,,,,,,,0.154541,0.005371,1.043701,-21.606445,128.78418,25.024414,,,,,,,,,,,0.0,1.0,1.0,6.0,0.0,0.0,0.0,4.0,0.0,0.03952476,-0.22120443999999997,0.94944656,1.1246744799999993,-3.934732973333334,-2.1883137733333333,-6.0592471384239746,1.338535136287985,-5.336690230329147,16.094157240014198,14.392541238974884,15.874377935226457,26.79856368188972,-1.3895026334510585,27.161992907335446,-1.4033080427926983,0.11501624000000002,0.22657543999999996,0.09425443999999994,0.4358461199999999,0.27101487954473047,0.8342805417417095,0.8640446339388821,0.8433553320016179
LBP08_S06,LBP08,107,108,6,107,107,1716495352.28,2024-05-23 20:15:52.280000+00:00,2024-05-24 05:15:52.280000+09:00,2024,5,23,20,15,52,280,,,,,,,,,-0.408447,0.134521,-0.20874,-2.868652,44.98291,-4.333496,,,,,,,,,,,0.0,1.0,1.0,6.0,0.0,0.0,0.0,4.0,0.0,0.04198570666666667,-0.21977214666666664,0.9577994266666667,3.0126953199999993,-2.10205068,-1.8701171600000002,-1.2210718075616964,2.217182579559841,-8.531049627762327,16.04531436771173,14.481228542157277,15.533135950115964,26.61646869315447,-1.3774245765720596,26.902214507959677,-1.4102374349357985,-0.4504327066666667,0.35429314666666667,-1.1665394266666667,1.97126528,1.2997028471838565,0.8587187755257125,0.8752406331874638,0.849782761792917
LBP08_S06,LBP08,108,109,6,108,108,1716495352.32,2024-05-23 20:15:52.320000+00:00,2024-05-24 05:15:52.320000+09:00,2024,5,23,20,15,52,320,,,,,,,,,-0.087158,-0.077881,0.201904,16.723633,-84.960938,-62.805176,,,,,,,,,,,0.0,1.0,1.0,6.0,0.0,0.0,0.0,4.0,0.0,0.032796253333333344,-0.21902018666666667,0.9633560666666667,4.065755213333333,-0.4541014666666672,-1.6373697733333334,2.2748113157740066,3.0495721279798236,-11.256356774442937,16.13630682034269,14.60321142727647,15.082881679138247,26.478812313562333,-1.4185114890385355,26.667737182846317,-1.411194156607927,-0.11995425333333334,0.14113918666666667,-0.7614520666666668,1.0225455066666669,0.7836571589264171,0.8558878474615459,0.8633437311879891,0.8488643506419934
LBP08_S06,LBP08,109,110,6,109,109,1716495352.36,2024-05-23 20:15:52.360000+00:00,2024-05-24 05:15:52.360000+09:00,2024,5,23,20,15,52,360,,,,,,,,,0.47168,-0.026855,0.709717,-2.197266,-124.755859,-54.260254,,,,,,,,,,,0.0,1.0,1.0,6.0,0.0,0.0,0.0,4.0,0.0,0.03189130666666667,-0.22477538666666666,0.9698144,5.073242186666666,-1.3948566800000004,-2.3527018,3.727059901010582,3.966889480122102,-13.010654249019472,16.285389216383113,14.761887006481354,14.562455509177468,26.366499964500097,-1.4262485140617038,26.44742981654057,-1.4113320561829725,0.4397886933333333,0.19792038666666667,-0.2600973999999999,0.89780648,0.5479390766580565,0.8275552678184502,0.8593958475177597,0.8447420866148162
LBP08_S06,LBP08,110,111,6,110,110,1716495352.4,2024-05-23 20:15:52.400000+00:00,2024-05-24 05:15:52.400000+09:00,2024,5,23,20,15,52,400,,,,,,,,,0.409668,-0.352051,1.1604,-9.033203,10.009766,5.432129,,,,,,,,,,,0.0,1.0,1.0,6.0,0.0,0.0,0.0,4.0,0.0,0.03640302666666667,-0.22364257333333332,0.9649804266666668,4.086914066666666,0.6429037333333328,-1.90104164,2.866333082790291,4.887074807646794,-13.54769017850006,16.400042539694724,14.957369998787225,14.020547902037466,26.253763083751323,-1.4053537479436105,26.225274814524692,-1.4097090267789965,0.3732649733333333,-0.1284084266666667,0.19541957333333326,0.6970929733333333,0.4404591626908501,0.814129259663183,0.8650350802940666,0.8392788038590869
LBP08_S06,LBP08,111,112,6,111,111,1716495352.44,2024-05-23 20:15:52.440000+00:00,2024-05-24 05:15:52.440000+09:00,2024,5,23,20,15,52,440,,,,,,,,,-0.216309,-0.32373,1.643066,15.563965,34.973145,29.35791,,,,,,,,,,,0.0,1.0,1.0,6.0,0.0,0.0,0.0,4.0,0.0,0.02410158666666667,-0.2203776,0.9386425333333334,3.553059906666666,0.900878986666666,-2.08902992,-0.0727666174383098,5.434469382840507,-12.90812511621949,16.397131874997193,15.174748774100845,13.504222897388686,26.105611851582427,-1.4589631084426358,25.986389836322086,-1.4115907270910821,-0.24041058666666668,-0.10335240000000001,0.7044234666666666,1.0481864533333334,0.7514595060000606,0.8122958844287892,0.8544983219842863,0.8381078798876332
LBP08_S06,LBP08,112,113,6,112,112,1716495352.48,2024-05-23 20:15:52.480000+00:00,2024-05-24 05:15:52.480000+09:00,2024,5,23,20,15,52,480,,,,,,,,,-0.044678,-0.341064,1.980469,53.771973,9.94873,-23.4375,,,,,,,,,,,0.0,1.0,1.0,6.0,0.0,0.0,0.0,4.0,0.0,0.03539064,-0.23958333333333334,0.9447069866666667,4.102376319999999,-2.471516840000001,-2.702636693333333,-4.376708465768502,5.114813750350366,-11.342559765391076,16.222063536366452,15.37934132411486,13.050520506773044,25.884272646517243,-1.4196705460488248,25.721958861166303,-1.4143937793379835,-0.08006864,-0.10148066666666664,1.0357620133333332,1.2173113199999999,1.0437970401772945,0.8158473324228676,0.8596232731133985,0.8434325193526324
LBP08_S06,LBP08,113,114,6,113,113,1716495352.52,2024-05-23 20:15:52.520000+00:00,2024-05-24 05:15:52.520000+09:00,2024,5,23,20,15,52,520,,,,,,,,,0.061279,-0.379395,1.134766,-55.725098,155.700684,17.578125,,,,,,,,,,,0.0,1.0,1.0,6.0,0.0,0.0,0.0,4.0,0.0,0.04019532000000001,-0.22628579999999998,0.9514485333333332,5.3702799599999995,-3.0631509466666675,-3.4977213333333337,-8.987286540779774,3.6327644835533546,-9.194756237227358,15.862572074735262,15.524651903456993,12.68273025728395,25.5634046310093,-1.3903576721393156,25.431218864642904,-1.4180999763613467,0.021083679999999994,-0.1531092,0.1833174666666667,0.3575103466666667,0.2397753996390515,0.7941122440688033,0.8543595862559518,0.8340713189887251
LBP08_S06,LBP08,114,115,6,114,114,1716495352.56,2024-05-23 20:15:52.560000+00:00,2024-05-24 05:15:52.560000+09:00,2024,5,23,20,15,52,560,,,,,,,,,-0.462402,0.061768,-0.201416,-37.475586,22.460938,-16.662598,,,,,,,,,,,0.0,1.0,1.0,6.0,0.0,0.0,0.0,4.0,0.0,0.04009116,-0.23779946666666665,0.9563345999999999,4.6077474,-1.960449133333334,-2.736816386666667,-12.732530325936832,1.1292250771273118,-6.815847633397988,15.353270861697789,15.569820906542086,12.410096351948031,25.142647845425653,-1.3989348674385786,25.1205959654823,-1.417769732096987,-0.50249316,0.29956746666666667,-1.1577506,1.9598112266666665,1.2971609363268035,0.8314935202937415,0.8687308543769641,0.8403630033354725
LBP08_S06,LBP08,115,116,6,115,115,1716495352.6,2024-05-23 20:15:52.600000+00:00,2024-05-24 05:15:52.600000+09:00,2024,5,23,20,15,52,600,,,,,,,,,-0.02002,-0.078857,0.178955,-8.789062,-92.895508,-23.498535,,,,,,,,,,,0.0,1.0,1.0,6.0,0.0,0.0,0.0,4.0,0.0,0.031959640000000004,-0.2335449066666667,0.95799476,4.893391933333333,-1.862792880000001,-2.70751952,-14.60142876334968,-1.8332703823473393,-4.534379918752162,14.769213711163802,15.496490091248193,12.228721155197945,24.65385365182831,-1.4309401157744968,24.80166660194069,-1.4173335342193418,-0.05197964000000001,0.1546879066666667,-0.77903976,0.9857073066666666,0.7959479751241927,0.8322978878343461,0.861017493313265,0.845912214449188
LBP08_S06,LBP08,116,117,6,116,116,1716495352.64,2024-05-23 20:15:52.640000+00:00,2024-05-24 05:15:52.640000+09:00,2024,5,23,20,15,52,640,,,,,,,,,0.473633,0.02124,0.719971,13.061523,-121.276855,-45.715332,,,,,,,,,,,0.0,1.0,1.0,6.0,0.0,0.0,0.0,4.0,0.0,0.03535156,-0.23548826666666667,0.9590526933333333,4.3725586,-2.0906574666666677,-2.8369140533333335,-13.984251351884568,-4.533494112248855,-2.6560543590042154,14.20984365708842,15.31515032675824,12.122478980837776,24.154253930331873,-1.417533155920075,24.48961928260936,-1.418787557980071,0.43828144,0.25672826666666665,-0.2390816933333333,0.9340914,0.5613912001815479,0.799287282739973,0.8547883650378205,0.8394044058758412
LBP08_S06,LBP08,117,118,6,117,117,1716495352.68,2024-05-23 20:15:52.680000+00:00,2024-05-24 05:15:52.680000+09:00,2024,5,23,20,15,52,680,,,,,,,,,0.226074,-0.358643,1.067871,-53.710938,-2.01416,26.184082,,,,,,,,,,,0.0,1.0,1.0,6.0,0.0,0.0,0.0,4.0,0.0,0.035631506666666674,-0.23261066666666663,0.9499674133333332,4.230143239999999,-0.124511640000001,-2.48860676,-10.813999978832173,-6.422179822569003,-1.4464220936676182,13.777283657935133,15.05826313385548,12.064622097091071,23.709068727920453,-1.414486546805689,24.20252194259144,-1.4170078214620134,0.19044249333333332,-0.12603233333333336,0.11790358666666678,0.4343784133333335,0.25700923730738817,0.7967298705506803,0.8527097821581678,0.8366881369557816
LBP08_S06,LBP08,118,119,6,118,118,1716495352.72,2024-05-23 20:15:52.720000+00:00,2024-05-24 05:15:52.720000+09:00,2024,5,23,20,15,52,720,,,,,,,,,-0.277832,-0.343994,1.677979,-2.258301,32.836914,24.230957,,,,,,,,,,,0.0,1.0,1.0,6.0,0.0,0.0,0.0,4.0,0.0,0.036145840000000005,-0.23739907999999998,0.94697588,3.9477539199999994,-1.6503905466666675,-2.43977864,-5.57975098887269,-7.300264577438792,-1.0723120553539387,13.554093618380225,14.766252550757928,12.021729614876914,23.372583321956288,-1.4152090463949418,23.960394741215215,-1.4187210724032473,-0.31397784,-0.10659492000000004,0.7310031200000001,1.1515758800000002,0.8026893062889319,0.7626299153270337,0.8472074536108078,0.8398118231138333
LBP08_S06,LBP08,119,120,6,119,119,1716495352.76,2024-05-23 20:15:52.760000+00:00,2024-05-24 05:15:52.760000+09:00,2024,5,23,20,15,52,760,,,,,,,,,-0.036377,-0.536621,1.717529,-2.13623,-2.929688,2.502441,,,,,,,,,,,0.0,1.0,1.0,6.0,0.0,0.0,0.0,4.0,0.0,0.03380209333333334,-0.23180989333333335,0.9478482666666666,2.378743506666666,-1.3761392533333343,-2.7189127600000003,0.789598449865229,-7.255709771498907,-1.5271631733099,13.585677556374835,14.476024159897971,11.960643087944518,23.177206329084004,-1.4218865352852499,23.783019550907945,-1.422612612088613,-0.07017909333333333,-0.30481110666666666,0.7696807333333335,1.1446709333333336,0.8308088511522881,0.7533362223390617,0.8520762274643119,0.84002570428725
LBP08_S06,LBP08,120,121,6,120,120,1716495352.8,2024-05-23 20:15:52.800000+00:00,2024-05-24 05:15:52.800000+09:00,2024,5,23,20,15,52,800,,,,,,,,,0.054443,-0.342773,0.766602,4.150391,129.943848,27.038574,,,,,,,,,,,0.0,1.0,1.0,6.0,0.0,0.0,0.0,4.0,0.0,0.035126960000000006,-0.23797526666666666,0.9506672799999999,3.6637369999999994,-0.8227538400000008,-2.1158854133333334,7.151408010133645,-6.457088558926652,-2.6000349759039563,13.87173387678018,14.217740617540905,11.85664168890836,23.133289890438043,-1.4198939855509034,23.686452234775295,-1.4267892226104804,0.019316039999999993,-0.10479773333333334,-0.1840652799999999,0.30817905333333323,0.21268686281612317,0.7354525037385103,0.8459567695949477,0.8281870328802973
LBP08_S06,LBP08,121,122,6,121,121,1716495352.84,2024-05-23 20:15:52.840000+00:00,2024-05-24 05:15:52.840000+09:00,2024,5,23,20,15,52,840,,,,,,,,,-0.347656,0.081055,-0.223389,16.357422,9.70459,-10.009766,,,,,,,,,,,0.0,1.0,1.0,6.0,0.0,0.0,0.0,4.0,0.0,0.029827480000000003,-0.23556316,0.9539582933333333,3.823242213333333,-1.2540689466666675,-1.2996419333333329,12.437354532716771,-4.996211640943072,-3.9348370576701357,14.36922805808885,14.017892151903181,11.699248206601554,23.23463845140325,-1.4411657432620597,23.679361494903027,-1.4283554494184798,-0.37748348000000004,0.31661816,-1.1773472933333333,1.8714489333333333,1.2762787650172756,0.7700986356807923,0.8589813005798012,0.8351885163947826
LBP08_S06,LBP08,122,123,6,122,122,1716495352.88,2024-05-23 20:15:52.880000+00:00,2024-05-24 05:15:52.880000+09:00,2024,5,23,20,15,52,880,,,,,,,,,-0.069824,0.027832,0.058594,76.843262,-108.398438,-55.114746,,,,,,,,,,,0.0,1.0,1.0,6.0,0.0,0.0,0.0,4.0,0.0,0.0300586,-0.2291731866666667,0.95726232,4.604492213333333,-1.0310871866666675,-2.2111002666666666,15.926428475981055,-2.9124913790111324,-5.171387713325292,15.006285197128094,13.901392496742735,11.492392698068542,23.46300063275497,-1.436803055461163,23.760803952730136,-1.4315293988540558,-0.0998826,0.2570051866666667,-0.89866832,1.2555561066666667,0.9400175259685059,0.7704100467771869,0.8566435580062081,0.827169001593199
LBP08_S06,LBP08,123,124,6,123,123,1716495352.92,2024-05-23 20:15:52.920000+00:00,2024-05-24 05:15:52.920000+09:00,2024,5,23,20,15,52,920,,,,,,,,,0.580322,-0.044922,0.756104,10.253906,-125.732422,-46.936035,,,,,,,,,,,0.0,1.0,1.0,6.0,0.0,0.0,0.0,4.0,0.0,0.03213216,-0.23189454666666667,0.95917964,3.047688826666666,-0.7088215600000008,-2.249348973333333,17.414943437459694,-0.36686304223974553,-6.100255538167763,15.702882934626482,13.886717975053145,11.248382476541831,23.78965272793659,-1.4292730689929722,23.920614609467233,-1.4339737211597623,0.54818984,0.18697254666666668,-0.20307564,0.9382380266666668,0.6137675043920573,0.7461130710873415,0.8541179797451508,0.8241953161594373
LBP08_S06,LBP08,124,125,6,124,124,1716495352.96,2024-05-23 20:15:52.960000+00:00,2024-05-24 05:15:52.960000+09:00,2024,5,23,20,15,52,960,,,,,,,,,0.393311,-0.335693,1.212402,18.188477,28.747559,18.310547,,,,,,,,,,,0.0,1.0,1.0,6.0,0.0,0.0,0.0,4.0,0.0,0.02977213333333334,-0.23408205333333332,0.9621256133333335,2.448730493333333,-0.48746738666666756,-2.2509765733333333,17.21965710087458,2.212839956090432,-6.741681763738644,16.391669218661466,13.975231573296762,10.978715205992286,24.17697468409914,-1.4407009726572535,24.14239898073847,-1.435220679445965,0.3635388666666667,-0.1016109466666667,0.2502763866666665,0.7154261999999999,0.4529056875141925,0.7448256214502292,0.8239360822354301,0.8242581724226397
LBP08_S06,LBP08,125,126,6,125,125,1716495353.0,2024-05-23 20:15:53+00:00,2024-05-24 05:15:53+09:00,2024,5,23,20,15,53,0,20.0,15.0,51.0,40.785236,141.621445,-4.489,3.0,15.0,-0.378906,-0.340576,1.708984,-12.573242,57.800293,29.663086,-539.0,28.0,589.0,219.0,0.0,1019.700012,23.780001,0.066396,-53.531441,3.832031,0.0,1.0,1.0,6.0,0.0,0.0,0.0,5.0,0.0,0.027298186666666665,-0.2244759333333333,0.96028968,2.6521810133333332,0.12939458666666573,-2.5789388133333335,16.01050540322499,4.192453207026038,-7.299025040569049,17.032089434790464,14.142929701577804,10.686754204369525,24.582946253105675,-1.4466023838544892,24.407768068083477,-1.4349913726056627,-0.4062041866666667,-0.1161000666666667,0.74869432,1.2709985733333333,0.8596651973563866,0.7160958613525223,0.8227330132450242,0.8279531386933808
LBP08_S06,LBP08,126,127,6,126,126,1716495353.04,2024-05-23 20:15:53.040000+00:00,2024-05-24 05:15:53.040000+09:00,2024,5,23,20,15,53,40,,,,,,,,,-0.063477,-0.348145,1.930664,16.845703,11.71875,-15.014648,,,,,,,,,,,0.0,1.0,1.0,6.0,0.0,0.0,0.0,5.0,0.0,0.0272754,-0.22954754666666669,0.9596028266666667,2.107747413333333,0.199381559999999,-2.049967453333333,14.540833066395935,5.014680307669658,-8.017355462197349,17.6137227574463,14.34351691388459,10.36605998588163,24.96867850860296,-1.4492726502758362,24.699925696340486,-1.4362082595183059,-0.09075240000000001,-0.1185974533333333,0.9710611733333332,1.1804110266666665,0.9824770513342396,0.7192476411438024,0.8298953467255119,0.8270111678885769
LBP08_S06,LBP08,127,128,6,127,127,1716495353.08,2024-05-23 20:15:53.080000+00:00,2024-05-24 05:15:53.080000+09:00,2024,5,23,20,15,53,80,,,,,,,,,0.132568,-0.247803,1.215332,-19.714355,159.362793,33.02002,,,,,,,,,,,0.0,1.0,1.0,6.0,0.0,0.0,0.0,5.0,0.0,0.029482426666666665,-0.22834964000000005,0.9619823866666667,2.749023453333333,-0.15380854666666763,-2.1036784,13.385162837929567,4.533113855713448,-9.037515058705136,18.149129270963485,14.524841468113129,10.004559383533426,25.307175295291433,-1.4389297698627521,25.005474313064262,-1.4357561125862444,0.10308557333333332,-0.019453359999999947,0.2533496133333334,0.37588854666666666,0.27420994734126836,0.7071957176284777,0.8158321483008352,0.8206249857854864
LBP08_S06,LBP08,128,129,6,128,128,1716495353.12,2024-05-23 20:15:53.120000+00:00,2024-05-24 05:15:53.120000+09:00,2024,5,23,20,15,53,120,,,,,,,,,-0.429199,-0.015625,-0.192627,-30.029297,13.183594,-17.089844,,,,,,,,,,,0.0,1.0,1.0,6.0,0.0,0.0,0.0,5.0,0.0,0.03307942666666667,-0.23621096,0.9636360399999999,3.0021159066666665,-0.7137043733333343,-1.8302409066666663,12.786179943876474,3.1605942078691305,-10.331180988327661,18.660576468718546,14.651265236427895,9.59131214400032,25.590427034668664,-1.4276786292569688,25.314640595040483,-1.4355945107016455,-0.4622784266666667,0.22058596,-1.1562630399999998,1.8391274266666664,1.2646358081204927,0.743180578258665,0.8159596420766172,0.8332832540265958
LBP08_S06,LBP08,129,130,6,129,129,1716495353.16,2024-05-23 20:15:53.160000+00:00,2024-05-24 05:15:53.160000+09:00,2024,5,23,20,15,53,160,,,,,,,,,0.019775,-0.251221,0.179688,72.265625,-118.713379,-42.541504,,,,,,,,,,,0.0,1.0,1.0,6.0,0.0,0.0,0.0,5.0,0.0,0.034557293333333336,-0.23317385333333335,0.96566404,3.548177106666666,-0.09765620000000093,-1.3932291866666666,12.660923265967284,1.7006145355458995,-11.743121067987966,19.167013399357238,14.719289817849731,9.121587301280801,25.830897202534057,-1.4195934668822279,25.620825143903357,-1.436359646664288,-0.014782293333333335,-0.01804714666666668,-0.78597604,0.81880548,0.7863221675325467,0.7417826376349338,0.8122068955199592,0.8254933312131573
LBP08_S06,LBP08,130,131,6,130,130,1716495353.2,2024-05-23 20:15:53.200000+00:00,2024-05-24 05:15:53.200000+09:00,2024,5,23,20,15,53,200,,,,,,,,,0.458496,0.293213,0.766846,41.442871,-119.20166,-69.030762,,,,,,,,,,,0.0,1.0,1.0,6.0,0.0,0.0,0.0,5.0,0.0,0.03223958666666667,-0.23758465333333334,0.9701008933333335,3.1469726799999997,-0.2335611466666676,-1.5950521066666665,12.741466813648968,0.9377411668850144,-13.095653433834327,19.676672071903198,14.756799464525132,8.597761163927428,26.05486617300813,-1.432062854677336,25.920088744032604,-1.4356962735498269,0.42625641333333336,0.5307976533333334,-0.20325489333333346,1.16030896,0.7104598724459502,0.7318495586816204,0.7969975926205356,0.8253329585980794
LBP08_S06,LBP08,131,132,6,131,131,1716495353.24,2024-05-23 20:15:53.240000+00:00,2024-05-24 05:15:53.240000+09:00,2024,5,23,20,15,53,240,,,,,,,,,0.440186,-0.620605,1.373291,11.901855,18.615723,-1.098633,,,,,,,,,,,0.0,1.0,1.0,6.0,0.0,0.0,0.0,5.0,0.0,0.03114258666666667,-0.23739585333333332,0.9730728933333334,2.460123733333333,0.37272139999999904,-1.6520182533333332,12.75950316884871,1.233899085251348,-14.271196114696236,20.187052198657145,14.806155427935186,8.02691331933958,26.29012461864101,-1.4366442739414444,26.210589240115286,-1.433606389429735,0.4090434133333333,-0.3832091466666666,0.4002181066666667,1.1924706666666665,0.6887236724436226,0.748557910397576,0.7914192260696428,0.8255490594251133
LBP08_S06,LBP08,132,133,6,132,132,1716495353.28,2024-05-23 20:15:53.280000+00:00,2024-05-24 05:15:53.280000+09:00,2024,5,23,20,15,53,280,,,,,,,,,-0.11499,-0.680664,1.983643,45.10498,30.761719,19.287109,,,,,,,,,,,0.0,1.0,1.0,6.0,0.0,0.0,0.0,5.0,0.0,0.03165692,-0.23878582666666665,0.9716634,1.4957682666666665,0.257975306666666,-1.7692057599999997,12.5682497875767,2.378799087852829,-15.21040076047799,20.689782190160212,14.901307391449299,7.4184972889204595,26.554663452517197,-1.4351870366151747,26.491773350007094,-1.4309223689029547,-0.14664692,-0.4418781733333334,1.0119796,1.6005046933333333,1.1139409095773662,0.7411274328933163,0.7999231042095144,0.8305362330894148
LBP08_S06,LBP08,133,134,6,133,133,1716495353.32,2024-05-23 20:15:53.320000+00:00,2024-05-24 05:15:53.320000+09:00,2024,5,23,20,15,53,320,,,,,,,,,0.112549,-0.294922,2.044189,-0.488281,27.404785,-1.281738,,,,,,,,,,,0.0,1.0,1.0,6.0,0.0,0.0,0.0,5.0,0.0,0.031113306666666667,-0.23773113333333332,0.9703417866666666,1.2052409333333332,-0.17985021333333406,-1.6707357066666666,12.145502720337566,3.7649473142527197,-15.836057742916552,21.175602298973715,15.051905284019407,6.785054979203798,26.851498216565318,-1.4369244286193967,26.763361652085415,-1.4306273764256487,0.08143569333333334,-0.0571908666666667,1.0738472133333332,1.2124737733333333,1.0784481466266842,0.752919072401327,0.8044034599314365,0.8265355115924351
LBP08_S06,LBP08,134,135,6,134,134,1716495353.36,2024-05-23 20:15:53.360000+00:00,2024-05-24 05:15:53.360000+09:00,2024,5,23,20,15,53,360,,,,,,,,,-0.034668,-0.442139,0.924072,-84.228516,187.62207,44.128418,,,,,,,,,,,0.0,1.0,1.0,6.0,0.0,0.0,0.0,5.0,0.0,0.032125680000000004,-0.24038086666666664,0.9730566266666667,1.002604213333333,-0.8162434400000007,-1.5405273733333336,11.507634067011452,4.740722325758508,-15.981328225046846,21.635907661654173,15.241534177049747,6.145801850201924,27.16961068539162,-1.4340672415126414,27.024563699891303,-1.4297422392956003,-0.06679368,-0.20175813333333337,-0.0489846266666667,0.31753644000000003,0.2180991373292573,0.7397254748281752,0.7836403713233127,0.8195057232878982
LBP08_S06,LBP08,135,136,6,135,135,1716495353.4,2024-05-23 20:15:53.400000+00:00,2024-05-24 05:15:53.400000+09:00,2024,5,23,20,15,53,400,,,,,,,,,-0.217529,-0.218018,-0.112061,-30.639648,-54.016113,-51.269531,,,,,,,,,,,0.0,1.0,1.0,6.0,0.0,0.0,0.0,5.0,0.0,0.0344206,-0.2426237066666667,0.9731542800000001,0.8683268666666664,-1.113281200000001,-1.293131533333333,10.630467171566513,4.900716459172736,-15.406529831284976,22.061126348516833,15.437562835416657,5.529540656950525,27.487951213932444,-1.4257035426535718,27.274216640810828,-1.4292252769230205,-0.2519496,0.0246057066666667,-1.0852152800000001,1.3617705866666667,1.1143501450110753,0.7666811141209843,0.7904051868920835,0.832250424903039
LBP08_S06,LBP08,136,137,6,136,136,1716495353.44,2024-05-23 20:15:53.440000+00:00,2024-05-24 05:15:53.440000+09:00,2024,5,23,20,15,53,440,,,,,,,,,0.239014,-0.067139,0.351318,103.088379,-139.099121,-66.101074,,,,,,,,,,,0.0,1.0,1.0,6.0,0.0,0.0,0.0,5.0,0.0,0.03512697333333334,-0.24204102666666671,0.9720377466666668,1.6178385733333331,-0.134277293333334,-0.793457053333333,9.46998990236874,4.157019375916067,-13.92274448409989,22.439925944611584,15.6038436104533,4.972630877586529,27.780519607521086,-1.4224324450080321,27.512322087419854,-1.4268952447719456,0.20388702666666667,0.1749020266666667,-0.6207197466666667,0.9995088000000001,0.6763531935882409,0.7636768616245112,0.7879863730266503,0.8242245018643614
LBP08_S06,LBP08,137,138,6,137,137,1716495353.48,2024-05-23 20:15:53.480000+00:00,2024-05-24 05:15:53.480000+09:00,2024,5,23,20,15,53,480,,,,,,,,,0.487061,0.153809,1.005127,49.926758,-53.161621,-54.504395,,,,,,,,,,,0.0,1.0,1.0,6.0,0.0,0.0,0.0,5.0,0.0,0.03154298666666667,-0.23941081333333333,0.9694075333333334,0.9659831066666663,0.1293945866666661,-0.6030273733333331,8.090437059123987,2.624735833685472,-11.550938003427659,22.763543426976543,15.708833043800718,4.510593357449423,28.023058316074625,-1.4359798450896917,27.7426310542753,-1.4249601875066866,0.45551801333333336,0.39321981333333333,0.0357194666666667,0.8844572933333334,0.6028219989084668,0.7460378599737583,0.780942596198313,0.8217614687335183
LBP08_S06,LBP08,138,139,6,138,138,1716495353.52,2024-05-23 20:15:53.520000+00:00,2024-05-24 05:15:53.520000+09:00,2024,5,23,20,15,53,520,,,,,,,,,0.103516,-0.172852,1.565918,32.836914,87.70752,23.193359,,,,,,,,,,,0.0,1.0,1.0,6.0,0.0,0.0,0.0,5.0,0.0,0.03623374666666667,-0.24375977333333335,0.9711295466666666,0.0008138399999997622,-0.8414713066666673,-0.8284505599999998,6.7976277729923,0.492332236947137,-8.602653451165484,23.035448537896237,15.728526333278603,4.1664872194028035,28.202447512727527,-1.4188272579564865,27.974945509541055,-1.422799593379826,0.06728225333333332,0.07090777333333334,0.5947884533333333,0.73297848,0.6027670513153163,0.7605575260408088,0.7773348850548061,0.8230922328509042
LBP08_S06,LBP08,139,140,6,139,139,1716495353.56,2024-05-23 20:15:53.560000+00:00,2024-05-24 05:15:53.560000+09:00,2024,5,23,20,15,53,560,,,,,,,,,-0.217529,-0.516602,2.071533,-11.59668,-5.065918,8.483887,,,,,,,,,,,0.0,1.0,1.0,6.0,0.0,0.0,0.0,5.0,0.0,0.037555359999999996,-0.24547528,0.9737499866666667,0.39469403999999986,-1.3932291200000007,-1.0408529066666665,6.142583270882816,-1.9878405705265128,-5.611852936445235,23.28115186873155,15.649012710457542,3.942013101944994,28.327426611729315,-1.4144238431564302,28.225534533265527,-1.4192544200944517,-0.25508436,-0.27112672000000004,1.0977830133333333,1.6239940933333332,1.1591830197935877,0.7550384093794803,0.7932659648366109,0.8308333727111361
LBP08_S06,LBP08,140,141,6,140,140,1716495353.6,2024-05-23 20:15:53.600000+00:00,2024-05-24 05:15:53.600000+09:00,2024,5,23,20,15,53,600,,,,,,,,,0.096436,-0.169678,1.429199,-29.174805,82.092285,21.54541,,,,,,,,,,,0.0,1.0,1.0,6.0,0.0,0.0,0.0,5.0,0.0,0.03872397333333333,-0.24397462666666664,0.9770084533333333,0.49316409333333316,-0.7934569866666673,-1.0750325866666663,6.743311129522709,-4.416105654270581,-3.1457806435380493,23.550884313912455,15.472368484286719,3.816181876203472,28.435920639098367,-1.4087625331665874,28.5149478652801,-1.4190379972019902,0.057712026666666666,0.07429662666666664,0.4521905466666668,0.5841992000000001,0.46187331298822526,0.7416754228940415,0.7869866553641939,0.8212368031735238
LBP08_S06,LBP08,141,142,6,141,141,1716495353.64,2024-05-23 20:15:53.640000+00:00,2024-05-24 05:15:53.640000+09:00,2024,5,23,20,15,53,640,,,,,,,,,-0.455078,-0.092529,-0.158691,-32.958984,78.00293,33.874512,,,,,,,,,,,0.0,1.0,1.0,6.0,0.0,0.0,0.0,5.0,0.0,0.037181000000000006,-0.24764976,0.9825943866666668,0.6811523733333331,-0.3914387600000007,-1.0237630666666666,9.002384247164287,-6.219430526643208,-1.5988205179999415,23.910979683799027,15.22359126322099,3.752229055483474,28.593214287195533,-1.4172937012888527,28.863961973298473,-1.4179053070933931,-0.492259,0.15512076,-1.1412853866666668,1.7886651466666668,1.2525628555417332,0.7693222891084488,0.7843047859242109,0.8262996730613633
LBP08_S06,LBP08,142,143,6,142,142,1716495353.68,2024-05-23 20:15:53.680000+00:00,2024-05-24 05:15:53.680000+09:00,2024,5,23,20,15,53,680,,,,,,,,,-0.05542,-0.155518,0.01709,-25.756836,-106.262207,-7.873535,,,,,,,,,,,0.0,1.0,1.0,6.0,0.0,0.0,0.0,5.0,0.0,0.03925782666666667,-0.255612,0.9871744666666666,0.8496094,-0.6193033466666672,-1.0644531733333331,12.873257248870047,-6.804704480542748,-1.0753950575320932,24.42590997375383,14.951403083999281,3.7092132531821904,28.877808005174707,-1.41358109534657,29.289273568053893,-1.4153900858641641,-0.09467782666666666,0.10009400000000002,-0.9700844666666666,1.1648562933333333,0.9798196630841179,0.7982347061395181,0.7974822883450992,0.8345514234852845
LBP08_S06,LBP08,143,144,6,143,143,1716495353.72,2024-05-23 20:15:53.720000+00:00,2024-05-24 05:15:53.720000+09:00,2024,5,23,20,15,53,720,,,,,,,,,0.395508,-0.144043,0.611328,80.932617,-165.83252,-69.335938,,,,,,,,,,,0.0,1.0,1.0,6.0,0.0,0.0,0.0,5.0,0.0,0.04182944,-0.2523405066666667,0.9854166533333334,0.7600911733333332,0.30598962666666607,-0.7397461466666665,17.803016429278088,-5.859311135337097,-1.4043971381060611,25.138030630924952,14.717030638585797,3.653037367657948,29.357388453810046,-1.4014726957656536,29.80028577595163,-1.4117968672906294,0.35367856000000003,0.10829750666666668,-0.3740886533333334,0.8360647200000001,0.5260790760965858,0.7871702969318243,0.774900106129429,0.8271950680511466
LBP08_S06,LBP08,144,145,6,144,144,1716495353.76,2024-05-23 20:15:53.760000+00:00,2024-05-24 05:15:53.760000+09:00,2024,5,23,20,15,53,760,,,,,,,,,0.461426,-0.200195,1.108887,14.038086,-14.953613,0.915527,,,,,,,,,,,0.0,1.0,1.0,6.0,0.0,0.0,0.0,5.0,0.0,0.03413413333333333,-0.2520247466666667,0.9763802,0.7999674666666666,0.8772786799999994,-0.5419922399999999,22.879429769781435,-3.6087807866039125,-2.2470340305398246,26.05320782171621,14.57267940712164,3.5631560064363548,30.063744005537387,-1.4319030125880279,30.3973514234302,-1.411842827077683,0.4272918666666667,0.051829746666666676,0.13250679999999992,0.6116284133333333,0.45035842837150863,0.7719522800205931,0.7626442511798273,0.8253682449830722
LBP08_S06,LBP08,145,146,6,145,145,1716495353.8,2024-05-23 20:15:53.800000+00:00,2024-05-24 05:15:53.800000+09:00,2024,5,23,20,15,53,800,,,,,,,,,-0.158936,-0.222412,1.549072,49.987793,92.651367,21.240234,,,,,,,,,,,0.0,1.0,1.0,6.0,0.0,0.0,0.0,5.0,0.0,0.03889976,-0.25464844,0.9799348800000002,0.8308919466666664,-0.5118814800000006,-0.8308919866666664,27.10366262350032,-0.8177051286298495,-3.2176757272823524,27.137354326656222,14.539971201976446,3.4344489773450606,30.978092294116145,-1.4143766415675996,31.071018972235503,-1.4123518436874023,-0.19783576,0.03223643999999998,0.5691371199999998,0.7992093199999998,0.6034030471919622,0.7875809273956266,0.7615167155670685,0.8264981555285074
LBP08_S06,LBP08,146,147,6,146,146,1716495353.84,2024-05-23 20:15:53.840000+00:00,2024-05-24 05:15:53.840000+09:00,2024,5,23,20,15,53,840,,,,,,,,,-0.183105,-0.630615,2.067383,83.740234,-6.958008,-11.84082,,,,,,,,,,,0.0,1.0,1.0,6.0,0.0,0.0,0.0,5.0,0.0,0.04327476,-0.25478190666666667,0.9843001200000001,1.0620117333333334,-1.2524413733333337,-0.6388346933333331,29.659960648290685,1.5231833031511521,-3.959610886864443,28.32375275258785,14.600898534102491,3.276064541870483,32.03363555507531,-1.3972802327157416,31.801710324658234,-1.4128957873923176,-0.22637975999999999,-0.37583309333333337,1.0830828799999999,1.6852957333333332,1.1685747022468242,0.7832727648848086,0.7766857002828005,0.8337451220148037
LBP08_S06,LBP08,147,148,6,147,147,1716495353.88,2024-05-23 20:15:53.880000+00:00,2024-05-24 05:15:53.880000+09:00,2024,5,23,20,15,53,880,,,,,,,,,0.046631,-0.383545,1.601807,-15.686035,116.760254,36.193848,,,,,,,,,,,0.0,1.0,1.0,6.0,0.0,0.0,0.0,5.0,0.0,0.04314454666666667,-0.2583756666666667,0.9886783733333332,0.29296877333333327,-0.36783852000000045,0.19612624000000023,30.078311859904215,2.660025805676009,-4.176009054861196,29.52688522698402,14.707299566329532,3.109024179676035,33.133180395051944,-1.4000476593543445,32.55978609694492,-1.4154692155843556,0.0034864533333333267,-0.1251693333333333,0.6131286266666668,0.7417844133333334,0.6257844918197554,0.7707034435188586,0.7705567451480227,0.8279968531770916
LBP08_S06,LBP08,148,149,6,148,148,1716495353.92,2024-05-23 20:15:53.920000+00:00,2024-05-24 05:15:53.920000+09:00,2024,5,23,20,15,53,920,,,,,,,,,-0.583008,0.056152,-0.293457,-22.033691,86.791992,-4.699707,,,,,,,,,,,0.0,1.0,1.0,6.0,0.0,0.0,0.0,5.0,0.0,0.037809253333333334,-0.2555143333333333,0.9933430933333334,0.5574544533333332,0.547688813333333,0.721842386666667,28.258673410068866,2.4159763711412343,-3.6540448262879455,30.657232163386777,14.803938621175181,2.962862386624517,34.17310398751324,-1.4192868558270224,33.30663171292793,-1.4162588861526673,-0.6208172533333333,0.31166633333333327,-1.2868000933333335,2.21928368,1.462328432867413,0.8046458806578727,0.775379475872607,0.8376272800493915
LBP08_S06,LBP08,149,150,6,149,149,1716495353.96,2024-05-23 20:15:53.960000+00:00,2024-05-24 05:15:53.960000+09:00,2024,5,23,20,15,53,960,,,,,,,,,0.017822,-0.532959,0.137939,35.766602,-98.632812,-35.461426,,,,,,,,,,,0.0,1.0,1.0,6.0,0.0,0.0,0.0,5.0,0.0,0.03839194666666667,-0.26005536,0.99797852,0.2270507999999999,-0.0008138000000003961,0.4142252000000003,24.398622380993615,1.2112679948885705,-2.3085116109016828,31.633177058626522,14.852389340970724,2.8705219221884497,35.064102099782346,-1.419514009253622,33.99762405779204,-1.416087122295542,-0.02056994666666667,-0.27290363999999995,-0.86003952,1.1535131066666666,0.9025339303278018,0.8226310103704171,0.7837283159103232,0.8235010582804259
LBP08_S06,LBP08,150,151,6,150,150,1716495354.0,2024-05-23 20:15:54+00:00,2024-05-24 05:15:54+09:00,2024,5,23,20,15,54,0,20.0,15.0,52.0,40.785339,141.62146,-4.599,3.0,16.0,0.540527,0.326172,0.723145,88.378906,-153.198242,-52.001953,-543.0,19.0,593.0,118.0,0.0,1019.700012,23.85,0.066396,-53.531441,3.832031,0.0,1.0,1.0,6.0,0.0,0.0,0.0,5.0,0.0,0.03970705333333334,-0.25975914666666666,0.9921354133333333,-0.6339518133333335,0.4215494933333329,0.9138996800000003,18.894156546903133,-0.2310632231761626,-0.22836536344665076,32.38894332050265,14.843146812043678,2.861387307650584,35.742834163325654,-1.4142019702157413,34.587278638232,-1.4128225240058325,0.5008199466666666,0.5859311466666667,-0.2689904133333333,1.3557415066666665,0.8163894720527423,0.8208999813582715,0.7684979213553969,0.8221220026161066
LBP08_S06,LBP08,151,152,6,151,151,1716495354.04,2024-05-23 20:15:54.040000+00:00,2024-05-24 05:15:54.040000+09:00,2024,5,23,20,15,54,40,,,,,,,,,0.419922,-0.623779,1.312988,-33.02002,-6.896973,36.499023,,,,,,,,,,,0.0,1.0,1.0,6.0,0.0,0.0,0.0,5.0,0.0,0.0319564,-0.25701174666666665,0.9808007733333333,0.6754557466666665,0.43212891999999975,0.9773762400000002,12.254486341140927,-1.2882657157416106,2.32171204638153,32.879122774148286,14.791616183414012,2.954255789505845,36.173972010062435,-1.443027983209233,35.035790601893964,-1.413150763904998,0.3879656,-0.3667672533333333,0.3321872266666668,1.08692008,0.628795577641517,0.8067527224105625,0.7630001817771824,0.8221811386205288
LBP08_S06,LBP08,152,153,6,152,152,1716495354.08,2024-05-23 20:15:54.080000+00:00,2024-05-24 05:15:54.080000+09:00,2024,5,23,20,15,54,80,,,,,,,,,-0.224854,-0.401123,1.882324,2.990723,65.856934,34.851074,,,,,,,,,,,0.0,1.0,1.0,6.0,0.0,0.0,0.0,5.0,0.0,0.03744468,-0.25706384,0.98446288,1.82291668,-1.120605466666667,0.829264266666667,5.030544549549577,-1.6886523792620438,4.976826513406047,33.08034455613027,14.724070088243531,3.153328850042087,36.34626416500482,-1.4214778010296842,35.315295050405915,-1.4144569455392588,-0.26229868,-0.14405916000000002,0.8978611200000001,1.30421896,0.9464186335429489,0.8336410698586296,0.7704183937435536,0.8217684554867667
LBP08_S06,LBP08,153,154,6,153,153,1716495354.12,2024-05-23 20:15:54.120000+00:00,2024-05-24 05:15:54.120000+09:00,2024,5,23,20,15,54,120,,,,,,,,,-0.036377,-0.841797,2.182861,-20.751953,-15.319824,7.751465,,,,,,,,,,,0.0,1.0,1.0,6.0,0.0,0.0,0.0,5.0,0.0,0.04289390666666667,-0.25629236,0.9890169200000001,1.8750000133333333,-1.8855794266666666,0.2360025466666671,-2.247929875691417,-1.4857025973329328,7.400076524237475,32.99042736110261,14.664641984350213,3.449331911011586,36.26731190245118,-1.3997550571944037,35.414049206579755,-1.4143186716177831,-0.07927090666666667,-0.58550464,1.1938440799999999,1.8586196266666666,1.332052269040645,0.8363377282954357,0.7897591532770505,0.8227523374828901
LBP08_S06,LBP08,154,155,6,154,154,1716495354.16,2024-05-23 20:15:54.160000+00:00,2024-05-24 05:15:54.160000+09:00,2024,5,23,20,15,54,160,,,,,,,,,0.124023,-0.337891,1.222168,-11.291504,152.526855,32.714844,,,,,,,,,,,0.0,1.0,1.0,6.0,0.0,0.0,0.0,5.0,0.0,0.04389,-0.26172204,0.9941764266666666,1.7439778799999999,-0.6249999999999999,0.7918293733333336,-9.112279658935234,-0.846662318996008,9.393386689560847,32.6259361747452,14.630775491590374,3.82506737859402,35.960289809936924,-1.3992570296909328,35.33740076636987,-1.4155168281349506,0.080133,-0.07616896000000001,0.2279915733333333,0.3842935333333333,0.253383436055892,0.8150201790363697,0.7784014083356517,0.813144656692096
LBP08_S06,LBP08,155,156,6,155,155,1716495354.2,2024-05-23 20:15:54.200000+00:00,2024-05-24 05:15:54.200000+09:00,2024,5,23,20,15,54,200,,,,,,,,,-0.526611,0.258545,-0.26709,21.057129,18.859863,1.586914,,,,,,,,,,,0.0,1.0,1.0,6.0,0.0,0.0,0.0,5.0,0.0,0.039052760000000006,-0.2612988533333333,1.0011360666666667,3.2519531466666662,0.5582682266666668,0.9635416133333337,-15.157739249242114,0.13373132825160478,10.929536001202393,32.01962660477552,14.636124744720437,4.2622488186421155,35.4632119307358,-1.417659040559254,35.10551348822059,-1.4155907308396662,-0.5656637600000001,0.5198438533333334,-1.2682260666666667,2.3537336800000004,1.4827712154606287,0.8459126327569567,0.7888810957192887,0.8133026059993427
LBP08_S06,LBP08,156,157,6,156,156,1716495354.24,2024-05-23 20:15:54.240000+00:00,2024-05-24 05:15:54.240000+09:00,2024,5,23,20,15,54,240,,,,,,,,,0.108887,0.026123,0.141357,-30.151367,-140.136719,-22.216797,,,,,,,,,,,0.0,1.0,1.0,6.0,0.0,0.0,0.0,5.0,0.0,0.04106122666666667,-0.26196292,1.0051171733333333,3.710937519999999,0.0813802000000001,0.6168619200000003,-20.023629646978048,1.4393904292415391,12.097828882007567,31.218681418896395,14.693700361890098,4.746161973922418,34.8286800401948,-1.4103420490583511,34.74891917110464,-1.4130009242492911,0.06782577333333333,0.28808592,-0.8637601733333333,1.2196718666666666,0.9130583058421522,0.8548860180928979,0.8017219642452369,0.8125748234107278
LBP08_S06,LBP08,157,158,6,157,157,1716495354.28,2024-05-23 20:15:54.280000+00:00,2024-05-24 05:15:54.280000+09:00,2024,5,23,20,15,54,280,,,,,,,,,0.55542,-0.176514,1.06958,10.742188,-88.989258,-29.35791,,,,,,,,,,,0.0,1.0,1.0,6.0,0.0,0.0,0.0,5.0,0.0,0.043942093333333335,-0.26092450666666667,1.00261392,3.7093099066666664,1.3175455733333334,0.8308918800000004,-23.389290408863925,2.9780538121113516,13.011285633827214,30.283109802541837,14.812822514374552,5.266613399275506,34.120721956790355,-1.3986649201395864,34.30355426352796,-1.4084863876959755,0.5114779066666667,0.08441050666666666,0.06696608000000004,0.6628544933333333,0.5227037770232822,0.8312365327907345,0.7861819828420255,0.8103609137365877
LBP08_S06,LBP08,158,159,6,158,158,1716495354.32,2024-05-23 20:15:54.320000+00:00,2024-05-24 05:15:54.320000+09:00,2024,5,23,20,15,54,320,,,,,,,,,0.305908,-0.460205,1.576416,-39.855957,50.415039,68.908691,,,,,,,,,,,0.0,1.0,1.0,6.0,0.0,0.0,0.0,5.0,0.0,0.03480146666666667,-0.25579756,0.9890461999999999,3.208821626666666,1.0213216133333334,0.6323241733333336,-25.015336208362108,4.436709888861876,13.741030564216077,29.282496354207353,14.990290909929028,5.816254621844149,33.406619585414376,-1.4312684209986966,33.80665273424022,-1.4097306740712718,0.27110653333333334,-0.20440744,0.5873698000000002,1.0628837733333336,0.6784426548319406,0.8152363131189447,0.784077692760136,0.8080144109939392
LBP08_S06,LBP08,159,160,6,159,159,1716495354.36,2024-05-23 20:15:54.360000+00:00,2024-05-24 05:15:54.360000+09:00,2024,5,23,20,15,54,360,,,,,,,,,-0.256348,-0.570801,2.106689,-86.853027,24.353027,29.11377,,,,,,,,,,,0.0,1.0,1.0,6.0,0.0,0.0,0.0,5.0,0.0,0.03791344000000001,-0.2580631866666667,0.9923697733333334,3.236490893333333,-0.2343749999999998,0.3751627200000002,-24.821275046363183,5.317163375582158,14.311130665457297,28.289645352352824,15.202977444952314,6.3886998484624415,32.74522931828957,-1.4202530363007788,33.2938529297318,-1.411407384515348,-0.29426144000000004,-0.3127378133333333,1.1143192266666664,1.7213184799999997,1.1941951573668292,0.8542801539204476,0.7970028143743113,0.8071869655223576
LBP08_S06,LBP08,160,161,6,160,160,1716495354.4,2024-05-23 20:15:54.400000+00:00,2024-05-24 05:15:54.400000+09:00,2024,5,23,20,15,54,400,,,,,,,,,0.22998,-0.576416,1.865479,-26.062012,37.353516,11.413574,,,,,,,,,,,0.0,1.0,1.0,6.0,0.0,0.0,0.0,5.0,0.0,0.046136093333333336,-0.2579004266666667,1.0002376133333335,2.48535156,-1.0571288933333334,0.14567053333333357,-22.95077764082567,5.165094612982115,14.73137484889026,27.371614246719798,15.409581229471598,6.977954842418052,32.17689099216615,-1.3883039043119887,32.796911412472184,-1.4118921676209446,0.18384390666666667,-0.31851557333333336,0.8652413866666666,1.3676008666666666,0.9401560560221799,0.8473123903608918,0.8069967522409379,0.8093742547150197
LBP08_S06,LBP08,161,162,6,161,161,1716495354.44,2024-05-23 20:15:54.440000+00:00,2024-05-24 05:15:54.440000+09:00,2024,5,23,20,15,54,440,,,,,,,,,-0.434082,-0.253418,0.462891,22.949219,183.47168,21.484375,,,,,,,,,,,0.0,1.0,1.0,6.0,0.0,0.0,0.0,5.0,0.0,0.044931666666666675,-0.26579430666666665,1.00741208,2.459309893333333,0.5403646,0.9790038666666667,-19.771165788358665,3.834396493679283,15.017561788885054,26.58076761518545,15.56295708921877,7.578657313973454,31.720322934295606,-1.3978826176760797,32.34130300557483,-1.413436248124704,-0.47901366666666667,0.01237630666666667,-0.54452108,1.0359110533333333,0.7253347312686179,0.8492716518681069,0.8064742567463091,0.8084147993071359
LBP08_S06,LBP08,162,163,6,162,162,1716495354.48,2024-05-23 20:15:54.480000+00:00,2024-05-24 05:15:54.480000+09:00,2024,5,23,20,15,54,480,,,,,,,,,-0.072021,-0.000732,0.013916,24.414062,-77.697754,3.78418,,,,,,,,,,,0.0,1.0,1.0,6.0,0.0,0.0,0.0,5.0,0.0,0.03575522666666667,-0.26833011999999995,1.0157226266666668,2.87760416,1.1409505333333334,1.1100260000000002,-15.797174269886014,1.585746389223298,15.172534509013163,25.94888064439001,15.626386944787702,8.18555869433398,31.377248872127343,-1.4339206647826463,31.9437403414679,-1.4135562838008575,-0.10777622666666667,0.26759811999999994,-1.0018066266666668,1.3771809733333333,1.0425166598646207,0.8668594383063531,0.8064486491400557,0.8095815435676597
LBP08_S06,LBP08,163,164,6,163,163,1716495354.52,2024-05-23 20:15:54.520000+00:00,2024-05-24 05:15:54.520000+09:00,2024,5,23,20,15,54,520,,,,,,,,,0.354248,-0.197998,0.340332,-44.799805,-168.212891,-31.433105,,,,,,,,,,,0.0,1.0,1.0,6.0,0.0,0.0,0.0,5.0,0.0,0.040192066666666665,-0.26694665333333334,1.0202603866666669,3.638509106666666,0.10416668000000001,0.49723302666666674,-11.584796280260154,-1.0635970341646435,15.148662888140548,25.485488793179602,15.583843063421117,8.791505209859602,31.139313857367025,-1.4165221616351658,31.610479751709182,-1.4116067643057693,0.31405593333333337,0.06894865333333333,-0.6799283866666668,1.0629329733333335,0.752122102489674,0.8728336403533273,0.8166955831970681,0.8091678034876465
LBP08_S06,LBP08,164,165,6,164,164,1716495354.56,2024-05-23 20:15:54.560000+00:00,2024-05-24 05:15:54.560000+09:00,2024,5,23,20,15,54,560,,,,,,,,,0.547119,-0.226807,1.082764,-18.859863,-37.536621,4.02832,,,,,,,,,,,0.0,1.0,1.0,6.0,0.0,0.0,0.0,5.0,0.0,0.043593759999999995,-0.2677702133333334,1.0116861733333333,2.5699869733333327,2.0483398533333332,1.2288410933333334,-7.6524085497210965,-3.629171047517364,14.839445001863025,25.179392451190758,15.438676221520423,9.385083009934123,30.990874637340852,-1.4041048607468989,31.337396684679824,-1.407585249102489,0.50352524,0.04096321333333339,0.07107782666666673,0.6155662800000001,0.5101643946879344,0.8468728953491013,0.8009556523642907,0.8111349416741077
LBP08_S06,LBP08,165,166,6,165,165,1716495354.6,2024-05-23 20:15:54.600000+00:00,2024-05-24 05:15:54.600000+09:00,2024,5,23,20,15,54,600,,,,,,,,,-0.028809,-0.408447,1.657715,-24.597168,76.904297,80.200195,,,,,,,,,,,0.0,1.0,1.0,6.0,0.0,0.0,0.0,5.0,0.0,0.03521485333333333,-0.2627051066666667,0.99280596,3.055013013333333,0.3499349066666664,0.36458328000000007,-4.4446935092795306,-5.867249384243497,14.131237143041954,25.001604710819578,15.203986246150683,9.9503324956558,30.907127861762223,-1.4330998455968482,31.112087697879836,-1.4086290687310985,-0.06402385333333332,-0.14574189333333332,0.6649090400000001,0.8746747866666666,0.683698606654829,0.8557459070957654,0.7987106649949034,0.8099064059413844
LBP08_S06,LBP08,166,167,6,166,166,1716495354.64,2024-05-23 20:15:54.640000+00:00,2024-05-24 05:15:54.640000+09:00,2024,5,23,20,15,54,640,,,,,,,,,-0.251709,-0.929688,2.055664,14.709473,-11.779785,15.930176,,,,,,,,,,,0.0,1.0,1.0,6.0,0.0,0.0,0.0,5.0,0.0,0.04107422666666667,-0.2643262,0.9980077866666668,3.73535156,-1.3037109333333337,0.41178380000000014,-2.31160750420636,-7.75708218479587,12.994481562180846,24.90914041065132,14.893702958758848,10.470111758143034,30.853053399125503,-1.4115424058198855,30.917231635267363,-1.412004234630802,-0.2927832266666667,-0.6653617999999999,1.0576562133333334,2.01580124,1.2833803054119188,0.8569786050905729,0.8131504470995108,0.8085293923129983
LBP08_S06,LBP08,167,168,6,167,167,1716495354.68,2024-05-23 20:15:54.680000+00:00,2024-05-24 05:15:54.680000+09:00,2024,5,23,20,15,54,680,,,,,,,,,0.103516,-0.46582,1.482422,11.169434,61.157227,25.817871,,,,,,,,,,,0.0,1.0,1.0,6.0,0.0,0.0,0.0,5.0,0.0,0.04897462666666667,-0.2604264533333333,1.00752276,3.1429036399999997,-1.0538736933333337,0.3556314533333336,-1.4747771417794355,-9.309162429829174,11.547586090015821,24.850149324980144,14.521336461565681,10.932015201743667,30.788116059203144,-1.3791697251887036,30.733890869460282,-1.4159545745062831,0.05454137333333333,-0.2053935466666667,0.47489923999999983,0.7348341599999999,0.5202793082277785,0.8385969908963193,0.8184158485179186,0.8111871891955059
LBP08_S06,LBP08,168,169,6,168,168,1716495354.72,2024-05-23 20:15:54.720000+00:00,2024-05-24 05:15:54.720000+09:00,2024,5,23,20,15,54,720,,,,,,,,,-0.580078,0.298828,-0.291016,6.469727,107.177734,15.74707,,,,,,,,,,,0.0,1.0,1.0,6.0,0.0,0.0,0.0,5.0,0.0,0.047731133333333335,-0.2715853066666667,1.0174088266666668,2.8645833333333335,1.1263020799999997,1.8188476,-1.9862360935151717,-10.388757969210209,10.031636162966276,24.770699881239537,14.105786142797273,11.333280648262319,30.675788915120815,-1.3910532689658954,30.543817875642766,-1.4160473267197253,-0.6278091333333333,0.5704133066666667,-1.3084248266666667,2.5066472666666666,1.5593239481765322,0.8799267857795171,0.8335485413556707,0.809908999346125
LBP08_S06,LBP08,169,170,6,169,169,1716495354.76,2024-05-23 20:15:54.760000+00:00,2024-05-24 05:15:54.760000+09:00,2024,5,23,20,15,54,760,,,,,,,,,-0.007812,0.075195,-0.108398,-11.413574,-120.544434,-38.146973,,,,,,,,,,,0.0,1.0,1.0,6.0,0.0,0.0,0.0,5.0,0.0,0.037151706666666666,-0.27236005333333335,1.0270637733333332,2.2428385466666665,1.1417643199999998,2.14599604,-3.7077733469808223,-10.718660554193486,8.694433003468093,24.622388947360303,13.677039720629534,11.681057968401042,30.492139450289713,-1.4306912325868737,30.33087857615623,-1.4159701124491682,-0.044963706666666665,0.34755505333333336,-1.1354617733333332,1.5279805333333332,1.1883138006082483,0.9094450006689867,0.8406986403447898,0.8115778343428804
LBP08_S06,LBP08,170,171,6,170,170,1716495354.8,2024-05-23 20:15:54.800000+00:00,2024-05-24 05:15:54.800000+09:00,2024,5,23,20,15,54,800,,,,,,,,,0.608887,-0.031738,0.669922,-10.681152,-161.437988,-50.231934,,,,,,,,,,,0.0,1.0,1.0,6.0,0.0,0.0,0.0,5.0,0.0,0.03875652,-0.26706708,1.0260513999999998,1.8847656399999997,0.9130859333333331,1.9702148,-6.331562403879118,-10.070308011611397,7.653087600151614,24.369126451205137,13.274227400165078,11.987181472407107,30.22833036604138,-1.4220555633090224,30.08247377070245,-1.4151980906027195,0.57013048,0.23532908000000002,-0.3561293999999998,1.16158896,0.712219551587175,0.9137976608447953,0.8506892941202109,0.812277030659644
LBP08_S06,LBP08,171,172,6,171,171,1716495354.84,2024-05-23 20:15:54.840000+00:00,2024-05-24 05:15:54.840000+09:00,2024,5,23,20,15,54,840,,,,,,,,,0.487549,-0.500244,1.34082,-22.949219,-11.71875,26.306152,,,,,,,,,,,0.0,1.0,1.0,6.0,0.0,0.0,0.0,5.0,0.0,0.03426758666666667,-0.2637825733333333,1.00775388,1.5665690266666665,2.742513013333333,2.405598906666667,-9.43704298581112,-8.484697724177899,6.83169374425389,23.99164473177269,12.934839491197963,12.260449222177263,29.886915276224773,-1.4373860164308925,29.791553367080798,-1.4134314871312337,0.4532814133333333,-0.2364614266666667,0.3330661199999998,1.0228089599999999,0.6101729969988461,0.891461592634876,0.8373671787598425,0.8149443310668257
LBP08_S06,LBP08,172,173,6,172,172,1716495354.88,2024-05-23 20:15:54.880000+00:00,2024-05-24 05:15:54.880000+09:00,2024,5,23,20,15,54,880,,,,,,,,,-0.211182,-0.525879,1.794189,-23.498535,54.260254,51.940918,,,,,,,,,,,0.0,1.0,1.0,6.0,0.0,0.0,0.0,5.0,0.0,0.03469401333333333,-0.26211915999999996,0.9950488,2.3299153866666664,-0.617675786666667,1.5047200000000003,-12.5614274724505,-6.320359189594805,6.0282385283476305,23.48918763287467,12.68202512361417,12.501578763311167,29.47651893395226,-1.434848186917069,29.458713362139132,-1.4160116782527852,-0.24587601333333334,-0.26375984,0.7991402000000001,1.3087760533333335,0.8767264832235645,0.9014992722910286,0.8361013579049436,0.8142042541956913
LBP08_S06,LBP08,173,174,6,173,173,1716495354.92,2024-05-23 20:15:54.920000+00:00,2024-05-24 05:15:54.920000+09:00,2024,5,23,20,15,54,920,,,,,,,,,-0.072754,-0.638672,1.992188,59.570312,33.14209,25.695801,,,,,,,,,,,0.0,1.0,1.0,6.0,0.0,0.0,0.0,5.0,0.0,0.03935872,-0.25996746666666665,1.0009537599999998,3.6083984533333333,-1.7561849066666673,1.59993484,-15.265555871606686,-4.060239135261845,5.074663998106165,22.878565398010405,12.519615558203697,12.704565323235414,29.00992086250169,-1.415750018929592,29.09303555829232,-1.4199300162380228,-0.11211272,-0.37870453333333337,0.9912342400000003,1.4820514933333335,1.0670200111063495,0.885686935420586,0.8451664080392294,0.8121486290552667
LBP08_S06,LBP08,174,175,6,174,174,1716495354.96,2024-05-23 20:15:54.960000+00:00,2024-05-24 05:15:54.960000+09:00,2024,5,23,20,15,54,960,,,,,,,,,-0.081299,-0.260498,1.16748,-61.645508,149.047852,40.344238,,,,,,,,,,,0.0,1.0,1.0,6.0,0.0,0.0,0.0,5.0,0.0,0.04437173333333333,-0.2597949333333333,1.0083854,1.6007487066666666,-1.076660173333334,2.370605413333333,-17.193627902841026,-2.015801683383398,3.9818350534972806,22.190820281896762,12.438983490868361,12.863838725375306,28.506826582802965,-1.3963846422824129,28.710634340294668,-1.4251786763499021,-0.12567073333333334,-0.0007030666666666963,0.15909459999999997,0.2854684,0.20274298821028447,0.8576952977358853,0.8401631540531512,0.8083839765188439
LBP08_S06,LBP08,175,176,6,175,175,1716495355.0,2024-05-23 20:15:55+00:00,2024-05-24 05:15:55+09:00,2024,5,23,20,15,55,0,20.0,15.0,53.0,40.785446,141.62146,-4.759,3.0,16.0,-0.25415,-0.056152,-0.248535,-66.162109,-13.977051,-18.249512,-542.0,27.0,593.0,184.0,0.0,1020.0,23.91,0.069368,-56.014488,3.832031,0.0,1.0,1.0,6.0,0.0,0.0,0.0,5.0,0.0,0.04046222666666667,-0.2668945466666667,1.0158463333333332,1.0319010533333333,0.4313150799999993,3.64339188,-18.129979886690194,-0.16369315187756606,2.9666133398973473,21.465621086429156,12.432435764793258,12.9825032589712,27.997923825545712,-1.4154338108819884,28.33114409436003,-1.4245715042876255,-0.29461222666666664,0.21074254666666667,-1.2643813333333331,1.7697361066666666,1.315244821757083,0.8776495117240589,0.8492747465411651,0.8048817848116175
LBP08_S06,LBP08,176,177,6,176,176,1716495355.04,2024-05-23 20:15:55.040000+00:00,2024-05-24 05:15:55.040000+09:00,2024,5,23,20,15,55,40,,,,,,,,,0.069824,-0.110352,0.307617,16.967773,-143.066406,-42.785645,,,,,,,,,,,0.0,1.0,1.0,6.0,0.0,0.0,0.0,5.0,0.0,0.03589190666666667,-0.27679688,1.0228775866666668,-0.15787758666666662,-0.6949870133333341,3.48307288,-18.039082227883153,1.7463439759340964,2.3389373215744476,20.74405779731383,12.502289523830623,13.076060751834177,27.52465334970887,-1.4373443170354014,27.973645425200175,-1.4222462866342576,0.03393209333333333,0.16644488000000002,-0.7152605866666668,0.9156375600000002,0.7351550801531204,0.8819038918245231,0.8443283071175428,0.8026347517929626
LBP08_S06,LBP08,177,178,6,177,177,1716495355.08,2024-05-23 20:15:55.080000+00:00,2024-05-24 05:15:55.080000+09:00,2024,5,23,20,15,55,80,,,,,,,,,0.570068,-0.010742,0.881836,3.90625,-90.332031,-49.255371,,,,,,,,,,,0.0,1.0,1.0,6.0,0.0,0.0,0.0,5.0,0.0,0.041171853333333334,-0.27754557333333335,1.0176432133333333,0.15950522666666672,0.05452470666666585,3.6995442266666663,-17.0622408752379,3.889040953125642,2.3227490163577835,20.06156816230431,12.657851161955648,13.168970712488488,27.131338020735054,-1.4183531050410814,27.653836511966233,-1.4173592725095285,0.5288961466666667,0.2668035733333334,-0.13580721333333334,0.9315069333333335,0.6077490270626923,0.8683571075653128,0.8509990887119712,0.8030646316841399
LBP08_S06,LBP08,178,179,6,178,178,1716495355.12,2024-05-23 20:15:55.120000+00:00,2024-05-24 05:15:55.120000+09:00,2024,5,23,20,15,55,120,,,,,,,,,0.266113,-0.509766,1.523193,-40.100098,36.376953,38.452148,,,,,,,,,,,0.0,1.0,1.0,6.0,0.0,0.0,0.0,5.0,0.0,0.03367185333333333,-0.2726009066666667,1.0008691333333333,1.0099284133333333,1.1165364266666657,3.755696573333333,-15.461598156914606,6.10629247876354,2.9271973193127976,19.44310423602773,12.90210286110619,13.286058605261,26.85177673514425,-1.443539870084687,27.38335656750357,-1.415683941139882,0.23244114666666665,-0.23716509333333335,0.5223238666666667,0.9919301066666668,0.6189494243063333,0.8398329937759403,0.838085361035688,0.8064504334433471
LBP08_S06,LBP08,179,180,6,179,179,1716495355.16,2024-05-23 20:15:55.160000+00:00,2024-05-24 05:15:55.160000+09:00,2024,5,23,20,15,55,160,,,,,,,,,-0.179199,-0.967773,2.011963,-29.541016,30.212402,23.376465,,,,,,,,,,,0.0,1.0,1.0,6.0,0.0,0.0,0.0,5.0,0.0,0.03892250666666667,-0.27387044,1.0015169199999998,1.8400065333333335,-0.9562174800000011,3.054199173333333,-13.530789497426433,7.906884530132911,3.9438986467460695,18.90187265613067,13.218378242311507,13.443814551130842,26.697236990943313,-1.424619511964108,27.170705865592073,-1.416061819643547,-0.21812150666666666,-0.69390256,1.0104460800000004,1.922470146666667,1.2450217006271245,0.8794985243587895,0.8472593516975795,0.812100447010031
LBP08_S06,LBP08,180,181,6,180,180,1716495355.2,2024-05-23 20:15:55.200000+00:00,2024-05-24 05:15:55.200000+09:00,2024,5,23,20,15,55,200,,,,,,,,,0.089111,-0.371826,1.67041,23.803711,68.969727,24.963379,,,,,,,,,,,0.0,1.0,1.0,6.0,0.0,0.0,0.0,5.0,0.0,0.045358053333333335,-0.27012044,1.0042382666666667,1.82128908,-2.1565755466666676,2.4511718266666667,-11.50114383654319,8.736624406288312,5.0546947704306175,18.441826902668943,13.56784321856304,13.646002341948067,26.65334367444286,-1.3988033867753416,27.02229341205873,-1.4169592202137884,0.04375294666666666,-0.10170555999999997,0.6661717333333332,0.8116302399999998,0.6753096471762176,0.8472000616274131,0.846556347192185,0.8083207510219967
LBP08_S06,LBP08,181,182,6,181,181,1716495355.24,2024-05-23 20:15:55.240000+00:00,2024-05-24 05:15:55.240000+09:00,2024,5,23,20,15,55,240,,,,,,,,,-0.422607,0.029053,0.365967,-18.615723,171.630859,39.855957,,,,,,,,,,,0.0,1.0,1.0,6.0,0.0,0.0,0.0,5.0,0.0,0.04924477333333333,-0.2766243466666667,1.0125390533333332,-0.3564452933333333,-0.9798177333333346,3.4041340666666664,-9.467636283676732,8.326721220620602,5.964591160228594,18.063121451321873,13.900912067387864,13.88458598835721,26.688826143885372,-1.3885158751836026,26.94247855781333,-1.4181725379673222,-0.47185177333333334,0.3056773466666667,-0.6465720533333332,1.4241011733333333,0.8568186251562624,0.8449504743999775,0.8499182462464379,0.8161314676301504
LBP08_S06,LBP08,182,183,6,182,182,1716495355.28,2024-05-23 20:15:55.280000+00:00,2024-05-24 05:15:55.280000+09:00,2024,5,23,20,15,55,280,,,,,,,,,-0.051025,-0.062256,0.057861,-0.549316,-59.204102,-26.000977,,,,,,,,,,,0.0,1.0,1.0,6.0,0.0,0.0,0.0,5.0,0.0,0.04125649333333334,-0.2775911466666667,1.0203385333333335,-0.0781249866666666,0.7902017999999988,3.8240559466666664,-7.3582989302247706,6.871685538070011,6.476180392420033,17.768789494112884,14.175779488910665,14.143633204054012,26.771719489325594,-1.4180948732206053,26.932705214671245,-1.4144815826628956,-0.09228149333333334,0.21533514666666667,-0.9624775333333334,1.2700941733333333,0.9905796795680815,0.8636655105017695,0.8474510216462521,0.8120098253952736
LBP08_S06,LBP08,183,184,6,183,183,1716495355.32,2024-05-23 20:15:55.320000+00:00,2024-05-24 05:15:55.320000+09:00,2024,5,23,20,15,55,320,,,,,,,,,0.240967,-0.087891,0.529297,34.057617,-140.50293,-48.400879,,,,,,,,,,,0.0,1.0,1.0,6.0,0.0,0.0,0.0,5.0,0.0,0.04157876,-0.28268229333333333,1.0269856666666666,0.16845703999999992,-0.11067710666666769,3.714192666666666,-4.968281998407276,4.9148938077577355,6.483662322425159,17.570058214176594,14.372375241220974,14.402979696951018,26.88341384338677,-1.4195288039662421,26.99083981610578,-1.4106132135670775,0.19938824,0.19479129333333334,-0.49768866666666656,0.8918681999999999,0.5704325789584731,0.8593451074668309,0.8372907102928877,0.809166830995701
