file_name,test_id,_program_index,program_index,session_id,index,_index,unixtime,datetime_utc,datetime_jst,rtc_year,rtc_month,rtc_day,rtc_hour,rtc_min,rtc_sec,rtc_msec,gps_hour,gps_min,gps_sec,latitude,longitude,altitude,fix_type,SIV,acc_x,acc_y,acc_z,gyro_x,gyro_y,gyro_z,mag_x,mag_y,mag_z,illuminance,atmopress,water_pressure,water_temp,depth,alt_wps,battery_level,behavior_class,camera_command,camera_recording,camera_count,play_audio,speaker_on,audio_file,prev_sd_write_time_ms,delay_occurred_counter,acc_x_ma,acc_y_ma,acc_z_ma,gyro_x_ma,gyro_y_ma,gyro_z_ma,gyro_x_lowpass,gyro_y_lowpass,gyro_z_lowpass,angle_x,angle_y,angle_z,combined_angle_change,gravity_adjusted_angle,smoothed_angle_change,smoothed_gravity_angle,acc_x_dy,acc_y_dy,acc_z_dy,ODBA,VeDBA,smoothed_VeDBA_1s,smoothed_VeDBA_2s,smoothed_VeDBA_3s
LBP08_S13,LBP08,-1825,1,13,0,-1825,1716497870.0,2024-05-23 20:57:50+00:00,2024-05-24 05:57:50+09:00,2024,5,23,20,57,50,0,20.0,57.0,48.0,40.788563,141.626572,-1.756,3.0,15.0,0.018066,-0.054688,0.401367,-11.047363,-56.45752,-26.062012,-538.0,35.0,589.0,411.0,0.0,1021.400024,26.43,0.083242,-67.59491,3.775781,0.0,1.0,1.0,13.0,0.0,0.0,0.0,3.0,0.0,,,,,,,-11.123893171065294,-57.16424150812292,-26.35711033798846,-0.44495572684261175,-2.286569660324917,-1.0542844135195384,2.5569321529830784,,4.299665703540573,,,,,,,,,
LBP08_S13,LBP08,-1824,2,13,1,-1824,1716497870.04,2024-05-23 20:57:50.040000+00:00,2024-05-24 05:57:50.040000+09:00,2024,5,23,20,57,50,40,,,,,,,,,0.437988,-0.259521,0.985107,12.939453,-19.042969,-17.39502,,,,,,,,,,,0.0,1.0,1.0,13.0,0.0,0.0,0.0,3.0,0.0,,,,,,,-5.742938574273415,-38.066757254698224,-11.595612227992385,-0.6746732698135484,-3.809239950512846,-1.5181089026392338,4.155736717100412,,4.332587044011455,,,,,,,,,
LBP08_S13,LBP08,-1823,3,13,2,-1823,1716497870.08,2024-05-23 20:57:50.080000+00:00,2024-05-24 05:57:50.080000+09:00,2024,5,23,20,57,50,80,,,,,,,,,0.287354,-0.477295,1.400879,-11.901855,41.625977,12.634277,,,,,,,,,,,0.0,1.0,1.0,13.0,0.0,0.0,0.0,3.0,0.0,,,,,,,-1.018807865147965,-20.82688791352269,1.5895992022546181,-0.715425584419467,-4.642315467053754,-1.4545249345490492,4.917170878433387,,4.329492105353504,,,,,,,,,
LBP08_S13,LBP08,-1822,4,13,3,-1822,1716497870.12,2024-05-23 20:57:50.120000+00:00,2024-05-24 05:57:50.120000+09:00,2024,5,23,20,57,50,120,,,,,,,,,-0.376465,-0.419678,1.584229,21.362305,-42.114258,37.902832,,,,,,,,,,,0.0,1.0,1.0,13.0,0.0,0.0,0.0,3.0,0.0,,,,,,,2.627117399626251,-6.871377676004142,11.970615326991682,-0.610340888434417,-4.9171705740939196,-0.9757003214693819,5.05005678900203,,4.334153281969645,,,,,,,,,
LBP08_S13,LBP08,-1821,5,13,4,-1821,1716497870.16,2024-05-23 20:57:50.160000+00:00,2024-05-24 05:57:50.160000+09:00,2024,5,23,20,57,50,160,,,,,,,,,0.135986,-0.189209,1.777344,52.490234,-100.219727,8.544922,,,,,,,,,,,0.0,1.0,1.0,13.0,0.0,0.0,0.0,3.0,0.0,,,,,,,5.0993244571097165,3.022823318427886,18.91160328784311,-0.4063679101500284,-4.796257641356804,-0.2192361899556574,4.818431980183958,,4.368602099208629,,,,,,,,,
LBP08_S13,LBP08,-1820,6,13,5,-1820,1716497870.2,2024-05-23 20:57:50.200000+00:00,2024-05-24 05:57:50.200000+09:00,2024,5,23,20,57,50,200,,,,,,,,,0.20874,-0.283447,0.957031,-16.540527,195.556641,85.327148,,,,,,,,,,,0.0,1.0,1.0,13.0,0.0,0.0,0.0,3.0,0.0,,,,,,,6.625233476026534,8.82090928382809,22.451039618809727,-0.141358571108967,-4.443421270003681,0.6788053947967316,4.497193746365864,,4.438201247313819,,,,,,,,,
LBP08_S13,LBP08,-1819,7,13,6,-1819,1716497870.24,2024-05-23 20:57:50.240000+00:00,2024-05-24 05:57:50.240000+09:00,2024,5,23,20,57,50,240,,,,,,,,,-0.121826,-0.095459,0.12085,-17.822266,-15.441895,-7.263184,,,,,,,,,,,0.0,1.0,1.0,13.0,0.0,0.0,0.0,3.0,0.0,,,,,,,7.626696818163859,11.161985390933621,23.199098140975956,0.1637093016175874,-3.9969418543663355,1.6067693204357698,4.310922473405796,,4.738212617038542,,,,,,,,,
LBP08_S13,LBP08,-1818,8,13,7,-1818,1716497870.28,2024-05-23 20:57:50.280000+00:00,2024-05-24 05:57:50.280000+09:00,2024,5,23,20,57,50,280,,,,,,,,,0.370361,-0.354248,0.746582,-8.850098,-64.758301,-32.043457,,,,,,,,,,,0.0,1.0,1.0,13.0,0.0,0.0,0.0,3.0,0.0,,,,,,,8.518221836776828,11.134372864192587,22.08375501005016,0.5044381750886605,-3.551566939798632,2.4901195208377764,4.366781518282631,,4.92983577331508,,,,,,,,,
LBP08_S13,LBP08,-1817,9,13,8,-1817,1716497870.32,2024-05-23 20:57:50.320000+00:00,2024-05-24 05:57:50.320000+09:00,2024,5,23,20,57,50,320,,,,,,,,,0.366943,-0.293457,1.182617,-15.74707,18.737793,7.8125,,,,,,,,,,,0.0,1.0,1.0,13.0,0.0,0.0,0.0,3.0,0.0,,,,,,,9.522684226107636,9.932854316975133,20.039850364628272,0.885345544132966,-3.1542527671196265,3.2917135354229075,4.644192637120503,,5.095122429476984,,,,,,,,,
LBP08_S13,LBP08,-1816,10,13,9,-1816,1716497870.36,2024-05-23 20:57:50.360000+00:00,2024-05-24 05:57:50.360000+09:00,2024,5,23,20,57,50,360,,,,,,,,,-0.267334,-0.510498,1.558105,46.447754,40.771484,41.381836,,,,,,,,,,,0.0,1.0,1.0,13.0,0.0,0.0,0.0,3.0,0.0,,,,,,,10.584169441751992,8.498771668141359,17.760538011153564,1.3087123218030456,-2.814301900393972,4.00213505586905,5.064593580260533,,5.291610997567147,,,,,,,,,
LBP08_S13,LBP08,-1815,11,13,10,-1815,1716497870.4,2024-05-23 20:57:50.400000+00:00,2024-05-24 05:57:50.400000+09:00,2024,5,23,20,57,50,400,,,,,,,,,-0.321045,-0.419922,1.815918,31.982422,-117.919922,-9.70459,,,,,,,,,,,0.0,1.0,1.0,13.0,0.0,0.0,0.0,3.0,0.0,,,,,,,11.401192548874407,7.274376541585151,15.59480318538355,1.7647600237580219,-2.5233268387305663,4.625927183284392,5.557045850230307,,5.547694033411168,,,,,,,,,
LBP08_S13,LBP08,-1814,12,13,11,-1814,1716497870.44,2024-05-23 20:57:50.440000+00:00,2024-05-24 05:57:50.440000+09:00,2024,5,23,20,57,50,440,,,,,,,,,0.413086,-0.398926,1.60083,-10.375977,13.671875,35.522461,,,,,,,,,,,0.0,1.0,1.0,13.0,0.0,0.0,0.0,3.0,0.0,,,,,,,11.543864921151359,6.164449886125834,13.599272376648967,2.2265146206040765,-2.276748843285533,5.169898078350351,6.071968279865795,,5.864019282535028,,,,,,,,,
LBP08_S13,LBP08,-1813,13,13,12,-1813,1716497870.48,2024-05-23 20:57:50.480000+00:00,2024-05-24 05:57:50.480000+09:00,2024,5,23,20,57,50,480,,,,,,,,,-0.832275,0.090576,-0.210449,8.850098,160.827637,42.480469,,,,,,,,,,,0.0,1.0,1.0,13.0,0.0,0.0,0.0,3.0,0.0,,,,,,,10.596204508734376,4.713783161602035,11.687817131685383,2.6503628009534514,-2.0881975168214515,5.637410763617766,6.5700374400524195,,6.222585502635509,,,,,,,,,
LBP08_S13,LBP08,-1812,14,13,13,-1812,1716497870.52,2024-05-23 20:57:50.520000+00:00,2024-05-24 05:57:50.520000+09:00,2024,5,23,20,57,50,520,,,,,,,,,-0.092041,-0.093262,0.247803,-5.432129,-57.922363,-8.361816,,,,,,,,,,,0.0,1.0,1.0,13.0,0.0,0.0,0.0,3.0,0.0,,,,,,,8.281660014631791,2.414468792481746,9.797855700945949,2.9816292015387234,-1.9916187651221817,6.029324991655605,7.014942469903663,,6.602678082891524,,,,,,,,,
LBP08_S13,LBP08,-1811,15,13,14,-1811,1716497870.56,2024-05-23 20:57:50.560000+00:00,2024-05-24 05:57:50.560000+09:00,2024,5,23,20,57,50,560,,,,,,,,,0.483154,-0.17334,0.997559,44.494629,-27.526855,0.183105,,,,,,,,,,,0.0,1.0,1.0,13.0,0.0,0.0,0.0,3.0,0.0,,,,,,,4.553168199444975,-1.0008692976321678,8.005152307601202,3.1637559295165225,-2.0316535370274686,6.349531083959652,7.379262338624168,,6.995350870566907,,,,,,,,,
LBP08_S13,LBP08,-1810,16,13,15,-1810,1716497870.6,2024-05-23 20:57:50.600000+00:00,2024-05-24 05:57:50.600000+09:00,2024,5,23,20,57,50,600,,,,,,,,,0.226562,-0.246582,1.34082,-1.708984,52.246094,21.850586,,,,,,,,,,,0.0,1.0,1.0,13.0,0.0,0.0,0.0,3.0,0.0,,,,,,,-0.36641796454033115,-5.399009173153118,6.55283438630632,3.149099210934909,-2.247613903953593,6.611644459411905,7.660446237604472,,7.4063495683388965,,,,,,,,,
LBP08_S13,LBP08,-1809,17,13,16,-1809,1716497870.64,2024-05-23 20:57:50.640000+00:00,2024-05-24 05:57:50.640000+09:00,2024,5,23,20,57,50,640,,,,,,,,,-0.385254,-0.633301,1.720215,-10.314941,-18.188477,22.094727,,,,,,,,,,,0.0,1.0,1.0,13.0,0.0,0.0,0.0,3.0,0.0,,,,,,,-6.011025816683567,-10.25444329901085,5.793481520251546,2.9086581782675665,-2.6577916359140272,6.843383720221967,7.896584674410603,,7.848816734094049,,,,,,,,,
LBP08_S13,LBP08,-1808,18,13,17,-1808,1716497870.68,2024-05-23 20:57:50.680000+00:00,2024-05-24 05:57:50.680000+09:00,2024,5,23,20,57,50,680,,,,,,,,,-0.086426,-0.501953,1.893311,-22.033691,-117.492676,-6.286621,,,,,,,,,,,0.0,1.0,1.0,13.0,0.0,0.0,0.0,3.0,0.0,,,,,,,-11.769771303588511,-14.790983307194521,6.061963837324369,2.4378673261240262,-3.249430968201808,7.085862273714942,8.16770732084278,,8.334675488232387,,,,,,,,,
LBP08_S13,LBP08,-1807,19,13,18,-1807,1716497870.72,2024-05-23 20:57:50.720000+00:00,2024-05-24 05:57:50.720000+09:00,2024,5,23,20,57,50,720,,,,,,,,,0.280762,-0.234863,0.899902,-0.488281,125.610352,32.470703,,,,,,,,,,,0.0,1.0,1.0,13.0,0.0,0.0,0.0,3.0,0.0,,,,,,,-17.032145290533833,-18.195155984396216,7.509684645058271,1.7565815145026729,-3.9772372075776565,7.386249659517273,8.57092051387432,,8.870054202217332,,,,,,,,,
LBP08_S13,LBP08,-1806,20,13,19,-1806,1716497870.76,2024-05-23 20:57:50.760000+00:00,2024-05-24 05:57:50.760000+09:00,2024,5,23,20,57,50,760,,,,,,,,,-0.313721,0.450195,-0.385254,-58.59375,-45.349121,-58.410645,,,,,,,,,,,0.0,1.0,1.0,13.0,0.0,0.0,0.0,3.0,0.0,,,,,,,-21.330688096275868,-19.84136875126208,9.951488816977843,0.9033539906516381,-4.77089195762814,7.784309212196387,9.174580557980438,,9.454545501597448,,,,,,,,,
LBP08_S13,LBP08,-1805,21,13,20,-1805,1716497870.8,2024-05-23 20:57:50.800000+00:00,2024-05-24 05:57:50.800000+09:00,2024,5,23,20,57,50,800,,,,,,,,,0.23584,-0.34375,0.330811,-52.91748,-133.789062,-7.263184,,,,,,,,,,,0.0,1.0,1.0,13.0,0.0,0.0,0.0,3.0,0.0,,,,,,,-24.428230400943843,-19.477127258723858,12.797363033292347,-0.07377522538611558,-5.5499770479770945,8.296203733528081,9.981717507781845,,10.081921147679191,,,,,,,,,
LBP08_S13,LBP08,-1804,22,13,21,-1804,1716497870.84,2024-05-23 20:57:50.840000+00:00,2024-05-24 05:57:50.840000+09:00,2024,5,23,20,57,50,840,,,,,,,,,0.510254,-0.160889,0.994629,12.084961,-22.094727,2.685547,,,,,,,,,,,0.0,1.0,1.0,13.0,0.0,0.0,0.0,3.0,0.0,,,,,,,-26.31562234490515,-17.31417564691396,15.13551646558248,-1.1264001191823216,-6.242544073853653,8.90162439215138,10.930555821249152,,10.740451758927518,,,,,,,,,
LBP08_S13,LBP08,-1803,23,13,22,-1803,1716497870.88,2024-05-23 20:57:50.880000+00:00,2024-05-24 05:57:50.880000+09:00,2024,5,23,20,57,50,880,,,,,,,,,0.47168,-0.436035,1.418945,-11.535645,66.162109,71.105957,,,,,,,,,,,0.0,1.0,1.0,13.0,0.0,0.0,0.0,3.0,0.0,,,,,,,-27.12496279827233,-13.972557685065482,15.980400577742069,-2.211398631113215,-6.801446381256272,9.540840415261062,11.923824579901883,,11.412311866594845,,,,,,,,,
LBP08_S13,LBP08,-1802,24,13,23,-1802,1716497870.92,2024-05-23 20:57:50.920000+00:00,2024-05-24 05:57:50.920000+09:00,2024,5,23,20,57,50,920,,,,,,,,,-0.383301,-0.786133,1.706787,-34.423828,-8.666992,49.194336,,,,,,,,,,,0.0,1.0,1.0,13.0,0.0,0.0,0.0,3.0,0.0,,,,,,,-27.00882144845778,-10.271938956811718,14.612647585226123,-3.291751489051526,-7.212323939528741,10.125346318670108,12.859855463704816,,12.07290731144965,,,,,,,,,
LBP08_S13,LBP08,-1801,25,13,24,-1801,1716497870.96,2024-05-23 20:57:50.960000+00:00,2024-05-24 05:57:50.960000+09:00,2024,5,23,20,57,50,960,,,,,,,,,0.096191,-0.136719,1.803223,21.972656,-95.458984,4.943848,,,,,,,,,,,0.0,1.0,1.0,13.0,0.0,0.0,0.0,3.0,0.0,,,,,,,-26.057261088269424,-6.946366550897995,10.87181946362495,-4.334041932582303,-7.4901786015646605,10.560219097215105,13.653018799441591,,12.692039831636357,,,,,,,,,
LBP08_S13,LBP08,-1800,26,13,25,-1800,1716497871.0,2024-05-23 20:57:51+00:00,2024-05-24 05:57:51+09:00,2024,5,23,20,57,51,0,20.0,57.0,49.0,40.788647,141.626541,-1.481,3.0,14.0,0.165039,0.01416,0.770264,-35.461426,182.373047,48.522949,-540.0,39.0,587.0,383.0,0.0,1020.799988,26.469999,0.077296,-62.633232,3.775781,0.0,1.0,1.0,13.0,0.0,0.0,0.0,5.0,0.0,,,,,,,-24.301617164559815,-4.40381027502909,5.269082001834316,-5.306106619164695,-7.666331012565824,10.770982377288478,14.245752350087757,,13.238528015617224,,,,,,,,,
LBP08_S13,LBP08,-1799,27,13,26,-1799,1716497871.04,2024-05-23 20:57:51.040000+00:00,2024-05-24 05:57:51.040000+09:00,2024,5,23,20,57,51,40,,,,,,,,,-0.173584,-0.046875,-0.126709,-94.848633,-47.363281,-40.649414,,,,,,,,,,,0.0,1.0,1.0,13.0,0.0,0.0,0.0,5.0,0.0,,,,,,,-21.798657659493216,-2.6302652100248465,-1.1346036471809786,-6.178052925544424,-7.771541620966818,10.72559823140124,14.61518575108387,,13.687371198263012,,,,,,,,,
LBP08_S13,LBP08,-1798,28,13,27,-1798,1716497871.08,2024-05-23 20:57:51.080000+00:00,2024-05-24 05:57:51.080000+09:00,2024,5,23,20,57,51,80,,,,,,,,,0.273926,-0.233887,0.526611,-23.986816,-107.299805,-46.264648,,,,,,,,,,,0.0,1.0,1.0,13.0,0.0,0.0,0.0,5.0,0.0,,,,,,,-18.732999823148724,-1.2752027974434896,-7.036166314176292,-6.927372918470374,-7.822549732864558,10.444151578834187,14.77366176939085,,14.026136382981406,,,,,,,,,
LBP08_S13,LBP08,-1797,29,13,28,-1797,1716497871.12,2024-05-23 20:57:51.120000+00:00,2024-05-24 05:57:51.120000+09:00,2024,5,23,20,57,51,120,,,,,,,,,0.373535,-0.16748,1.108643,3.356934,16.479492,-32.592773,,,,,,,,,,,0.0,1.0,1.0,13.0,0.0,0.0,0.0,5.0,0.0,,,,,,,-15.457367833894267,0.127197419233989,-11.261227790590608,-7.545667631826144,-7.817461836095198,9.993702467210563,14.762245715741361,,14.257992895171375,,,,,,,,,
LBP08_S13,LBP08,-1796,30,13,29,-1796,1716497871.16,2024-05-23 20:57:51.160000+00:00,2024-05-24 05:57:51.160000+09:00,2024,5,23,20,57,51,160,,,,,,,,,-0.159668,-0.030762,1.491699,25.817871,84.960938,21.484375,,,,,,,,,,,0.0,1.0,1.0,13.0,0.0,0.0,0.0,5.0,0.0,,,,,,,-12.431547178569467,1.9134461004691916,-13.063075926542695,-8.042929518968922,-7.74092399207643,9.471179430148855,14.639462397789098,,14.401062139164557,,,,,,,,,
LBP08_S13,LBP08,-1795,31,13,30,-1795,1716497871.2,2024-05-23 20:57:51.200000+00:00,2024-05-24 05:57:51.200000+09:00,2024,5,23,20,57,51,200,,,,,,,,,-0.450928,-0.655273,1.8479,6.347656,-115.234375,-19.40918,,,,,,,,,,,0.0,1.0,1.0,13.0,0.0,0.0,0.0,5.0,0.0,,,,,,,-10.094217991443719,4.135340128934096,-12.265910164096365,-8.44669823862667,-7.575510386919066,8.980543023585,14.47014933423974,,14.484735760695964,,,,,,,,,
LBP08_S13,LBP08,-1794,32,13,31,-1794,1716497871.24,2024-05-23 20:57:51.240000+00:00,2024-05-24 05:57:51.240000+09:00,2024,5,23,20,57,51,240,,,,,,,,,0.367188,-0.307129,1.75415,-44.555664,-30.639648,-22.399902,,,,,,,,,,,0.0,1.0,1.0,13.0,0.0,0.0,0.0,5.0,0.0,,,,,,,-8.742908848319969,6.546742138970379,-9.245108258147336,-8.796414592559469,-7.313640701360251,8.610738693259107,14.318207668433084,,14.543784791853662,,,,,,,,,
LBP08_S13,LBP08,-1793,33,13,32,-1793,1716497871.28,2024-05-23 20:57:51.280000+00:00,2024-05-24 05:57:51.280000+09:00,2024,5,23,20,57,51,280,,,,,,,,,-0.702393,-0.050049,-0.125488,-16.418457,194.946289,38.696289,,,,,,,,,,,0.0,1.0,1.0,13.0,0.0,0.0,0.0,5.0,0.0,,,,,,,-8.473816102495924,8.720509908949888,-4.789834228874709,-9.135367236659306,-6.964820305002256,8.419145324104118,14.2423897018016,,14.611564294025467,,,,,,,,,
LBP08_S13,LBP08,-1792,34,13,33,-1792,1716497871.32,2024-05-23 20:57:51.320000+00:00,2024-05-24 05:57:51.320000+09:00,2024,5,23,20,57,51,320,,,,,,,,,-0.059326,-0.128662,0.312988,-23.925781,-49.316406,-33.752441,,,,,,,,,,,0.0,1.0,1.0,13.0,0.0,0.0,0.0,5.0,0.0,,,,,,,-9.179819107426283,10.23242561427843,0.09532560027574383,-9.502560000956358,-6.555523280431118,8.422958348115149,14.290547903636611,,14.71407675021953,-1.4347223027903522,,,,,,,,
LBP08_S13,LBP08,-1791,35,13,34,-1791,1716497871.36,2024-05-23 20:57:51.360000+00:00,2024-05-24 05:57:51.360000+09:00,2024,5,23,20,57,51,360,,,,,,,,,0.420166,-0.19873,1.021484,56.57959,-39.001465,-13.85498,,,,,,,,,,,0.0,1.0,1.0,13.0,0.0,0.0,0.0,5.0,0.0,,,,,,,-10.578091333891365,10.819990232120864,4.405777593569199,-9.925683654312012,-6.122723671146284,8.599189451857917,14.489755014755639,,14.866331536441134,-1.431592818395805,,,,,,,,
LBP08_S13,LBP08,-1790,36,13,35,-1790,1716497871.4,2024-05-23 20:57:51.400000+00:00,2024-05-24 05:57:51.400000+09:00,2024,5,23,20,57,51,400,,,,,,,,,0.389893,-0.205322,1.387695,-64.697266,36.743164,28.137207,,,,,,,,,,,0.0,1.0,1.0,13.0,0.0,0.0,0.0,5.0,0.0,,,,,,,-12.252738258098482,10.451360812359841,7.340552825282731,-10.415793184635952,-5.70466923865189,8.892811564869227,14.836242661664771,,15.071380054915261,-1.4483453412723932,,,,,,,,
LBP08_S13,LBP08,-1789,37,13,36,-1789,1716497871.44,2024-05-23 20:57:51.440000+00:00,2024-05-24 05:57:51.440000+09:00,2024,5,23,20,57,51,440,,,,,,,,,-0.314941,-0.668457,1.799561,11.535645,10.864258,28.869629,,,,,,,,,,,0.0,1.0,1.0,13.0,0.0,0.0,0.0,5.0,0.0,,,,,,,-13.718973332425142,9.310987065450236,8.46801159898343,-10.964552117932957,-5.332229756033881,9.231532028828564,15.29298077280191,,15.321338074018517,-1.4567181065147587,,,,,,,,
LBP08_S13,LBP08,-1788,38,13,37,-1788,1716497871.48,2024-05-23 20:57:51.480000+00:00,2024-05-24 05:57:51.480000+09:00,2024,5,23,20,57,51,480,,,,,,,,,-0.119873,-0.534912,1.934082,-15.74707,-69.580078,17.272949,,,,,,,,,,,0.0,1.0,1.0,13.0,0.0,0.0,0.0,5.0,0.0,0.03348628,-0.25180013333333334,1.0181445333333332,-1.6560872133333335,-2.744140653333333,5.9423828400000005,-14.511885178399233,7.75059141729743,7.816281805742492,-11.545027525068926,-5.022206099341983,9.544183301058263,15.79878633133148,-1.4347223027903522,15.599311195427024,-1.458452915117436,-0.15335928,-0.2831118666666667,0.9159374666666669,1.3524086133333335,0.970882506101204,0.970882506101204,0.970882506101204,0.970882506101204
LBP08_S13,LBP08,-1787,39,13,38,-1787,1716497871.52,2024-05-23 20:57:51.520000+00:00,2024-05-24 05:57:51.520000+09:00,2024,5,23,20,57,51,520,,,,,,,,,0.303467,-0.203125,1.068604,-32.836914,142.63916,41.503906,,,,,,,,,,,0.0,1.0,1.0,13.0,0.0,0.0,0.0,5.0,0.0,0.03543616,-0.2545768133333334,1.0297721466666667,-1.0538736800000004,-0.6542968933333331,6.6455078400000005,-14.281609386879413,6.235415890491441,5.846912141291502,-12.116291900544102,-4.772789463722326,9.778059786709923,16.284793577957416,-1.4284633340012578,15.881590235987385,-1.4615508848059802,0.26803084,0.051451813333333374,0.03883185333333339,0.35831450666666675,0.2756732361323734,0.6232778711167887,0.6232778711167887,0.6232778711167887
LBP08_S13,LBP08,-1786,40,13,39,-1786,1716497871.56,2024-05-23 20:57:51.560000+00:00,2024-05-24 05:57:51.560000+09:00,2024,5,23,20,57,51,560,,,,,,,,,-0.24292,0.001953,-0.09668,-53.833008,-4.150391,-35.095215,,,,,,,,,,,0.0,1.0,1.0,13.0,0.0,0.0,0.0,5.0,0.0,0.022451133333333335,-0.25945312,1.0365332266666667,-0.6697590933333337,-0.8154297066666663,7.069498733333333,-12.862218222668389,5.274847632943058,3.298066736531525,-12.630780629450838,-4.5617955584046035,9.909982456171184,16.689947582530362,-1.4818503870255693,16.140280609414187,-1.462817242874845,-0.26537113333333334,0.26140611999999996,-1.1332132266666668,1.65999048,1.1928651286177958,0.8131402902837911,0.8131402902837911,0.8131402902837911
LBP08_S13,LBP08,-1785,41,13,40,-1785,1716497871.6,2024-05-23 20:57:51.600000+00:00,2024-05-24 05:57:51.600000+09:00,2024,5,23,20,57,51,600,,,,,,,,,0.269043,-0.236328,0.571533,56.091309,-73.730469,-48.034668,,,,,,,,,,,0.0,1.0,1.0,13.0,0.0,0.0,0.0,5.0,0.0,0.022294880000000003,-0.2574283733333333,1.0408235866666666,-0.2058919066666671,-2.7425130399999995,6.975097693333334,-10.286640520487218,5.311996371186447,0.9407402499544589,-13.042246250270326,-4.349315703557146,9.947612066169363,16.96972952527227,-1.4818364022418555,16.3468286872748,-1.460464291663792,0.24674811999999996,0.021100373333333283,-0.4692905866666667,0.73713908,0.5306255885389288,0.7425116148475754,0.7425116148475754,0.7425116148475754
LBP08_S13,LBP08,-1784,42,13,41,-1784,1716497871.64,2024-05-23 20:57:51.640000+00:00,2024-05-24 05:57:51.640000+09:00,2024,5,23,20,57,51,640,,,,,,,,,0.437256,-0.171143,1.203125,-29.296875,6.652832,-8.483887,,,,,,,,,,,0.0,1.0,1.0,13.0,0.0,0.0,0.0,5.0,0.0,0.026129520000000007,-0.25437173333333335,1.02619468,-0.5533854000000005,0.41748045333333417,7.089029986666666,-6.744400924862595,6.5787982500803475,-0.6569845003343572,-13.31202228726483,-4.086163773553932,9.921332686155989,17.097938882518186,-1.4653921495281454,16.476317611438965,-1.4613580598831462,0.41112647999999996,0.08322873333333336,0.17693032000000009,0.6712855333333334,0.45525415181496576,0.6850601222410535,0.6850601222410535,0.6850601222410535
LBP08_S13,LBP08,-1783,43,13,42,-1783,1716497871.68,2024-05-23 20:57:51.680000+00:00,2024-05-24 05:57:51.680000+09:00,2024,5,23,20,57,51,680,,,,,,,,,-0.086182,-0.38623,1.585449,7.8125,60.302734,21.240234,,,,,,,,,,,0.0,1.0,1.0,13.0,0.0,0.0,0.0,5.0,0.0,0.02294918666666667,-0.25156249333333336,1.00232424,-1.6235351333333337,1.0310872266666675,6.90917972,-2.5095497455668068,8.974833197925346,-1.2591490425042255,-13.412404277087502,-3.727170445636918,9.870966724455819,17.065180107405208,-1.4770407332487008,16.511471300126477,-1.4667333352715652,-0.10913118666666666,-0.13466750666666666,0.58312476,0.8269234533333334,0.6083415479647508,0.6722736931950032,0.6722736931950032,0.6722736931950032
LBP08_S13,LBP08,-1782,44,13,43,-1782,1716497871.72,2024-05-23 20:57:51.720000+00:00,2024-05-24 05:57:51.720000+09:00,2024,5,23,20,57,51,720,,,,,,,,,-0.292969,-0.715576,1.881104,10.498047,-72.875977,-0.488281,,,,,,,,,,,0.0,1.0,1.0,13.0,0.0,0.0,0.0,5.0,0.0,0.024700493333333337,-0.25294595999999997,0.9961198133333333,-1.6935221200000006,-2.9191080933333327,5.82763676,2.1222221175824,12.042278346016086,-0.9432159152332926,-13.327515392384205,-3.2454793117962746,9.833238087846487,16.87745163790465,-1.470415391288034,16.445000462881634,-1.4704421982443159,-0.31766949333333333,-0.46263004,0.8849841866666668,1.6652837200000001,1.0479205463942007,0.7259375293663171,0.7259375293663171,0.7259375293663171
LBP08_S13,LBP08,-1781,45,13,44,-1781,1716497871.76,2024-05-23 20:57:51.760000+00:00,2024-05-24 05:57:51.760000+09:00,2024,5,23,20,57,51,760,,,,,,,,,0.419678,-0.242432,1.649414,-13.427734,-10.681152,19.042969,,,,,,,,,,,0.0,1.0,1.0,13.0,0.0,0.0,0.0,5.0,0.0,0.031582,-0.2554362,1.0077702000000002,-1.0611978933333337,-2.857259133333333,5.8512370266666665,6.865678423886449,15.069334727927417,0.027296815506275364,-13.052888255428748,-2.642705922679178,9.834329960466738,16.55523579336178,-1.4439936331864214,16.279607297427948,-1.4762818867059493,0.388096,0.013004199999999994,0.6416437999999998,1.042744,0.749996253665363,0.7289448699036978,0.7289448699036978,0.7289448699036978
LBP08_S13,LBP08,-1780,46,13,45,-1780,1716497871.8,2024-05-23 20:57:51.800000+00:00,2024-05-24 05:57:51.800000+09:00,2024,5,23,20,57,51,800,,,,,,,,,-0.600586,0.25,-0.154053,-6.164551,189.086914,57.556152,,,,,,,,,,,0.0,1.0,1.0,13.0,0.0,0.0,0.0,5.0,0.0,0.02525062666666667,-0.25345703999999997,1.0160026266666666,-0.8048502266666671,-1.1539713733333326,6.9628906666666674,11.453582370085762,17.293859648087526,1.350675736083817,-12.594744960625317,-1.9509515367556767,9.88835698991009,16.13113190330641,-1.4685082056379795,16.026058796104437,-1.4797695551906385,-0.6258366266666666,0.50345704,-1.1700556266666666,2.299349293333333,1.4192147983647156,0.8056415286215887,0.8056415286215887,0.8056415286215887
LBP08_S13,LBP08,-1779,47,13,46,-1779,1716497871.84,2024-05-23 20:57:51.840000+00:00,2024-05-24 05:57:51.840000+09:00,2024,5,23,20,57,51,840,,,,,,,,,-0.021484,-0.461182,0.358154,29.47998,-48.706055,-41.931152,,,,,,,,,,,0.0,1.0,1.0,13.0,0.0,0.0,0.0,5.0,0.0,0.013749986666666669,-0.25416668,1.0213672133333334,0.694987013333333,-2.844238306666666,6.73502608,15.640012456057205,18.127487875891863,2.775825366374376,-11.969144462383028,-1.2258520217200022,9.999390004565065,15.644517659676985,-1.515110813767338,15.700434560247464,-1.4766992732877617,-0.03523398666666667,-0.20701532,-0.6632132133333334,0.90546252,0.6956641020428285,0.7946437859637127,0.7946437859637127,0.7946437859637127
LBP08_S13,LBP08,-1778,48,13,47,-1778,1716497871.88,2024-05-23 20:57:51.880000+00:00,2024-05-24 05:57:51.880000+09:00,2024,5,23,20,57,51,880,,,,,,,,,0.300781,0.173584,1.087891,77.880859,-14.404297,-36.682129,,,,,,,,,,,0.0,1.0,1.0,13.0,0.0,0.0,0.0,5.0,0.0,0.024055973333333338,-0.2492545733333333,1.0225716533333333,-0.03906246666666708,-3.8338216399999996,6.2133789466666665,19.211509247500942,17.30337884006859,4.106938345270999,-11.200684092482991,-0.5337168681172586,10.163667538375904,15.134077958883076,-1.4718109325178577,15.321631291065097,-1.472739631499915,0.2767250266666667,0.4228385733333333,0.06531934666666661,0.7648829466666667,0.5095447149477622,0.7687256885986262,0.7687256885986262,0.7687256885986262
LBP08_S13,LBP08,-1777,49,13,48,-1777,1716497871.92,2024-05-23 20:57:51.920000+00:00,2024-05-24 05:57:51.920000+09:00,2024,5,23,20,57,51,920,,,,,,,,,0.376221,-0.695312,1.520264,-39.428711,43.518066,5.737305,,,,,,,,,,,0.0,1.0,1.0,13.0,0.0,0.0,0.0,5.0,0.0,0.0199186,-0.24367840000000002,0.9963346799999999,-1.0489908533333339,0.5094400800000005,6.87255864,21.99983585388518,14.894636334545691,5.163991864136819,-10.320690658327583,0.06206858526456904,10.370227212941376,14.630861923420536,-1.4868602186175892,14.909677718207377,-1.4718439438260094,0.3563024,-0.4516336,0.5239293200000001,1.3318653200000001,0.7780914093153726,0.7695061653250218,0.7695061653250218,0.7695061653250218
LBP08_S13,LBP08,-1776,50,13,49,-1776,1716497871.96,2024-05-23 20:57:51.960000+00:00,2024-05-24 05:57:51.960000+09:00,2024,5,23,20,57,51,960,,,,,,,,,-0.333008,-0.520508,1.770264,8.972168,-8.361816,8.972168,,,,,,,,,,,0.0,1.0,1.0,13.0,0.0,0.0,0.0,5.0,0.0,0.012692040000000003,-0.24154298666666668,0.9773600666666666,-1.618652306666667,-0.11230470666666614,6.04410812,23.887042775141797,11.229686522857792,5.768244603334593,-9.36520894732191,0.5112560461788807,10.60095699707476,14.154462569295282,-1.516727071872464,14.484811618268532,-1.4749082246281175,-0.34570004000000004,-0.2789650133333333,0.7929039333333334,1.4175689866666668,0.9088600793386954,0.7802256971722275,0.7802256971722275,0.7802256971722275
LBP08_S13,LBP08,-1775,51,13,50,-1775,1716497872.0,2024-05-23 20:57:52+00:00,2024-05-24 05:57:52+09:00,2024,5,23,20,57,52,0,20.0,57.0,50.0,40.788727,141.62648,-1.53,3.0,14.0,-0.040527,-0.270508,1.810303,38.635254,-69.152832,14.404297,-543.0,46.0,588.0,446.0,0.0,1021.299988,26.530001,0.082251,-66.767876,3.775781,0.0,1.0,1.0,13.0,0.0,0.0,0.0,4.0,0.0,0.02870114666666667,-0.2458300933333333,0.9914193066666667,-1.5576171600000004,-3.097330746666666,5.540364626666666,24.81149495639748,6.775968819839018,5.790606632127603,-8.372749149066012,0.7822947989724414,10.832581262359865,13.713487166702532,-1.4511335832130874,14.066952547717545,-1.4758631938313922,-0.06922814666666667,-0.02467790666666672,0.8188836933333333,0.9127897466666667,0.8221751872779857,0.7832220893226387,0.7832220893226387,0.7832220893226387
LBP08_S13,LBP08,-1774,52,13,51,-1774,1716497872.04,2024-05-23 20:57:52.040000+00:00,2024-05-24 05:57:52.040000+09:00,2024,5,23,20,57,52,40,,,,,,,,,0.234131,-0.30542,1.236084,5.371094,131.713867,54.931641,,,,,,,,,,,0.0,1.0,1.0,13.0,0.0,0.0,0.0,4.0,0.0,0.035192026666666675,-0.24813152000000002,1.0015950800000002,-1.678873666666667,-2.1590169466666667,6.084798213333333,24.79236129939821,2.046931303248433,5.236687680461218,-7.381054697090083,0.8641720511023787,11.042048769578313,13.309906190694509,-1.4257957316496803,13.675275189860784,-1.4767717878776123,0.19893897333333332,-0.05728848,0.23448891999999977,0.49071637333333307,0.31279983800251143,0.751860605901297,0.751860605901297,0.751860605901297
LBP08_S13,LBP08,-1773,53,13,52,-1773,1716497872.08,2024-05-23 20:57:52.080000+00:00,2024-05-24 05:57:52.080000+09:00,2024,5,23,20,57,52,80,,,,,,,,,-0.266113,-0.095459,0.120361,111.999512,-9.094238,13.122559,,,,,,,,,,,0.0,1.0,1.0,13.0,0.0,0.0,0.0,4.0,0.0,0.025130186666666672,-0.25117838666666664,1.0082259333333334,-3.315429653333334,-1.4208984666666664,6.927083373333333,23.965442801647644,-2.45965349676566,4.300773234550145,-6.422436985024177,0.7657859112317523,11.214079698960319,12.945644378828018,-1.4680838565096417,13.327839763881368,-1.4744668773462586,-0.29124318666666665,0.15571938666666663,-0.8878649333333335,1.3348275066666668,0.9472989290644228,0.7640755010989922,0.7640755010989922,0.7640755010989922
LBP08_S13,LBP08,-1772,54,13,53,-1772,1716497872.12,2024-05-23 20:57:52.120000+00:00,2024-05-24 05:57:52.120000+09:00,2024,5,23,20,57,52,120,,,,,,,,,0.133057,0.074951,0.407715,-4.089355,-74.829102,-37.719727,,,,,,,,,,,0.0,1.0,1.0,13.0,0.0,0.0,0.0,4.0,0.0,0.017229800000000003,-0.2542838533333333,1.0127018533333334,-2.961425746666667,-3.910319039999999,6.588541706666667,22.5884578405431,-6.317318076092605,3.3345046342669744,-5.518898671402453,0.513093188188048,11.347459884330998,12.628790638516184,-1.5010581993091177,13.04134478757525,-1.4729765040712859,0.1158272,0.3292348533333333,-0.6049868533333334,1.0500489066666667,0.6984415663571504,0.7602146814082956,0.7602146814082956,0.7602146814082956
LBP08_S13,LBP08,-1771,55,13,54,-1771,1716497872.16,2024-05-23 20:57:52.160000+00:00,2024-05-24 05:57:52.160000+09:00,2024,5,23,20,57,52,160,,,,,,,,,0.333252,-0.461914,1.104004,5.981445,-19.470215,-32.958984,,,,,,,,,,,0.0,1.0,1.0,13.0,0.0,0.0,0.0,4.0,0.0,0.028548160000000003,-0.2495963466666667,1.0066569333333335,-3.242187466666667,-3.0460612266666667,6.427408893333333,20.97474497861116,-9.234671052930818,2.734461735640784,-4.6799088722580064,0.14370634607081534,11.45683835375663,12.376645087851925,-1.4535433252191672,12.830954856137534,-1.4692297573187638,0.30470384,-0.2123176533333333,0.09734706666666648,0.6143685599999997,0.3839266432748885,0.7393097904008843,0.7393097904008843,0.7393097904008843
LBP08_S13,LBP08,-1770,56,13,55,-1770,1716497872.2,2024-05-23 20:57:52.200000+00:00,2024-05-24 05:57:52.200000+09:00,2024,5,23,20,57,52,200,,,,,,,,,0.069092,-0.228271,1.46167,-8.972168,49.01123,21.30127,,,,,,,,,,,0.0,1.0,1.0,13.0,0.0,0.0,0.0,4.0,0.0,0.021429026666666667,-0.23578124000000003,0.9767903866666665,-3.6490885200000003,-0.8284505466666665,6.182454466666667,19.363430101126934,-11.100676606211113,2.8112455400243945,-3.905371668212929,-0.3003207181776292,11.569288175357606,12.21435832473881,-1.4775941461001794,12.710054787369433,-1.467944908750154,0.04766297333333333,0.007510240000000029,0.4848796133333335,0.5400528266666669,0.4872744628626814,0.7260447731620314,0.7260447731620314,0.7260447731620314
LBP08_S13,LBP08,-1769,57,13,56,-1769,1716497872.24,2024-05-23 20:57:52.240000+00:00,2024-05-24 05:57:52.240000+09:00,2024,5,23,20,57,52,240,,,,,,,,,-0.414551,-0.695557,1.611328,-14.831543,-86.791992,0.549316,,,,,,,,,,,0.0,1.0,1.0,13.0,0.0,0.0,0.0,4.0,0.0,0.018030586666666668,-0.23514322666666668,0.9674902666666666,-3.3544921733333335,-3.731282586666667,5.521647173333333,17.792807014168766,-11.969215069372215,3.7123687923739688,-3.1936593876461785,-0.7790893209525178,11.717782927052564,12.17016339988282,-1.4920617084538004,12.689879950022494,-1.476289849690843,-0.4325815866666667,-0.46041377333333333,0.6438377333333335,1.5368330933333336,0.902017016836098,0.7348433853457348,0.7348433853457348,0.7348433853457348
LBP08_S13,LBP08,-1768,58,13,57,-1768,1716497872.28,2024-05-23 20:57:52.280000+00:00,2024-05-24 05:57:52.280000+09:00,2024,5,23,20,57,52,280,,,,,,,,,0.257568,-0.26123,1.736084,61.096191,-52.978516,12.084961,,,,,,,,,,,0.0,1.0,1.0,13.0,0.0,0.0,0.0,4.0,0.0,0.027063800000000006,-0.24364908,0.98461592,-2.608235666666667,-3.574218786666666,6.227213586666667,16.05813625397718,-11.972680371885415,5.425631582789281,-2.551333937487091,-1.2579965358279344,11.934808190364135,12.269128195821875,-1.4569071997681329,12.779101753218125,-1.484147726057396,0.23050420000000002,-0.017580920000000028,0.75146808,0.9995532,0.7862223287496818,0.7372900016983037,0.7372900016983037,0.7372900016983037
LBP08_S13,LBP08,-1767,59,13,58,-1767,1716497872.32,2024-05-23 20:57:52.320000+00:00,2024-05-24 05:57:52.320000+09:00,2024,5,23,20,57,52,320,,,,,,,,,-0.282227,0.01709,0.191406,9.643555,187.805176,59.753418,,,,,,,,,,,0.0,1.0,1.0,13.0,0.0,0.0,0.0,4.0,0.0,0.028844400000000003,-0.24325845333333335,0.9968457333333334,-1.6878255200000003,-0.9562174933333332,6.670735733333333,13.790413548676039,-11.204144040632936,7.831253394975357,-1.9997173955400496,-1.7061622974532518,12.24805832616315,12.526962609043379,-1.4493927510923668,12.98331047447797,-1.4894931890004683,-0.3110714,0.26034845333333334,-0.8054397333333334,1.3768595866666669,0.9018203241683401,0.744768652719669,0.744768652719669,0.744768652719669
LBP08_S13,LBP08,-1766,60,13,59,-1766,1716497872.36,2024-05-23 20:57:52.360000+00:00,2024-05-24 05:57:52.360000+09:00,2024,5,23,20,57,52,360,,,,,,,,,-0.094727,-0.342285,-0.001465,-13.977051,-42.724609,-6.164551,,,,,,,,,,,0.0,1.0,1.0,13.0,0.0,0.0,0.0,4.0,0.0,0.01615234666666667,-0.24824217333333332,1.0039518533333334,-1.9905598933333337,-0.6347656666666666,6.958007866666667,10.62638536842559,-9.6451320657405,10.745988809160306,-1.574661980803026,-2.091967580082872,12.677897878529562,12.945461881614293,-1.503878586186365,13.304035606570045,-1.4917064518067198,-0.11087934666666668,-0.09404282666666669,-1.0054168533333334,1.2103390266666667,1.015874663396713,0.7565558705751927,0.7565558705751927,0.7565558705751927
LBP08_S13,LBP08,-1765,61,13,60,-1765,1716497872.4,2024-05-23 20:57:52.400000+00:00,2024-05-24 05:57:52.400000+09:00,2024,5,23,20,57,52,400,,,,,,,,,0.357422,-0.05127,0.577393,56.030273,-111.328125,-27.770996,,,,,,,,,,,0.0,1.0,1.0,13.0,0.0,0.0,0.0,4.0,0.0,0.008639320000000002,-0.24543293333333333,1.0071191733333333,-1.856282546666667,-3.0468750399999998,5.94726568,6.399351447071485,-7.212386773425442,13.924075535708749,-1.3186879229201667,-2.3804630510198894,13.234860899957912,13.511738793233134,-1.5345829926199794,13.736981424510152,-1.4955479027399887,0.34878268,0.19416293333333332,-0.4297261733333333,0.9726717866666666,0.5865263733169181,0.7494713081894312,0.7494713081894312,0.7494713081894312
LBP08_S13,LBP08,-1764,62,13,61,-1764,1716497872.44,2024-05-23 20:57:52.440000+00:00,2024-05-24 05:57:52.440000+09:00,2024,5,23,20,57,52,440,,,,,,,,,0.375244,-0.229492,1.092529,-15.075684,-3.173828,7.629395,,,,,,,,,,,0.0,1.0,1.0,13.0,0.0,0.0,0.0,4.0,0.0,0.015390626666666669,-0.23787107999999998,0.9942090133333333,-1.8595377600000003,-0.8349609866666666,5.778808653333334,1.2773714121501,-3.924111609841928,17.0284288677805,-1.2675930664341626,-2.5374275154135666,13.915998054669132,14.20212422265081,-1.5043744953152092,14.269813126513455,-1.4973260084414373,0.35985337333333334,0.008379079999999983,0.09831998666666675,0.46655244000000007,0.3731373461061748,0.7344179497061009,0.7344179497061009,0.7344179497061009
LBP08_S13,LBP08,-1763,63,13,62,-1763,1716497872.48,2024-05-23 20:57:52.480000+00:00,2024-05-24 05:57:52.480000+09:00,2024,5,23,20,57,52,480,,,,,,,,,-0.093506,-0.305908,1.410645,17.333984,57.983398,50.598145,,,,,,,,,,,0.0,1.0,1.0,13.0,0.0,0.0,0.0,4.0,0.0,0.011354173333333337,-0.23711261333333336,0.9678939066666667,-2.9459635333333334,0.1391601066666669,5.131835986666666,-4.20601139292743,-0.08597457882079174,19.620862490946482,-1.4358335221512597,-2.5408664985663982,14.700832554306992,14.987731591426456,-1.5215384859403656,14.880691275126832,-1.50211345643312,-0.10486017333333335,-0.06879538666666665,0.4427510933333332,0.6164066533333332,0.4601706116496085,0.713989473928037,0.7238699751654666,0.7238699751654666
LBP08_S13,LBP08,-1762,64,13,63,-1762,1716497872.52,2024-05-23 20:57:52.520000+00:00,2024-05-24 05:57:52.520000+09:00,2024,5,23,20,57,52,520,,,,,,,,,-0.258545,-0.509766,1.732666,31.433105,-106.872559,2.563477,,,,,,,,,,,0.0,1.0,1.0,13.0,0.0,0.0,0.0,4.0,0.0,0.011077480000000004,-0.2395995866666667,0.9623698133333333,-1.9254557200000006,-3.5815430266666666,3.7711589066666664,-9.254107951862627,3.634714879548776,21.211325890044296,-1.8059978402257648,-2.3954779033844473,15.549285589908763,15.836041959436947,-1.5231908273716308,15.539004663566265,-1.5078885317327173,-0.26962248000000005,-0.27016641333333336,0.7702961866666668,1.3100850800000003,0.8596757457367029,0.7373495743122102,0.7288998185199568,0.7288998185199568
LBP08_S13,LBP08,-1761,65,13,64,-1761,1716497872.56,2024-05-23 20:57:52.560000+00:00,2024-05-24 05:57:52.560000+09:00,2024,5,23,20,57,52,560,,,,,,,,,0.541748,0.175537,1.710205,-63.049316,-12.695312,12.878418,,,,,,,,,,,0.0,1.0,1.0,13.0,0.0,0.0,0.0,4.0,0.0,0.018424480000000003,-0.24010414666666666,0.9775195466666667,-0.46386717333333377,-3.1013998,4.014485733333333,-13.025173988375357,6.3176829550837255,21.36500518968347,-2.327004799760779,-2.1427705851810983,16.403885797496102,16.706103267253003,-1.4919578345518565,16.208986678601654,-1.5122458535839434,0.52332352,0.4156411466666666,0.7326854533333332,1.6716501199999998,0.9916920101089067,0.7293026495718548,0.7382852539338478,0.7382852539338478
LBP08_S13,LBP08,-1760,66,13,65,-1760,1716497872.6,2024-05-23 20:57:52.600000+00:00,2024-05-24 05:57:52.600000+09:00,2024,5,23,20,57,52,600,,,,,,,,,-1.118164,0.138184,-0.473389,-104.614258,190.979004,64.758301,,,,,,,,,,,0.0,1.0,1.0,13.0,0.0,0.0,0.0,4.0,0.0,0.017597653333333338,-0.2395768,0.9892578266666667,-0.6827799333333338,-0.6412760933333332,4.96500656,-14.895810378363366,7.058500518423659,19.831104150578206,-2.9228372148953135,-1.860430564444152,17.19712996351923,17.542675344771844,-1.4953752031146657,16.85549527404735,-1.5137540781048462,-1.1357616533333332,0.3777608,-1.4626468266666668,2.9761692799999997,1.889971823799809,0.7836764989822899,0.7779985839292259,0.7779985839292259
LBP08_S13,LBP08,-1759,67,13,66,-1759,1716497872.64,2024-05-23 20:57:52.640000+00:00,2024-05-24 05:57:52.640000+09:00,2024,5,23,20,57,52,640,,,,,,,,,-0.007812,-0.014893,0.156738,33.874512,-85.876465,-5.310059,,,,,,,,,,,0.0,1.0,1.0,13.0,0.0,0.0,0.0,4.0,0.0,0.007343746666666671,-0.2449934666666667,0.9948730533333334,-0.6111653600000005,-1.5852865066666668,5.227864626666667,-14.661658388523456,5.295200307809771,16.646673529664962,-3.5093035504362518,-1.648622552131761,17.86299690470583,18.27894488601659,-1.5399361883706286,17.44998815800462,-1.5065652441776076,-0.015155746666666671,0.2301004666666667,-0.8381350533333334,1.0833912666666667,0.8692791778498502,0.8002375000236854,0.7810412703932468,0.7810412703932468
LBP08_S13,LBP08,-1758,68,13,67,-1758,1716497872.68,2024-05-23 20:57:52.680000+00:00,2024-05-24 05:57:52.680000+09:00,2024,5,23,20,57,52,680,,,,,,,,,0.559814,-0.122314,1.126465,11.59668,-10.925293,13.85498,,,,,,,,,,,0.0,1.0,1.0,13.0,0.0,0.0,0.0,4.0,0.0,0.013486320000000003,-0.2472363066666667,0.99636068,-0.9960937466666671,-3.919270893333333,4.71516932,-12.584979307970977,1.0528885101396641,12.176874123540305,-4.01270272275509,-1.6065070117261744,18.350071869647444,18.852262080216207,-1.5146579527641064,17.97441254206388,-1.499749699067892,0.54632768,0.1249223066666667,0.13010432000000005,0.8013543066666667,0.5753317744743163,0.7989171090840679,0.7744054802023135,0.7744054802023135
LBP08_S13,LBP08,-1757,69,13,68,-1757,1716497872.72,2024-05-23 20:57:52.720000+00:00,2024-05-24 05:57:52.720000+09:00,2024,5,23,20,57,52,720,,,,,,,,,0.134521,-0.618652,1.383789,-7.141113,92.651367,20.568848,,,,,,,,,,,0.0,1.0,1.0,13.0,0.0,0.0,0.0,4.0,0.0,0.018375640000000006,-0.24274086666666667,0.9771028666666666,-0.9684244666666671,0.40771478666666666,5.616048226666667,-9.277485238856368,-5.000276527899436,7.072705213621417,-4.383802132309345,-1.806518072842152,18.6329800781923,19.226782759397278,-1.4929659696046267,18.421777053166466,-1.494555889845397,0.11614536,-0.3759111333333333,0.40668613333333337,0.8987426266666667,0.5658555786232902,0.7796345103732314,0.7678882957779689,0.7678882957779689
LBP08_S13,LBP08,-1756,70,13,69,-1756,1716497872.76,2024-05-23 20:57:52.760000+00:00,2024-05-24 05:57:52.760000+09:00,2024,5,23,20,57,52,760,,,,,,,,,-0.523682,-0.519531,1.492676,-0.671387,-48.034668,11.901855,,,,,,,,,,,0.0,1.0,1.0,13.0,0.0,0.0,0.0,4.0,0.0,0.012135400000000003,-0.24123696,0.9546516933333333,-1.6341145733333338,0.029296813333333394,5.31168624,-5.489314199130231,-11.707662019710625,2.1521814356965128,-4.603374700274554,-2.274824553630577,18.71906733562016,19.410547836071242,-1.518960831395393,18.794132190703884,-1.4936096613050729,-0.5358174,-0.27829403999999996,0.5380243066666666,1.3521357466666666,0.8087138019141437,0.7819832123031827,0.76912543232755,0.76912543232755
LBP08_S13,LBP08,-1755,71,13,70,-1755,1716497872.8,2024-05-23 20:57:52.800000+00:00,2024-05-24 05:57:52.800000+09:00,2024,5,23,20,57,52,800,,,,,,,,,0.127441,-0.225586,1.651611,-14.404297,-154.907227,-52.490234,,,,,,,,,,,0.0,1.0,1.0,13.0,0.0,0.0,0.0,4.0,0.0,0.026123040000000007,-0.24841794666666667,0.9681380133333335,-0.9684244666666671,-3.4187826133333337,4.684244840000001,-1.8984687964154638,-17.731988991351507,-1.7678623998084417,-4.679313452131173,-2.9841041132846375,18.648352839627822,19.456667632805807,-1.4626946533475946,19.10010390328938,-1.4919588984296475,0.10131795999999998,0.022831946666666658,0.6834729866666664,0.8076228933333331,0.6913189931646637,0.7528673800951806,0.7668370076462887,0.7668370076462887
LBP08_S13,LBP08,-1754,72,13,71,-1754,1716497872.84,2024-05-23 20:57:52.840000+00:00,2024-05-24 05:57:52.840000+09:00,2024,5,23,20,57,52,840,,,,,,,,,-0.03418,-0.091553,0.424316,9.460449,130.554199,34.790039,,,,,,,,,,,0.0,1.0,1.0,13.0,0.0,0.0,0.0,4.0,0.0,0.032438146666666674,-0.24696938666666668,0.9777343733333334,-0.8292643200000005,-2.6066081333333333,5.1676432666666665,1.0371090948818564,-21.91284116489574,-4.048538519197947,-4.637829088335899,-3.8606177598804674,18.486411298859906,19.446368063243437,-1.4362190442180525,19.353658864985906,-1.4908169804590976,-0.06661814666666668,0.15541638666666668,-0.5534183733333333,0.7754529066666667,0.5786744565407541,0.7481877942750976,0.761460934757559,0.761460934757559
LBP08_S13,LBP08,-1753,73,13,72,-1753,1716497872.88,2024-05-23 20:57:52.880000+00:00,2024-05-24 05:57:52.880000+09:00,2024,5,23,20,57,52,880,,,,,,,,,-0.14502,-0.012695,-0.096924,33.203125,-50.048828,-10.620117,,,,,,,,,,,0.0,1.0,1.0,13.0,0.0,0.0,0.0,4.0,0.0,0.024755853333333338,-0.25153970666666664,0.9851334666666666,-2.3266601600000003,-1.752115946666667,5.820312533333333,3.142546088674349,-23.563061827825106,-4.369572386784063,-4.512127244788925,-4.803140232993472,18.311628403388543,19.4613767024523,-1.4696003937154145,19.57383455151175,-1.486830210962698,-0.16977585333333334,0.23884470666666663,-1.0820574666666665,1.4906780266666664,1.121034787795112,0.7726473971889917,0.7714490973419356,0.7714490973419356
LBP08_S13,LBP08,-1752,74,13,73,-1752,1716497872.92,2024-05-23 20:57:52.920000+00:00,2024-05-24 05:57:52.920000+09:00,2024,5,23,20,57,52,920,,,,,,,,,0.250244,-0.039795,0.388184,0.061035,-136.901855,-35.339355,,,,,,,,,,,0.0,1.0,1.0,13.0,0.0,0.0,0.0,4.0,0.0,0.014062493333333335,-0.25414713333333333,0.9873893333333335,-0.644531253333334,-3.342285213333333,5.197753933333334,4.504588425331658,-22.625243745312222,-2.7982795778669116,-4.331943707775658,-5.708149982805961,18.199697220273865,19.559593334811158,-1.5137285419683906,19.783750547588834,-1.482263338305252,0.23618150666666668,0.21435213333333333,-0.5992053333333335,1.0497389733333335,0.6788045172588343,0.76867592150673,0.768945189772122,0.768945189772122
LBP08_S13,LBP08,-1751,75,13,74,-1751,1716497872.96,2024-05-23 20:57:52.960000+00:00,2024-05-24 05:57:52.960000+09:00,2024,5,23,20,57,52,960,,,,,,,,,0.515381,-0.506592,1.069336,-65.734863,-20.690918,-2.380371,,,,,,,,,,,0.0,1.0,1.0,13.0,0.0,0.0,0.0,4.0,0.0,0.023271466666666667,-0.25102213333333334,0.9862207066666665,-1.2019856933333342,-4.340820373333334,4.6704101866666665,5.38321154532932,-19.651220876601837,0.2317700548700296,-4.116615245962485,-6.494198817870034,18.208968022468667,19.76582039310794,-1.4754502057976024,20.00766047053822,-1.4797275213756493,0.4921095333333333,-0.2555698666666667,0.08311529333333356,0.8307946933333336,0.5607101760548447,0.754749925375376,0.7634653209900883,0.7634653209900883
LBP08_S13,LBP08,-1750,76,13,75,-1750,1716497873.0,2024-05-23 20:57:53+00:00,2024-05-24 05:57:53+09:00,2024,5,23,20,57,53,0,20.0,57.0,51.0,40.788807,141.626419,0.455,3.0,14.0,0.164307,-0.262939,1.273438,34.118652,100.280762,26.672363,-543.0,43.0,589.0,295.0,0.0,1021.5,26.59,0.084233,-68.421371,3.775781,0.0,1.0,1.0,13.0,0.0,0.0,0.0,4.0,0.0,0.02084958666666667,-0.24719075999999995,0.9631608133333335,-1.1401367333333339,-0.46875006666666685,4.936523466666666,6.094268187185411,-15.602080192101806,4.032164360502943,-3.872844518475069,-7.118282025554106,18.370254596888785,20.078224961737096,-1.483956023409167,20.266437581247132,-1.4780355858358747,0.14345741333333334,-0.015748240000000024,0.3102771866666666,0.46948283999999996,0.34219872745112584,0.7355508669823017,0.7526636134634483,0.7526636134634483
LBP08_S13,LBP08,-1749,77,13,76,-1749,1716497873.04,2024-05-23 20:57:53.040000+00:00,2024-05-24 05:57:53.040000+09:00,2024,5,23,20,57,53,40,,,,,,,,,-0.535889,-0.625244,1.492188,41.748047,-31.12793,14.404297,,,,,,,,,,,0.0,1.0,1.0,13.0,0.0,0.0,0.0,4.0,0.0,0.016777320000000005,-0.24448242666666664,0.9506054666666667,-1.2565104266666673,-2.9402669866666673,4.003906280000001,6.906544693884088,-11.520434789256221,7.836364703758375,-3.5965827307197054,-7.579099417124355,18.68370918503912,20.480701751275056,-1.5000684934066333,20.57321798699645,-1.4833817415724009,-0.5526663199999999,-0.3807615733333334,0.5415825333333334,1.4750104266666666,0.8623984446886305,0.7575348112497464,0.7554069842440778,0.7554069842440778
LBP08_S13,LBP08,-1748,78,13,77,-1748,1716497873.08,2024-05-23 20:57:53.080000+00:00,2024-05-24 05:57:53.080000+09:00,2024,5,23,20,57,53,80,,,,,,,,,0.275635,-0.325439,1.722656,22.888184,-102.905273,5.554199,,,,,,,,,,,0.0,1.0,1.0,13.0,0.0,0.0,0.0,4.0,0.0,0.024586560000000004,-0.2484602933333333,0.9634049466666668,-0.1944987066666674,-3.685709693333333,4.281412786666667,7.970317114553657,-8.19114851646876,10.990478947184426,-3.277770046137559,-7.906745357783105,19.1233283429265,20.951422040987033,-1.468989226189643,20.93113708796621,-1.4871216924829667,0.25104844000000004,-0.07697870666666667,0.7592510533333332,1.0872781999999999,0.8033761276601903,0.7517778991935771,0.7565769633517879,0.7565769633517879
LBP08_S13,LBP08,-1747,79,13,78,-1747,1716497873.12,2024-05-23 20:57:53.120000+00:00,2024-05-24 05:57:53.120000+09:00,2024,5,23,20,57,53,120,,,,,,,,,-0.088867,-0.19043,0.487061,-4.699707,194.885254,46.447754,,,,,,,,,,,0.0,1.0,1.0,13.0,0.0,0.0,0.0,4.0,0.0,0.02477210666666667,-0.2467643333333333,0.96923828,-0.7722981866666675,-2.4934896400000004,4.921061226666667,9.262763900276902,-5.92082598581463,13.0978061164786,-2.9072594901264828,-8.143578397215691,19.647240587585642,21.465881988891145,-1.4676078003086033,21.33423117898943,-1.494630030812726,-0.11363910666666667,0.05633433333333332,-0.48217728,0.65215072,0.49858031752598053,0.7437834492403304,0.750434186070221,0.750434186070221
LBP08_S13,LBP08,-1746,80,13,79,-1746,1716497873.16,2024-05-23 20:57:53.160000+00:00,2024-05-24 05:57:53.160000+09:00,2024,5,23,20,57,53,160,,,,,,,,,-0.102539,0.021484,-0.012939,-27.770996,-54.199219,-4.943848,,,,,,,,,,,0.0,1.0,1.0,13.0,0.0,0.0,0.0,4.0,0.0,0.01669918666666667,-0.25032878666666664,0.9748014266666667,-0.3629557333333341,-2.185872453333334,5.56477868,10.5416811636592,-4.517252927991536,14.075369006366099,-2.4855922435801148,-8.324268514335353,20.210255347840285,21.998318943160346,-1.5020414759976468,21.77111945314756,-1.4944802290240697,-0.11923818666666668,0.27181278666666664,-0.9877404266666667,1.3787914000000001,1.0313733982543385,0.7696813194395083,0.7569676561210145,0.7569676561210145
LBP08_S13,LBP08,-1745,81,13,80,-1745,1716497873.2,2024-05-23 20:57:53.200000+00:00,2024-05-24 05:57:53.200000+09:00,2024,5,23,20,57,53,200,,,,,,,,,0.340088,-0.387207,0.491699,-21.789551,-100.708008,4.211426,,,,,,,,,,,0.0,1.0,1.0,13.0,0.0,0.0,0.0,4.0,0.0,0.013229133333333337,-0.24961916000000003,0.9770377600000001,-0.3531901066666674,-4.616699266666667,5.070800826666667,11.33891761292454,-3.4749705056705724,14.115690615126436,-2.0320355390631333,-8.463267334562175,20.774882972445344,22.524471690299027,-1.5161562107128537,22.229793250733273,-1.495635315587565,0.32685886666666664,-0.13758784,-0.4853387600000001,0.9497854666666667,0.6010996958848183,0.7742343287603939,0.7534252024792828,0.7534252024792828
LBP08_S13,LBP08,-1744,82,13,81,-1744,1716497873.24,2024-05-23 20:57:53.240000+00:00,2024-05-24 05:57:53.240000+09:00,2024,5,23,20,57,53,240,,,,,,,,,0.394287,-0.282227,0.994629,29.602051,-10.803223,-5.493164,,,,,,,,,,,0.0,1.0,1.0,13.0,0.0,0.0,0.0,4.0,0.0,0.023268200000000003,-0.24615236000000001,0.9718163999999999,-1.0725911466666673,-3.2796224400000007,4.95117192,11.045827013668795,-2.2888961905644596,13.581152461616032,-1.5902024585163814,-8.554823182184753,21.318129070909986,23.02555907294098,-1.4736185533237132,22.70151416341697,-1.4956896524678667,0.3710188,-0.03607463999999999,0.02281260000000007,0.42990604000000004,0.3734658542937086,0.7530922822586983,0.7449816614084922,0.7449816614084922
LBP08_S13,LBP08,-1743,83,13,82,-1743,1716497873.28,2024-05-23 20:57:53.280000+00:00,2024-05-24 05:57:53.280000+09:00,2024,5,23,20,57,53,280,,,,,,,,,-0.104492,-0.205811,1.364014,10.375977,62.988281,51.330566,,,,,,,,,,,0.0,1.0,1.0,13.0,0.0,0.0,0.0,4.0,0.0,0.0060416400000000035,-0.23854493333333332,0.9465104133333333,-1.0677083333333341,-1.3297526533333337,4.740397173333334,9.10645661543782,-0.7495250929221994,12.875950224515396,-1.2259441938988687,-8.58480418590164,21.8331670798906,23.49231761268452,-1.5446837770130057,23.18259794242777,-1.4986108560906566,-0.11053364,0.032733933333333326,0.41750358666666676,0.56077116,0.433126356670489,0.7389684433755306,0.7382021982620139,0.7382021982620139
LBP08_S13,LBP08,-1742,84,13,83,-1742,1716497873.32,2024-05-23 20:57:53.320000+00:00,2024-05-24 05:57:53.320000+09:00,2024,5,23,20,57,53,320,,,,,,,,,-0.495605,-0.34668,1.584961,96.740723,-108.032227,-9.277344,,,,,,,,,,,0.0,1.0,1.0,13.0,0.0,0.0,0.0,4.0,0.0,0.013994119999999999,-0.24650066666666665,0.9530794266666666,-1.2654622400000006,-4.580891973333334,3.7320964000000005,5.259144890568188,0.9228244210049985,12.334174839302559,-1.015578398276141,-8.54789120906144,22.326534073462703,23.928476076392453,-1.5122305240818281,23.67401362141035,-1.502942179576537,-0.5095991200000001,-0.10017933333333334,0.6318815733333335,1.241660026666667,0.8179251094385687,0.7356126347863398,0.7398984304147066,0.7398984304147066
LBP08_S13,LBP08,-1741,85,13,84,-1741,1716497873.36,2024-05-23 20:57:53.360000+00:00,2024-05-24 05:57:53.360000+09:00,2024,5,23,20,57,53,360,,,,,,,,,0.505615,-0.14209,1.648438,-8.605957,-33.447266,2.258301,,,,,,,,,,,0.0,1.0,1.0,13.0,0.0,0.0,0.0,4.0,0.0,0.019576800000000002,-0.24020834666666668,0.9604687599999999,-1.1116536400000008,-4.40755212,3.8834635866666667,-0.28762859373026894,2.16523609818631,12.1429854740064,-1.027083542025352,-8.461281765133988,22.812253492422958,24.35255836896509,-1.4870010714325566,24.179501362644864,-1.5059758544214374,0.48603820000000003,0.09811834666666669,0.6879692400000001,1.2721257866666669,0.8480342074456774,0.7288990165482981,0.7421512591028518,0.7421512591028518
LBP08_S13,LBP08,-1740,86,13,85,-1740,1716497873.4,2024-05-23 20:57:53.400000+00:00,2024-05-24 05:57:53.400000+09:00,2024,5,23,20,57,53,400,,,,,,,,,-0.631348,-0.001709,-0.151855,-43.762207,207.824707,39.733887,,,,,,,,,,,0.0,1.0,1.0,13.0,0.0,0.0,0.0,4.0,0.0,0.020683573333333333,-0.24674154666666667,0.9635449333333332,-2.1720377466666676,-3.535156280000001,4.304199266666667,-6.8441258629237645,2.337881443271591,12.307293397693602,-1.3008485765423026,-8.367766507403124,23.304545228330703,24.79543408857407,-1.4844993922121834,24.70316178087877,-1.5084473807894763,-0.6520315733333334,0.24503254666666668,-1.1153999333333333,2.0124640533333333,1.3150297079646143,0.7580391499342061,0.753842656018398,0.753842656018398
LBP08_S13,LBP08,-1739,87,13,86,-1739,1716497873.44,2024-05-23 20:57:53.440000+00:00,2024-05-24 05:57:53.440000+09:00,2024,5,23,20,57,53,440,,,,,,,,,-0.128906,-0.23877,0.177734,-53.100586,-32.958984,-26.611328,,,,,,,,,,,0.0,1.0,1.0,13.0,0.0,0.0,0.0,4.0,0.0,0.00992510666666667,-0.24657878666666666,0.9660091199999999,-1.6707356666666677,-4.161783880000001,4.298502653333333,-13.408185863999721,1.041615123205053,12.660877285300625,-1.8371760111022915,-8.326101902474921,23.81098031974273,25.291539541383038,-1.529280529634532,25.24737165281565,-1.5069788353109528,-0.13883110666666665,0.0078087866666666506,-0.78827512,0.9349150133333333,0.8004453248901584,0.7751314690855655,0.7547747093958331,0.7547747093958331
LBP08_S13,LBP08,-1738,88,13,87,-1738,1716497873.48,2024-05-23 20:57:53.480000+00:00,2024-05-24 05:57:53.480000+09:00,2024,5,23,20,57,53,480,,,,,,,,,0.368408,-0.230957,0.843994,13.427734,-63.049316,4.699707,,,,,,,,,,,0.0,1.0,1.0,13.0,0.0,0.0,0.0,4.0,0.0,0.013756493333333335,-0.24215821333333334,0.9657226533333333,-2.101236973333334,-5.516764360000001,3.9461263466666665,-18.93656523383488,-1.6711322377998024,12.926967729501895,-2.5946386204556866,-8.392947191986913,24.328059028922805,25.865578830812847,-1.5123024610484455,25.811528400907974,-1.508632488415867,0.35465150666666667,0.011201213333333349,-0.12172865333333327,0.4875813733333333,0.3751280093560362,0.7717297649938226,0.7428596194609298,0.7473306564538764
LBP08_S13,LBP08,-1737,89,13,88,-1737,1716497873.52,2024-05-23 20:57:53.520000+00:00,2024-05-24 05:57:53.520000+09:00,2024,5,23,20,57,53,520,,,,,,,,,0.394775,-0.265869,1.010986,-14.526367,12.451172,32.470703,,,,,,,,,,,0.0,1.0,1.0,13.0,0.0,0.0,0.0,4.0,0.0,0.017242813333333336,-0.24379232,0.9556119733333333,-3.0305989600000007,-2.728678426666667,4.129231813333333,-22.607722661612492,-5.292095011440499,12.820047105438048,-3.4989475269201864,-8.604630992444532,24.840860913140325,26.520759401236244,-1.497944548757611,26.39159777100769,-1.503473411906259,0.37753218666666666,-0.022076680000000015,0.05537402666666669,0.45498289333333336,0.3822096474428896,0.7526311210620701,0.7449903476871402,0.7403090985882805
LBP08_S13,LBP08,-1736,90,13,89,-1736,1716497873.56,2024-05-23 20:57:53.560000+00:00,2024-05-24 05:57:53.560000+09:00,2024,5,23,20,57,53,560,,,,,,,,,-0.271484,-0.401855,1.494873,-78.24707,27.832031,63.354492,,,,,,,,,,,0.0,1.0,1.0,13.0,0.0,0.0,0.0,4.0,0.0,0.010169240000000001,-0.2380501333333333,0.9388671866666668,-3.1347656266666677,-4.477539106666668,3.0834961333333335,-23.99834122999003,-9.038663606392081,12.158485487393794,-4.458881176119787,-8.966177536700215,25.327200332636078,27.234923125499435,-1.5267567396780355,26.98001049074399,-1.504227123958374,-0.28165324,-0.16380486666666672,0.5560058133333331,1.00146392,0.6444401030403394,0.7387410447793274,0.734021847175591,0.7385002496156778
LBP08_S13,LBP08,-1735,91,13,90,-1735,1716497873.6,2024-05-23 20:57:53.600000+00:00,2024-05-24 05:57:53.600000+09:00,2024,5,23,20,57,53,600,,,,,,,,,-0.365967,-0.479492,1.676514,24.841309,-134.460449,-3.540039,,,,,,,,,,,0.0,1.0,1.0,13.0,0.0,0.0,0.0,4.0,0.0,0.016080693333333337,-0.23887044000000002,0.9427766933333334,-4.2407226666666675,-5.491536506666666,2.463378946666667,-23.146746495246123,-12.114221275570515,10.93610576743198,-5.384751035929632,-9.450746387723036,25.764644563333356,27.96657040966783,-1.5014707559276181,27.565473173575278,-1.5039895603046263,-0.3820476933333333,-0.24062155999999996,0.7337373066666667,1.35640656,0.8615274866843242,0.697603271294708,0.7406398851384989,0.7407785317836157
LBP08_S13,LBP08,-1734,92,13,91,-1734,1716497873.64,2024-05-23 20:57:53.640000+00:00,2024-05-24 05:57:53.640000+09:00,2024,5,23,20,57,53,640,,,,,,,,,0.463623,-0.281738,1.266846,-31.37207,46.630859,10.009766,,,,,,,,,,,0.0,1.0,1.0,13.0,0.0,0.0,0.0,4.0,0.0,0.018990840000000002,-0.24244790666666666,0.9514615866666666,-3.8313802266666674,-4.71679692,2.609863333333333,-20.50771988723029,-13.935378168202995,9.306643614753224,-6.205059831418843,-10.008161514451157,26.136910307923486,28.6671265538642,-1.4901550843728546,28.132768465875436,-1.5054352013715318,0.44463216,-0.03929009333333333,0.31538441333333334,0.7993066666666666,0.5465425850874005,0.6846938075842098,0.7424656538039477,0.7372469691164119
LBP08_S13,LBP08,-1733,93,13,92,-1733,1716497873.68,2024-05-23 20:57:53.680000+00:00,2024-05-24 05:57:53.680000+09:00,2024,5,23,20,57,53,680,,,,,,,,,-0.620361,0.53418,-0.34668,-52.55127,48.828125,-24.658203,,,,,,,,,,,0.0,1.0,1.0,13.0,0.0,0.0,0.0,4.0,0.0,0.018118440000000003,-0.23986001333333334,0.9569986933333335,-3.7109375200000017,-3.602701866666667,3.0948893733333334,-16.819334198170008,-14.25858085213003,7.481527916827216,-6.877833199345644,-10.578504748536357,26.436171424596576,29.293011313681696,-1.4930930119169243,28.663184018515818,-1.5007501743593448,-0.63847944,0.7740400133333334,-1.3036786933333335,2.7161981466666667,1.6451054899291682,0.7274847562024039,0.7632009326432359,0.7534587284166395
LBP08_S13,LBP08,-1732,94,13,93,-1732,1716497873.72,2024-05-23 20:57:53.720000+00:00,2024-05-24 05:57:53.720000+09:00,2024,5,23,20,57,53,720,,,,,,,,,0.025879,-0.187012,0.202393,21.606445,-92.102051,-17.089844,,,,,,,,,,,0.0,1.0,1.0,13.0,0.0,0.0,0.0,4.0,0.0,0.012180933333333335,-0.24619465333333332,0.9602441333333335,-3.833821640000001,-4.806315146666668,2.8133138399999997,-12.91492841281577,-13.19410953207266,5.599887282046132,-7.394430335858274,-11.106269129819264,26.66016691587842,29.812603273755474,-1.5197676446029786,29.13625562024139,-1.4953739623317657,0.013698066666666665,0.05918265333333331,-0.7578511333333335,0.8307318533333335,0.7602818975752322,0.7352618089604818,0.7574481596668566,0.7535784331387202
LBP08_S13,LBP08,-1731,95,13,94,-1731,1716497873.76,2024-05-23 20:57:53.760000+00:00,2024-05-24 05:57:53.760000+09:00,2024,5,23,20,57,53,760,,,,,,,,,0.36377,-0.187744,0.89917,-2.624512,-33.569336,-5.493164,,,,,,,,,,,0.0,1.0,1.0,13.0,0.0,0.0,0.0,4.0,0.0,0.020195253333333333,-0.24096678666666668,0.9609863200000001,-3.7459310133333346,-4.605306039999999,2.6293945733333333,-9.523898873773483,-11.133688973563354,3.6532514479022646,-7.775386290809213,-11.551616688761799,26.80629697379451,30.20718519727796,-1.4846254348950791,29.532879906757707,-1.4911083645876175,0.34357474666666665,0.05322278666666669,-0.061816320000000036,0.4586138533333334,0.35312537290029455,0.7170382717999277,0.7495107420515552,0.746674070031161
LBP08_S13,LBP08,-1730,96,13,95,-1730,1716497873.8,2024-05-23 20:57:53.800000+00:00,2024-05-24 05:57:53.800000+09:00,2024,5,23,20,57,53,800,,,,,,,,,0.369385,-0.314453,1.248047,16.113281,62.561035,26.000977,,,,,,,,,,,0.0,1.0,1.0,13.0,0.0,0.0,0.0,4.0,0.0,0.016874946666666668,-0.2419986933333333,0.94625976,-4.8372396,-1.5136719200000002,3.0916341600000004,-7.113503658056375,-8.62329694609589,1.5160105909574,-8.059926437131468,-11.896548566605635,26.866937397432807,30.468387011575633,-1.4989558028812375,29.838982310893197,-1.4856563582618345,0.35251005333333335,-0.07245430666666669,0.3017872399999999,0.7267515999999999,0.46966850275746025,0.7081722521836396,0.7305198161394102,0.7419790604163526
LBP08_S13,LBP08,-1729,97,13,96,-1729,1716497873.84,2024-05-23 20:57:53.840000+00:00,2024-05-24 05:57:53.840000+09:00,2024,5,23,20,57,53,840,,,,,,,,,-0.44165,-0.534668,1.527588,-10.620117,2.01416,24.230957,,,,,,,,,,,0.0,1.0,1.0,13.0,0.0,0.0,0.0,4.0,0.0,0.02057612,-0.23955077333333336,0.94386068,-4.081217466666667,-4.5231120266666665,1.624349,-5.821695302479748,-6.208495904271484,-0.9332626704021674,-8.292794249230658,-12.144888402776495,26.82960689061672,30.595695067786842,-1.482430259512663,30.048471437313157,-1.4844283278209167,-0.46222611999999996,-0.2951172266666667,0.5837273199999999,1.3410706666666665,0.8009274296714162,0.7170623711088662,0.7326250826919818,0.7429615332372703
LBP08_S13,LBP08,-1728,98,13,97,-1728,1716497873.88,2024-05-23 20:57:53.880000+00:00,2024-05-24 05:57:53.880000+09:00,2024,5,23,20,57,53,880,,,,,,,,,-0.091797,-0.225342,1.656494,-1.464844,-114.746094,-4.699707,,,,,,,,,,,0.0,1.0,1.0,13.0,0.0,0.0,0.0,4.0,0.0,0.025960240000000002,-0.23725585333333332,0.95108724,-4.033203146666668,-5.250651093333333,1.1344401466666665,-5.503736443563599,-4.289900678751157,-3.672306921480296,-8.512943706973202,-12.316484429926541,26.682714613757508,30.59629484806855,-1.4585403407726558,30.164499860263255,-1.480352184940822,-0.11775724000000001,0.011913853333333335,0.7054067599999999,0.8350778533333333,0.7152673657642736,0.7008316742276325,0.7367395357083122,0.7425075304918114
LBP08_S13,LBP08,-1727,99,13,98,-1727,1716497873.92,2024-05-23 20:57:53.920000+00:00,2024-05-24 05:57:53.920000+09:00,2024,5,23,20,57,53,920,,,,,,,,,0.123047,-0.218994,0.738525,-34.667969,157.226562,36.560059,,,,,,,,,,,0.0,1.0,1.0,13.0,0.0,0.0,0.0,4.0,0.0,0.027135373333333337,-0.24108397333333334,0.9571972666666666,-4.785156266666667,-4.07389328,1.2320963999999999,-5.867254794905086,-3.0333371857892835,-6.463552129896791,-8.747633898769404,-12.437817917358112,26.424172528561638,30.487002266399458,-1.4552885713161274,30.198840430932858,-1.4807412453168143,0.09591162666666667,0.022089973333333346,-0.21867226666666661,0.33667386666666665,0.23980109937373345,0.6832715375122285,0.7259737295094795,0.7343993622479714
LBP08_S13,LBP08,-1726,100,13,99,-1726,1716497873.96,2024-05-23 20:57:53.960000+00:00,2024-05-24 05:57:53.960000+09:00,2024,5,23,20,57,53,960,,,,,,,,,-0.206543,-0.079834,-0.17041,-59.509277,-22.399902,-43.579102,,,,,,,,,,,0.0,1.0,1.0,13.0,0.0,0.0,0.0,4.0,0.0,0.023255173333333334,-0.2424641866666667,0.9623893333333332,-4.807128920000001,-3.43424484,1.26546228,-6.628025730746979,-2.3657978083414317,-8.898683437972782,-9.012754927999284,-12.53244982969177,26.068225191042725,30.29594716685437,-1.4722366764202042,30.169907724735026,-1.4725678354436105,-0.22979817333333333,0.16263018666666668,-1.1327993333333333,1.5252276933333333,1.1672575155821512,0.7075334310933208,0.7311416782343485,0.7412701265866092
LBP08_S13,LBP08,-1725,101,13,100,-1725,1716497874.0,2024-05-23 20:57:54+00:00,2024-05-24 05:57:54+09:00,2024,5,23,20,57,54,0,20.0,57.0,52.0,40.788872,141.626358,1.251,3.0,13.0,0.144287,-0.172363,0.355957,41.07666,-96.679688,-53.527832,-542.0,50.0,584.0,535.0,0.0,1021.400024,26.65,0.083242,-67.59491,3.775781,0.0,1.0,1.0,13.0,0.0,0.0,0.0,6.0,0.0,0.01931962666666667,-0.24358398666666664,0.9645768266666667,-4.577636733333334,-5.158691453333334,0.5509440399999997,-7.610388048388867,-2.0616232007714803,-10.541776677828135,-9.317170449934839,-12.614914757722628,25.6465541239296,30.06146167386738,-1.4891904515184413,30.10019327316119,-1.466207873104656,0.12496737333333333,0.07122098666666665,-0.6086198266666667,0.8048081866666666,0.6253857743436203,0.7188609129690205,0.7272058899756612,0.7394594335828125
LBP08_S13,LBP08,-1724,102,13,101,-1724,1716497874.04,2024-05-23 20:57:54.040000+00:00,2024-05-24 05:57:54.040000+09:00,2024,5,23,20,57,54,40,,,,,,,,,0.377441,-0.084717,1.009521,14.770508,-11.352539,-22.399902,,,,,,,,,,,0.0,1.0,1.0,13.0,0.0,0.0,0.0,6.0,0.0,0.02861650666666667,-0.24169270666666667,0.9651660133333333,-5.290527346666668,-4.4392904,0.43375653333333314,-8.752583305562123,-1.8834788435635414,-11.09654155378948,-9.667273782157324,-12.69025391146517,25.20269246177802,29.827410783365124,-1.4493936555719087,30.013659764144677,-1.4592077527111145,0.3488244933333334,0.15697570666666666,0.044354986666666596,0.5501551866666666,0.3850808544643011,0.6997682093600475,0.7286515103048969,0.7340074554425277
LBP08_S13,LBP08,-1723,103,13,102,-1723,1716497874.08,2024-05-23 20:57:54.080000+00:00,2024-05-24 05:57:54.080000+09:00,2024,5,23,20,57,54,80,,,,,,,,,0.211914,-0.194336,1.406982,-40.405273,77.209473,25.024414,,,,,,,,,,,0.0,1.0,1.0,13.0,0.0,0.0,0.0,6.0,0.0,0.017613906666666665,-0.24608724,0.9456184933333333,-4.628092453333334,-1.540527386666666,0.7169596533333331,-10.037216033358476,-1.7041293754352496,-10.511029053353866,-10.068762423491663,-12.758419086482581,24.782251299643868,29.636417020377834,-1.4969836156768472,29.933286970326257,-1.455970688884332,0.1943000933333333,0.051751240000000004,0.4613635066666667,0.70741484,0.5032762684596235,0.6877642149920247,0.719771057092801,0.7305115283670292
LBP08_S13,LBP08,-1722,104,13,103,-1722,1716497874.12,2024-05-23 20:57:54.120000+00:00,2024-05-24 05:57:54.120000+09:00,2024,5,23,20,57,54,120,,,,,,,,,-0.395508,-0.57373,1.529785,8.728027,-54.321289,-12.878418,,,,,,,,,,,0.0,1.0,1.0,13.0,0.0,0.0,0.0,6.0,0.0,0.031985653333333336,-0.24729166666666666,0.95345704,-3.246256506666667,-4.306640666666667,-0.4410807200000002,-11.405832071925847,-1.5419804319580515,-8.975931953742593,-10.524995706368696,-12.820098303760902,24.423214021494164,29.52327621177707,-1.4380335458709397,29.878798929950467,-1.454078276482824,-0.42749365333333333,-0.3264383333333333,0.57632796,1.3302599466666667,0.7883316095321093,0.69935426667227,0.7215688579563,0.7313745146530751
LBP08_S13,LBP08,-1721,105,13,104,-1721,1716497874.16,2024-05-23 20:57:54.160000+00:00,2024-05-24 05:57:54.160000+09:00,2024,5,23,20,57,54,160,,,,,,,,,0.301025,-0.198975,1.603271,-3.051758,-90.087891,-16.967773,,,,,,,,,,,0.0,1.0,1.0,13.0,0.0,0.0,0.0,6.0,0.0,0.036455053333333334,-0.24938475999999998,0.9623274800000001,-3.3732096400000007,-4.070638066666667,-0.7250976400000002,-12.71084119834419,-1.4993553964284176,-6.83699156812404,-11.033429354302463,-12.88007251961804,24.1497343587692,29.510040681539575,-1.4210258115055343,29.86469816143379,-1.4506367703263856,0.26456994666666667,0.05040975999999997,0.6409435199999998,0.9559232266666664,0.6952316135018966,0.6859085952821722,0.7277949573608402,0.7308430014008519
LBP08_S13,LBP08,-1720,106,13,105,-1720,1716497874.2,2024-05-23 20:57:54.200000+00:00,2024-05-24 05:57:54.200000+09:00,2024,5,23,20,57,54,200,,,,,,,,,-0.084229,-0.318115,0.403564,8.422852,209.289551,48.156738,,,,,,,,,,,0.0,1.0,1.0,13.0,0.0,0.0,0.0,6.0,0.0,0.03459633333333334,-0.25014648000000006,0.96314128,-3.9973958400000007,-3.727213586666666,-0.7877604000000002,-13.727250205671286,-1.6473837543005625,-4.479308136498909,-11.582519362529315,-12.945967869790062,23.970562033309246,29.603051921410565,-1.4289545989458237,29.898919963325966,-1.4501468857998727,-0.11882533333333334,-0.06796851999999992,-0.5595772800000001,0.7463711333333334,0.5760780431894333,0.6849077291743568,0.7295710289673752,0.7286000309919907
LBP08_S13,LBP08,-1719,107,13,106,-1719,1716497874.24,2024-05-23 20:57:54.240000+00:00,2024-05-24 05:57:54.240000+09:00,2024,5,23,20,57,54,240,,,,,,,,,-0.10083,-0.194336,0.070312,-94.482422,-59.020996,-45.227051,,,,,,,,,,,0.0,1.0,1.0,13.0,0.0,0.0,0.0,6.0,0.0,0.02908526666666667,-0.2473665333333333,0.9649088533333334,-4.236653653333334,-4.4360352,-0.5200195200000003,-14.21649445730588,-1.9289787005945753,-2.2358303853655013,-12.151179140821549,-13.023127017813845,23.881128817894627,29.791967129602686,-1.4500596212448364,29.982457595275513,-1.44760665164732,-0.12991526666666667,0.053030533333333296,-0.8945968533333334,1.0775426533333334,0.9055350594938831,0.7061904973823637,0.729641389820531,0.7311276742563035
LBP08_S13,LBP08,-1718,108,13,107,-1718,1716497874.28,2024-05-23 20:57:54.280000+00:00,2024-05-24 05:57:54.280000+09:00,2024,5,23,20,57,54,280,,,,,,,,,0.34668,-0.588623,0.885986,33.508301,-63.659668,-8.361816,,,,,,,,,,,0.0,1.0,1.0,13.0,0.0,0.0,0.0,6.0,0.0,0.03135089333333333,-0.24498372,0.9678873599999999,-3.8867187600000004,-5.096842493333333,-0.7120768000000002,-14.010659189268544,-2.149312971630324,-0.3425280387845283,-12.71160550839229,-13.109099536679057,23.867427696343245,30.05141444431062,-1.4396162167575766,30.11007570938569,-1.4483281300905477,0.31532910666666664,-0.34363928,-0.08190135999999981,0.7408697466666665,0.47352743641732736,0.7078065405722372,0.723387491973884,0.7274995018923742
LBP08_S13,LBP08,-1717,109,13,108,-1717,1716497874.32,2024-05-23 20:57:54.320000+00:00,2024-05-24 05:57:54.320000+09:00,2024,5,23,20,57,54,320,,,,,,,,,0.414307,-0.02002,1.032715,-13.48877,11.59668,2.502441,,,,,,,,,,,0.0,1.0,1.0,13.0,0.0,0.0,0.0,6.0,0.0,0.036168613333333335,-0.24697265333333335,0.9655989466666667,-4.077962253333333,-2.805175826666666,0.24658205333333308,-13.074750260982984,-2.073757757027738,1.067752485530492,-13.23459551883161,-13.192049846960167,23.910137795764467,30.34599458123269,-1.4208735097517458,30.271839592659944,-1.4450399164539731,0.37813838666666666,0.22695265333333334,0.06711605333333337,0.6722070933333334,0.4460949573139698,0.6929333344872534,0.7142729846367964,0.7235911054398964
LBP08_S13,LBP08,-1716,110,13,109,-1716,1716497874.36,2024-05-23 20:57:54.360000+00:00,2024-05-24 05:57:54.360000+09:00,2024,5,23,20,57,54,360,,,,,,,,,-0.156006,-0.541504,1.576416,-55.725098,25.085449,35.095215,,,,,,,,,,,0.0,1.0,1.0,13.0,0.0,0.0,0.0,6.0,0.0,0.024697266666666672,-0.2454752533333333,0.9575,-4.063313813333334,-2.623697959999999,-0.0651041466666669,-11.51933317111592,-1.5745796875057216,1.9538469299645314,-13.695368845676246,-13.255033034460396,23.988291672963047,30.638165185776124,-1.4673378311550749,30.454926177304202,-1.4496727952147874,-0.18070326666666667,-0.2960287466666667,0.618916,1.0956480133333333,0.7094671976159589,0.6873906540940646,0.7081448353211814,0.7233976272505275
LBP08_S13,LBP08,-1715,111,13,110,-1715,1716497874.4,2024-05-23 20:57:54.400000+00:00,2024-05-24 05:57:54.400000+09:00,2024,5,23,20,57,54,400,,,,,,,,,-0.412109,-0.400879,1.556885,61.462402,-82.519531,-18.554688,,,,,,,,,,,0.0,1.0,1.0,13.0,0.0,0.0,0.0,6.0,0.0,0.025582693333333337,-0.24570637333333337,0.9627278666666668,-4.589029960000001,-2.7425130666666657,-0.3068033733333336,-9.56627147741737,-0.7287470156659034,2.3487912459749585,-14.07801970477294,-13.284182915087033,24.082243322802046,30.896837993362833,-1.4637881099929142,30.64525092644676,-1.4544895525540327,-0.43769169333333335,-0.15517262666666662,0.5941571333333333,1.1870214533333332,0.7541056037257102,0.6649536899245085,0.7114964199293573,0.7238125999055974
LBP08_S13,LBP08,-1714,112,13,111,-1714,1716497874.44,2024-05-23 20:57:54.440000+00:00,2024-05-24 05:57:54.440000+09:00,2024,5,23,20,57,54,440,,,,,,,,,0.375732,-0.434082,1.711914,-30.273438,-64.025879,-10.681152,,,,,,,,,,,0.0,1.0,1.0,13.0,0.0,0.0,0.0,6.0,0.0,0.02743490666666667,-0.24674804,0.9691894533333334,-4.601236986666668,-1.4965820799999991,-0.13834634666666693,-7.492326908557876,0.201251716072172,2.3336413788573798,-14.377712781115255,-13.276132846444145,24.17558897795634,31.103591924466894,-1.4566084400041839,30.82876283651303,-1.4583456775353996,0.34829709333333336,-0.18733396000000002,0.7427245466666665,1.2783555999999998,0.8414538787211904,0.6665940320777497,0.7208627505816575,0.7253811502898053
LBP08_S13,LBP08,-1713,113,13,112,-1713,1716497874.48,2024-05-23 20:57:54.480000+00:00,2024-05-24 05:57:54.480000+09:00,2024,5,23,20,57,54,480,,,,,,,,,-0.301514,-0.247559,0.20459,-11.108398,220.825195,37.231445,,,,,,,,,,,0.0,1.0,1.0,13.0,0.0,0.0,0.0,6.0,0.0,0.025322280000000003,-0.24369790666666666,0.9699316400000002,-3.79475912,-0.8626302533333327,-0.2880859333333336,-5.5773289529977,0.9040870351134147,2.001075905726873,-14.600805939235164,-13.23996936503961,24.255632014185416,31.254055853120384,-1.4641014793111022,30.992547904633017,-1.46284858046674,-0.32683628,-0.003861093333333343,-0.7653416400000002,1.0960390133333335,0.8322167313169431,0.684877580956186,0.7283036729750043,0.7235322732926819
LBP08_S13,LBP08,-1712,114,13,113,-1712,1716497874.52,2024-05-23 20:57:54.520000+00:00,2024-05-24 05:57:54.520000+09:00,2024,5,23,20,57,54,520,,,,,,,,,-0.001953,0.0,0.126953,-41.564941,-42.724609,-28.442383,,,,,,,,,,,0.0,1.0,1.0,13.0,0.0,0.0,0.0,6.0,0.0,0.020719413333333336,-0.24659505333333334,0.9746712133333333,-4.351399746666667,-1.701660199999999,-0.6144205600000002,-4.067549501423304,1.1987359497131524,1.4186210351540258,-14.763507919292095,-13.192019927051083,24.312376855591577,31.354142058219647,-1.4843623334790832,31.125915876105104,-1.467249078504588,-0.022672413333333336,0.24659505333333334,-0.8477182133333333,1.11698568,0.8831473987233874,0.704915091007406,0.728773106034738,0.7316319287938955
LBP08_S13,LBP08,-1711,115,13,114,-1711,1716497874.56,2024-05-23 20:57:54.560000+00:00,2024-05-24 05:57:54.560000+09:00,2024,5,23,20,57,54,560,,,,,,,,,0.342773,-0.296387,0.863281,25.817871,-60.058594,-14.282227,,,,,,,,,,,0.0,1.0,1.0,13.0,0.0,0.0,0.0,6.0,0.0,0.024140640000000005,-0.24395508000000002,0.9783853999999998,-4.839681000000001,-2.137044306666666,-0.9440104000000002,-3.1444603765771544,1.1385652100811994,0.6075616498120522,-14.889286334355182,-13.146477318647836,24.336679321584057,31.413288172965196,-1.4691933848979852,31.221428426506623,-1.4731460140880401,0.31863236,-0.05243191999999999,-0.11510439999999988,0.4861686799999999,0.3428187713259237,0.6928502377388293,0.7157956412590784,0.7202979773633371
LBP08_S13,LBP08,-1710,116,13,115,-1710,1716497874.6,2024-05-23 20:57:54.600000+00:00,2024-05-24 05:57:54.600000+09:00,2024,5,23,20,57,54,600,,,,,,,,,0.282959,-0.109131,1.009033,12.756348,15.686035,-0.061035,,,,,,,,,,,0.0,1.0,1.0,13.0,0.0,0.0,0.0,6.0,0.0,0.024638680000000003,-0.24506185333333336,0.97268228,-5.767415386666667,0.4622395466666675,-0.6046549333333335,-2.887596335633935,0.9668071215895476,-0.44889391500153436,-15.00479018778054,-13.107805033784254,24.318723564983998,31.4381710220732,-1.4675158487594941,31.275562083736084,-1.4749284843641581,0.25832032,0.13593085333333335,0.03635072000000006,0.43060189333333343,0.2941563520601739,0.6701553923538632,0.6838793318242855,0.717145054210287
LBP08_S13,LBP08,-1709,117,13,116,-1709,1716497874.64,2024-05-23 20:57:54.640000+00:00,2024-05-24 05:57:54.640000+09:00,2024,5,23,20,57,54,640,,,,,,,,,-0.168213,-0.438477,1.620361,1.403809,29.724121,39.794922,,,,,,,,,,,0.0,1.0,1.0,13.0,0.0,0.0,0.0,6.0,0.0,0.01777996,-0.24160806666666665,0.9641406133333333,-5.728352893333334,-1.0579427466666658,-1.4103190000000003,-3.242670727298192,0.9576906177348866,-1.766449228318888,-15.134497016872468,-13.06949740907486,24.24806559585124,31.42981781080254,-1.495088650558239,31.28863172131084,-1.4786375610062235,-0.18599296,-0.19686893333333336,0.6562203866666666,1.03908228,0.7099126382579166,0.676690194480684,0.680692001032447,0.7205405006961931
LBP08_S13,LBP08,-1708,118,13,117,-1708,1716497874.68,2024-05-23 20:57:54.680000+00:00,2024-05-24 05:57:54.680000+09:00,2024,5,23,20,57,54,680,,,,,,,,,-0.346436,-0.333008,1.753174,8.544922,-122.009277,-15.808105,,,,,,,,,,,0.0,1.0,1.0,13.0,0.0,0.0,0.0,6.0,0.0,0.020807306666666667,-0.24554036,0.9694368266666668,-4.879557320000001,-1.3427734666666657,-1.7049153466666669,-4.023821301988656,1.2512808778174753,-3.308941109344872,-15.295449868952014,-13.01944617396216,24.115707951477447,31.385094159031524,-1.4836211971360591,31.26383422991533,-1.4787534679859047,-0.3672433066666667,-0.08746764000000001,0.7837371733333333,1.23844812,0.8699207959367108,0.6456828067209857,0.6865837814616949,0.7240282240024859
LBP08_S13,LBP08,-1707,119,13,118,-1707,1716497874.72,2024-05-23 20:57:54.720000+00:00,2024-05-24 05:57:54.720000+09:00,2024,5,23,20,57,54,720,,,,,,,,,0.459961,-0.455566,1.489502,-43.457031,27.404785,-9.460449,,,,,,,,,,,0.0,1.0,1.0,13.0,0.0,0.0,0.0,6.0,0.0,0.02138998666666667,-0.24154621333333334,0.9758268,-3.7703450800000002,-0.3206380533333323,-2.343749986666667,-4.965082760644349,1.7804095641169686,-4.959916227471916,-15.494053179377788,-12.948229791397482,23.91731130237857,31.301120085247845,-1.4798428655862654,31.205677939896294,-1.480069430515655,0.4385710133333333,-0.21401978666666668,0.5136752000000001,1.1662660000000002,0.7085274969372131,0.6436126306954649,0.6894372198279732,0.7195029833430594
LBP08_S13,LBP08,-1706,120,13,119,-1706,1716497874.76,2024-05-23 20:57:54.760000+00:00,2024-05-24 05:57:54.760000+09:00,2024,5,23,20,57,54,760,,,,,,,,,-0.872314,0.328125,-0.248535,-13.061523,135.559082,3.234863,,,,,,,,,,,0.0,1.0,1.0,13.0,0.0,0.0,0.0,6.0,0.0,0.019921893333333336,-0.23878904,0.9817089599999999,-4.23909508,0.5900064800000011,-2.1354166533333334,-5.8003545506225676,2.323227263902842,-6.539629108907998,-15.726067361402691,-12.855300700841369,23.655726138022253,31.179501758070746,-1.4851625339162535,31.118376684403405,-1.4765952522689263,-0.8922358933333334,0.56691404,-1.23024396,2.6893938933333335,1.622028550679036,0.6943687578066146,0.7057035148032712,0.731130080636575
LBP08_S13,LBP08,-1705,121,13,120,-1705,1716497874.8,2024-05-23 20:57:54.800000+00:00,2024-05-24 05:57:54.800000+09:00,2024,5,23,20,57,54,800,,,,,,,,,-0.00415,-0.34668,0.338623,-20.996094,-54.748535,-18.066406,,,,,,,,,,,0.0,1.0,1.0,13.0,0.0,0.0,0.0,6.0,0.0,0.016464853333333335,-0.24207028,0.9848307066666666,-4.054362013333334,-0.8683268533333323,-2.7929687333333333,-6.32733317357671,2.6358916105241788,-7.8612058057535865,-15.97916068834576,-12.7498650364204,23.341277905792108,31.027534369110427,-1.50087887641357,31.004809483946822,-1.4722867787877447,-0.020614853333333336,-0.10460971999999999,-0.6462077066666666,0.77143228,0.6549447044230725,0.701779805873239,0.7049760290284394,0.7209398127173532
LBP08_S13,LBP08,-1704,122,13,121,-1704,1716497874.84,2024-05-23 20:57:54.840000+00:00,2024-05-24 05:57:54.840000+09:00,2024,5,23,20,57,54,840,,,,,,,,,0.397217,0.010742,0.912354,41.015625,-35.705566,-30.578613,,,,,,,,,,,0.0,1.0,1.0,13.0,0.0,0.0,0.0,6.0,0.0,0.026735026666666672,-0.24245438666666666,0.98580076,-5.735677120000001,-0.6111653866666654,-2.6660156,-6.423278275862678,2.5732441374605055,-8.796436852475827,-16.236091819380267,-12.64693527092198,22.989420431693073,30.855617010511786,-1.4577675098009943,30.86635913443205,-1.467904071698131,0.3704819733333333,0.25319638666666666,-0.07344676000000006,0.69712512,0.45470840034082777,0.6879310447000155,0.7024967079044409,0.7177270700279931
LBP08_S13,LBP08,-1703,123,13,122,-1703,1716497874.88,2024-05-23 20:57:54.880000+00:00,2024-05-24 05:57:54.880000+09:00,2024,5,23,20,57,54,880,,,,,,,,,0.383789,-0.316406,1.318604,-1.647949,51.025391,-5.126953,,,,,,,,,,,0.0,1.0,1.0,13.0,0.0,0.0,0.0,6.0,0.0,0.02212890666666667,-0.2430370666666667,0.97582028,-6.040039093333334,2.2290038933333345,-2.4202473733333334,-6.020897536259836,2.1308312911839304,-9.317347389669372,-16.47692772083066,-12.561702019274623,22.6167265361063,30.672492952930003,-1.477261104608604,30.703492579183667,-1.4623460168543316,0.3616600933333333,-0.07336893333333333,0.3427837200000001,0.7778127466666668,0.5036682461555274,0.6794670799156657,0.6901493770716491,0.7176487171107634
LBP08_S13,LBP08,-1702,124,13,123,-1702,1716497874.92,2024-05-23 20:57:54.920000+00:00,2024-05-24 05:57:54.920000+09:00,2024,5,23,20,57,54,920,,,,,,,,,-0.430664,-0.683105,1.705078,-1.831055,-3.479004,5.310059,,,,,,,,,,,0.0,1.0,1.0,13.0,0.0,0.0,0.0,6.0,0.0,0.028583986666666672,-0.2416991733333333,0.9774739200000001,-6.905110706666668,-1.0717773599999991,-3.8061523200000003,-5.085008449398747,1.4106762515887907,-9.493253010415897,-16.68032805880661,-12.505274969211072,22.236996415689664,30.48112950329077,-1.449620551011798,30.516584958597214,-1.4581734078758195,-0.45924798666666666,-0.44140582666666667,0.72760408,1.6282578933333332,0.967034391480115,0.7085564115999209,0.6959139745560746,0.7201679568729599
LBP08_S13,LBP08,-1701,125,13,124,-1701,1716497874.96,2024-05-23 20:57:54.960000+00:00,2024-05-24 05:57:54.960000+09:00,2024,5,23,20,57,54,960,,,,,,,,,-0.045654,-0.188965,1.748779,-23.31543,-109.985352,-17.456055,,,,,,,,,,,0.0,1.0,1.0,13.0,0.0,0.0,0.0,6.0,0.0,0.03410156,-0.2408463066666667,0.9811783466666668,-6.134440133333334,-1.5885416933333323,-4.015299453333333,-3.6234703226324916,0.556275723465679,-9.448384796690979,-16.825266871711907,-12.483023940272446,21.859061023822026,30.27761616839933,-1.4261086500861717,30.306454314684295,-1.4519156330971852,-0.07975556,0.05188130666666671,0.7676006533333333,0.89923752,0.7734748750477384,0.6928051059785443,0.7001692685359326,0.7183628208157471
LBP08_S13,LBP08,-1700,126,13,125,-1700,1716497875.0,2024-05-23 20:57:55+00:00,2024-05-24 05:57:55+09:00,2024,5,23,20,57,55,0,20.0,57.0,53.0,40.788937,141.626282,1.175,3.0,13.0,0.220947,-0.393066,1.052002,-31.066895,139.953613,28.137207,-540.0,51.0,580.0,663.0,0.0,1021.200012,26.700001,0.08126,-65.941277,3.775781,0.0,1.0,1.0,13.0,0.0,0.0,0.0,4.0,0.0,0.03490234666666667,-0.24243810666666665,0.9837564799999999,-6.862792986666666,-0.8203125333333323,-4.615071586666667,-1.7252775745034536,-0.30192732469879563,-9.308748208082523,-16.894277974692045,-12.495101033260397,21.486711095498723,30.053667526925523,-1.4236887778633556,30.07439773293583,-1.447613198087578,0.18604465333333334,-0.15062789333333337,0.06824552000000017,0.40491806666666685,0.2489152994173493,0.6777462869814935,0.698303599975257,0.7107193556442719
LBP08_S13,LBP08,-1699,127,13,126,-1699,1716497875.04,2024-05-23 20:57:55.040000+00:00,2024-05-24 05:57:55.040000+09:00,2024,5,23,20,57,55,40,,,,,,,,,-0.296387,0.125244,-0.019775,-2.441406,0.549316,-23.498535,,,,,,,,,,,0.0,1.0,1.0,13.0,0.0,0.0,0.0,4.0,0.0,0.03172526666666667,-0.24753902666666666,0.9890592133333332,-6.518554706666668,-0.394694039999999,-5.049641893333333,0.4162102730877374,-1.0773267225562866,-9.171574223920418,-16.877629563768537,-12.538194102162649,21.119848126541907,29.80115225831873,-1.4395081021202452,29.821957573056956,-1.438225219003203,-0.3281122666666667,0.37278302666666663,-1.0088342133333332,1.7097295066666667,1.124442668391672,0.7073207595385882,0.7035444844493179,0.7215412600494608
LBP08_S13,LBP08,-1698,128,13,127,-1698,1716497875.08,2024-05-23 20:57:55.080000+00:00,2024-05-24 05:57:55.080000+09:00,2024,5,23,20,57,55,80,,,,,,,,,0.177246,-0.156982,0.413574,29.052734,-85.144043,-33.38623,,,,,,,,,,,0.0,1.0,1.0,13.0,0.0,0.0,0.0,4.0,0.0,0.03133789333333334,-0.24917640000000002,0.9904556933333333,-5.34912112,-1.5763346666666658,-5.9301757466666665,2.5323120561270693,-1.7461455953690181,-9.110883967355026,-16.776337081523454,-12.60803992597741,20.755412767847705,29.51601795316697,-1.4418951073509372,29.550857135264312,-1.4320375914141399,0.14590810666666665,0.09219440000000001,-0.5768816933333333,0.8149841999999999,0.6021473831924751,0.7112756041279025,0.6995199095599635,0.7169392394378348
LBP08_S13,LBP08,-1697,129,13,128,-1697,1716497875.12,2024-05-23 20:57:55.120000+00:00,2024-05-24 05:57:55.120000+09:00,2024,5,23,20,57,55,120,,,,,,,,,0.351318,-0.193359,1.059082,26.611328,-16.723633,-26.733398,,,,,,,,,,,0.0,1.0,1.0,13.0,0.0,0.0,0.0,4.0,0.0,0.03682942666666667,-0.24501624000000002,0.9892349866666666,-5.2156575866666675,-0.30354821333333226,-6.192220013333334,4.356244258008905,-2.3625876608616396,-9.200855393503309,-16.6020873112031,-12.702543432411876,20.387378552107574,29.19981364611865,-1.4172651177999216,29.263365140411764,-1.4249675382772493,0.31448857333333335,0.05165724000000002,0.06984701333333343,0.43599282666666683,0.32626697423006185,0.6927930187158207,0.6960736426940453,0.711976911542807
LBP08_S13,LBP08,-1696,130,13,129,-1696,1716497875.16,2024-05-23 20:57:55.160000+00:00,2024-05-24 05:57:55.160000+09:00,2024,5,23,20,57,55,160,,,,,,,,,0.267822,-0.267822,1.519287,15.014648,64.086914,3.417969,,,,,,,,,,,0.0,1.0,1.0,13.0,0.0,0.0,0.0,4.0,0.0,0.03069986666666667,-0.24443681333333336,0.9807779466666666,-4.930013053333335,1.271158826666668,-5.4532877200000005,5.702616548346389,-3.0487888727815173,-9.519988264637462,-16.373982649269244,-12.824494987323137,20.006579021522075,28.858935940586125,-1.442138183820182,28.96292302961671,-1.4218765542702996,0.23712213333333335,-0.02338518666666664,0.5385090533333334,0.7990163733333334,0.5888682141141165,0.6885384827403094,0.6872235390112408,0.7147094658206633
LBP08_S13,LBP08,-1695,131,13,130,-1695,1716497875.2,2024-05-23 20:57:55.200000+00:00,2024-05-24 05:57:55.200000+09:00,2024,5,23,20,57,55,200,,,,,,,,,-0.376221,-0.703369,1.705078,-18.188477,-41.259766,0.183105,,,,,,,,,,,0.0,1.0,1.0,13.0,0.0,0.0,0.0,4.0,0.0,0.03994465333333334,-0.24907224,0.9857844666666667,-2.9378255466666676,0.2750650800000012,-5.197753866666667,6.499412460673614,-3.9323529993467257,-10.11311657983875,-16.1140061508423,-12.981789107297006,19.602054358328527,28.50313277032167,-1.4069990855698198,28.65456816720819,-1.4190235942346465,-0.4161656533333334,-0.45429676,0.7192935333333333,1.5897559466666666,0.9470810864208032,0.7033786044695642,0.6941431668219604,0.7208402208014383
LBP08_S13,LBP08,-1694,132,13,131,-1694,1716497875.24,2024-05-23 20:57:55.240000+00:00,2024-05-24 05:57:55.240000+09:00,2024,5,23,20,57,55,240,,,,,,,,,0.186523,-0.303467,1.666992,-8.239746,-71.716309,-13.244629,,,,,,,,,,,0.0,1.0,1.0,13.0,0.0,0.0,0.0,4.0,0.0,0.04223306666666667,-0.24604163999999998,0.9900227466666667,-3.989257840000001,0.9106445066666679,-5.413411413333334,6.760723388885257,-5.042001748967168,-10.92688288631318,-15.84357721528689,-13.183469177255693,19.164979042876,28.14461263258539,-1.3958912339103644,28.344816747025213,-1.4159171255042793,0.14428993333333331,-0.05742536000000001,0.6769692533333334,0.8786845466666666,0.6945535449417548,0.694939343887479,0.7005649206349215,0.7180740411761803
LBP08_S13,LBP08,-1693,133,13,132,-1693,1716497875.28,2024-05-23 20:57:55.280000+00:00,2024-05-24 05:57:55.280000+09:00,2024,5,23,20,57,55,280,,,,,,,,,0.008545,-0.338623,0.631592,-20.751953,178.894043,46.75293,,,,,,,,,,,0.0,1.0,1.0,13.0,0.0,0.0,0.0,4.0,0.0,0.0404134,-0.25139320000000004,0.9893098533333333,-3.7093099200000013,0.9651692533333348,-5.915527293333334,6.533672753308075,-6.214411053621294,-11.765330091355668,-15.582230305154567,-13.432045619400546,18.69436583922177,27.79757300440448,-1.4065605732396982,28.041143671862933,-1.4106904186567102,-0.031868400000000005,-0.08722979999999997,-0.3577178533333333,0.47681605333333327,0.36957637305435004,0.6907813013529598,0.6992939209625986,0.7125187617669093
LBP08_S13,LBP08,-1692,134,13,133,-1692,1716497875.32,2024-05-23 20:57:55.320000+00:00,2024-05-24 05:57:55.320000+09:00,2024,5,23,20,57,55,320,,,,,,,,,-0.004639,0.200684,0.011475,66.345215,-37.902832,-50.292969,,,,,,,,,,,0.0,1.0,1.0,13.0,0.0,0.0,0.0,4.0,0.0,0.03667316000000001,-0.2464745866666667,0.9853319866666668,-3.5058594000000007,0.13916014666666804,-6.743164013333334,5.864831363865017,-7.080297142512908,-12.310211266937001,-15.347637050599968,-13.715257505101063,18.20195738854429,27.47670839534026,-1.4187107109423012,27.751540401317556,-1.4076918959992892,-0.04131216000000001,0.4471585866666667,-0.9738569866666668,1.4623277333333333,1.0724061388639459,0.715833748614959,0.7043835415511062,0.714793239296184
LBP08_S13,LBP08,-1691,135,13,134,-1691,1716497875.36,2024-05-23 20:57:55.360000+00:00,2024-05-24 05:57:55.360000+09:00,2024,5,23,20,57,55,360,,,,,,,,,0.309082,-0.170166,0.540527,-10.375977,-97.290039,-42.907715,,,,,,,,,,,0.0,1.0,1.0,13.0,0.0,0.0,0.0,4.0,0.0,0.04188149333333334,-0.24652341333333336,0.9849673999999999,-3.852539093333334,-0.4524739599999987,-7.3299153200000005,4.80291294076639,-7.175310033642983,-12.214354673779324,-15.155520532969312,-14.002269906446783,17.713383201593118,27.194067544314162,-1.3975790497296388,27.48446804157577,-1.4078533095316608,0.26720050666666667,0.07635741333333335,-0.44444039999999996,0.78799832,0.5241696619283119,0.708421847187453,0.6979062506407588,0.7082371726099387
LBP08_S13,LBP08,-1690,136,13,135,-1690,1716497875.4,2024-05-23 20:57:55.400000+00:00,2024-05-24 05:57:55.400000+09:00,2024,5,23,20,57,55,400,,,,,,,,,0.445557,-0.338379,1.035645,-0.366211,-23.071289,-20.446777,,,,,,,,,,,0.0,1.0,1.0,13.0,0.0,0.0,0.0,4.0,0.0,0.04322914666666667,-0.24730792,0.9820572399999999,-3.5571289333333334,0.21240234666666805,-7.40966792,3.4181426311685503,-6.151613419776854,-11.227865539750205,-15.018794827722571,-14.248334443237857,17.264268580003108,26.956153325095684,-1.3926240905596852,27.248988590027626,-1.4060512001790442,0.4023278533333333,-0.09107108,0.053587759999999984,0.5469866933333333,0.41597270487616395,0.6948965312334713,0.6799251105789899,0.7059631236973952
LBP08_S13,LBP08,-1689,137,13,136,-1689,1716497875.44,2024-05-23 20:57:55.440000+00:00,2024-05-24 05:57:55.440000+09:00,2024,5,23,20,57,55,440,,,,,,,,,0.084229,-0.333008,1.481934,-16.723633,44.799805,10.131836,,,,,,,,,,,0.0,1.0,1.0,13.0,0.0,0.0,0.0,4.0,0.0,0.04464190666666667,-0.24768878666666666,0.9858625866666667,-2.810058613333334,-1.0432942666666654,-7.72216792,1.810542511980695,-3.9835767132245885,-9.292393136361147,-14.946373127243344,-14.40767751176684,16.89257285454866,26.764421506695943,-1.3872410336445518,27.054472156522916,-1.4066878425013871,0.03958709333333333,-0.08531921333333337,0.4960714133333334,0.6209777200000001,0.5049092524889317,0.681434746184181,0.6740143891309655,0.7077200824491654
LBP08_S13,LBP08,-1688,138,13,137,-1688,1716497875.48,2024-05-23 20:57:55.480000+00:00,2024-05-24 05:57:55.480000+09:00,2024,5,23,20,57,55,480,,,,,,,,,-0.388672,-0.389893,1.574707,34.545898,-71.350098,-2.990723,,,,,,,,,,,0.0,1.0,1.0,13.0,0.0,0.0,0.0,4.0,0.0,0.03873045333333334,-0.24907550666666667,0.9881933199999999,-1.2849935200000009,0.37516276000000137,-7.016601506666666,0.09878705696339697,-1.0438191495332931,-6.5607776167566065,-14.942421644964808,-14.449430277748172,16.630141749878398,26.619985247713174,-1.41190988077673,26.90943664535597,-1.4062643824950671,-0.4274024533333334,-0.14081749333333332,0.5865136800000001,1.1547336266666668,0.7392568703577791,0.6777163517458143,0.6812969663510002,0.7114412325652744
LBP08_S13,LBP08,-1687,139,13,138,-1687,1716497875.52,2024-05-23 20:57:55.520000+00:00,2024-05-24 05:57:55.520000+09:00,2024,5,23,20,57,55,520,,,,,,,,,0.438721,-0.36792,1.776855,-22.033691,-52.91748,-6.225586,,,,,,,,,,,0.0,1.0,1.0,13.0,0.0,0.0,0.0,4.0,0.0,0.03623370666666667,-0.2436100133333333,0.9870279600000001,-1.9246419600000004,0.944824226666668,-6.59993484,-1.6009652785083703,2.0057685786844215,-3.348346967717548,-15.006460256105143,-14.369199534600796,16.496207871169695,26.5290900487008,-1.4188792531236363,26.81968815422358,-1.4075368025060888,0.40248729333333333,-0.12430998666666673,0.7898270399999999,1.3166243199999998,0.8951400712709833,0.6781960586477181,0.6915555748275619,0.7119140902390647
LBP08_S13,LBP08,-1686,140,13,139,-1686,1716497875.56,2024-05-23 20:57:55.560000+00:00,2024-05-24 05:57:55.560000+09:00,2024,5,23,20,57,55,560,,,,,,,,,-0.283447,-0.154053,0.244141,-13.366699,204.711914,34.118652,,,,,,,,,,,0.0,1.0,1.0,13.0,0.0,0.0,0.0,4.0,0.0,0.03506509333333334,-0.24441730666666667,0.9827701600000001,-2.5732422266666672,0.2294922000000012,-6.87988276,-3.1950031966542842,4.46602651341953,-0.05543208739339471,-15.134260383971315,-14.190558474064014,16.49399058767396,26.504141425104695,-1.4241170902940172,26.786517222670927,-1.4066543371639728,-0.31851209333333336,0.09036430666666667,-0.7386291600000001,1.1475055600000001,0.8094372721349291,0.6968607986800783,0.6948555182094538,0.7094840270660783
LBP08_S13,LBP08,-1685,141,13,140,-1685,1716497875.6,2024-05-23 20:57:55.600000+00:00,2024-05-24 05:57:55.600000+09:00,2024,5,23,20,57,55,600,,,,,,,,,-0.040283,0.047852,0.114502,-0.976562,-16.479492,-22.094727,,,,,,,,,,,0.0,1.0,1.0,13.0,0.0,0.0,0.0,4.0,0.0,0.03804686666666667,-0.24701821333333332,0.97768228,-2.2753906666666674,-0.8691406133333323,-7.523600213333334,-4.6232457598467915,5.877762974206411,2.901342288728633,-15.319190214365186,-13.955447955095758,16.610044279223104,26.557968435274574,-1.413365508793248,26.805798680262097,-1.408521211453648,-0.07832986666666666,0.2948702133333333,-0.86318028,1.23638036,0.9155130837427402,0.721715067947381,0.6959352301506222,0.6964912438653175
LBP08_S13,LBP08,-1684,142,13,141,-1684,1716497875.64,2024-05-23 20:57:55.640000+00:00,2024-05-24 05:57:55.640000+09:00,2024,5,23,20,57,55,640,,,,,,,,,0.327393,-0.171875,0.822021,24.353027,-68.17627,-26.611328,,,,,,,,,,,0.0,1.0,1.0,13.0,0.0,0.0,0.0,4.0,0.0,0.043427733333333336,-0.24714517333333333,0.9763313733333333,-2.272135453333334,0.14404297333333452,-7.139485626666667,-5.8572491200315975,6.184962280934177,5.1371204396738985,-15.55348017916645,-13.70804946385839,16.81552909681006,26.69425752091595,-1.3916566338471639,26.86832767262025,-1.4109693981568547,0.28396526666666666,0.07527017333333333,-0.1543103733333333,0.5135458133333333,0.33183363751279626,0.7065919079175761,0.69164105119913,0.6893253033274901
LBP08_S13,LBP08,-1683,143,13,142,-1683,1716497875.68,2024-05-23 20:57:55.680000+00:00,2024-05-24 05:57:55.680000+09:00,2024,5,23,20,57,55,680,,,,,,,,,0.42041,-0.179443,1.1875,-35.217285,14.831543,9.155273,,,,,,,,,,,0.0,1.0,1.0,13.0,0.0,0.0,0.0,4.0,0.0,0.037262373333333335,-0.25187498666666663,0.9753743466666667,-2.061360706666667,0.6998698000000011,-6.916503866666667,-6.886648762082834,5.7081716965488525,6.34081613016466,-15.828946129649763,-13.479722595996437,17.069161742016647,26.900088093080587,-1.419284773349915,26.96096508171247,-1.4151192468923983,0.3831476266666667,0.07243198666666664,0.21212565333333333,0.6677052666666666,0.4438983997660648,0.6895510120707503,0.667616909395868,0.6875728583313799
LBP08_S13,LBP08,-1682,144,13,143,-1682,1716497875.72,2024-05-23 20:57:55.720000+00:00,2024-05-24 05:57:55.720000+09:00,2024,5,23,20,57,55,720,,,,,,,,,-0.278809,-0.410156,1.516357,-25.085449,39.489746,40.649414,,,,,,,,,,,0.0,1.0,1.0,13.0,0.0,0.0,0.0,4.0,0.0,0.03985352,-0.25325194666666667,0.9889225333333334,-1.992187533333334,-1.9181315066666653,-7.4023437066666675,-7.700139104453991,4.967860618709437,6.330267506823009,-16.13695169382792,-13.28100817124806,17.322372442289566,27.144999079813697,-1.4098860575211412,27.06777966041984,-1.4134344434902248,-0.31866251999999995,-0.15690405333333335,0.5274344666666666,1.00300104,0.6358866252981981,0.6866453772051898,0.6651290039503273,0.6885066056203788
LBP08_S13,LBP08,-1681,145,13,144,-1681,1716497875.76,2024-05-23 20:57:55.760000+00:00,2024-05-24 05:57:55.760000+09:00,2024,5,23,20,57,55,760,,,,,,,,,-0.35376,-0.34082,1.716064,25.57373,-97.595215,-2.502441,,,,,,,,,,,0.0,1.0,1.0,13.0,0.0,0.0,0.0,4.0,0.0,0.03858073333333334,-0.2555175733333333,0.99307944,0.004882786666665879,0.7885742266666679,-6.12630204,-8.26399757645609,4.470498701671008,5.115196015784696,-16.467511596886165,-13.10218822318122,17.526980282920956,27.386882120225895,-1.4162477926263914,27.170704356227183,-1.4085372900124618,-0.39234073333333336,-0.08530242666666671,0.72298456,1.20062772,0.8269911904162905,0.65484388279468,0.6746063203006473,0.6887503041337407
LBP08_S13,LBP08,-1680,146,13,145,-1680,1716497875.8,2024-05-23 20:57:55.800000+00:00,2024-05-24 05:57:55.800000+09:00,2024,5,23,20,57,55,800,,,,,,,,,0.48877,-0.374756,1.47998,-28.747559,16.967773,19.40918,,,,,,,,,,,0.0,1.0,1.0,13.0,0.0,0.0,0.0,4.0,0.0,0.03619792,-0.2403971333333333,0.9825228,1.1539713199999992,1.1230468800000013,-6.3688150666666665,-8.49960660393329,4.557129810433229,2.9321978725205797,-16.807495861043495,-12.91990303076389,17.64426819782178,27.581443248677203,-1.417105957591752,27.249981985196747,-1.4058372906387053,0.45257208,-0.1343588666666667,0.49745720000000004,1.0843881466666667,0.6858115327692569,0.6560785559285273,0.6789291809008832,0.6886768713284687
LBP08_S13,LBP08,-1679,147,13,146,-1679,1716497875.84,2024-05-23 20:57:55.840000+00:00,2024-05-24 05:57:55.840000+09:00,2024,5,23,20,57,55,840,,,,,,,,,-0.894531,0.020752,-0.183105,10.559082,144.165039,11.413574,,,,,,,,,,,0.0,1.0,1.0,13.0,0.0,0.0,0.0,4.0,0.0,0.03346028,-0.2408138,0.9771484533333333,0.6860351333333325,-0.06754557333333215,-7.15820308,-8.27012157927368,5.352059337141115,0.2129995633715141,-17.138300724214442,-12.705820657278245,17.65278818035664,27.69079559761812,-1.4287395209999907,27.285186386471175,-1.4017744859927705,-0.92799128,0.2615658,-1.1602534533333333,2.3498105333333332,1.5085663921278385,0.6982328756000078,0.6930819601500116,0.7010754304696297
LBP08_S13,LBP08,-1678,148,13,147,-1678,1716497875.88,2024-05-23 20:57:55.880000+00:00,2024-05-24 05:57:55.880000+09:00,2024,5,23,20,57,55,880,,,,,,,,,-0.078613,-0.030029,0.295166,-6.225586,-58.959961,-28.747559,,,,,,,,,,,0.0,1.0,1.0,13.0,0.0,0.0,0.0,4.0,0.0,0.041044920000000006,-0.23779295999999997,0.9693750133333335,2.204589826666666,-0.46549478666666544,-8.09488928,-7.395098845673694,6.783984558565964,-2.5225082747447543,-17.43410467804139,-12.434461274935607,17.55188784936685,27.688131034786903,-1.395061846754992,27.257424704536305,-1.4000401020439086,-0.11965792,0.20776395999999997,-0.6742090133333336,1.0016308933333335,0.7155708731869368,0.7067089806812641,0.6930880302984649,0.6956692449415208
LBP08_S13,LBP08,-1677,149,13,148,-1677,1716497875.92,2024-05-23 20:57:55.920000+00:00,2024-05-24 05:57:55.920000+09:00,2024,5,23,20,57,55,920,,,,,,,,,0.38916,-0.11792,0.872803,-0.854492,-43.457031,-22.705078,,,,,,,,,,,0.0,1.0,1.0,13.0,0.0,0.0,0.0,4.0,0.0,0.04724609333333334,-0.23868488,0.96750652,1.6674804533333327,0.9220377600000011,-7.62858068,-5.707087591006985,8.62225527093502,-4.8154470609981335,-17.66238818168167,-12.089571064098207,17.359269966926924,27.558337006774195,-1.3699077183460062,27.15259756387252,-1.396971067792606,0.34191390666666666,0.12076487999999999,-0.09470352000000004,0.5573823066666667,0.37477731056437613,0.6830186974446345,0.6957875545222777,0.6916155488522613
LBP08_S13,LBP08,-1676,150,13,149,-1676,1716497875.96,2024-05-23 20:57:55.960000+00:00,2024-05-24 05:57:55.960000+09:00,2024,5,23,20,57,55,960,,,,,,,,,0.356934,-0.277832,1.125,-5.249023,26.855469,-13.61084,,,,,,,,,,,0.0,1.0,1.0,13.0,0.0,0.0,0.0,4.0,0.0,0.04085612,-0.23971352,0.9662760533333334,2.362467439999999,1.0148112000000011,-7.531738239999999,-3.1468466134433295,10.502129549888549,-6.399484171004318,-17.788262046219405,-11.669485882102665,17.10329060008675,27.296917714800312,-1.3971170965564519,26.96483804361946,-1.3964643475411411,0.31607788,-0.03811848000000001,0.15872394666666656,0.5129203066666665,0.35574082699100984,0.6663093355223654,0.6795572207504549,0.6888826241980769
LBP08_S13,LBP08,-1675,151,13,150,-1675,1716497876.0,2024-05-23 20:57:56+00:00,2024-05-24 05:57:56+09:00,2024,5,23,20,57,56,0,20.0,57.0,54.0,40.789005,141.626221,1.355,3.0,14.0,-0.180908,-0.480225,1.628906,-7.629395,37.353516,2.197266,-540.0,49.0,581.0,793.0,0.0,1021.599976,26.75,0.085224,-69.247772,3.775781,0.0,1.0,1.0,13.0,0.0,0.0,0.0,4.0,0.0,0.04714844000000001,-0.24161781333333332,0.9851562533333333,2.491048159999999,-2.3299153599999993,-7.78157548,0.127703347692951,11.966825837125452,-7.259535817514798,-17.783153912311686,-11.190812848617647,16.81290916738616,26.910012448018858,-1.372737462333901,26.698929540917526,-1.3927406342837738,-0.22805644000000003,-0.2386071866666667,0.6437497466666666,1.1104133733333335,0.7234340783290849,0.6852900866788347,0.6815181868301642,0.693965762209783
LBP08_S13,LBP08,-1674,152,13,151,-1674,1716497876.04,2024-05-23 20:57:56.040000+00:00,2024-05-24 05:57:56.040000+09:00,2024,5,23,20,57,56,40,,,,,,,,,-0.279297,-0.427246,1.770752,5.126953,-63.781738,-10.314941,,,,,,,,,,,0.0,1.0,1.0,13.0,0.0,0.0,0.0,4.0,0.0,0.04740234666666667,-0.24499997333333334,0.9932356799999998,3.098958306666666,0.6184895866666678,-6.8351236533333335,3.662095520252997,12.561824709185636,-7.598422692548261,-17.636670091501568,-10.68833986025022,16.508972259684228,26.416640701567317,-1.3743127943585458,26.3707957359145,-1.3849584402908535,-0.32669934666666667,-0.18224602666666667,0.7775163200000003,1.2864616933333335,0.8628312147891712,0.6748256285347348,0.6910731940366616,0.6939715324777902
LBP08_S13,LBP08,-1673,153,13,152,-1673,1716497876.08,2024-05-23 20:57:56.080000+00:00,2024-05-24 05:57:56.080000+09:00,2024,5,23,20,57,56,80,,,,,,,,,0.312988,-0.408447,1.294922,-46.691895,92.041016,31.005859,,,,,,,,,,,0.0,1.0,1.0,13.0,0.0,0.0,0.0,4.0,0.0,0.0422168,-0.23541012000000006,0.9818522133333333,3.6718749733333325,1.2947591200000013,-7.002766880000001,6.706882119703492,11.972539660924772,-7.7376879162853855,-17.36839480671343,-10.20943827381323,16.199464743032813,25.851816686442668,-1.3885944308368863,26.005895202886812,-1.380449487473118,0.2707712,-0.17303687999999995,0.3130697866666666,0.7568778666666666,0.44863291889147694,0.668685049962695,0.6899803270452988,0.6892416230275407
LBP08_S13,LBP08,-1672,154,13,153,-1672,1716497876.12,2024-05-23 20:57:56.120000+00:00,2024-05-24 05:57:56.120000+09:00,2024,5,23,20,57,56,120,,,,,,,,,-0.603271,0.068604,-0.153564,-1.77002,80.871582,-13.977051,,,,,,,,,,,0.0,1.0,1.0,13.0,0.0,0.0,0.0,4.0,0.0,0.03819336,-0.23430985333333335,0.9747200533333333,2.7758788799999996,0.33203125333333466,-6.870930946666667,8.341274349129302,10.149365337157244,-8.004801052147798,-17.034743832748255,-9.80346366032694,15.8792727009469,25.26740387728314,-1.4048188550064955,25.636023424386565,-1.3727827406597535,-0.64146436,0.3029138533333333,-1.1282840533333334,2.0726622666666668,1.3327633821116762,0.7089449062779595,0.70086896249689,0.7003640638886833
LBP08_S13,LBP08,-1671,155,13,154,-1671,1716497876.16,2024-05-23 20:57:56.160000+00:00,2024-05-24 05:57:56.160000+09:00,2024,5,23,20,57,56,160,,,,,,,,,0.124512,-0.273438,0.384277,35.888672,-75.561523,-27.038574,,,,,,,,,,,0.0,1.0,1.0,13.0,0.0,0.0,0.0,4.0,0.0,0.043990893333333336,-0.23278316000000004,0.9673274799999999,3.6303710666666658,-0.49641926666666536,-7.23551428,7.722916575335826,7.350834633944191,-8.650941838666498,-16.72582716973482,-9.509430274969173,15.533235027400242,24.727797093206533,-1.3790106600527166,25.295130552419803,-1.3674223957014786,0.08052110666666666,-0.04065483999999997,-0.5830504799999999,0.7042264266666666,0.5899867175305564,0.708989646414617,0.6987640645774633,0.6944789081456996
LBP08_S13,LBP08,-1670,156,13,155,-1670,1716497876.2,2024-05-23 20:57:56.200000+00:00,2024-05-24 05:57:56.200000+09:00,2024,5,23,20,57,56,200,,,,,,,,,0.383789,-0.087646,0.970947,61.401367,-24.047852,-43.701172,,,,,,,,,,,0.0,1.0,1.0,13.0,0.0,0.0,0.0,4.0,0.0,0.050888680000000006,-0.22121739999999998,0.95980144,3.3723957999999996,1.3004557333333346,-6.331380173333334,4.404735321061577,4.070099761190092,-9.809756823684628,-16.54963775689236,-9.34662628452157,15.140844754452857,24.300105198646964,-1.3392840176625493,25.014462942027077,-1.3630312675453649,0.33290031999999997,0.13357139999999998,0.011145559999999999,0.4776172799999999,0.3588706806940015,0.685461230185545,0.6944199173275547,0.6912491879431554
LBP08_S13,LBP08,-1669,157,13,156,-1669,1716497876.24,2024-05-23 20:57:56.240000+00:00,2024-05-24 05:57:56.240000+09:00,2024,5,23,20,57,56,240,,,,,,,,,0.28418,-0.075439,1.435791,-5.554199,57.495117,10.131836,,,,,,,,,,,0.0,1.0,1.0,13.0,0.0,0.0,0.0,4.0,0.0,0.04182944,-0.2267187066666667,0.9632682400000001,3.207193973333333,0.04475912000000126,-5.76497392,-1.4008399347844604,0.877752077565242,-11.476312193374651,-16.60567135428374,-9.311516201418959,14.68179226671787,24.041790267341238,-1.3836499928226338,24.817360618591195,-1.3623305443674456,0.24235056,0.15127970666666668,0.47252275999999993,0.8661530266666666,0.552174883799946,0.6797660837398726,0.6873527138136758,0.6936319750032385
LBP08_S13,LBP08,-1668,158,13,157,-1668,1716497876.28,2024-05-23 20:57:56.280000+00:00,2024-05-24 05:57:56.280000+09:00,2024,5,23,20,57,56,280,,,,,,,,,-0.36377,-0.451904,1.598145,24.230957,-46.386719,2.01416,,,,,,,,,,,0.0,1.0,1.0,13.0,0.0,0.0,0.0,4.0,0.0,0.058518893333333336,-0.23265294666666667,0.9922558666666667,2.8011067333333326,-2.3258463466666655,-5.801595013333334,-8.740343675762992,-1.7388974447195076,-13.486341319260692,-16.95528510131426,-9.381072099207739,14.142338613947443,23.989413249784416,-1.3183943786213492,24.714644377750208,-1.3564351243335329,-0.4222888933333333,-0.2192510533333333,0.6058891333333333,1.2474290799999999,0.7703898855202379,0.6957986242385082,0.6932899627957341,0.6981288220545685
LBP08_S13,LBP08,-1667,159,13,158,-1667,1716497876.32,2024-05-23 20:57:56.320000+00:00,2024-05-24 05:57:56.320000+09:00,2024,5,23,20,57,56,320,,,,,,,,,0.274658,-0.375488,1.657715,-29.35791,-88.745117,0.244141,,,,,,,,,,,0.0,1.0,1.0,13.0,0.0,0.0,0.0,4.0,0.0,0.057649746666666675,-0.22691401333333336,0.9961751333333334,1.296386679999999,1.5364583333333348,-6.166992146666667,-16.089290183795697,-3.4716397114023194,-15.50803495015725,-17.598856708666087,-9.519937687663832,13.522017215941153,24.14940828710659,-1.3163042687632558,24.70199038707875,-1.3499496602853642,0.21700825333333335,-0.14857398666666663,0.6615398666666666,1.0271221066666665,0.7119001381641684,0.6813783842105171,0.698606066412738,0.6967151557709098
LBP08_S13,LBP08,-1666,160,13,159,-1666,1716497876.36,2024-05-23 20:57:56.360000+00:00,2024-05-24 05:57:56.360000+09:00,2024,5,23,20,57,56,360,,,,,,,,,0.160156,-0.185791,0.899902,-31.433105,179.56543,20.690918,,,,,,,,,,,0.0,1.0,1.0,13.0,0.0,0.0,0.0,4.0,0.0,0.051259773333333335,-0.23823562666666664,0.98315104,-4.052734413333334,1.6048177066666678,-6.611328093333333,-21.739985380131763,-4.2038086790022176,-17.086088495956183,-18.46845612387136,-9.68809003482392,12.838573676102905,24.490241610873063,-1.3532058149953152,24.760303737078146,-1.3441325053236375,0.10889622666666665,0.05244462666666663,-0.08324904,0.24458989333333328,0.14676249421894438,0.6662820975021424,0.6873519723447977,0.6873648662612201
LBP08_S13,LBP08,-1665,161,13,160,-1665,1716497876.4,2024-05-23 20:57:56.400000+00:00,2024-05-24 05:57:56.400000+09:00,2024,5,23,20,57,56,400,,,,,,,,,-0.147217,0.098633,-0.027832,-108.642578,-39.733887,-64.208984,,,,,,,,,,,0.0,1.0,1.0,13.0,0.0,0.0,0.0,4.0,0.0,0.049772146666666676,-0.24650712000000002,0.9751822800000001,-4.680989626666667,0.21972656000000143,-6.7602538800000005,-24.281430988828546,-3.972623055247825,-17.76533788139392,-19.439713363424502,-9.846994957033834,12.127960160847149,24.938989213660015,-1.3657302305547092,24.859065033680686,-1.337513904047276,-0.19698914666666667,0.34514012000000005,-1.0030142800000001,1.545143546666667,1.078871666243022,0.6927980559568166,0.693847293595144,0.6842160923715987
LBP08_S13,LBP08,-1664,162,13,161,-1664,1716497876.44,2024-05-23 20:57:56.440000+00:00,2024-05-24 05:57:56.440000+09:00,2024,5,23,20,57,56,440,,,,,,,,,0.284912,-0.174805,0.455566,4.699707,-71.716309,-42.297363,,,,,,,,,,,0.0,1.0,1.0,13.0,0.0,0.0,0.0,4.0,0.0,0.059567066666666675,-0.23425452000000002,0.9670800666666668,-5.294596386666668,0.4020182266666681,-7.451171853333333,-23.00359524222469,-2.939627324411925,-17.269633026271237,-20.35985717311349,-9.96458005001031,11.437174839796299,25.38947829315746,-1.3153585940194183,24.961644862825615,-1.3373561662757074,0.22534493333333333,0.05944952000000003,-0.5115140666666668,0.7963085200000002,0.5621042828560427,0.6950858571715011,0.6882603016778411,0.681038211811144
LBP08_S13,LBP08,-1663,163,13,162,-1663,1716497876.48,2024-05-23 20:57:56.480000+00:00,2024-05-24 05:57:56.480000+09:00,2024,5,23,20,57,56,480,,,,,,,,,0.428467,-0.350342,1.037354,-41.19873,-5.432129,-40.283203,,,,,,,,,,,0.0,1.0,1.0,13.0,0.0,0.0,0.0,4.0,0.0,0.05860677333333334,-0.23893550666666669,0.9661393200000001,-6.148274773333334,2.3860677066666685,-7.316080706666667,-18.08516280697408,-1.3982779163913424,-15.657269996957892,-21.083263685392453,-10.020511166665964,10.810884039917983,25.72527677972812,-1.3237397903552013,25.031137499811614,-1.3358360744305307,0.3698602266666666,-0.1114064933333333,0.07121467999999997,0.5524813999999999,0.39278432335602503,0.681226955291431,0.6794716535186227,0.6812736293311438
LBP08_S13,LBP08,-1662,164,13,163,-1662,1716497876.52,2024-05-23 20:57:56.520000+00:00,2024-05-24 05:57:56.520000+09:00,2024,5,23,20,57,56,520,,,,,,,,,0.156494,-0.648438,1.408691,11.291504,44.372559,-0.12207,,,,,,,,,,,0.0,1.0,1.0,13.0,0.0,0.0,0.0,4.0,0.0,0.05337565333333334,-0.2407682,0.97711588,-5.563151066666667,-0.2571614533333316,-8.254394506666667,-10.51049813330262,0.21549018236528733,-13.362703949054042,-21.503683610724558,-10.011891559371351,10.276375881955822,25.850537377277064,-1.346647305389226,25.035492293711574,-1.3391360893922675,0.10311834666666665,-0.40766979999999997,0.43157511999999987,0.9423632666666665,0.6025654681894085,0.669523971168168,0.673860014907943,0.6842117069410972
LBP08_S13,LBP08,-1661,165,13,164,-1661,1716497876.56,2024-05-23 20:57:56.560000+00:00,2024-05-24 05:57:56.560000+09:00,2024,5,23,20,57,56,560,,,,,,,,,-0.300537,-0.524658,1.599609,9.460449,-60.791016,-2.685547,,,,,,,,,,,0.0,1.0,1.0,13.0,0.0,0.0,0.0,4.0,0.0,0.06316406666666667,-0.24603512000000005,1.0005208266666668,-5.799967480000001,0.07975261333333501,-8.200683573333333,-1.764872803477771,1.3708184927203557,-11.081967240237013,-21.57427852286367,-9.957058819662537,9.833097192346342,25.715410059231907,-1.3128246472891019,24.951450668294807,-1.3383621725962043,-0.3637010666666667,-0.2786228799999999,0.5990881733333333,1.24141212,0.7541987898305296,0.6673144318759919,0.6820876152780352,0.6856751560982999
LBP08_S13,LBP08,-1660,166,13,165,-1660,1716497876.6,2024-05-23 20:57:56.600000+00:00,2024-05-24 05:57:56.600000+09:00,2024,5,23,20,57,56,600,,,,,,,,,0.045898,-0.16748,1.584961,34.851074,-39.001465,-23.193359,,,,,,,,,,,0.0,1.0,1.0,13.0,0.0,0.0,0.0,4.0,0.0,0.05520182666666667,-0.23872718666666667,0.9971582000000001,-6.73909508,4.189453133333335,-7.797851546666667,6.573196421860895,1.5723333647401132,-9.536811957852938,-21.31135066598923,-9.894165485072932,9.451624714032224,25.325903490096316,-1.3377066399468633,24.76743228213804,-1.336968521969379,-0.009303826666666667,0.07124718666666668,0.5878028,0.6683538133333333,0.592178059781345,0.6543810309175362,0.6880480494324587,0.6820838304062602
LBP08_S13,LBP08,-1659,167,13,166,-1659,1716497876.64,2024-05-23 20:57:56.640000+00:00,2024-05-24 05:57:56.640000+09:00,2024,5,23,20,57,56,640,,,,,,,,,0.003906,-0.238281,0.632568,-9.94873,164.733887,65.429688,,,,,,,,,,,0.0,1.0,1.0,13.0,0.0,0.0,0.0,4.0,0.0,0.049768893333333335,-0.24992836000000002,0.9871777333333334,-9.649251333333334,4.141438813333335,-7.662760400000001,13.208897334082904,0.5381072286954186,-9.212390571758112,-20.782994772625916,-9.872641195925116,9.083129091161899,24.736716637201173,-1.3684490743708662,24.485417338748118,-1.3353597536764674,-0.045862893333333335,0.011647360000000023,-0.35460973333333334,0.4121199866666667,0.35775288811498374,0.6554178009416237,0.6810048544295999,0.6795666344466279
LBP08_S13,LBP08,-1658,168,13,167,-1658,1716497876.68,2024-05-23 20:57:56.680000+00:00,2024-05-24 05:57:56.680000+09:00,2024,5,23,20,57,56,680,,,,,,,,,0.072998,0.186523,0.028809,96.862793,-25.878906,-5.493164,,,,,,,,,,,0.0,1.0,1.0,13.0,0.0,0.0,0.0,4.0,0.0,0.052848320000000004,-0.24385414666666666,0.9811263066666666,-6.534830760000001,3.317057306666668,-8.216145826666667,17.374686504893084,-1.6571711393091713,-10.178343831515,-20.088007312430193,-9.938928041497483,8.675995337901298,24.032961188784018,-1.351394528238719,24.12122900248333,-1.3384627231851207,0.02014967999999999,0.43037714666666665,-0.9523173066666666,1.4028441333333332,1.0452457847577754,0.6794716963412921,0.6845113542060212,0.6715685050443427
LBP08_S13,LBP08,-1657,169,13,168,-1657,1716497876.72,2024-05-23 20:57:56.720000+00:00,2024-05-24 05:57:56.720000+09:00,2024,5,23,20,57,56,720,,,,,,,,,0.19751,0.040283,0.520264,-57.250977,-44.433594,-33.26416,,,,,,,,,,,0.0,1.0,1.0,13.0,0.0,0.0,0.0,4.0,0.0,0.061829440000000006,-0.23654294666666667,0.9763411466666666,-7.005208360000001,4.271647160000001,-8.22265624,18.894299413361654,-4.565335717962702,-12.070404404820264,-19.332235335895728,-10.121541470215991,8.193179161708487,23.308992032938956,-1.308565100802623,23.702373687414486,-1.3430302643493963,0.13568055999999998,0.27682594666666666,-0.45607714666666666,0.8685836533333333,0.5504981224504021,0.6760561562273802,0.6813507667162851,0.6687713880426783
LBP08_S13,LBP08,-1656,170,13,169,-1656,1716497876.76,2024-05-23 20:57:56.760000+00:00,2024-05-24 05:57:56.760000+09:00,2024,5,23,20,57,56,760,,,,,,,,,0.227295,-0.589111,0.845703,18.371582,-29.47998,-43.151855,,,,,,,,,,,0.0,1.0,1.0,13.0,0.0,0.0,0.0,4.0,0.0,0.05494468,-0.23959958666666664,0.9759830799999999,-7.569173200000002,5.502115920000002,-8.39599608,18.08490118065284,-7.5092378401265805,-14.2383134869539,-18.608839288669614,-10.421910983821054,7.623646622230331,22.65005774930536,-1.3392693087270626,23.263224501558504,-1.3487343033241699,0.17235032,-0.3495114133333334,-0.1302800799999999,0.6521418133333333,0.410896288738622,0.6594123601602735,0.6571281214774767,0.6695416669205226
LBP08_S13,LBP08,-1655,171,13,170,-1655,1716497876.8,2024-05-23 20:57:56.800000+00:00,2024-05-24 05:57:56.800000+09:00,2024,5,23,20,57,56,800,,,,,,,,,0.088867,0.054443,0.949707,31.37207,0.610352,-36.071777,,,,,,,,,,,0.0,1.0,1.0,13.0,0.0,0.0,0.0,4.0,0.0,0.052542333333333344,-0.24013669333333335,0.9899088533333334,-7.686360706666668,2.5797526400000015,-9.572753893333333,15.567305485482887,-9.825575736941282,-15.986631869589157,-17.986147069250297,-10.814934013298705,6.984181347446765,22.11883977976082,-1.3496425476255915,22.83833689674256,-1.35618318744564,0.03632466666666666,0.29457969333333334,-0.04020185333333348,0.3711062133333335,0.29952106126988803,0.6439607413002988,0.650019648614413,0.667273034367355
LBP08_S13,LBP08,-1654,172,13,171,-1654,1716497876.84,2024-05-23 20:57:56.840000+00:00,2024-05-24 05:57:56.840000+09:00,2024,5,23,20,57,56,840,,,,,,,,,-0.051025,-0.53833,1.500244,-36.621094,-42.358398,-19.775391,,,,,,,,,,,0.0,1.0,1.0,13.0,0.0,0.0,0.0,4.0,0.0,0.05518230666666667,-0.24860349333333331,1.0101204400000001,-9.040527373333335,3.6352539466666682,-9.419759093333333,12.072932247704973,-11.084211202715005,-16.796386240157528,-17.5032297793421,-11.258302461407306,6.312325897840464,21.747594930509564,-1.3463882891059518,22.455414834694896,-1.3580010073832631,-0.10620730666666667,-0.28972650666666666,0.4901235599999998,0.8860573733333331,0.5791740193773637,0.6067850463902797,0.6525089609951438,0.6643163222301011
LBP08_S13,LBP08,-1653,173,13,172,-1653,1716497876.88,2024-05-23 20:57:56.880000+00:00,2024-05-24 05:57:56.880000+09:00,2024,5,23,20,57,56,880,,,,,,,,,0.009277,-0.28418,1.438232,20.690918,-64.880371,-10.681152,,,,,,,,,,,0.0,1.0,1.0,13.0,0.0,0.0,0.0,4.0,0.0,0.04889976,-0.24625649333333338,1.01019532,-9.501139346666667,7.255045613333335,-8.999837213333334,8.313351496169885,-11.184384431637149,-16.44253210907274,-17.170695719495303,-11.705677838672791,5.654624613477554,21.536723629039674,-1.369415201997957,22.12966063523871,-1.3591465200434725,-0.03962276,-0.037923506666666607,0.42803667999999995,0.5055829466666666,0.43153627297521197,0.5954236623818108,0.6510663215315374,0.6605332409929136
LBP08_S13,LBP08,-1652,174,13,173,-1652,1716497876.92,2024-05-23 20:57:56.920000+00:00,2024-05-24 05:57:56.920000+09:00,2024,5,23,20,57,56,920,,,,,,,,,0.229004,-0.247559,1.023926,21.362305,63.049316,13.122559,,,,,,,,,,,0.0,1.0,1.0,13.0,0.0,0.0,0.0,4.0,0.0,0.04106121333333334,-0.2507421733333333,1.0004394533333332,-10.913899760000001,7.602539106666668,-9.255371066666667,4.93031927406765,-10.300449367511987,-14.99077768914924,-16.973482948532595,-12.11769581337327,5.054993505911584,21.459045518717257,-1.403687695136962,21.86090244642717,-1.3608132355324647,0.18794278666666667,0.0031831733333333168,0.02348654666666672,0.2146125066666667,0.18943136363028096,0.5880098245044469,0.6355142609745408,0.6598616445163341
LBP08_S13,LBP08,-1651,175,13,174,-1651,1716497876.96,2024-05-23 20:57:56.960000+00:00,2024-05-24 05:57:56.960000+09:00,2024,5,23,20,57,56,960,,,,,,,,,-0.649902,-0.183838,0.004395,54.870605,83.984375,9.338379,,,,,,,,,,,0.0,1.0,1.0,13.0,0.0,0.0,0.0,4.0,0.0,0.043590506666666674,-0.24150714666666664,0.99363932,-9.816080746666668,7.404785200000001,-10.020345026666668,2.495229223155761,-8.729476413354387,-12.718979335221134,-16.873673779606364,-12.466874869907446,4.546234332502739,21.466534011072483,-1.3873134885038043,21.63409234090455,-1.3664306000369897,-0.6934925066666666,0.05766914666666664,-0.98924432,1.7404059733333332,1.2094882851571322,0.6221597228310919,0.6442345291767286,0.6604247214440006
LBP08_S13,LBP08,-1650,176,13,175,-1650,1716497877.0,2024-05-23 20:57:57+00:00,2024-05-24 05:57:57+09:00,2024,5,23,20,57,57,0,20.0,57.0,55.0,40.789082,141.626175,2.058,3.0,14.0,-0.042969,0.237549,0.268555,-6.896973,-53.955078,-22.277832,-539.0,44.0,585.0,704.0,0.0,1020.700012,26.790001,0.076305,-61.806309,3.775781,0.0,1.0,1.0,13.0,0.0,0.0,0.0,4.0,0.0,0.05139324,-0.2420735466666667,0.9885253866666667,-10.725911466666666,8.651530000000001,-10.648600226666668,1.4989254479129352,-6.746365685160159,-10.027843377767926,-16.813716761689847,-12.736729497313853,4.145120597392022,21.49668286961964,-1.3558848393230958,21.422848169170393,-1.370509593944419,-0.09436224,0.4796225466666667,-0.7199703866666667,1.2939551733333334,0.8702294969062966,0.6280315395741803,0.6566608131265076,0.6636893044115029
LBP08_S13,LBP08,-1649,177,13,176,-1649,1716497877.04,2024-05-23 20:57:57.040000+00:00,2024-05-24 05:57:57.040000+09:00,2024,5,23,20,57,57,40,,,,,,,,,0.289795,-0.145264,0.690186,-33.874512,-65.002441,-43.395996,,,,,,,,,,,0.0,1.0,1.0,13.0,0.0,0.0,0.0,4.0,0.0,0.04500652000000001,-0.23947914666666667,0.9815104133333333,-10.32307944,9.717610720000003,-11.053059866666667,2.2877737808848426,-4.556400575496709,-7.377725041694711,-16.722205810454454,-12.91898552033372,3.850011595724234,21.479174642639325,-1.3799042009729585,21.19501960442313,-1.3757253554510815,0.24478848000000003,0.09421514666666667,-0.29132441333333337,0.6303280400000001,0.39200485661040324,0.6091984852470297,0.6420120568908823,0.6637816244401177
LBP08_S13,LBP08,-1648,178,13,177,-1648,1716497877.08,2024-05-23 20:57:57.080000+00:00,2024-05-24 05:57:57.080000+09:00,2024,5,23,20,57,57,80,,,,,,,,,0.435547,-0.389404,1.025391,-18.066406,-5.187988,-23.254395,,,,,,,,,,,0.0,1.0,1.0,13.0,0.0,0.0,0.0,4.0,0.0,0.048225920000000005,-0.24109046666666667,0.99689452,-10.625000013333333,6.689453173333336,-12.21842444,4.958404778574358,-2.3464564681794933,-5.23913990599215,-16.52386961931148,-13.0128437790609,3.6404459994845477,21.345379300668608,-1.3680616831286405,20.918865436453604,-1.379184286188486,0.38732108,-0.1483135333333333,0.028496479999999935,0.5641310933333332,0.4157241544035835,0.6078821346675138,0.6382835923151045,0.6626142629193704
LBP08_S13,LBP08,-1647,179,13,178,-1647,1716497877.12,2024-05-23 20:57:57.120000+00:00,2024-05-24 05:57:57.120000+09:00,2024,5,23,20,57,57,120,,,,,,,,,0.008057,-0.583252,1.428467,8.972168,21.66748,15.930176,,,,,,,,,,,0.0,1.0,1.0,13.0,0.0,0.0,0.0,4.0,0.0,0.04994141333333333,-0.24552732000000002,1.0144498533333333,-10.6193034,7.190755253333335,-12.603352813333332,9.27816520570362,-0.3507576119791589,-4.0178385865914725,-16.152743011083334,-13.026874083540067,3.479732456020889,21.040890977712767,-1.3647387458478726,20.56836402950031,-1.377685743075843,-0.04188441333333333,-0.33772468,0.41401714666666667,0.79362624,0.5359313960717249,0.5760088552259159,0.6424768807519377,0.6592489267398987
LBP08_S13,LBP08,-1646,180,13,179,-1646,1716497877.16,2024-05-23 20:57:57.160000+00:00,2024-05-24 05:57:57.160000+09:00,2024,5,23,20,57,57,160,,,,,,,,,-0.161377,-0.553711,1.531494,12.756348,-48.400879,-0.244141,,,,,,,,,,,0.0,1.0,1.0,13.0,0.0,0.0,0.0,4.0,0.0,0.0464388,-0.24723956000000002,1.0184179599999998,-10.703125013333334,8.815104213333335,-12.662760373333334,14.701743832404084,1.1556137360807917,-3.937019015277134,-15.56467325778717,-12.980649534096836,3.3222516954098036,20.537616031963807,-1.3800592478013558,20.126662881021513,-1.3747226810753932,-0.2078158,-0.30647143999999993,0.5130760400000001,1.0273632799999999,0.6327394195775977,0.5777189633077975,0.6433543048612073,0.6584156974875747
LBP08_S13,LBP08,-1645,181,13,180,-1645,1716497877.2,2024-05-23 20:57:57.200000+00:00,2024-05-24 05:57:57.200000+09:00,2024,5,23,20,57,57,200,,,,,,,,,0.110107,-0.421387,1.419678,13.61084,12.939453,11.71875,,,,,,,,,,,0.0,1.0,1.0,13.0,0.0,0.0,0.0,4.0,0.0,0.040944013333333334,-0.24674802666666665,1.01555012,-10.253092466666669,9.521484426666667,-13.2242838,20.503222603689768,1.9528617437911597,-4.911438935242423,-14.74454435363958,-12.902535064345189,3.125794138000107,19.840554132288183,-1.401800162692218,19.58771268445893,-1.3686923967089601,0.06916298666666666,-0.17463897333333336,0.4041278800000001,0.6479298400000002,0.4456474314128476,0.5811900333365513,0.6333256317610482,0.6566766226638868
LBP08_S13,LBP08,-1644,182,13,181,-1644,1716497877.24,2024-05-23 20:57:57.240000+00:00,2024-05-24 05:57:57.240000+09:00,2024,5,23,20,57,57,240,,,,,,,,,-0.196289,-0.364258,0.38208,55.297852,143.981934,50.476074,,,,,,,,,,,0.0,1.0,1.0,13.0,0.0,0.0,0.0,4.0,0.0,0.04575846666666667,-0.24480792000000004,1.00991536,-10.082194026666668,9.597168026666669,-14.3969726,25.976058457380862,2.0038416120508313,-6.486079621398008,-13.705502015344345,-12.822381399863156,2.8663509531441864,18.98605325081427,-1.3809775964799953,18.957056922706183,-1.3645592905625843,-0.24204746666666666,-0.11945007999999999,-0.62783536,0.9893329066666666,0.683397788259581,0.5864389495149367,0.6331025166274047,0.6537147923807628
