file_name,test_id,_program_index,program_index,session_id,index,_index,unixtime,datetime_utc,datetime_jst,rtc_year,rtc_month,rtc_day,rtc_hour,rtc_min,rtc_sec,rtc_msec,gps_hour,gps_min,gps_sec,latitude,longitude,altitude,fix_type,SIV,acc_x,acc_y,acc_z,gyro_x,gyro_y,gyro_z,mag_x,mag_y,mag_z,illuminance,atmopress,water_pressure,water_temp,depth,alt_wps,battery_level,behavior_class,camera_command,camera_recording,camera_count,play_audio,speaker_on,audio_file,prev_sd_write_time_ms,delay_occurred_counter,acc_x_ma,acc_y_ma,acc_z_ma,gyro_x_ma,gyro_y_ma,gyro_z_ma,gyro_x_lowpass,gyro_y_lowpass,gyro_z_lowpass,angle_x,angle_y,angle_z,combined_angle_change,gravity_adjusted_angle,smoothed_angle_change,smoothed_gravity_angle,acc_x_dy,acc_y_dy,acc_z_dy,ODBA,VeDBA,smoothed_VeDBA_1s,smoothed_VeDBA_2s,smoothed_VeDBA_3s
LBP08_S05,LBP08,-1625,1,5,0,-1625,1716493803.0,2024-05-23 19:50:03+00:00,2024-05-24 04:50:03+09:00,2024,5,23,19,50,3,0,19.0,50.0,1.0,40.791058,141.606079,6.872,3.0,17.0,0.455811,-0.1604,0.734619,51.208496,-89.904785,-19.836426,-592.0,22.0,602.0,15.0,0.0,1018.299988,20.24,0.052522,-41.935379,3.860156,0.0,1.0,1.0,5.0,0.0,0.0,0.0,3.0,0.0,,,,,,,51.20540479793125,-88.68466874453519,-19.173909952111806,2.04821619191725,-3.5473867497814076,-0.7669563980844722,4.167416998323951,,6.623999305771551,,,,,,,,,
LBP08_S05,LBP08,-1624,2,5,1,-1624,1716493803.04,2024-05-23 19:50:03.040000+00:00,2024-05-24 04:50:03.040000+09:00,2024,5,23,19,50,3,40,,,,,,,,,0.241943,0.067627,1.085938,1.342773,16.967773,9.399414,,,,,,,,,,,0.0,1.0,1.0,5.0,0.0,0.0,0.0,3.0,0.0,,,,,,,35.11451344195036,-51.07577102384587,-10.556830195073976,3.4527967295952644,-5.5904175907352425,-1.1892296058874314,6.67748763759432,,6.504901725675912,,,,,,,,,
LBP08_S05,LBP08,-1623,3,5,2,-1623,1716493803.08,2024-05-23 19:50:03.080000+00:00,2024-05-24 04:50:03.080000+09:00,2024,5,23,19,50,3,80,,,,,,,,,-0.128906,-0.748779,1.67749,-8.483887,-2.868652,30.700684,,,,,,,,,,,0.0,1.0,1.0,5.0,0.0,0.0,0.0,3.0,0.0,,,,,,,20.791616227956276,-17.480754410708293,-3.098883699527901,4.284461378713515,-6.289647767163574,-1.3131849538685474,7.722741292037445,,6.291784196457491,,,,,,,,,
LBP08_S05,LBP08,-1622,4,5,3,-1622,1716493803.12,2024-05-23 19:50:03.120000+00:00,2024-05-24 04:50:03.120000+09:00,2024,5,23,19,50,3,120,,,,,,,,,0.098145,-0.200439,1.61499,35.766602,-10.742188,8.544922,,,,,,,,,,,0.0,1.0,1.0,5.0,0.0,0.0,0.0,3.0,0.0,,,,,,,9.46743113659551,8.692576557238832,2.2830351527119346,4.663158624177336,-5.941944704874021,-1.2218635477600701,7.65145121917174,,6.049077165001212,,,,,,,,,
LBP08_S05,LBP08,-1621,5,5,4,-1621,1716493803.16,2024-05-23 19:50:03.160000+00:00,2024-05-24 04:50:03.160000+09:00,2024,5,23,19,50,3,160,,,,,,,,,0.143799,-0.11084,1.03833,-47.790527,132.507324,43.579102,,,,,,,,,,,0.0,1.0,1.0,5.0,0.0,0.0,0.0,3.0,0.0,,,,,,,1.6046344185312078,25.456604696285872,5.149724467821225,4.727344000918584,-4.923680517022586,-1.015874569047221,6.900899381730297,,5.8064988365615555,,,,,,,,,
LBP08_S05,LBP08,-1620,6,5,5,-1620,1716493803.2,2024-05-23 19:50:03.200000+00:00,2024-05-24 04:50:03.200000+09:00,2024,5,23,19,50,3,200,,,,,,,,,-0.531006,-0.008789,-0.034912,-38.696289,86.608887,-19.65332,,,,,,,,,,,0.0,1.0,1.0,5.0,0.0,0.0,0.0,3.0,0.0,,,,,,,-3.1622551564806267,32.52279481643619,5.571645321835893,4.600853794659359,-3.6227687243651383,-0.7930087561737853,5.909413825197718,,5.574098595680181,,,,,,,,,
LBP08_S05,LBP08,-1619,7,5,6,-1619,1716493803.24,2024-05-23 19:50:03.240000+00:00,2024-05-24 04:50:03.240000+09:00,2024,5,23,19,50,3,240,,,,,,,,,0.021973,-0.334961,0.36792,9.70459,-57.861328,-33.14209,,,,,,,,,,,0.0,1.0,1.0,5.0,0.0,0.0,0.0,3.0,0.0,,,,,,,-5.828132698423335,31.129763973434063,3.993462727708726,4.3677284867224255,-2.3775781654277757,-0.6332702470654363,5.013079021146964,,5.48792716574297,,,,,,,,,
LBP08_S05,LBP08,-1618,8,5,7,-1618,1716493803.28,2024-05-23 19:50:03.280000+00:00,2024-05-24 04:50:03.280000+09:00,2024,5,23,19,50,3,280,,,,,,,,,0.243896,-0.153076,0.736816,57.250977,-70.983887,-35.095215,,,,,,,,,,,0.0,1.0,1.0,5.0,0.0,0.0,0.0,3.0,0.0,,,,,,,-7.620126909760705,23.5127820011671,1.018222142888372,4.062923410331997,-1.4370668853810917,-0.5925413613499014,4.350127944807267,,5.183119142127483,,,,,,,,,
LBP08_S05,LBP08,-1617,9,5,8,-1617,1716493803.32,2024-05-23 19:50:03.320000+00:00,2024-05-24 04:50:03.320000+09:00,2024,5,23,19,50,3,320,,,,,,,,,0.382324,0.006592,1.021484,43.640137,1.525879,9.765625,,,,,,,,,,,0.0,1.0,1.0,5.0,0.0,0.0,0.0,3.0,0.0,,,,,,,-9.539043500440833,12.241582815167392,-2.775003769599225,3.681361670314364,-0.947403572774396,-0.7035415121338704,3.8658722090443014,,4.867462164116872,,,,,,,,,
LBP08_S05,LBP08,-1616,10,5,9,-1616,1716493803.36,2024-05-23 19:50:03.360000+00:00,2024-05-24 04:50:03.360000+09:00,2024,5,23,19,50,3,360,,,,,,,,,-0.081543,-0.349609,1.580078,-80.26123,32.165527,33.447266,,,,,,,,,,,0.0,1.0,1.0,5.0,0.0,0.0,0.0,3.0,0.0,,,,,,,-12.009388791463676,-0.3137884092743443,-6.905790951932325,3.200986118655817,-0.9599551091453697,-0.9797731502111634,3.482496427747807,,4.689780466010934,,,,,,,,,
LBP08_S05,LBP08,-1615,11,5,10,-1615,1716493803.4,2024-05-23 19:50:03.400000+00:00,2024-05-24 04:50:03.400000+09:00,2024,5,23,19,50,3,400,,,,,,,,,-0.206543,-0.368408,1.856934,20.141602,-45.288086,-22.766113,,,,,,,,,,,0.0,1.0,1.0,5.0,0.0,0.0,0.0,3.0,0.0,,,,,,,-14.76059609132354,-12.23719596383018,-10.964715256405363,2.6105622750028754,-1.4494429476985768,-1.418361760467378,3.305702698951835,,4.72247378452279,,,,,,,,,
LBP08_S05,LBP08,-1614,12,5,11,-1614,1716493803.44,2024-05-23 19:50:03.440000+00:00,2024-05-24 04:50:03.440000+09:00,2024,5,23,19,50,3,440,,,,,,,,,0.007568,-0.511719,1.668213,-14.953613,3.112793,-8.666992,,,,,,,,,,,0.0,1.0,1.0,5.0,0.0,0.0,0.0,3.0,0.0,,,,,,,-16.960176687822003,-22.062130485060834,-14.550238647098755,1.9321552074899953,-2.3319281671010104,-2.000371306351328,3.629407401439456,,4.968523446084284,,,,,,,,,
LBP08_S05,LBP08,-1613,13,5,12,-1613,1716493803.48,2024-05-23 19:50:03.480000+00:00,2024-05-24 04:50:03.480000+09:00,2024,5,23,19,50,3,480,,,,,,,,,-0.093994,-0.000488,0.557617,-10.009766,118.286133,11.901855,,,,,,,,,,,0.0,1.0,1.0,5.0,0.0,0.0,0.0,3.0,0.0,,,,,,,-17.531968913844228,-28.65788031492619,-17.24345162805907,1.230876450936226,-3.478243379698058,-2.690109371473691,4.566171511931336,,5.382645892238456,,,,,,,,,
LBP08_S05,LBP08,-1612,14,5,13,-1612,1716493803.52,2024-05-23 19:50:03.520000+00:00,2024-05-24 04:50:03.520000+09:00,2024,5,23,19,50,3,520,,,,,,,,,-0.156006,0.150635,-0.12085,-55.358887,-23.4375,-20.507812,,,,,,,,,,,0.0,1.0,1.0,5.0,0.0,0.0,0.0,3.0,0.0,,,,,,,-15.552304124460852,-31.18520178767994,-18.657565905038354,0.6087842859577919,-4.725651451205255,-3.436412007675225,5.874634238112357,,5.903987651026393,,,,,,,,,
LBP08_S05,LBP08,-1611,15,5,14,-1611,1716493803.56,2024-05-23 19:50:03.560000+00:00,2024-05-24 04:50:03.560000+09:00,2024,5,23,19,50,3,560,,,,,,,,,0.045898,-0.133301,0.199707,-50.354004,-119.445801,-39.978027,,,,,,,,,,,0.0,1.0,1.0,5.0,0.0,0.0,0.0,3.0,0.0,,,,,,,-10.605399312799904,-29.227698451144096,-18.550547422517727,0.18456831344579572,-5.8947593892510195,-4.178433904575934,7.227832566848859,,6.488025460253044,,,,,,,,,
LBP08_S05,LBP08,-1610,16,5,15,-1610,1716493803.6,2024-05-23 19:50:03.600000+00:00,2024-05-24 04:50:03.600000+09:00,2024,5,23,19,50,3,600,,,,,,,,,0.413086,-0.089844,0.571777,13.977051,-137.207031,-70.983887,,,,,,,,,,,0.0,1.0,1.0,5.0,0.0,0.0,0.0,3.0,0.0,,,,,,,-2.985332516043977,-23.049289797636348,-16.945840684869168,0.06515501280403664,-6.816730981156473,-4.856267531970701,8.36991044081266,,7.116815610626665,,,,,,,,,
LBP08_S05,LBP08,-1609,17,5,16,-1609,1716493803.64,2024-05-23 19:50:03.640000+00:00,2024-05-24 04:50:03.640000+09:00,2024,5,23,19,50,3,640,,,,,,,,,0.430176,-0.272949,0.913086,-26.062012,-37.29248,-15.136719,,,,,,,,,,,0.0,1.0,1.0,5.0,0.0,0.0,0.0,3.0,0.0,,,,,,,6.3280872847264344,-13.777230084521157,-14.182758135685612,0.318278504193094,-7.36782018453732,-5.423577857398126,9.154303482688684,,7.779579242979051,,,,,,,,,
LBP08_S05,LBP08,-1608,18,5,17,-1608,1716493803.68,2024-05-23 19:50:03.680000+00:00,2024-05-24 04:50:03.680000+09:00,2024,5,23,19,50,3,680,,,,,,,,,0.097656,-0.368652,1.429932,45.471191,44.433594,8.972168,,,,,,,,,,,0.0,1.0,1.0,5.0,0.0,0.0,0.0,3.0,0.0,,,,,,,15.915210211265254,-3.2939863756577505,-10.838648908962284,0.9548869126437042,-7.499579639563629,-5.857123813756617,9.563545532686632,,8.444037942542973,,,,,,,,,
LBP08_S05,LBP08,-1607,19,5,18,-1607,1716493803.72,2024-05-23 19:50:03.720000+00:00,2024-05-24 04:50:03.720000+09:00,2024,5,23,19,50,3,720,,,,,,,,,-0.031006,-0.387939,1.684082,81.420898,7.995605,14.343262,,,,,,,,,,,0.0,1.0,1.0,5.0,0.0,0.0,0.0,3.0,0.0,,,,,,,24.296491773881336,6.222587389004984,-7.533421700656364,1.9267465835989577,-7.25067614400343,-6.158460681782872,9.706250301310813,,9.062877153195625,,,,,,,,,
LBP08_S05,LBP08,-1606,20,5,19,-1606,1716493803.76,2024-05-23 19:50:03.760000+00:00,2024-05-24 04:50:03.760000+09:00,2024,5,23,19,50,3,760,,,,,,,,,0.22168,-0.005615,1.466797,26.733398,79.89502,28.991699,,,,,,,,,,,0.0,1.0,1.0,5.0,0.0,0.0,0.0,3.0,0.0,,,,,,,30.309234951495768,12.953668411972176,-4.7041581384578235,3.1391159816587884,-6.7325294075245425,-6.346627007321184,9.77039793148401,,9.603029816148197,,,,,,,,,
LBP08_S05,LBP08,-1605,21,5,20,-1605,1716493803.8,2024-05-23 19:50:03.800000+00:00,2024-05-24 04:50:03.800000+09:00,2024,5,23,19,50,3,800,,,,,,,,,-0.262207,-0.102539,0.666504,14.099121,177.307129,45.654297,,,,,,,,,,,0.0,1.0,1.0,5.0,0.0,0.0,0.0,3.0,0.0,,,,,,,33.352658771724116,16.000344845483728,-2.4685072472742884,4.473222332527753,-6.092515613705194,-6.445367297212156,9.933339022475701,,10.054648883000578,,,,,,,,,
LBP08_S05,LBP08,-1604,22,5,21,-1604,1716493803.84,2024-05-23 19:50:03.840000+00:00,2024-05-24 04:50:03.840000+09:00,2024,5,23,19,50,3,840,,,,,,,,,-0.024902,0.237549,0.049805,71.350098,-31.860352,-49.987793,,,,,,,,,,,0.0,1.0,1.0,5.0,0.0,0.0,0.0,3.0,0.0,,,,,,,33.43619007865585,15.587953146016309,-0.6549207402857548,5.810669935673987,-5.4689974878645415,-6.471564126823586,10.273994397078681,,10.427485274623375,,,,,,,,,
LBP08_S05,LBP08,-1603,23,5,22,-1603,1716493803.88,2024-05-23 19:50:03.880000+00:00,2024-05-24 04:50:03.880000+09:00,2024,5,23,19,50,3,880,,,,,,,,,0.235352,0.02002,0.431396,-1.953125,-114.196777,-54.321289,,,,,,,,,,,0.0,1.0,1.0,5.0,0.0,0.0,0.0,3.0,0.0,,,,,,,31.048485068812827,12.818845738798169,1.0156038337258175,7.0526093384265,-4.956243658312615,-6.430939973474554,10.754563618457867,,10.743463269756166,,,,,,,,,
LBP08_S05,LBP08,-1602,24,5,23,-1602,1716493803.92,2024-05-23 19:50:03.920000+00:00,2024-05-24 04:50:03.920000+09:00,2024,5,23,19,50,3,920,,,,,,,,,0.505371,-0.452393,1.005615,-21.362305,-71.228027,-26.000977,,,,,,,,,,,0.0,1.0,1.0,5.0,0.0,0.0,0.0,3.0,0.0,,,,,,,26.9252239316993,9.1132823853616,2.7045115191036126,8.129618295694472,-4.591712362898151,-6.32275951271041,11.276160867638064,,11.02602335320043,,,,,,,,,
LBP08_S05,LBP08,-1601,25,5,24,-1601,1716493803.96,2024-05-23 19:50:03.960000+00:00,2024-05-24 04:50:03.960000+09:00,2024,5,23,19,50,3,960,,,,,,,,,0.280762,-0.272461,1.486328,48.950195,42.480469,22.827148,,,,,,,,,,,0.0,1.0,1.0,5.0,0.0,0.0,0.0,3.0,0.0,,,,,,,21.814413260014753,5.641111549262031,4.3240262123279765,9.002194826095062,-4.3660679009276695,-6.149798464217291,11.744023235372662,,11.28843821966127,,,,,,,,,
LBP08_S05,LBP08,-1600,26,5,25,-1600,1716493804.0,2024-05-23 19:50:04+00:00,2024-05-24 04:50:04+09:00,2024,5,23,19,50,4,0,19.0,50.0,2.0,40.790997,141.606155,6.132,3.0,17.0,-0.180664,-0.935059,1.983398,-1.525879,-22.521973,40.161133,-587.0,24.0,603.0,14.0,0.0,1018.5,20.280001,0.054504,-43.592819,3.860156,0.0,1.0,1.0,5.0,0.0,0.0,0.0,6.0,0.0,,,,,,,16.318312746450626,3.019612327397458,5.572365153522392,9.654927335953086,-4.245283407831772,-5.926903858076395,12.098274357040626,,11.525955408008492,,,,,,,,,
LBP08_S05,LBP08,-1599,27,5,26,-1599,1716493804.04,2024-05-23 19:50:04.040000+00:00,2024-05-24 04:50:04.040000+09:00,2024,5,23,19,50,4,40,,,,,,,,,0.057861,-0.176758,1.960693,63.537598,12.145996,11.779785,,,,,,,,,,,0.0,1.0,1.0,5.0,0.0,0.0,0.0,6.0,0.0,,,,,,,10.839505051435413,1.3610583050740557,6.099733204186619,10.088507538010504,-4.19084107562881,-5.68291452990893,12.314083434016615,,11.716805754191505,,,,,,,,,
LBP08_S05,LBP08,-1598,28,5,27,-1598,1716493804.08,2024-05-23 19:50:04.080000+00:00,2024-05-24 04:50:04.080000+09:00,2024,5,23,19,50,4,80,,,,,,,,,-0.120605,-0.153564,1.029053,0.976562,198.608398,63.537598,,,,,,,,,,,0.0,1.0,1.0,5.0,0.0,0.0,0.0,6.0,0.0,,,,,,,5.60409429257867,0.5443739560534665,5.694149107605408,10.31267130971365,-4.169066117386671,-5.455148565604714,12.389146367129246,,11.832528815331347,,,,,,,,,
LBP08_S05,LBP08,-1597,29,5,28,-1597,1716493804.12,2024-05-23 19:50:04.120000+00:00,2024-05-24 04:50:04.120000+09:00,2024,5,23,19,50,4,120,,,,,,,,,-0.137695,-0.130615,0.101807,-44.616699,-44.73877,-50.598145,,,,,,,,,,,0.0,1.0,1.0,5.0,0.0,0.0,0.0,6.0,0.0,,,,,,,0.7151743993454148,0.4854511543904335,4.381737465921522,10.341278285687467,-4.149648071211054,-5.279879066967853,12.330398965919231,,11.850984760801769,,,,,,,,,
LBP08_S05,LBP08,-1596,30,5,29,-1596,1716493804.16,2024-05-23 19:50:04.160000+00:00,2024-05-24 04:50:04.160000+09:00,2024,5,23,19,50,4,160,,,,,,,,,0.297363,-0.314209,0.621582,-9.094238,-117.06543,-29.052734,,,,,,,,,,,0.0,1.0,1.0,5.0,0.0,0.0,0.0,6.0,0.0,,,,,,,-3.788648054920819,1.2303975899023738,2.404643449010721,10.189732363490634,-4.100432167614959,-5.183693329007424,12.145569814956234,,11.764412573628345,,,,,,,,,
LBP08_S05,LBP08,-1595,31,5,30,-1595,1716493804.2,2024-05-23 19:50:04.200000+00:00,2024-05-24 04:50:04.200000+09:00,2024,5,23,19,50,4,200,,,,,,,,,0.537842,-0.111084,1.279053,6.408691,-25.146484,10.681152,,,,,,,,,,,0.0,1.0,1.0,5.0,0.0,0.0,0.0,6.0,0.0,,,,,,,-7.867061722892524,2.855346841430416,0.11577473948299162,9.875049894574934,-3.986218293957742,-5.179062339428104,11.841842484305822,,11.58085275433032,,,,,,,,,
LBP08_S05,LBP08,-1594,32,5,31,-1594,1716493804.24,2024-05-23 19:50:04.240000+00:00,2024-05-24 04:50:04.240000+09:00,2024,5,23,19,50,4,240,,,,,,,,,-0.250977,-0.582031,1.871582,7.568359,59.936523,44.006348,,,,,,,,,,,0.0,1.0,1.0,5.0,0.0,0.0,0.0,6.0,0.0,,,,,,,-11.406440229739317,5.306678481571999,-2.139715586823003,9.418792285385361,-3.773951154694862,-5.264650962901024,11.431225008477096,,11.32156258020439,,,,,,,,,
LBP08_S05,LBP08,-1593,33,5,32,-1593,1716493804.28,2024-05-23 19:50:04.280000+00:00,2024-05-24 04:50:04.280000+09:00,2024,5,23,19,50,4,280,,,,,,,,,-0.240967,-0.051758,2.414307,59.387207,-58.227539,-41.809082,,,,,,,,,,,0.0,1.0,1.0,5.0,0.0,0.0,0.0,6.0,0.0,,,,,,,-14.178013330614897,8.334803810688147,-4.110645129467845,8.851671752160765,-3.440559002267336,-5.429076768079738,10.93912307316207,,11.016933110588285,,,,,,,,,
LBP08_S05,LBP08,-1592,34,5,33,-1592,1716493804.32,2024-05-23 19:50:04.320000+00:00,2024-05-24 04:50:04.320000+09:00,2024,5,23,19,50,4,320,,,,,,,,,0.465332,-0.616699,2.138672,-74.768066,77.575684,-8.850098,,,,,,,,,,,0.0,1.0,1.0,5.0,0.0,0.0,0.0,6.0,0.0,,,,,,,-15.875664987570385,11.56679445460959,-5.685974047219706,8.21664515265795,-2.977887224082952,-5.656515729968526,10.410438995903833,,10.701985553925464,-1.330620423435534,,,,,,,,
LBP08_S05,LBP08,-1591,35,5,34,-1591,1716493804.36,2024-05-23 19:50:04.360000+00:00,2024-05-24 04:50:04.360000+09:00,2024,5,23,19,50,4,360,,,,,,,,,-0.651611,0.532471,-0.178955,-54.626465,147.521973,4.577637,,,,,,,,,,,0.0,1.0,1.0,5.0,0.0,0.0,0.0,6.0,0.0,,,,,,,-16.244268316554972,14.642267521854013,-6.904111269551827,7.566874419995751,-2.3921965232087916,-5.9326801807506,9.908425042392421,,10.411790966217197,-1.3522249800416826,,,,,,,,
LBP08_S05,LBP08,-1590,36,5,35,-1590,1716493804.4,2024-05-23 19:50:04.400000+00:00,2024-05-24 04:50:04.400000+09:00,2024,5,23,19,50,4,400,,,,,,,,,-0.070801,-0.062256,0.066895,-8.117676,-83.984375,-28.991699,,,,,,,,,,,0.0,1.0,1.0,5.0,0.0,0.0,0.0,6.0,0.0,,,,,,,-15.23802491016793,17.296569205203923,-7.920409025744562,6.957353423589034,-1.7003337550006346,-6.249496541780382,9.505372615781328,,10.177332034246739,-1.3649049001395674,,,,,,,,
LBP08_S05,LBP08,-1589,37,5,36,-1589,1716493804.44,2024-05-23 19:50:04.440000+00:00,2024-05-24 04:50:04.440000+09:00,2024,5,23,19,50,4,440,,,,,,,,,0.589355,-0.150879,1.159912,-52.91748,-102.966309,-22.277832,,,,,,,,,,,0.0,1.0,1.0,5.0,0.0,0.0,0.0,6.0,0.0,,,,,,,-13.10731752719447,19.33401641012347,-8.929847710206406,6.4330607225012555,-0.9269730985956957,-6.606690450188639,9.267788737855554,,10.022654997204944,-1.3640280022874416,,,,,,,,
LBP08_S05,LBP08,-1588,38,5,37,-1588,1716493804.48,2024-05-23 19:50:04.480000+00:00,2024-05-24 04:50:04.480000+09:00,2024,5,23,19,50,4,480,,,,,,,,,0.208008,-0.474854,1.83252,34.851074,111.328125,34.973145,,,,,,,,,,,0.0,1.0,1.0,5.0,0.0,0.0,0.0,6.0,0.0,0.05594404000000001,-0.2336946666666667,1.0496582,7.148437506666666,3.01920572,-0.92366536,-10.342539286239782,20.543468954725892,-10.060728885775413,6.019359151051664,-0.10523434040665991,-7.009119605619655,9.23967080050107,-1.330620423435534,9.963833537362447,-1.3586978103979734,0.15206396,-0.2411593333333333,0.7828617999999998,1.176085093333333,0.8331589703555373,0.8331589703555373,0.8331589703555373,0.8331589703555373
LBP08_S05,LBP08,-1587,39,5,38,-1587,1716493804.52,2024-05-23 19:50:04.520000+00:00,2024-05-24 04:50:04.520000+09:00,2024,5,23,19,50,4,520,,,,,,,,,-0.481445,-0.323975,2.222412,-16.967773,-21.362305,-9.094238,,,,,,,,,,,0.0,1.0,1.0,5.0,0.0,0.0,0.0,6.0,0.0,0.045214866666666666,-0.23190430666666667,1.04205404,6.77571616,5.966796866666667,-0.2937825466666666,-7.4812293373309116,20.66764994546049,-11.278625259236813,5.720109977558428,0.7214716574117597,-7.460264615989128,9.428453088836543,-1.373829536647831,10.00961809517965,-1.3548078805329593,-0.5266598666666666,-0.09207069333333334,1.1803579599999998,1.7990885199999997,1.2957980326669711,1.0644785015112541,1.0644785015112541,1.0644785015112541
LBP08_S05,LBP08,-1586,40,5,39,-1586,1716493804.56,2024-05-23 19:50:04.560000+00:00,2024-05-24 04:50:04.560000+09:00,2024,5,23,19,50,4,560,,,,,,,,,0.111572,-0.845703,2.126465,-26.184082,35.15625,-4.638672,,,,,,,,,,,0.0,1.0,1.0,5.0,0.0,0.0,0.0,6.0,0.0,0.04186852,-0.23510092,1.0297851466666668,6.713053400000001,5.2091471333333335,-0.4964192666666666,-4.855741038525089,19.482756104753616,-12.351875216311527,5.5258803360174245,1.5007819016019042,-7.954339624641589,9.800980495251645,-1.3902647403353374,10.163478595546245,-1.3506672139015758,0.06970348000000001,-0.61060208,1.0966798533333333,1.7769854133333334,1.2571396803584152,1.1286988944603078,1.1286988944603078,1.1286988944603078
LBP08_S05,LBP08,-1585,41,5,40,-1585,1716493804.6,2024-05-23 19:50:04.600000+00:00,2024-05-24 04:50:04.600000+09:00,2024,5,23,19,50,4,600,,,,,,,,,-0.471191,0.187988,-0.045654,64.880371,166.748047,6.469727,,,,,,,,,,,0.0,1.0,1.0,5.0,0.0,0.0,0.0,6.0,0.0,0.04718101333333334,-0.2272786533333333,1.0137467333333334,7.0109049599999995,3.3390299466666664,-1.3867187466666664,-2.390746535016216,16.934063322013337,-12.914643355802504,5.430250474616776,2.1781444344824377,-8.47092535887369,10.295072113887882,-1.3613973087310642,10.426836440749309,-1.3466860141273895,-0.5183720133333334,0.4152666533333333,-1.0594007333333335,1.9930394000000002,1.2503942783638788,1.1591227404362006,1.1591227404362006,1.1591227404362006
LBP08_S05,LBP08,-1584,42,5,41,-1584,1716493804.64,2024-05-23 19:50:04.640000+00:00,2024-05-24 04:50:04.640000+09:00,2024,5,23,19,50,4,640,,,,,,,,,-0.248047,-0.150879,0.148438,80.932617,-57.128906,-38.146973,,,,,,,,,,,0.0,1.0,1.0,5.0,0.0,0.0,0.0,6.0,0.0,0.05270834666666667,-0.22697918666666667,1.0036848933333333,6.389160159999999,2.758789066666667,-1.6471354133333331,0.44498788714675647,13.216809452283236,-12.618778762620565,5.448049990102646,2.7068168125737673,-8.975676509378513,10.843010410052122,-1.3373770428400997,10.802587340015581,-1.3452801293717296,-0.30075534666666665,0.07610018666666665,-0.8552468933333334,1.2321024266666667,0.9097759424801287,1.1092533808449863,1.1092533808449863,1.1092533808449863
LBP08_S05,LBP08,-1583,43,5,42,-1583,1716493804.68,2024-05-23 19:50:04.680000+00:00,2024-05-24 04:50:04.680000+09:00,2024,5,23,19,50,4,680,,,,,,,,,0.351807,0.324463,0.75708,-69.763184,-128.601074,-76.477051,,,,,,,,,,,0.0,1.0,1.0,5.0,0.0,0.0,0.0,6.0,0.0,0.05368816,-0.22918621333333333,1.0086686133333334,7.9671224,1.76513672,-1.8001302133333335,4.466454115235088,8.737201413798493,-11.311887521478443,5.62670815471205,3.056304869125707,-9.42815201023765,11.396968651334127,-1.335358231207889,11.296584227544004,-1.3473582731643003,0.29811884,0.5536492133333333,-0.2515886133333334,1.1033566666666665,0.6772733012208246,1.0372567009076261,1.0372567009076261,1.0372567009076261
LBP08_S05,LBP08,-1582,44,5,43,-1582,1716493804.72,2024-05-23 19:50:04.720000+00:00,2024-05-24 04:50:04.720000+09:00,2024,5,23,19,50,4,720,,,,,,,,,0.576172,-0.421631,1.318604,34.973145,51.147461,-22.216797,,,,,,,,,,,0.0,1.0,1.0,5.0,0.0,0.0,0.0,6.0,0.0,0.05819012,-0.23850913333333335,1.0332324133333333,8.65559896,0.46956380000000025,-1.27848308,10.396533519935128,3.993673373967149,-9.14821779404118,6.042569495509455,3.216051804084393,-9.794080721999297,11.949043999569762,-1.3258232141132764,11.914922169385724,-1.3501721180644326,0.51798188,-0.18312186666666663,0.28537158666666684,0.9864753333333335,0.6190927140069327,0.9775189884932411,0.9775189884932411,0.9775189884932411
LBP08_S05,LBP08,-1581,45,5,44,-1581,1716493804.76,2024-05-23 19:50:04.760000+00:00,2024-05-24 04:50:04.760000+09:00,2024,5,23,19,50,4,760,,,,,,,,,-0.217529,-0.366699,1.904053,-95.092773,30.517578,47.424316,,,,,,,,,,,0.0,1.0,1.0,5.0,0.0,0.0,0.0,6.0,0.0,0.060211600000000004,-0.23947918666666668,1.0508951733333334,8.679199213333334,1.50309244,-0.7706705733333332,18.417944057362597,-0.5169720660523146,-6.5598798178518996,6.779287257803959,3.1953729214423006,-10.056475914713372,12.542003494423048,-1.3188176157080846,12.658304277021298,-1.3443345157004543,-0.2777406,-0.12721981333333332,0.8531578266666666,1.25811824,0.9062025154431642,0.9686044293619815,0.9686044293619815,0.9686044293619815
LBP08_S05,LBP08,-1580,46,5,45,-1580,1716493804.8,2024-05-23 19:50:04.800000+00:00,2024-05-24 04:50:04.800000+09:00,2024,5,23,19,50,4,800,,,,,,,,,-0.035156,-0.812012,2.049316,-9.521484,-26.611328,-2.746582,,,,,,,,,,,0.0,1.0,1.0,5.0,0.0,0.0,0.0,6.0,0.0,0.05613282666666666,-0.23820965333333333,1.04993164,7.201334626666667,4.458007813333333,0.2612304666666668,27.866874113580963,-4.310859235175606,-4.091565296534806,7.893962222347197,3.0229385520352765,-10.220138526574765,13.262881608444056,-1.3340330513264498,13.517951633618406,-1.3346991557952714,-0.09128882666666666,-0.5738023466666666,0.9993843600000001,1.6644755333333334,1.156006869325161,0.9894269226912237,0.9894269226912237,0.9894269226912237
LBP08_S05,LBP08,-1579,47,5,46,-1579,1716493804.84,2024-05-23 19:50:04.840000+00:00,2024-05-24 04:50:04.840000+09:00,2024,5,23,19,50,4,840,,,,,,,,,0.088379,-0.681885,0.947754,-14.099121,132.080078,59.692383,,,,,,,,,,,0.0,1.0,1.0,5.0,0.0,0.0,0.0,6.0,0.0,0.04874676,-0.24074546666666669,1.0363964933333334,5.41097004,4.116210933333334,-0.19694010666666653,37.26068472541314,-6.897726597809919,-2.187530332740187,9.384389611363723,2.74702948812288,-10.307639739884372,14.207757613139787,-1.3660615672974386,14.476126805973895,-1.3285106677231924,0.03963224,-0.4411395333333333,-0.0886424933333334,0.5694142666666666,0.45169934020465285,0.9356541644425667,0.9356541644425667,0.9356541644425667
LBP08_S05,LBP08,-1578,48,5,47,-1578,1716493804.88,2024-05-23 19:50:04.880000+00:00,2024-05-24 04:50:04.880000+09:00,2024,5,23,19,50,4,880,,,,,,,,,-0.348389,0.0,-0.027588,176.757812,1.953125,-5.371094,,,,,,,,,,,0.0,1.0,1.0,5.0,0.0,0.0,0.0,6.0,0.0,0.04986329333333333,-0.23757163999999997,1.0175781333333334,6.4127604,2.1468098933333333,-1.0709635466666665,44.713272122230826,-7.837933269986295,-1.0491563393680123,11.172920496252956,2.433512157323428,-10.349605993459093,15.423050218918265,-1.3587588724368538,15.510427474499568,-1.3244236936408698,-0.39825229333333334,0.23757163999999997,-1.0451661333333333,1.6809900666666666,1.143423552120779,0.9545422905951313,0.9545422905951313,0.9545422905951313
LBP08_S05,LBP08,-1577,49,5,48,-1577,1716493804.92,2024-05-23 19:50:04.920000+00:00,2024-05-24 04:50:04.920000+09:00,2024,5,23,19,50,4,920,,,,,,,,,0.11499,-0.008301,0.234863,101.013184,-151.611328,-56.82373,,,,,,,,,,,0.0,1.0,1.0,5.0,0.0,0.0,0.0,6.0,0.0,0.05919272,-0.23238609333333335,1.0005338533333332,6.363932266666667,1.133626306666667,-1.4615885466666665,48.59601459681772,-6.923579979765779,-0.6293731392254319,13.116761080125665,2.1565689581327967,-10.37478091902811,16.862274165192286,-1.3154535130080478,16.598763503816873,-1.3197569999231455,0.05579728,0.22408509333333335,-0.7656708533333332,1.0455532266666665,0.7997370325011851,0.9416418524206359,0.9416418524206359,0.9416418524206359
LBP08_S05,LBP08,-1576,50,5,49,-1576,1716493804.96,2024-05-23 19:50:04.960000+00:00,2024-05-24 04:50:04.960000+09:00,2024,5,23,19,50,4,960,,,,,,,,,0.579102,0.262207,0.67749,56.57959,-118.95752,-57.495117,,,,,,,,,,,0.0,1.0,1.0,5.0,0.0,0.0,0.0,6.0,0.0,0.06406252,-0.23097984000000002,0.9915104133333333,6.6503906,0.5834960933333335,-1.1612955866666665,48.159626125794404,-4.397194290642505,-0.7349904287397646,15.04314612515744,1.9806811865070966,-10.4041805361777,18.39745406122275,-1.2939111412835103,17.722075096076367,-1.321164346228675,0.51503948,0.49318684,-0.3140204133333333,1.3222467333333332,0.779171191137027,0.9291441092449736,0.9291441092449736,0.9291441092449736
LBP08_S05,LBP08,-1575,51,5,50,-1575,1716493805.0,2024-05-23 19:50:05+00:00,2024-05-24 04:50:05+09:00,2024,5,23,19,50,5,0,19.0,50.0,3.0,40.790924,141.606247,6.16,3.0,17.0,0.45459,-0.29248,1.253662,88.806152,61.889648,30.517578,-594.0,22.0,600.0,21.0,0.0,1018.599976,20.34,0.055495,-44.421192,3.860156,0.0,1.0,1.0,5.0,0.0,0.0,0.0,4.0,0.0,0.0638672,-0.23537437333333333,1.0037630133333333,6.472981746666667,-0.5411783866666665,-0.5997721466666666,43.83657668296864,-1.0226125134603676,-1.1416730611789228,16.796609192476186,1.9397766859686818,-10.449847458624857,19.876823837442732,-1.2995124280102714,18.86338342208769,-1.3250957689501854,0.3907228,-0.05710562666666669,0.24989898666666677,0.6977274133333334,0.4673059624848153,0.8961556701906767,0.8961556701906767,0.8961556701906767
LBP08_S05,LBP08,-1574,52,5,51,-1574,1716493805.04,2024-05-23 19:50:05.040000+00:00,2024-05-24 04:50:05.040000+09:00,2024,5,23,19,50,5,40,,,,,,,,,-0.26123,-0.459961,1.734375,-1.037598,48.034668,52.001953,,,,,,,,,,,0.0,1.0,1.0,5.0,0.0,0.0,0.0,4.0,0.0,0.06733725333333333,-0.24550133333333335,1.0289974000000002,8.246256493333334,-0.4280598933333332,-0.15462241333333324,37.093502785305276,2.1277896249804473,-1.6415951787564331,18.280349303888396,2.0248882709678995,-10.515511265775114,21.18601709530887,-1.2965073020168751,20.004158313440556,-1.326838245952692,-0.32856725333333336,-0.21445966666666666,0.7053775999999998,1.2484045199999998,0.8071598027476025,0.8902226123611384,0.8902226123611384,0.8902226123611384
LBP08_S05,LBP08,-1573,53,5,52,-1573,1716493805.08,2024-05-23 19:50:05.080000+00:00,2024-05-24 04:50:05.080000+09:00,2024,5,23,19,50,5,80,,,,,,,,,0.014893,-0.038574,1.945068,17.028809,25.57373,-11.901855,,,,,,,,,,,0.0,1.0,1.0,5.0,0.0,0.0,0.0,4.0,0.0,0.06948244,-0.24572919999999995,1.0448339866666667,8.894856760000001,2.67089844,0.7958984133333334,29.90372338056021,4.114585814311512,-2.0240997859792134,19.476498239110803,2.18947170354036,-10.596475257214282,22.280328944507183,-1.288691294030648,21.12143919211939,-1.3221168124038984,-0.05458944,0.20715519999999996,0.9002340133333333,1.1619786533333332,0.9253726614768742,0.8924194904308719,0.8924194904308719,0.8924194904308719
LBP08_S05,LBP08,-1572,54,5,53,-1572,1716493805.12,2024-05-23 19:50:05.120000+00:00,2024-05-24 04:50:05.120000+09:00,2024,5,23,19,50,5,120,,,,,,,,,-0.0896,-0.523193,1.03418,-91.003418,158.26416,12.390137,,,,,,,,,,,0.0,1.0,1.0,5.0,0.0,0.0,0.0,4.0,0.0,0.05544924,-0.24183597333333334,1.0377669333333335,8.588867173333334,6.652832026666666,2.219238266666667,24.061193522513864,4.5648004266692634,-2.056444860862985,20.438945980011358,2.37206372060713,-10.678733051648802,23.182159922164704,-1.3398966771685694,22.189335854050505,-1.3186146852138898,-0.14504924,-0.2813570266666667,-0.0035869333333333753,0.4299932000000001,0.3165658297574499,0.8585457456853764,0.8585457456853764,0.8585457456853764
LBP08_S05,LBP08,-1571,55,5,54,-1571,1716493805.16,2024-05-23 19:50:05.160000+00:00,2024-05-24 04:50:05.160000+09:00,2024,5,23,19,50,5,160,,,,,,,,,-0.427002,-0.102295,-0.02002,26.428223,10.437012,-3.234863,,,,,,,,,,,0.0,1.0,1.0,5.0,0.0,0.0,0.0,4.0,0.0,0.05065432,-0.24062503999999998,1.0289485733333334,8.22265624,6.388346346666667,2.1565755066666665,20.607875113459084,3.833562190839478,-1.5254320203844682,21.26326098454972,2.5254062082407094,-10.739750332464181,23.955086754536282,-1.35813184292319,23.18483354495464,-1.3191125929981566,-0.47765632,0.13833004,-1.0489685733333334,1.6649549333333333,1.160872873248106,0.8753416972166392,0.8753416972166392,0.8753416972166392
LBP08_S05,LBP08,-1570,56,5,55,-1570,1716493805.2,2024-05-23 19:50:05.200000+00:00,2024-05-24 04:50:05.200000+09:00,2024,5,23,19,50,5,200,,,,,,,,,0.012207,-0.098877,0.200684,36.804199,-121.582031,-19.40918,,,,,,,,,,,0.0,1.0,1.0,5.0,0.0,0.0,0.0,4.0,0.0,0.05154625333333333,-0.23716801333333337,1.0134147199999999,7.1378580666666664,3.934733066666667,1.5893554533333334,19.58525699152988,2.7776531124085895,-0.33832129250480575,22.046671264210914,2.6365123327370528,-10.753283184164374,24.670630521972683,-1.3514578213515167,24.09362554368749,-1.3216931625196984,-0.03933925333333333,0.13829101333333338,-0.8127307199999999,0.9903609866666666,0.8253503525493295,0.8727105738130966,0.8727105738130966,0.8727105738130966
LBP08_S05,LBP08,-1569,57,5,56,-1569,1716493805.24,2024-05-23 19:50:05.240000+00:00,2024-05-24 04:50:05.240000+09:00,2024,5,23,19,50,5,240,,,,,,,,,0.470459,0.231201,0.658203,30.090332,-134.82666,-72.021484,,,,,,,,,,,0.0,1.0,1.0,5.0,0.0,0.0,0.0,4.0,0.0,0.05881838666666667,-0.2342546133333333,1.0016504,5.95377604,2.8165690133333334,1.6365559733333332,20.1736125336554,2.2595286406000006,1.3794562538339747,22.85361576555713,2.726893478361053,-10.698104934011015,25.38056639992812,-1.3188472318095008,24.91189691310882,-1.3263099166276888,0.41164061333333335,0.4654556133333333,-0.34344739999999996,1.2205436266666667,0.7099669281703989,0.8645733915309617,0.8645733915309617,0.8645733915309617
LBP08_S05,LBP08,-1568,58,5,57,-1568,1716493805.28,2024-05-23 19:50:05.280000+00:00,2024-05-24 04:50:05.280000+09:00,2024,5,23,19,50,5,280,,,,,,,,,0.450195,-0.287354,1.101807,30.151367,1.77002,23.132324,,,,,,,,,,,0.0,1.0,1.0,5.0,0.0,0.0,0.0,4.0,0.0,0.05835289333333333,-0.23739264000000002,0.9998893333333333,5.074056,2.0157877600000003,1.8758137866666666,21.12055684347847,2.6783963280172887,3.270400172374205,23.69843803929627,2.8340293314817444,-10.567288927116048,26.10201683822943,-1.3237376005367707,25.643499136857223,-1.333826106214921,0.3918421066666667,-0.04996135999999998,0.10191766666666668,0.5437211333333334,0.4079504685973516,0.8428294428198374,0.8428294428198374,0.8428294428198374
LBP08_S05,LBP08,-1567,59,5,58,-1567,1716493805.32,2024-05-23 19:50:05.320000+00:00,2024-05-24 04:50:05.320000+09:00,2024,5,23,19,50,5,320,,,,,,,,,-0.182373,-0.654541,1.646729,62.072754,59.326172,48.217773,,,,,,,,,,,0.0,1.0,1.0,5.0,0.0,0.0,0.0,4.0,0.0,0.06054690666666667,-0.24303066666666667,1.0142806133333335,4.392903653333334,-0.4939778666666669,1.4640299333333333,21.26032927338365,3.812590205879572,4.856799679282168,24.548851210231618,2.9865329397169273,-10.37301693994476,26.817251074233646,-1.3204325908507142,26.294611763095283,-1.3427579924843558,-0.24291990666666669,-0.41151033333333337,0.6324483866666666,1.2868786266666667,0.7926801355479539,0.8405499288529336,0.8405499288529336,0.8405499288529336
LBP08_S05,LBP08,-1566,60,5,59,-1566,1716493805.36,2024-05-23 19:50:05.360000+00:00,2024-05-24 04:50:05.360000+09:00,2024,5,23,19,50,5,360,,,,,,,,,0.012939,-0.110352,1.649658,141.418457,24.230957,22.033691,,,,,,,,,,,0.0,1.0,1.0,5.0,0.0,0.0,0.0,4.0,0.0,0.06294923999999999,-0.2521061866666667,1.0371549599999998,2.8409830799999995,0.21321614666666644,2.078450506666667,19.91435792900264,5.048713221525448,5.740160040804812,25.345425527391722,3.1884814685779452,-10.143410538312567,27.485374048551265,-1.3197168364989265,26.86845760256184,-1.3419569827453772,-0.05001023999999999,0.14175418666666667,0.6125030400000002,0.8042674666666669,0.630678402636104,0.8314250798869844,0.8314250798869844,0.8314250798869844
LBP08_S05,LBP08,-1565,61,5,60,-1565,1716493805.4,2024-05-23 19:50:05.400000+00:00,2024-05-24 04:50:05.400000+09:00,2024,5,23,19,50,5,400,,,,,,,,,0.074707,-0.408936,1.241943,-77.331543,122.375488,60.974121,,,,,,,,,,,0.0,1.0,1.0,5.0,0.0,0.0,0.0,4.0,0.0,0.0569564,-0.25576178666666666,1.0389485866666666,2.7669270933333334,3.8175455733333337,2.8662109200000003,17.028146953498805,5.820861499779839,5.781326666864857,26.026551405531674,3.421315928569139,-9.912157471637974,28.05953753165601,-1.345679969090178,27.361901368031653,-1.3377855211838219,0.0177506,-0.15317421333333336,0.20299441333333346,0.3739192266666668,0.2549198997237951,0.8074040307135183,0.8074040307135183,0.8074040307135183
LBP08_S05,LBP08,-1564,62,5,61,-1564,1716493805.44,2024-05-23 19:50:05.440000+00:00,2024-05-24 04:50:05.440000+09:00,2024,5,23,19,50,5,440,,,,,,,,,-0.592773,-0.088379,-0.010986,-35.827637,90.637207,-39.306641,,,,,,,,,,,0.0,1.0,1.0,5.0,0.0,0.0,0.0,4.0,0.0,0.04870770666666666,-0.24805995999999997,1.0243978133333334,2.287597666666666,3.957519533333333,3.09651692,13.02201156839895,5.963253552238558,5.154969573326457,26.54743186826763,3.659846070658681,-9.705958688704916,28.502039332792908,-1.3716691978891957,27.764789835585276,-1.33607760541584,-0.6414807066666667,0.15968095999999998,-1.0353838133333333,1.8365454799999998,1.22841977634877,0.8242446605389283,0.8242446605389283,0.8242446605389283
LBP08_S05,LBP08,-1563,63,5,62,-1563,1716493805.48,2024-05-23 19:50:05.480000+00:00,2024-05-24 04:50:05.480000+09:00,2024,5,23,19,50,5,480,,,,,,,,,0.052979,-0.21167,0.241211,-47.302246,-86.181641,-10.498047,,,,,,,,,,,0.0,1.0,1.0,5.0,0.0,0.0,0.0,4.0,0.0,0.04656252,-0.24523769333333328,1.0067090133333332,0.18473309333333324,1.3606770799999997,2.3917643199999996,8.474829563168738,5.75384456383875,4.248120349044477,26.88642505079438,3.889999853212231,-9.536033874743136,28.791455206887743,-1.3780101567249958,28.062044104785315,-1.3363010305252057,0.006416479999999995,0.03356769333333329,-0.7654980133333331,0.8054821866666664,0.7662605103152523,0.8215687221373169,0.8220145009149408,0.8220145009149408
LBP08_S05,LBP08,-1562,64,5,63,-1562,1716493805.52,2024-05-23 19:50:05.520000+00:00,2024-05-24 04:50:05.520000+09:00,2024,5,23,19,50,5,520,,,,,,,,,0.447021,-0.262451,0.740234,45.410156,-138.427734,-64.331055,,,,,,,,,,,0.0,1.0,1.0,5.0,0.0,0.0,0.0,4.0,0.0,0.057099626666666674,-0.24084316,0.9923828533333333,-0.9374999733333333,0.046386719999999854,1.7773437466666664,3.8371064805887185,5.638485771578923,3.470265718768616,27.03990931001793,4.115539284075388,-9.397223245992391,28.92061831683033,-1.3318865797787847,28.237834182060265,-1.3380142290820782,0.3899213733333333,-0.02160783999999999,-0.25214885333333337,0.6636780666666666,0.4648490296525671,0.7883307620167408,0.8087861501274455,0.8087861501274455
LBP08_S05,LBP08,-1561,65,5,64,-1561,1716493805.56,2024-05-23 19:50:05.560000+00:00,2024-05-24 04:50:05.560000+09:00,2024,5,23,19,50,5,560,,,,,,,,,0.531738,-0.218018,1.127441,-6.713867,-27.832031,26.123047,,,,,,,,,,,0.0,1.0,1.0,5.0,0.0,0.0,0.0,4.0,0.0,0.06057293333333333,-0.23928390666666668,0.98514328,-1.9946288800000003,0.33528646666666645,2.00276692,-0.678450921375148,5.84474234263967,3.092617559708421,27.012771273162922,4.349328977780975,-9.273518543604055,28.88952440923439,-1.3164172273076356,28.280692376889853,-1.343637182681953,0.4711650666666667,0.021265906666666695,0.14229771999999996,0.6347286933333334,0.492643278600813,0.7577509059464367,0.7974953332872087,0.7974953332872087
LBP08_S05,LBP08,-1560,66,5,65,-1560,1716493805.6,2024-05-23 19:50:05.600000+00:00,2024-05-24 04:50:05.600000+09:00,2024,5,23,19,50,5,600,,,,,,,,,-0.186035,-0.348389,1.578369,5.554199,51.513672,43.334961,,,,,,,,,,,0.0,1.0,1.0,5.0,0.0,0.0,0.0,4.0,0.0,0.05879233333333334,-0.25119472000000004,0.9987337733333334,-2.4723306933333333,-2.217610666666667,1.4054361866666667,-5.0121736002227895,6.170565447857258,3.202101171772287,26.81228432915401,4.596151595695265,-9.145434496733163,28.699515197508944,-1.3343786636716977,28.188221116105684,-1.3460911018329234,-0.24482733333333334,-0.09719427999999997,0.5796352266666666,0.9216568399999998,0.6366821398506066,0.7332024204059059,0.791950050754912,0.791950050754912
LBP08_S05,LBP08,-1559,67,5,66,-1559,1716493805.64,2024-05-23 19:50:05.640000+00:00,2024-05-24 04:50:05.640000+09:00,2024,5,23,19,50,5,640,,,,,,,,,-0.030029,-0.499756,1.963379,50.90332,-14.343262,1.647949,,,,,,,,,,,0.0,1.0,1.0,5.0,0.0,0.0,0.0,4.0,0.0,0.06262045333333333,-0.2524284533333333,1.0227865066666668,-1.522623666666667,-1.4925130000000002,2.1761067599999997,-9.07447613111929,6.102888327383727,3.7680411052908234,26.44930528390924,4.8402671287906145,-8.99471285252153,28.35310909192846,-1.3210814829031567,27.970155690168383,-1.3414078325513379,-0.09264945333333333,-0.24732754666666668,0.9405924933333332,1.2805694933333331,0.9769693316876094,0.735890155974205,0.7981173601193352,0.7981173601193352
LBP08_S05,LBP08,-1558,68,5,67,-1558,1716493805.68,2024-05-23 19:50:05.680000+00:00,2024-05-24 04:50:05.680000+09:00,2024,5,23,19,50,5,680,,,,,,,,,0.123047,-0.462158,1.394287,-31.37207,139.892578,27.954102,,,,,,,,,,,0.0,1.0,1.0,5.0,0.0,0.0,0.0,4.0,0.0,0.05704754666666667,-0.25048509333333335,1.02679692,-1.3964843466666668,2.3868815333333333,3.0558268133333333,-12.594619054896459,5.184073249065429,4.745121242916968,25.94552052171338,5.0476300587532315,-8.804908002804853,27.85991761097897,-1.3408695861054962,27.648986375161748,-1.3350032487481212,0.06599945333333333,-0.21167290666666666,0.36749008000000005,0.64516244,0.4291972811603315,0.7259671151717854,0.7862167124109802,0.7862167124109802
LBP08_S05,LBP08,-1557,69,5,68,-1557,1716493805.72,2024-05-23 19:50:05.720000+00:00,2024-05-24 04:50:05.720000+09:00,2024,5,23,19,50,5,720,,,,,,,,,-0.525635,0.132812,-0.074951,-13.427734,118.286133,17.456055,,,,,,,,,,,0.0,1.0,1.0,5.0,0.0,0.0,0.0,4.0,0.0,0.04772137333333333,-0.24976894666666666,1.0088802533333332,-2.087402306666667,2.1394856933333335,2.7734374933333332,-15.093676923473629,3.3732813075348504,6.126505561834752,25.341773444774436,5.182561311054625,-8.559847780331463,27.245833022529528,-1.3766621268494637,27.258042346505505,-1.3274053221262356,-0.5733563733333333,0.38258094666666664,-1.0838312533333332,2.0397685733333333,1.2844438085398753,0.752581158953103,0.8017863091650083,0.8017863091650083
LBP08_S05,LBP08,-1556,70,5,69,-1556,1716493805.76,2024-05-23 19:50:05.760000+00:00,2024-05-24 04:50:05.760000+09:00,2024,5,23,19,50,5,760,,,,,,,,,-0.111328,-0.204102,0.165527,-36.010742,-73.730469,-17.883301,,,,,,,,,,,0.0,1.0,1.0,5.0,0.0,0.0,0.0,4.0,0.0,0.05475262666666667,-0.24428066666666667,0.9909082533333334,-2.5781249600000002,-0.4801432133333329,1.6951497333333334,-16.000598514751296,1.1512484381142727,7.910757110724144,24.701749504184384,5.228611248579196,-8.243417495902497,26.560661440709527,-1.3442560280086295,26.83756349858637,-1.3231908751775077,-0.16608062666666668,0.04017866666666667,-0.8253812533333335,1.0316405466666667,0.8428827398655214,0.7500483679299973,0.8030316555498722,0.8030316555498722
LBP08_S05,LBP08,-1555,71,5,70,-1555,1716493805.8,2024-05-23 19:50:05.800000+00:00,2024-05-24 04:50:05.800000+09:00,2024,5,23,19,50,5,800,,,,,,,,,0.515625,-0.033691,0.693604,-2.746582,-143.920898,-38.879395,,,,,,,,,,,0.0,1.0,1.0,5.0,0.0,0.0,0.0,4.0,0.0,0.06650718666666666,-0.24536790666666666,0.9747884533333333,-3.586425746666667,-0.1424153466666661,2.09716796,-14.859510530636657,-0.7142052015624838,10.013212670259533,24.10736908295892,5.200043040516697,-7.842888989092115,25.87888327228306,-1.2988472762743217,26.429574775147113,-1.3239760403058773,0.44911781333333334,0.21167690666666666,-0.2811844533333333,0.9419791733333333,0.5705949700669023,0.7266318919596669,0.796195282447432,0.796195282447432
LBP08_S05,LBP08,-1554,72,5,71,-1554,1716493805.84,2024-05-23 19:50:05.840000+00:00,2024-05-24 04:50:05.840000+09:00,2024,5,23,19,50,5,840,,,,,,,,,0.443359,-0.391602,1.114502,-46.020508,-40.83252,15.74707,,,,,,,,,,,0.0,1.0,1.0,5.0,0.0,0.0,0.0,4.0,0.0,0.06458986666666666,-0.24682949333333334,0.9699154000000001,-2.5626627333333336,-0.3841145733333327,2.54964192,-11.5399841143575,-1.592399763867934,12.195357895137844,23.645769718384617,5.136347049961979,-7.355074673286602,25.290346182726523,-1.3076233598570288,26.07243180532917,-1.3238123991618695,0.37876913333333334,-0.14477250666666666,0.1445866,0.66812824,0.4305001973892631,0.7257839262470515,0.7857468514457701,0.7857468514457701
LBP08_S05,LBP08,-1553,73,5,72,-1553,1716493805.88,2024-05-23 19:50:05.880000+00:00,2024-05-24 04:50:05.880000+09:00,2024,5,23,19,50,5,880,,,,,,,,,0.015381,-0.20166,1.614746,-20.507812,36.254883,36.743164,,,,,,,,,,,0.0,1.0,1.0,5.0,0.0,0.0,0.0,4.0,0.0,0.07009441333333334,-0.26244148,1.001543,-1.4803059600000001,-2.4698893199999996,2.433268213333333,-6.3666758584451575,-1.3245668555977812,14.078478399094461,23.39110268404681,5.083364375738068,-6.791935537322823,24.88201492032535,-1.3020308905061426,25.79587740115436,-1.3206983837365023,-0.05471341333333334,0.06078148,0.6132029999999999,0.7286978933333332,0.618632253538865,0.7047922743037748,0.7811047792816893,0.7811047792816893
LBP08_S05,LBP08,-1552,74,5,73,-1552,1716493805.92,2024-05-23 19:50:05.920000+00:00,2024-05-24 04:50:05.920000+09:00,2024,5,23,19,50,5,920,,,,,,,,,-0.052734,-0.96875,2.019775,19.287109,-24.963379,17.028809,,,,,,,,,,,0.0,1.0,1.0,5.0,0.0,0.0,0.0,4.0,0.0,0.07461264,-0.2662826266666667,1.0275748933333333,-1.6251627333333334,-1.2524413999999993,2.9459635200000003,-0.11731010155274224,-0.2654413141767463,15.252077691944924,23.386410279984702,5.072746723170998,-6.181852429645026,24.71582983763896,-1.2897421102915032,25.617270212076,-1.3118305471250826,-0.12734664,-0.7024673733333333,0.9922001066666668,1.8220141200000002,1.2223496345098923,0.7216967783841232,0.7930303159094786,0.7930303159094786
LBP08_S05,LBP08,-1551,75,5,74,-1551,1716493805.96,2024-05-23 19:50:05.960000+00:00,2024-05-24 04:50:05.960000+09:00,2024,5,23,19,50,5,960,,,,,,,,,0.203369,-0.409424,1.42749,15.136719,87.82959,52.124023,,,,,,,,,,,0.0,1.0,1.0,5.0,0.0,0.0,0.0,4.0,0.0,0.06492840000000001,-0.26610684,1.0203385733333334,-1.2093098800000002,2.1207682400000007,3.4651692533333334,6.115211684317323,0.9605335948417257,15.42179209735987,23.631018747357395,5.111168066964667,-5.564980745750631,24.809637174841782,-1.3242688785913321,25.539370111301405,-1.2987399651055376,0.13844059999999997,-0.14331716,0.4071514266666665,0.6889091866666665,0.4532966934751758,0.7086617984776491,0.7840899574243654,0.7840899574243654
LBP08_S05,LBP08,-1550,76,5,75,-1550,1716493806.0,2024-05-23 19:50:06+00:00,2024-05-24 04:50:06+09:00,2024,5,23,19,50,6,0,19.0,50.0,4.0,40.790848,141.606323,6.947,3.0,17.0,-0.348877,-0.026123,0.164307,23.254395,131.164551,27.404785,-595.0,11.0,597.0,0.0,0.0,1017.900024,20.4,0.048558,-38.620209,3.860156,0.0,1.0,1.0,5.0,0.0,0.0,0.0,3.0,0.0,0.06152670666666667,-0.26166348,0.9958691600000001,-1.86767576,-0.037434879999999,2.7042642933333334,11.154224749744767,1.799808714353883,14.513725499302948,24.077187737347185,5.183160415538822,-4.984431725778514,25.128085499329583,-1.3327422522316192,25.549961063705474,-1.2887417122416602,-0.41040370666666665,0.23554048,-0.8315621600000002,1.477506346666667,0.9567685959040647,0.728240303814419,0.7885176148212807,0.7885176148212807
LBP08_S05,LBP08,-1549,77,5,76,-1549,1716493806.04,2024-05-23 19:50:06.040000+00:00,2024-05-24 04:50:06.040000+09:00,2024,5,23,19,50,6,40,,,,,,,,,-0.009033,-0.172119,0.165771,-3.356934,-39.855957,-5.79834,,,,,,,,,,,0.0,1.0,1.0,5.0,0.0,0.0,0.0,3.0,0.0,0.07171875999999999,-0.25639004,0.9736067866666667,-1.1832682133333334,-1.730143213333332,1.7602538666666665,13.996931874033589,1.9804367462631607,12.679196377012955,24.63706501230853,5.262377885389348,-4.477263870697995,25.587565050180324,-1.2899413286494852,25.62367204035483,-1.2856932124563336,-0.08075175999999999,0.08427103999999999,-0.8078357866666667,0.9728585866666666,0.8162236906296774,0.7286028593297021,0.7892102667164906,0.7892102667164906
LBP08_S05,LBP08,-1548,78,5,77,-1548,1716493806.08,2024-05-23 19:50:06.080000+00:00,2024-05-24 04:50:06.080000+09:00,2024,5,23,19,50,6,80,,,,,,,,,0.269531,-0.162109,0.474609,13.85498,-143.127441,-36.071777,,,,,,,,,,,0.0,1.0,1.0,5.0,0.0,0.0,0.0,3.0,0.0,0.07934897333333334,-0.24755866666666668,0.96235028,-1.2060546666666667,-2.469889306666665,1.7187499599999998,14.03817562769194,1.4807136375816854,10.206185220305626,25.198592037416205,5.321606430892616,-4.06901646188577,26.07384572019537,-1.2521912199912997,25.726221232743693,-1.2868225061407736,0.19018202666666667,0.08544966666666667,-0.48774128,0.7633729733333334,0.5304360517692246,0.712805394941396,0.7828987004982647,0.7828987004982647
LBP08_S05,LBP08,-1547,79,5,78,-1547,1716493806.12,2024-05-23 19:50:06.120000+00:00,2024-05-24 04:50:06.120000+09:00,2024,5,23,19,50,6,120,,,,,,,,,0.512695,-0.177979,0.860352,-10.864258,-54.260254,-10.986328,,,,,,,,,,,0.0,1.0,1.0,5.0,0.0,0.0,0.0,3.0,0.0,0.08408854666666667,-0.25692064000000003,0.9863509333333333,-2.176106746666667,-3.5636393066666656,2.17610672,11.22344408792512,0.3353709877370636,7.4022964938453555,25.64752980093321,5.335021270402098,-3.7729246021319556,26.46683201478357,-1.2457563066540134,25.820663293282045,-1.2875061170924131,0.42860645333333336,0.07894164000000004,-0.12599893333333334,0.6335470266666667,0.453663978695693,0.7182893208989257,0.7750597785505844,0.7750597785505844
LBP08_S05,LBP08,-1546,80,5,79,-1546,1716493806.16,2024-05-23 19:50:06.160000+00:00,2024-05-24 04:50:06.160000+09:00,2024,5,23,19,50,6,160,,,,,,,,,0.217285,-0.276367,1.412109,70.556641,57.983398,32.104492,,,,,,,,,,,0.0,1.0,1.0,5.0,0.0,0.0,0.0,3.0,0.0,0.08507487999999999,-0.25834316,1.0137402533333333,-3.0061848666666666,-2.8295898266666657,2.4324543866666666,6.106643683504368,-1.514123189877304,4.528068585334381,25.891795548273386,5.274456342807006,-3.5918018587185805,26.666570964750246,-1.2442734993698572,25.874299635015937,-1.2863298018019598,0.13221012000000001,-0.018023839999999958,0.3983687466666668,0.5486027066666668,0.42012145024924746,0.6886592639789714,0.7668053988226464,0.7668053988226464
LBP08_S05,LBP08,-1545,81,5,80,-1545,1716493806.2,2024-05-23 19:50:06.200000+00:00,2024-05-24 04:50:06.200000+09:00,2024,5,23,19,50,6,200,,,,,,,,,-0.193359,-0.708008,1.807373,12.939453,-10.559082,19.470215,,,,,,,,,,,0.0,1.0,1.0,5.0,0.0,0.0,0.0,3.0,0.0,0.08285808,-0.2739714133333333,1.02649416,-2.7571614266666664,0.11067709333333445,3.480631466666667,-0.21642476361463195,-4.167118308171501,1.8146046897251438,25.8831385577288,5.107771610480146,-3.519217671129575,26.615993038776608,-1.2683622784210538,25.864337254282265,-1.2796470399935655,-0.27621708,-0.43403658666666667,0.78087884,1.4911325066666667,0.9351231986261076,0.6930501778220426,0.770630803363634,0.770630803363634
LBP08_S05,LBP08,-1544,82,5,81,-1544,1716493806.24,2024-05-23 19:50:06.240000+00:00,2024-05-24 04:50:06.240000+09:00,2024,5,23,19,50,6,240,,,,,,,,,0.173584,-0.407715,1.692627,11.474609,19.65332,4.943848,,,,,,,,,,,0.0,1.0,1.0,5.0,0.0,0.0,0.0,3.0,0.0,0.06628256,-0.26580084,1.0074869866666665,-3.2413736666666666,1.115722666666668,3.808593706666666,-6.325373057810744,-7.532249927290079,-0.47092970281869867,25.630123635416368,4.806481613388543,-3.538054859242323,26.31583810661517,-1.3189162967014298,25.780709594136983,-1.272487728430909,0.10730143999999998,-0.14191416,0.6851400133333336,0.9343556133333336,0.7078630275024822,0.6929660217953258,0.7692359639000529,0.7692359639000529
LBP08_S05,LBP08,-1543,83,5,82,-1543,1716493806.28,2024-05-23 19:50:06.280000+00:00,2024-05-24 04:50:06.280000+09:00,2024,5,23,19,50,6,280,,,,,,,,,-0.062012,-0.057861,0.664551,-53.588867,150.634766,42.297363,,,,,,,,,,,0.0,1.0,1.0,5.0,0.0,0.0,0.0,3.0,0.0,0.06893554666666667,-0.2656413333333333,0.9869466133333333,-1.9392903333333338,-0.1904296799999988,2.7441405866666666,-10.82936954068216,-11.099240958893585,-1.9886282799359822,25.19694885378908,4.3625119750328,-3.617599990439762,25.82643552570887,-1.3088670000225364,25.62568921620703,-1.2713393615987236,-0.13094754666666666,0.2077803333333333,-0.32239561333333333,0.6611234933333333,0.405288611232423,0.6928595475007288,0.7613240649290174,0.7613240649290174
LBP08_S05,LBP08,-1542,84,5,83,-1542,1716493806.32,2024-05-23 19:50:06.320000+00:00,2024-05-24 04:50:06.320000+09:00,2024,5,23,19,50,6,320,,,,,,,,,-0.171631,-0.183594,0.006348,-90.637207,-24.108887,-24.597168,,,,,,,,,,,0.0,1.0,1.0,5.0,0.0,0.0,0.0,3.0,0.0,0.07469074666666667,-0.25542648,0.9704362,-0.9676106533333336,-1.3582356666666655,1.9287108933333335,-12.769419463716511,-13.924027459135,-2.3768729759542406,24.68617207524042,3.8055508766673998,-3.7126749094779314,25.252193254977893,-1.2779789573869718,25.411116102522644,-1.2773049358778048,-0.24632174666666667,0.07183248,-0.9640882,1.2822424266666665,0.9976474153943906,0.7010582386945862,0.7663522213218978,0.7663522213218978
LBP08_S05,LBP08,-1541,85,5,84,-1541,1716493806.36,2024-05-23 19:50:06.360000+00:00,2024-05-24 04:50:06.360000+09:00,2024,5,23,19,50,6,360,,,,,,,,,0.002197,-0.111572,0.168701,-5.126953,-115.539551,-32.104492,,,,,,,,,,,0.0,1.0,1.0,5.0,0.0,0.0,0.0,3.0,0.0,0.07919921333333334,-0.2515950933333333,0.9751041733333333,-1.1694335733333336,-2.979329413333332,1.2150064666666667,-11.921979891215106,-14.923388304651015,-1.3893056153095318,24.209292879591818,3.208615344481359,-3.7682471340903128,24.710013367505006,-1.2574412605073886,25.15424061491124,-1.2878238905119008,-0.07700221333333333,0.1400230933333333,-0.8064031733333333,1.02342848,0.8220838676722331,0.7087144572960313,0.7675132972875297,0.7675132972875297
LBP08_S05,LBP08,-1540,86,5,85,-1540,1716493806.4,2024-05-23 19:50:06.400000+00:00,2024-05-24 04:50:06.400000+09:00,2024,5,23,19,50,6,400,,,,,,,,,0.493164,0.020508,0.578613,16.479492,-121.276855,-52.062988,,,,,,,,,,,0.0,1.0,1.0,5.0,0.0,0.0,0.0,3.0,0.0,0.08010742666666666,-0.25777022666666666,0.9981022266666667,-3.2413736666666666,-2.3779296799999985,1.8758137600000002,-8.873816285945713,-13.377154972797898,0.950234445747324,23.85434022815399,2.673529145569443,-3.73023775626042,24.291808897876788,-1.2611491366050567,24.872652582138187,-1.2971661600626978,0.41305657333333334,0.2782782266666667,-0.41948922666666666,1.1108240266666667,0.6511725696772078,0.7245645640941679,0.7651389967240537,0.7651389967240537
LBP08_S05,LBP08,-1539,87,5,86,-1539,1716493806.44,2024-05-23 19:50:06.440000+00:00,2024-05-24 04:50:06.440000+09:00,2024,5,23,19,50,6,440,,,,,,,,,0.372803,-0.40625,0.991455,6.530762,-38.146973,13.85498,,,,,,,,,,,0.0,1.0,1.0,5.0,0.0,0.0,0.0,3.0,0.0,0.07725912000000001,-0.2644238666666667,1.0208138133333333,-3.4098307066666664,-0.3979492133333321,2.47151688,-4.834156198838057,-9.369744778755805,4.272642960628981,23.660973980200467,2.2987393544192107,-3.5593320378352606,24.03736127088079,-1.2784576603276292,24.578669597281465,-1.3015139750298799,0.29554388,-0.14182613333333333,-0.029358813333333345,0.46672882666666665,0.32912425772355397,0.6885927433491592,0.7564187019440438,0.7564187019440438
LBP08_S05,LBP08,-1538,88,5,87,-1538,1716493806.48,2024-05-23 19:50:06.480000+00:00,2024-05-24 04:50:06.480000+09:00,2024,5,23,19,50,6,480,,,,,,,,,-0.108643,-0.330078,1.476562,-23.31543,33.935547,54.016113,,,,,,,,,,,0.0,1.0,1.0,5.0,0.0,0.0,0.0,3.0,0.0,0.07035481333333334,-0.2742578533333333,1.0269889466666666,-4.620768213333333,2.6814778800000014,3.5929361466666667,-1.263857289048097,-3.8977436879136316,7.93150070319344,23.610419688638544,2.1428296069026653,-3.242072009707523,23.92811458335149,-1.3118469627821119,24.27407480622786,-1.2980142481341033,-0.17899781333333334,-0.05582014666666668,0.4495730533333333,0.6843910133333333,0.48710577520232623,0.6774265539446422,0.7494976380409797,0.7511380563216572
LBP08_S05,LBP08,-1537,89,5,88,-1537,1716493806.52,2024-05-23 19:50:06.520000+00:00,2024-05-24 04:50:06.520000+09:00,2024,5,23,19,50,6,520,,,,,,,,,0.104248,-0.608887,1.771729,77.636719,-14.953613,12.878418,,,,,,,,,,,0.0,1.0,1.0,5.0,0.0,0.0,0.0,3.0,0.0,0.058444,-0.2703158,1.0085644666666667,-5.808105453333334,2.550455746666668,3.0428059333333333,0.5365923663376254,1.4515199235940168,11.19363986332313,23.63188338329205,2.200890403846426,-2.7943264151745977,23.89807713866956,-1.350945852994974,23.946489980334043,-1.294830938808306,0.04580399999999999,-0.33857119999999996,0.7631645333333335,1.1475397333333335,0.8361510442637291,0.6922786345290887,0.7403046982729147,0.7527729214743892
LBP08_S05,LBP08,-1536,90,5,89,-1536,1716493806.56,2024-05-23 19:50:06.560000+00:00,2024-05-24 04:50:06.560000+09:00,2024,5,23,19,50,6,560,,,,,,,,,0.206787,-0.150391,1.387451,-1.708984,112.976074,31.311035,,,,,,,,,,,0.0,1.0,1.0,5.0,0.0,0.0,0.0,3.0,0.0,0.06095050666666668,-0.26531905333333333,0.9878190266666667,-5.5126952933333335,0.8683268400000013,1.63004552,-0.25619305609202536,5.105087505291581,13.459490890571068,23.62163566104837,2.405093904058089,-2.255946779551755,23.850690637019703,-1.3376961948778257,23.56859032103274,-1.2959545180357688,0.14583649333333332,0.11492805333333334,0.39963197333333333,0.6603965199999999,0.44066138285655,0.6901993586993181,0.7239751323228775,0.7468840245193358
LBP08_S05,LBP08,-1535,91,5,90,-1535,1716493806.6,2024-05-23 19:50:06.600000+00:00,2024-05-24 04:50:06.600000+09:00,2024,5,23,19,50,6,600,,,,,,,,,-0.639404,0.202148,0.041748,-8.972168,161.437988,35.766602,,,,,,,,,,,0.0,1.0,1.0,5.0,0.0,0.0,0.0,3.0,0.0,0.06781898666666666,-0.26472334666666664,0.9703841333333333,-5.5908202933333335,-1.3997395599999987,1.0473632266666664,-3.8534703524784732,6.094553329775776,14.410941466644129,23.46749684694923,2.6488760372491202,-1.6795091208859898,23.676163190209344,-1.3118404280928735,23.100972955427075,-1.3015338631039879,-0.7072229866666666,0.46687134666666663,-0.9286361333333333,2.1027304666666664,1.2571786966618355,0.7150192209717673,0.7241108206888365,0.7563339258553079
LBP08_S05,LBP08,-1534,92,5,91,-1534,1716493806.64,2024-05-23 19:50:06.640000+00:00,2024-05-24 04:50:06.640000+09:00,2024,5,23,19,50,6,640,,,,,,,,,0.070557,-0.182129,0.251709,-53.527832,-57.128906,-19.836426,,,,,,,,,,,0.0,1.0,1.0,5.0,0.0,0.0,0.0,3.0,0.0,0.07480792000000001,-0.26185877333333335,0.9708431200000001,-4.233398413333333,-3.544921853333332,0.7128905733333332,-9.912473011653521,4.341834581022904,14.03621662870241,23.07099792648309,2.8225494204900365,-1.1180604557378935,23.26989019607915,-1.2839190277436667,22.498719399148328,-1.310643974820128,-0.004250920000000019,0.07972977333333334,-0.7191341200000001,0.8031148133333335,0.7235528934534128,0.7048825634423994,0.7203863597083022,0.7557379070843644
LBP08_S05,LBP08,-1533,93,5,92,-1533,1716493806.68,2024-05-23 19:50:06.680000+00:00,2024-05-24 04:50:06.680000+09:00,2024,5,23,19,50,6,680,,,,,,,,,0.164551,-0.109375,0.264893,-35.888672,-139.587402,-33.569336,,,,,,,,,,,0.0,1.0,1.0,5.0,0.0,0.0,0.0,3.0,0.0,0.07742185333333335,-0.26402348000000003,0.9926595333333333,-3.894856746666667,-2.450358053333332,1.3427733866666665,-17.72167230893602,0.5202607676359522,12.552922873623713,22.36213103412565,2.8433598511954745,-0.615943540792945,22.55058726677069,-1.277033906764561,21.720488062008997,-1.3166504360195297,0.08712914666666666,0.15464848000000003,-0.7277665333333334,0.9695441600000001,0.7491006391701918,0.7176786977627938,0.7218229064672896,0.75561938444304
LBP08_S05,LBP08,-1532,94,5,93,-1532,1716493806.72,2024-05-23 19:50:06.720000+00:00,2024-05-24 04:50:06.720000+09:00,2024,5,23,19,50,6,720,,,,,,,,,0.514404,-0.169434,0.801758,-7.385254,-75.866699,17.883301,,,,,,,,,,,0.0,1.0,1.0,5.0,0.0,0.0,0.0,3.0,0.0,0.07727212,-0.27601892,1.01580732,-4.850260386666666,-1.0498046666666654,1.7285155733333333,-26.407920701489125,-4.381121384888754,10.298449477609577,21.305814206066085,2.6681149957999244,-0.20400556168856193,21.47319666196488,-1.2892147496616009,20.738017280617164,-1.3174533544936409,0.43713188,0.10658492,-0.21404932,0.75776612,0.49825870496781405,0.6862312936199113,0.7194062262865072,0.7511042848031236
LBP08_S05,LBP08,-1531,95,5,94,-1531,1716493806.76,2024-05-23 19:50:06.760000+00:00,2024-05-24 04:50:06.760000+09:00,2024,5,23,19,50,6,760,,,,,,,,,0.186768,-0.240967,1.334717,-39.245605,19.836426,46.936035,,,,,,,,,,,0.0,1.0,1.0,5.0,0.0,0.0,0.0,3.0,0.0,0.07147133333333335,-0.2806575866666666,1.02371748,-6.081542933333333,1.8888346533333344,2.89713536,-35.08379516780963,-9.495518443665924,7.653741262370196,19.9024623993537,2.2882942580532872,0.10214408880624593,20.033839711448362,-1.3132347111895777,19.543919426762514,-1.311855786084513,0.11529666666666664,0.03969058666666664,0.31099952,0.46598677333333327,0.33404994455113896,0.6658779818073362,0.7079631748686667,0.7439136927298136
LBP08_S05,LBP08,-1530,96,5,95,-1530,1716493806.8,2024-05-23 19:50:06.800000+00:00,2024-05-24 04:50:06.800000+09:00,2024,5,23,19,50,6,800,,,,,,,,,-0.097656,-0.525391,1.74585,-36.987305,-10.925293,14.770508,,,,,,,,,,,0.0,1.0,1.0,5.0,0.0,0.0,0.0,3.0,0.0,0.05933591999999999,-0.2765397466666667,1.00909508,-6.691894493333334,3.0810546933333347,2.74169916,-42.91574340256277,-14.267310347673137,5.016174915641796,18.185832663251187,1.7176018441463619,0.3027910854319178,18.269273335089323,-1.352250253766457,18.15611409730394,-1.3042956471522411,-0.15699192,-0.24885125333333336,0.7367549199999999,1.1425980933333333,0.7933355036647884,0.6747876031512515,0.7007097475554592,0.7447513505422707
LBP08_S05,LBP08,-1529,97,5,96,-1529,1716493806.84,2024-05-23 19:50:06.840000+00:00,2024-05-24 04:50:06.840000+09:00,2024,5,23,19,50,6,840,,,,,,,,,0.155273,-0.443115,1.765381,-45.043945,21.179199,-3.90625,,,,,,,,,,,0.0,1.0,1.0,5.0,0.0,0.0,0.0,3.0,0.0,0.06123045333333332,-0.26768558666666664,0.9873470266666665,-7.463378866666665,1.3362630266666677,1.7635090666666668,-49.14636394431245,-18.351552994428907,2.784632643725456,16.21997810547869,0.9835397243692056,0.414176391180936,16.25504789948747,-1.33852227232165,16.617415769361507,-1.3007878807510014,0.09404254666666667,-0.17542941333333334,0.7780339733333336,1.0475059333333336,0.803091740280576,0.689691264866904,0.7077375955569777,0.7457236903712425
LBP08_S05,LBP08,-1528,98,5,97,-1528,1716493806.88,2024-05-23 19:50:06.880000+00:00,2024-05-24 04:50:06.880000+09:00,2024,5,23,19,50,6,880,,,,,,,,,-0.214111,-0.25415,0.565918,-7.507324,156.12793,4.760742,,,,,,,,,,,0.0,1.0,1.0,5.0,0.0,0.0,0.0,3.0,0.0,0.06610676,-0.2668848,0.9691601866666667,-9.777831986666666,-1.4184570266666658,0.8284504799999998,-53.12186813940391,-21.39127990649528,1.3125236846459987,14.095103379902532,0.12788852810939433,0.46667733856677596,14.103406769433176,-1.3198761475232217,14.989325706129751,-1.301920993338208,-0.28021776,0.01273479999999999,-0.40324218666666667,0.6961947466666667,0.4912111860067647,0.68459442216562,0.6946933482346974,0.7415513542341199
LBP08_S05,LBP08,-1527,99,5,98,-1527,1716493806.92,2024-05-23 19:50:06.920000+00:00,2024-05-24 04:50:06.920000+09:00,2024,5,23,19,50,6,920,,,,,,,,,-0.113281,0.125244,-0.085693,-57.312012,-60.72998,-8.728027,,,,,,,,,,,0.0,1.0,1.0,5.0,0.0,0.0,0.0,3.0,0.0,0.0725716,-0.26517256,0.9640267333333332,-9.039713493333334,-4.152018226666666,-0.3833008266666668,-54.362172015409776,-22.90654927711727,0.8224751592991949,11.92061649928614,-0.7883734429752965,0.49957634493874375,11.957098600123027,-1.2949701689036979,13.341363301823055,-1.307888218121043,-0.1858526,0.39041656,-1.0497197333333332,1.6259888933333333,1.1352875397001403,0.68111193837323,0.7014043583786764,0.7479019378706686
LBP08_S05,LBP08,-1526,100,5,99,-1526,1716493806.96,2024-05-23 19:50:06.960000+00:00,2024-05-24 04:50:06.960000+09:00,2024,5,23,19,50,6,960,,,,,,,,,0.119873,-0.060791,0.159668,-108.764648,-152.282715,-30.029297,,,,,,,,,,,0.0,1.0,1.0,5.0,0.0,0.0,0.0,3.0,0.0,0.08296873333333334,-0.26878584,0.9820605866666667,-7.920735626666667,-4.695638013333332,0.37353511999999983,-52.674181784897264,-22.426352382545215,1.3199724464578584,9.813649227890249,-1.6854275382771051,0.5523752427970581,9.972637342433988,-1.2620948055551044,11.740386383458327,-1.3119786181574074,0.03690426666666666,0.20799484000000001,-0.8223925866666667,1.0672916933333334,0.8490897155007361,0.6969436592542523,0.7028027288659507,0.7495080930711459
LBP08_S05,LBP08,-1525,101,5,100,-1525,1716493807.0,2024-05-23 19:50:07+00:00,2024-05-24 04:50:07+09:00,2024,5,23,19,50,7,0,19.0,50.0,5.0,40.790783,141.606415,6.82,3.0,17.0,0.609619,-0.605469,0.908936,-85.693359,-121.09375,-5.92041,-588.0,21.0,604.0,0.0,0.0,1018.299988,20.459999,0.052522,-41.935379,3.860156,0.0,1.0,1.0,5.0,0.0,0.0,0.0,6.0,0.0,0.08072262666666667,-0.27555341333333333,1.00359704,-7.1468098399999995,-3.160807279999999,0.8585611599999998,-48.25930842877021,-19.790413224592157,2.559448800893321,7.88327689073944,-2.4770440672607914,0.6547531948327909,8.28917991078503,-1.2767627640804775,10.244101670513174,-1.3119464338429574,0.5288963733333334,-0.3299155866666667,-0.09466104000000009,0.9534730000000002,0.6305048616344249,0.6838931098834667,0.706066706848943,0.7476486675799472
LBP08_S05,LBP08,-1524,102,5,101,-1524,1716493807.04,2024-05-23 19:50:07.040000+00:00,2024-05-24 04:50:07.040000+09:00,2024,5,23,19,50,7,40,,,,,,,,,0.318359,-0.059814,1.417725,-15.74707,33.813477,28.686523,,,,,,,,,,,0.0,1.0,1.0,5.0,0.0,0.0,0.0,6.0,0.0,0.07566078666666667,-0.27655927999999996,1.0166764666666666,-7.878417906666667,-0.3946939999999995,1.74804684,-41.73668307615151,-15.389605443888065,4.097546052981734,6.21380956769338,-3.092628285016314,0.8186550369520603,6.98898956376154,-1.2952501536157317,8.898563886523267,-1.3050324160555093,0.24269821333333333,0.21674527999999996,0.40104853333333335,0.8604920266666667,0.5164502543772134,0.6719021724333681,0.7002525158815351,0.7440917689152897
LBP08_S05,LBP08,-1523,103,5,102,-1523,1716493807.08,2024-05-23 19:50:07.080000+00:00,2024-05-24 04:50:07.080000+09:00,2024,5,23,19,50,7,80,,,,,,,,,-0.25415,-1.046875,2.04834,-34.851074,7.141113,18.737793,,,,,,,,,,,0.0,1.0,1.0,5.0,0.0,0.0,0.0,6.0,0.0,0.06338865333333334,-0.2749577066666667,1.0099186533333333,-8.254394466666666,2.3990885466666674,1.6162109066666666,-34.03142373329774,-10.137155111919052,5.424290444542847,4.85255261836147,-3.498114489493076,1.0356266547337742,6.070963223703734,-1.3367061545929115,7.736713994211179,-1.2971654701525188,-0.3175386533333333,-0.7719172933333334,1.0384213466666667,2.1278772933333334,1.3322935101999183,0.703976470770596,0.7083909328559961,0.7530039165105114
LBP08_S05,LBP08,-1522,104,5,103,-1522,1716493807.12,2024-05-23 19:50:07.120000+00:00,2024-05-24 04:50:07.120000+09:00,2024,5,23,19,50,7,120,,,,,,,,,0.149414,-0.223145,1.905762,26.611328,9.643555,7.202148,,,,,,,,,,,0.0,1.0,1.0,5.0,0.0,0.0,0.0,6.0,0.0,0.06459958666666667,-0.2724381733333333,0.9884277733333332,-9.318847586666667,0.9659830800000005,0.9090168933333332,-26.15470323211787,-5.1528081231236955,6.118442632826732,3.806364489076755,-3.704226814418024,1.2803643600468435,5.463427478317636,-1.3301187500252458,6.776340210205729,-1.292384568255296,0.08481441333333332,0.0492931733333333,0.9173342266666668,1.0514418133333334,0.9225645695887519,0.7227324944063183,0.720510907652622,0.7555346725266044
LBP08_S05,LBP08,-1521,105,5,104,-1521,1716493807.16,2024-05-23 19:50:07.160000+00:00,2024-05-24 04:50:07.160000+09:00,2024,5,23,19,50,7,160,,,,,,,,,-0.120605,-0.168457,0.922363,0.366211,173.88916,36.92627,,,,,,,,,,,0.0,1.0,1.0,5.0,0.0,0.0,0.0,6.0,0.0,0.06782549333333333,-0.2660612133333333,0.9666146266666668,-10.177408786666666,-0.8040364533333327,0.13590491999999993,-18.970383170579858,-1.3391315482897712,5.958052642465522,3.047549162253561,-3.757792076349615,1.5186864657454644,5.07099258199682,-1.312912868045076,6.018005735516267,-1.2921663661128648,-0.18843049333333334,0.09760421333333333,-0.04425162666666671,0.33028633333333335,0.21677370629508616,0.7145985846481518,0.7016289243135617,0.7476117171408468
LBP08_S05,LBP08,-1520,106,5,105,-1520,1716493807.2,2024-05-23 19:50:07.200000+00:00,2024-05-24 04:50:07.200000+09:00,2024,5,23,19,50,7,200,,,,,,,,,-0.161621,-0.057373,-0.064697,-45.410156,-43.701172,-10.498047,,,,,,,,,,,0.0,1.0,1.0,5.0,0.0,0.0,0.0,6.0,0.0,0.07512366666666667,-0.2623372533333333,0.9632422266666667,-10.419108013333332,-3.4407551999999995,-0.17822269333333332,-13.04810976519624,0.9094843811742035,4.941876299540293,2.5256247716457114,-3.7214127011026465,1.7163615177270761,4.813895495190246,-1.2831100758919756,5.4444858521018284,-1.298216239758996,-0.23674466666666666,0.2049642533333333,-1.0279392266666667,1.4696481466666667,1.0745777943265284,0.7201767684761687,0.7066134731491056,0.7523503559406394
LBP08_S05,LBP08,-1519,107,5,106,-1519,1716493807.24,2024-05-23 19:50:07.240000+00:00,2024-05-24 04:50:07.240000+09:00,2024,5,23,19,50,7,240,,,,,,,,,0.276367,-0.17041,0.523682,-29.23584,-136.535645,-36.865234,,,,,,,,,,,0.0,1.0,1.0,5.0,0.0,0.0,0.0,6.0,0.0,0.08290035999999999,-0.26626628,0.9857226933333334,-9.64436844,-4.147135413333333,0.10660802666666669,-8.643932679208872,1.7244995969217172,3.2259507699596592,2.1798674644773564,-3.652432717225778,1.8453995485254624,4.636548976366604,-1.2598528132917466,5.023273798553269,-1.3026054951358648,0.19346663999999997,0.09585628000000002,-0.4620406933333334,0.7513636133333335,0.5099993818665621,0.7122622226507319,0.702614122223029,0.7488881991681525
LBP08_S05,LBP08,-1518,108,5,107,-1518,1716493807.28,2024-05-23 19:50:07.280000+00:00,2024-05-24 04:50:07.280000+09:00,2024,5,23,19,50,7,280,,,,,,,,,0.640625,-0.133301,1.205322,-16.235352,-32.897949,-11.657715,,,,,,,,,,,0.0,1.0,1.0,5.0,0.0,0.0,0.0,6.0,0.0,0.08236650666666667,-0.2763574266666667,1.0116829866666668,-8.948567666666666,-3.3504231733333327,0.4321288666666667,-5.77355485683455,1.5532508418766806,1.0245636441581272,1.9489252702039743,-3.5903026835507106,1.8863820942917875,4.4996689293786645,-1.2720671285509924,4.712785326127282,-1.3017641219968252,0.5582584933333333,0.14305642666666668,0.19363901333333322,0.8949539333333332,0.6079586779330858,0.7203690253187583,0.7066142864097436,0.7469032763338558
LBP08_S05,LBP08,-1517,109,5,108,-1517,1716493807.32,2024-05-23 19:50:07.320000+00:00,2024-05-24 04:50:07.320000+09:00,2024,5,23,19,50,7,320,,,,,,,,,0.321533,-0.726318,1.773193,2.01416,59.448242,25.085449,,,,,,,,,,,0.0,1.0,1.0,5.0,0.0,0.0,0.0,6.0,0.0,0.07768552,-0.2814583466666667,1.0255501733333334,-8.909505173333333,-0.5867513066666661,1.1523437200000002,-4.305740036816782,0.9045873892607653,-1.4614118934022078,1.7766956687313031,-3.55411918798028,1.8279256185556991,4.373753853228416,-1.2927881474793883,4.470759816110082,-1.2951285007290387,0.24384748,-0.4448596533333333,0.7476428266666666,1.4363499599999998,0.9035106534691925,0.7166035548417504,0.7088308967681684,0.7490783787940688
LBP08_S05,LBP08,-1516,110,5,109,-1516,1716493807.36,2024-05-23 19:50:07.360000+00:00,2024-05-24 04:50:07.360000+09:00,2024,5,23,19,50,7,360,,,,,,,,,-0.23877,-0.638428,2.193115,26.550293,-8.911133,-4.150391,,,,,,,,,,,0.0,1.0,1.0,5.0,0.0,0.0,0.0,6.0,0.0,0.06793942666666666,-0.27731772000000005,1.01326176,-8.541666626666666,1.7179362000000007,1.08642576,-4.023246796226138,0.21531130257578052,-4.0555541863659315,1.6157657968822576,-3.5455067358772485,1.6657034511010618,4.237438508289587,-1.3225935420164152,4.261242716058311,-1.2884457802718428,-0.3067094266666667,-0.36111027999999995,1.1798532400000001,1.8476729466666668,1.2714263544013753,0.7345772543109161,0.7216458558034737,0.7562338305147169
LBP08_S05,LBP08,-1515,111,5,110,-1515,1716493807.4,2024-05-23 19:50:07.400000+00:00,2024-05-24 04:50:07.400000+09:00,2024,5,23,19,50,7,400,,,,,,,,,0.268066,-0.350342,2.019287,-18.981934,7.324219,9.460449,,,,,,,,,,,0.0,1.0,1.0,5.0,0.0,0.0,0.0,6.0,0.0,0.06856768,-0.2779980666666667,0.9947689200000001,-8.0574544,0.5175781200000006,0.23274737333333334,-4.645302533572995,-0.13884733117596076,-6.574670148482136,1.429953695539338,-3.551060629124287,1.4027166451617763,4.077059375299444,-1.3206553178491636,4.057710469625031,-1.2842470974267233,0.19949832,-0.07234393333333328,1.0245180799999998,1.2963603333333331,1.0462650336410206,0.7503809528694687,0.7374727584818183,0.7601531710975048
LBP08_S05,LBP08,-1514,112,5,111,-1514,1716493807.44,2024-05-23 19:50:07.440000+00:00,2024-05-24 04:50:07.440000+09:00,2024,5,23,19,50,7,440,,,,,,,,,-0.136963,-0.137695,0.617188,-21.728516,150.024414,16.662598,,,,,,,,,,,0.0,1.0,1.0,5.0,0.0,0.0,0.0,6.0,0.0,0.07483719999999999,-0.26490236,0.9773958800000001,-8.234863253333334,-0.9724934933333327,-0.7877604399999999,-5.834051737934556,0.20844163458618686,-8.805384751651275,1.1965916260219558,-3.5427229637408395,1.0505012550957253,3.884104839501663,-1.2868364222253383,3.843990695854436,-1.2837766151067433,-0.2118002,0.12720736,-0.36020788000000015,0.6992154400000001,0.4367960095654539,0.7546878229431446,0.7216402831461519,0.7558417422770775
LBP08_S05,LBP08,-1513,113,5,112,-1513,1716493807.48,2024-05-23 19:50:07.480000+00:00,2024-05-24 04:50:07.480000+09:00,2024,5,23,19,50,7,480,,,,,,,,,-0.047119,-0.141602,-0.002686,-14.526367,-50.537109,-22.094727,,,,,,,,,,,0.0,1.0,1.0,5.0,0.0,0.0,0.0,6.0,0.0,0.08013017333333333,-0.2672754,0.9747201066666665,-9.017740866666667,-2.5651041733333324,-1.406250013333333,-7.203321658465057,1.582998940621676,-10.527872058584148,0.9084587596833535,-3.4794030061159726,0.6293863727523594,3.6507081235317425,-1.2703499419150444,3.615711414921749,-1.2902426709903545,-0.12724917333333333,0.1256734,-0.9774061066666665,1.23032868,0.9936341645348492,0.7749489585164455,0.7261877562305439,0.7579814115328015
LBP08_S05,LBP08,-1512,114,5,113,-1512,1716493807.52,2024-05-23 19:50:07.520000+00:00,2024-05-24 04:50:07.520000+09:00,2024,5,23,19,50,7,520,,,,,,,,,0.282959,0.071533,0.552734,34.362793,-148.31543,-79.89502,,,,,,,,,,,0.0,1.0,1.0,5.0,0.0,0.0,0.0,6.0,0.0,0.08249345333333333,-0.26812176,0.99389328,-9.343261706666665,-3.377278653333332,-1.3867187600000002,-8.334067157832735,4.119037221449001,-11.583769451490024,0.5750960733700441,-3.3146415172580124,0.16603559469275847,3.3682564777999193,-1.2632915454532878,3.3814544761183867,-1.2965082208378464,0.2004655466666667,0.33965476,-0.44115928000000004,0.9812795866666667,0.59175442687076,0.7651730938207268,0.7287258641749077,0.7485941634555188
LBP08_S05,LBP08,-1511,115,5,114,-1511,1716493807.56,2024-05-23 19:50:07.560000+00:00,2024-05-24 04:50:07.560000+09:00,2024,5,23,19,50,7,560,,,,,,,,,0.683838,-0.18335,1.282227,-27.893066,-20.324707,-7.751465,,,,,,,,,,,0.0,1.0,1.0,5.0,0.0,0.0,0.0,6.0,0.0,0.08152014666666667,-0.27202150666666663,1.0187272666666667,-9.373372373333336,-3.1844075599999995,-1.5348307333333333,-8.800694627785145,7.581558515167523,-11.942273589196368,0.22306828825863828,-3.0113791766513116,-0.31165534887509627,3.035670117664011,-1.2709260395938817,3.1595712246958128,-1.2968495427900153,0.6023178533333333,0.08867150666666662,0.2634997333333333,0.9544890933333332,0.663386419822828,0.7740820952993779,0.7321407269993481,0.7406774533150442
LBP08_S05,LBP08,-1510,116,5,115,-1510,1716493807.6,2024-05-23 19:50:07.600000+00:00,2024-05-24 04:50:07.600000+09:00,2024,5,23,19,50,7,600,,,,,,,,,-0.115723,-0.51416,1.754395,-7.873535,84.716797,40.771484,,,,,,,,,,,0.0,1.0,1.0,5.0,0.0,0.0,0.0,6.0,0.0,0.07996090666666666,-0.27400068,1.0329850799999998,-9.6199544,-0.1529947999999992,-0.9554036533333334,-8.219760600535716,11.326497621294504,-11.710799144253986,-0.10572213576279038,-2.5583192717995313,-0.7800873146452557,2.676697757484318,-1.2784052526921745,2.970848996779883,-1.2923106707482925,-0.19568390666666668,-0.24015931999999995,0.7214099200000001,1.1572531466666667,0.7851120703349286,0.7551994302463017,0.7351093256090345,0.7344736905413249
LBP08_S05,LBP08,-1509,117,5,116,-1509,1716493807.64,2024-05-23 19:50:07.640000+00:00,2024-05-24 04:50:07.640000+09:00,2024,5,23,19,50,7,640,,,,,,,,,-0.174072,-0.257568,2.202637,18.676758,-2.075195,-18.920898,,,,,,,,,,,0.0,1.0,1.0,5.0,0.0,0.0,0.0,6.0,0.0,0.0657324,-0.2699056266666667,1.0208464,-9.351399706666665,2.327473946666667,-0.5436198,-6.326289185252458,14.490874593121857,-11.078223564249251,-0.3587737031728887,-1.978684288074657,-1.2232162572152259,2.3537561670397222,-1.3245133721278592,2.8344200658601917,-1.2890006527972653,-0.2398044,0.012337626666666657,1.1817906000000002,1.433932626666667,1.205938385465645,0.7744948499267909,0.7396887066845952,0.7384225231144651
LBP08_S05,LBP08,-1508,118,5,117,-1508,1716493807.68,2024-05-23 19:50:07.680000+00:00,2024-05-24 04:50:07.680000+09:00,2024,5,23,19,50,7,680,,,,,,,,,0.185547,-0.847656,1.713623,-51.086426,91.918945,2.13623,,,,,,,,,,,0.0,1.0,1.0,5.0,0.0,0.0,0.0,6.0,0.0,0.062464173333333324,-0.2682422133333333,1.0045540933333332,-10.34098304,0.6852213466666673,-1.3216145866666669,-3.06138230280873,16.336962544236147,-10.234164415327704,-0.4812289952852379,-1.3252057863052111,-1.6325828338283341,2.157099541345046,-1.3347226270259105,2.7683452302399134,-1.2887177983701639,0.12308282666666667,-0.5794137866666667,0.7090689066666667,1.41156552,0.9239309675517561,0.7814880630620535,0.7495833804124236,0.7417112919988775
LBP08_S05,LBP08,-1507,119,5,118,-1507,1716493807.72,2024-05-23 19:50:07.720000+00:00,2024-05-24 04:50:07.720000+09:00,2024,5,23,19,50,7,720,,,,,,,,,-0.666992,0.191162,-0.106934,-1.342773,126.525879,2.380371,,,,,,,,,,,0.0,1.0,1.0,5.0,0.0,0.0,0.0,6.0,0.0,0.07079750666666666,-0.25910809333333334,0.9904720666666667,-10.423990853333333,-0.895182293333333,-2.3966471466666666,1.3648571693466505,16.553928691052747,-9.322960664812282,-0.42663470851137186,-0.6630486386631013,-2.0055012604208255,2.154921339002678,-1.296201367001077,2.789694917262546,-1.2900243370807698,-0.7377895066666667,0.45027009333333334,-1.0974060666666667,2.2854656666666666,1.3969168150805031,0.817434387466561,0.7518328405432364,0.7520822800131919
LBP08_S05,LBP08,-1506,120,5,119,-1506,1716493807.76,2024-05-23 19:50:07.760000+00:00,2024-05-24 04:50:07.760000+09:00,2024,5,23,19,50,7,760,,,,,,,,,-0.018555,-0.354736,0.363525,2.563477,-67.443848,-32.409668,,,,,,,,,,,0.0,1.0,1.0,5.0,0.0,0.0,0.0,6.0,0.0,0.07621742666666666,-0.2599577066666667,0.9849121733333334,-10.787760373333334,-1.2792968666666662,-2.6717122533333333,6.473071189496831,15.339763150918282,-8.455039213429101,-0.16771186093149865,-0.04945811262637001,-2.3437028289579898,2.35021622913028,-1.2772048215991865,2.912440435128008,-1.296765134496665,-0.09477242666666666,-0.09477829333333332,-0.6213871733333334,0.8109378933333333,0.635678186605973,0.8294995171487544,0.7476887494780453,0.7484752889620293
LBP08_S05,LBP08,-1505,121,5,120,-1505,1716493807.8,2024-05-23 19:50:07.800000+00:00,2024-05-24 04:50:07.800000+09:00,2024,5,23,19,50,7,800,,,,,,,,,0.396484,-0.045898,0.811035,63.354492,-114.196777,-63.903809,,,,,,,,,,,0.0,1.0,1.0,5.0,0.0,0.0,0.0,6.0,0.0,0.07341794666666666,-0.2599577066666666,0.99759772,-8.980305946666666,-2.2526041599999997,-3.13720704,11.592841800459109,13.226441898219994,-7.746937763900926,0.2960018110868657,0.4795995633024297,-2.653580339514027,2.7127700661025376,-1.287555138338894,3.1443804510285114,-1.3045232627127754,0.3230660533333333,0.21405970666666663,-0.18656272000000007,0.72368848,0.4301149629208382,0.8149706955189964,0.744879149335124,0.7387967302099717
LBP08_S05,LBP08,-1504,122,5,121,-1504,1716493807.84,2024-05-23 19:50:07.840000+00:00,2024-05-24 04:50:07.840000+09:00,2024,5,23,19,50,7,840,,,,,,,,,0.426514,-0.394531,1.297852,-29.23584,10.498047,6.164551,,,,,,,,,,,0.0,1.0,1.0,5.0,0.0,0.0,0.0,6.0,0.0,0.07534829333333333,-0.26309572,1.0225912,-6.9702148,-1.9433593599999994,-3.0281575599999995,15.998207432509973,10.778670318362954,-7.33461726695004,0.9359301083872646,0.9107463760369479,-2.9469650301920285,3.2233564832988817,-1.2840078779543227,3.4837301790905415,-1.3091223424088372,0.3511657066666667,-0.13143528000000004,0.2752608000000001,0.7578617866666668,0.46514631502788223,0.8014528785088888,0.7455720716878964,0.7389760232076147
LBP08_S05,LBP08,-1503,123,5,122,-1503,1716493807.88,2024-05-23 19:50:07.880000+00:00,2024-05-24 04:50:07.880000+09:00,2024,5,23,19,50,7,880,,,,,,,,,-0.280273,-0.463135,1.697266,21.362305,47.058105,44.189453,,,,,,,,,,,0.0,1.0,1.0,5.0,0.0,0.0,0.0,6.0,0.0,0.07601886666666667,-0.26467124,1.0415072133333332,-7.427571573333333,1.2744140800000003,-2.3347981866666667,19.05435848650316,8.369434287054615,-7.324300589293961,1.698104447847391,1.2455237475191325,-3.239937053763787,3.8642049937580647,-1.283415329021106,3.9157973595050564,-1.307569368484627,-0.3562918666666667,-0.19846376000000004,0.6557587866666668,1.2105144133333334,0.7722378808221559,0.8126939463015043,0.7486441842335622,0.734026880923633
LBP08_S05,LBP08,-1502,124,5,123,-1502,1716493807.92,2024-05-23 19:50:07.920000+00:00,2024-05-24 04:50:07.920000+09:00,2024,5,23,19,50,7,920,,,,,,,,,-0.098633,-0.507324,1.938232,88.378906,-3.112793,-12.145996,,,,,,,,,,,0.0,1.0,1.0,5.0,0.0,0.0,0.0,6.0,0.0,0.06267902666666667,-0.2637825733333333,1.0309147733333335,-7.309570266666666,4.5084635466666665,-1.7390950666666667,20.332184249572105,6.152055153488997,-7.7025757839014775,2.511391817830275,1.4916059536586923,-3.548040085119846,4.595711656454543,-1.3306995196122393,4.411832814373744,-1.3075713174263797,-0.16131202666666666,-0.24354142666666667,0.9073172266666665,1.31217068,0.9531833749369708,0.8054097797109776,0.7432608590421037,0.7360728321561102
LBP08_S05,LBP08,-1501,125,5,124,-1501,1716493807.96,2024-05-23 19:50:07.960000+00:00,2024-05-24 04:50:07.960000+09:00,2024,5,23,19,50,7,960,,,,,,,,,0.061279,-0.475342,1.140625,-34.240723,111.999512,26.611328,,,,,,,,,,,0.0,1.0,1.0,5.0,0.0,0.0,0.0,6.0,0.0,0.057535800000000005,-0.26238283999999995,1.0228678933333333,-6.945800733333334,4.217122400000001,-2.5081380266666664,19.66606711466807,4.182483563839792,-8.27766597461466,3.298034502416998,1.6589052962122839,-3.8791467241044324,5.355070276669042,-1.3485073217549834,4.93368429656389,-1.3100628477037624,0.003743199999999995,-0.21295916000000004,0.11775710666666672,0.33445946666666676,0.2433769741463854,0.7811812700568035,0.7390624646555279,0.7289289092629017
LBP08_S05,LBP08,-1500,126,5,125,-1500,1716493808.0,2024-05-23 19:50:08+00:00,2024-05-24 04:50:08+09:00,2024,5,23,19,50,8,0,19.0,50.0,6.0,40.790718,141.606522,7.162,3.0,16.0,-0.438721,0.003174,-0.128174,-0.244141,52.062988,-10.742188,-595.0,20.0,599.0,14.0,0.0,1018.5,20.52,0.054504,-43.592819,3.860156,0.0,1.0,1.0,5.0,0.0,0.0,0.0,4.0,0.0,0.06250650666666667,-0.2558431333333333,1.0128548800000001,-5.439453066666666,2.502441413333334,-4.0877278666666665,17.151833026855154,2.537933744373629,-8.718614144029479,3.9841078234912044,1.760422645987229,-4.227891289865611,6.0701950381046235,-1.3243960496527947,5.4433031099716676,-1.3141615845737409,-0.5012275066666667,0.2590171333333333,-1.1410288800000001,1.9012735200000002,1.2728966155165768,0.8068769402120897,0.7453850250477783,0.7396701179699918
LBP08_S05,LBP08,-1499,127,5,126,-1499,1716493808.04,2024-05-23 19:50:08.040000+00:00,2024-05-24 04:50:08.040000+09:00,2024,5,23,19,50,8,40,,,,,,,,,-0.073242,-0.085205,0.178467,21.118164,-78.125,-53.955078,,,,,,,,,,,0.0,1.0,1.0,5.0,0.0,0.0,0.0,4.0,0.0,0.06567382666666667,-0.25214521333333334,1.0048470666666667,-6.56656896,2.5317382800000003,-4.1398112,13.104693671207045,1.3041973620896263,-8.697252493846907,4.508295570339486,1.812590540470814,-4.575781389619488,6.674427971184869,-1.3089836328857556,5.909136638534197,-1.3205121121281773,-0.1389158266666667,0.16694021333333334,-0.8263800666666667,1.1322361066666669,0.8544417220093287,0.8203965989173742,0.7461493856753713,0.7403005435601481
LBP08_S05,LBP08,-1498,128,5,127,-1498,1716493808.08,2024-05-23 19:50:08.080000+00:00,2024-05-24 04:50:08.080000+09:00,2024,5,23,19,50,8,80,,,,,,,,,0.530029,0.006104,0.637451,11.169434,-144.53125,-55.603027,,,,,,,,,,,0.0,1.0,1.0,5.0,0.0,0.0,0.0,4.0,0.0,0.05978515999999999,-0.25597333333333333,1.0088705066666666,-6.37939448,1.525878906666667,-4.0592447866666665,8.008301965036662,0.43717025264223464,-8.062918693608536,4.8286276489409525,1.8300773505765033,-4.898298137363829,7.11745409003192,-1.3347421164434372,6.307600342429845,-1.3298588479781468,0.47024383999999997,0.26207733333333333,-0.37141950666666657,1.1037406799999998,0.6540384144968602,0.7932663950892518,0.7486214329299239,0.7366827536004146
LBP08_S05,LBP08,-1497,129,5,128,-1497,1716493808.12,2024-05-23 19:50:08.120000+00:00,2024-05-24 04:50:08.120000+09:00,2024,5,23,19,50,8,120,,,,,,,,,0.43457,-0.30835,1.068604,10.803223,-2.624512,-12.695312,,,,,,,,,,,0.0,1.0,1.0,5.0,0.0,0.0,0.0,4.0,0.0,0.06638672000000001,-0.26842124,1.0336426399999998,-6.09863276,-1.0970051999999995,-4.571940106666667,2.46858072333014,-0.3566877191620419,-6.943598699359478,4.927370877874158,1.8158098418100217,-5.176042085338208,7.373436160904141,-1.3211166697749048,6.624291191291318,-1.3376452468253477,0.36818328,-0.03992876000000001,0.034961360000000274,0.4430734000000003,0.37198861573944114,0.7712433569352796,0.7469879256707987,0.7374217240801745
LBP08_S05,LBP08,-1496,130,5,129,-1496,1716493808.16,2024-05-23 19:50:08.160000+00:00,2024-05-24 04:50:08.160000+09:00,2024,5,23,19,50,8,160,,,,,,,,,-0.230957,-0.264648,1.616211,51.818848,92.529297,44.006348,,,,,,,,,,,0.0,1.0,1.0,5.0,0.0,0.0,0.0,4.0,0.0,0.06714843999999999,-0.2679817866666666,1.0470248,-5.339355413333333,1.2459310000000006,-3.8582356799999995,-2.8461118011372366,-1.5550268704557533,-5.700201036906726,4.813526405828669,1.7536087669917915,-5.404050126814477,7.4464043632080505,-1.318192190298971,6.85535999846447,-1.33779954261445,-0.29810544,0.003333786666666616,0.5691862000000001,0.8706254266666666,0.6425347444003107,0.7882737984594885,0.7514361915538201,0.7305105490288707
LBP08_S05,LBP08,-1495,131,5,130,-1495,1716493808.2,2024-05-23 19:50:08.200000+00:00,2024-05-24 04:50:08.200000+09:00,2024,5,23,19,50,8,200,,,,,,,,,0.000977,-0.998535,1.936768,-34.851074,-16.540527,9.521484,,,,,,,,,,,0.0,1.0,1.0,5.0,0.0,0.0,0.0,4.0,0.0,0.05816406666666667,-0.26851563999999994,1.0420052666666668,-4.659830666666667,4.18538412,-3.4008789066666663,-7.307412803494932,-3.5403263428087186,-4.749435456503377,4.521229893688871,1.6119957132794427,-5.594027545074612,7.371105351727831,-1.35106041388326,7.006308588327455,-1.337312764824449,-0.05718706666666667,-0.73001936,0.8947627333333332,1.68196916,1.1562002315909148,0.7915386959500639,0.7558577322131164,0.734921880749425
LBP08_S05,LBP08,-1494,132,5,131,-1494,1716493808.24,2024-05-23 19:50:08.240000+00:00,2024-05-24 04:50:08.240000+09:00,2024,5,23,19,50,8,240,,,,,,,,,0.0354,-0.116699,1.251465,-62.255859,85.571289,15.625,,,,,,,,,,,0.0,1.0,1.0,5.0,0.0,0.0,0.0,4.0,0.0,0.05100586666666667,-0.26888673333333335,1.03379888,-3.945312440000001,4.256998706666667,-3.9095052133333326,-10.47173535055778,-6.263808605751598,-4.354636050781511,4.10236047966656,1.3614433690493788,-5.768212987105872,7.207993522255372,-1.3774752364540177,7.088171845436217,-1.3385414963747788,-0.01560586666666667,0.15218773333333335,0.21766612000000007,0.38545972000000006,0.26605110232323786,0.781780764768331,0.7470214937095315,0.7290030030714629
LBP08_S05,LBP08,-1493,133,5,132,-1493,1716493808.28,2024-05-23 19:50:08.280000+00:00,2024-05-24 04:50:08.280000+09:00,2024,5,23,19,50,8,280,,,,,,,,,-0.459961,0.021484,0.005127,-15.625,91.186523,11.474609,,,,,,,,,,,0.0,1.0,1.0,5.0,0.0,0.0,0.0,4.0,0.0,0.05459961333333334,-0.26483399999999996,1.0247396266666668,-2.438150986666667,1.926269533333334,-5.270182293333333,-12.216834104280045,-9.090110218901188,-4.501895310632505,3.613687115495358,0.9978389602933313,-5.948288799531172,7.03111348237279,-1.3612793174931128,7.114265246257605,-1.340745977316186,-0.5145606133333334,0.28631799999999996,-1.0196126266666667,1.82049124,1.1774381216760716,0.8045599425180504,0.7624644839184045,0.7392628384458458
LBP08_S05,LBP08,-1492,134,5,133,-1492,1716493808.32,2024-05-23 19:50:08.320000+00:00,2024-05-24 04:50:08.320000+09:00,2024,5,23,19,50,8,320,,,,,,,,,-0.040283,0.009521,0.015625,4.211426,-71.533203,-25.146484,,,,,,,,,,,0.0,1.0,1.0,5.0,0.0,0.0,0.0,4.0,0.0,0.06176757333333333,-0.2617903733333333,1.0171387066666666,-2.2973632266666666,1.768391933333334,-5.3621419333333336,-12.792661682286932,-10.977185777611655,-4.923567112415353,3.1019806482038805,0.5587515291888651,-6.145231484027786,6.906399728186069,-1.3322424775032624,7.099606081922252,-1.342859638843931,-0.10205057333333334,0.2713113733333333,-1.0015137066666666,1.3748756533333333,1.042618763239415,0.8101242669088593,0.7633639108753049,0.7425953534817321
LBP08_S05,LBP08,-1491,135,5,134,-1491,1716493808.36,2024-05-23 19:50:08.360000+00:00,2024-05-24 04:50:08.360000+09:00,2024,5,23,19,50,8,360,,,,,,,,,0.378662,-0.050293,0.285645,-32.165527,-182.373047,-48.095703,,,,,,,,,,,0.0,1.0,1.0,5.0,0.0,0.0,0.0,4.0,0.0,0.05877604,-0.26219077333333335,1.0148340133333336,-1.3297525600000002,2.148437506666667,-4.880371106666667,-12.736953058420674,-10.95042578973507,-5.245118322170649,2.5925025258670535,0.12073449759946225,-6.355036216914612,6.864556175298882,-1.343639543854974,7.061607393165337,-1.3493119053622464,0.31988596,0.21189777333333334,-0.7291890133333336,1.260972746666667,0.8239807709617907,0.7922264435712759,0.7634018489410961,0.7451727183927411
LBP08_S05,LBP08,-1490,136,5,135,-1490,1716493808.4,2024-05-23 19:50:08.400000+00:00,2024-05-24 04:50:08.400000+09:00,2024,5,23,19,50,8,400,,,,,,,,,0.55957,-0.280518,0.856934,-21.972656,-82.641602,-29.907227,,,,,,,,,,,0.0,1.0,1.0,5.0,0.0,0.0,0.0,4.0,0.0,0.06149413333333334,-0.26576500000000003,1.0339030266666667,-1.1197916266666668,-0.27099609333333285,-4.9031575599999995,-12.671067615276165,-8.628890875821869,-5.166017748166055,2.085659821256007,-0.22442113743341252,-6.561676926841254,6.888827609192251,-1.3366833651560934,7.019233972245201,-1.355200487673309,0.4980758666666667,-0.01475299999999996,-0.1769690266666667,0.6897978933333334,0.5287865886764703,0.7715273057726938,0.7609541293210813,0.7488242742454435
LBP08_S05,LBP08,-1489,137,5,136,-1489,1716493808.44,2024-05-23 19:50:08.440000+00:00,2024-05-24 04:50:08.440000+09:00,2024,5,23,19,50,8,440,,,,,,,,,0.187012,-0.359375,1.341553,48.095703,49.865723,17.456055,,,,,,,,,,,0.0,1.0,1.0,5.0,0.0,0.0,0.0,4.0,0.0,0.06470376,-0.27290041333333337,1.05284508,-0.9708658400000002,1.741536453333334,-4.430338559999999,-13.04958524549496,-4.4894187434871435,-4.57552027115722,1.5636764114362085,-0.4039978871728983,-6.7446977376875425,6.935361979398742,-1.3310284422998286,6.989549541170507,-1.3528942723985764,0.12230824000000001,-0.08647458666666663,0.28870792,0.49749074666666665,0.3252528597595951,0.7670655797804596,0.7608767013618021,0.7367820486909211
LBP08_S05,LBP08,-1488,138,5,137,-1488,1716493808.48,2024-05-23 19:50:08.480000+00:00,2024-05-24 04:50:08.480000+09:00,2024,5,23,19,50,8,480,,,,,,,,,-0.115479,-0.719238,1.856445,10.742188,28.930664,25.878906,,,,,,,,,,,0.0,1.0,1.0,5.0,0.0,0.0,0.0,4.0,0.0,0.05749021333333334,-0.27163088,1.0499935200000001,0.47851566666666656,5.132649733333334,-3.859049493333333,-13.964554326513241,0.3083191154673823,-3.554903448705904,1.005094238375679,-0.391665122554203,-6.886893875635779,6.970862446678386,-1.355878731720883,6.983269680358177,-1.3479933889915943,-0.17296921333333334,-0.44760712,0.8064514799999998,1.4270278133333332,0.9384212658662615,0.7648570638337161,0.7699030111750806,0.7390775254316012
LBP08_S05,LBP08,-1487,139,5,138,-1487,1716493808.52,2024-05-23 19:50:08.520000+00:00,2024-05-24 04:50:08.520000+09:00,2024,5,23,19,50,8,520,,,,,,,,,0.067383,-0.337891,1.721191,-9.460449,69.030762,2.380371,,,,,,,,,,,0.0,1.0,1.0,5.0,0.0,0.0,0.0,4.0,0.0,0.04865884,-0.26799155999999996,1.0393196799999997,1.6316732133333334,5.825195306666667,-3.6523437599999995,-15.096800446406489,4.444713997959564,-2.2940006600485914,0.40122222051941936,-0.21387656263582042,-6.978653902037722,6.9934492733349956,-1.3856393349580631,7.002133139887779,-1.3453539757853936,0.018724159999999997,-0.06989944000000003,0.6818713200000002,0.7704949200000002,0.6857003885944369,0.7686149023026632,0.766893998061695,0.7420222102174928
LBP08_S05,LBP08,-1486,140,5,139,-1486,1716493808.56,2024-05-23 19:50:08.560000+00:00,2024-05-24 04:50:08.560000+09:00,2024,5,23,19,50,8,560,,,,,,,,,-0.388672,-0.0979,0.620605,-34.912109,181.70166,16.235352,,,,,,,,,,,0.0,1.0,1.0,5.0,0.0,0.0,0.0,4.0,0.0,0.05050454666666667,-0.26560876,1.0258854266666666,2.62613936,3.057454413333334,-4.988606773333332,-15.85382202047839,7.011355425272067,-0.9959112388864403,-0.2329306602997162,0.06657765437506227,-7.01849035159318,7.022670154006687,-1.3770780134095948,7.040110219106083,-1.3441399764365873,-0.43917654666666667,0.16770876,-0.40528042666666664,1.0121657333333332,0.6206887235659367,0.7669069944523875,0.7704945448758826,0.7437294828170279
LBP08_S05,LBP08,-1485,141,5,140,-1485,1716493808.6,2024-05-23 19:50:08.600000+00:00,2024-05-24 04:50:08.600000+09:00,2024,5,23,19,50,8,600,,,,,,,,,-0.095215,-0.159424,-0.033447,-74.279785,-55.969238,-9.70459,,,,,,,,,,,0.0,1.0,1.0,5.0,0.0,0.0,0.0,4.0,0.0,0.06180337333333334,-0.25697269333333334,1.0114518266666666,2.2143555066666667,1.9262695200000004,-5.405273439999999,-15.645440401822293,7.815980498522931,0.16979739316596218,-0.858748276372608,0.3792168743159795,-7.011698455866542,7.0742610409808995,-1.3279982611359362,7.088439398862306,-1.3434877961669016,-0.15701837333333335,0.09754869333333333,-1.0448988266666666,1.2994658933333332,1.0611239678306503,0.7779474703522163,0.766573450299259,0.7493887071900951
LBP08_S05,LBP08,-1484,142,5,141,-1484,1716493808.64,2024-05-23 19:50:08.640000+00:00,2024-05-24 04:50:08.640000+09:00,2024,5,23,19,50,8,640,,,,,,,,,0.211914,-0.021484,0.327393,-13.48877,-147.094727,-56.335449,,,,,,,,,,,0.0,1.0,1.0,5.0,0.0,0.0,0.0,4.0,0.0,0.062171213333333336,-0.25924482666666665,1.005472,2.1525065466666664,2.4414062400000005,-5.201009106666667,-14.171531961538568,7.284100548047063,1.058837668877606,-1.4256095548341507,0.6705808962378621,-6.969344949111438,7.145194914132063,-1.3284664023841954,7.141779342513642,-1.3473213593082796,0.14974278666666666,0.23776082666666665,-0.6780789999999999,1.065582613333333,0.7339919911667397,0.7590696145802602,0.7667822322535255,0.7461490093164835
LBP08_S05,LBP08,-1483,143,5,142,-1483,1716493808.68,2024-05-23 19:50:08.680000+00:00,2024-05-24 04:50:08.680000+09:00,2024,5,23,19,50,8,680,,,,,,,,,0.67041,-0.182861,1.141357,-49.499512,-57.861328,4.394531,,,,,,,,,,,0.0,1.0,1.0,5.0,0.0,0.0,0.0,4.0,0.0,0.06184242666666667,-0.26536788,1.0181022133333333,2.0930989999999996,0.36458332000000043,-5.37597656,-11.583800900682743,6.076657808013233,1.5311425796672027,-1.8889615908614605,0.9136472085583914,-6.90809924592475,7.219748077668812,-1.3348851854311057,7.2013956290138905,-1.352332165093133,0.6085675733333333,0.08250688,0.12325478666666667,0.81432924,0.6263813686536357,0.7471676306243353,0.7643278468431943,0.7487781304830609
LBP08_S05,LBP08,-1482,144,5,143,-1482,1716493808.72,2024-05-23 19:50:08.720000+00:00,2024-05-24 04:50:08.720000+09:00,2024,5,23,19,50,8,720,,,,,,,,,0.057617,-0.161865,1.611084,44.677734,65.307617,38.818359,,,,,,,,,,,0.0,1.0,1.0,5.0,0.0,0.0,0.0,4.0,0.0,0.06682940000000001,-0.26899744,1.04036784,2.817382853333333,1.6308593600000003,-4.8950195333333335,-8.447039331754892,4.706664900766675,1.4657365123804078,-2.2268431641316564,1.1019138045890584,-6.849469785429534,7.286170520369114,-1.320102484015199,7.273627262045783,-1.3504171781502305,-0.00921240000000001,0.10713243999999997,0.5707161599999999,0.6870609999999999,0.5807574048596015,0.7145212542154993,0.7659778208410302,0.7393956451006573
LBP08_S05,LBP08,-1481,145,5,144,-1481,1716493808.76,2024-05-23 19:50:08.760000+00:00,2024-05-24 04:50:08.760000+09:00,2024,5,23,19,50,8,760,,,,,,,,,-0.151367,-0.960938,2.112549,16.174316,-13.977051,6.530762,,,,,,,,,,,0.0,1.0,1.0,5.0,0.0,0.0,0.0,4.0,0.0,0.061568986666666665,-0.26653976,1.04116536,2.9093424933333334,5.227050773333334,-3.441569013333333,-5.526023632728466,3.389454856510721,0.8193402065509852,-2.4478841094407953,1.2374919988494872,-6.816696177167494,7.347847972861114,-1.3371177411581172,7.365791454105361,-1.344556039707937,-0.21293598666666666,-0.6943982399999999,1.07138364,1.9787178666666667,1.2943699448737422,0.7408689245462101,0.7851842208474822,0.7454154745007668
LBP08_S05,LBP08,-1480,146,5,145,-1480,1716493808.8,2024-05-23 19:50:08.800000+00:00,2024-05-24 04:50:08.800000+09:00,2024,5,23,19,50,8,800,,,,,,,,,0.164551,-0.41626,1.733643,0.183105,63.354492,15.136719,,,,,,,,,,,0.0,1.0,1.0,5.0,0.0,0.0,0.0,4.0,0.0,0.050908173333333334,-0.26482752,1.0234472666666667,2.453613333333333,5.029296866666666,-3.5131835999999996,-3.5027306072801627,2.1552358847662365,-0.31549979469290484,-2.5879933337320016,1.3237014342401368,-6.82931616895521,7.422227045705604,-1.375018996569874,7.483095909902433,-1.3396158699764302,0.11364282666666667,-0.15143248000000004,0.7101957333333333,0.97527104,0.7349996378887621,0.753064311544927,0.7840175035319618,0.7476075367383916
LBP08_S05,LBP08,-1479,147,5,146,-1479,1716493808.84,2024-05-23 19:50:08.840000+00:00,2024-05-24 04:50:08.840000+09:00,2024,5,23,19,50,8,840,,,,,,,,,-0.287598,-0.081055,0.192871,-18.432617,132.019043,10.803223,,,,,,,,,,,0.0,1.0,1.0,5.0,0.0,0.0,0.0,4.0,0.0,0.047750626666666664,-0.25646489333333333,1.0024251333333332,3.5253906799999997,2.2705078,-4.392903653333333,-2.7438190874692965,1.0653433923122788,-1.7113174340250659,-2.6977460972307736,1.366315169932628,-6.897768866316213,7.5315248444012415,-1.3811365001483644,7.628314663044344,-1.3390359396622422,-0.3353486266666667,0.17540989333333334,-0.8095541333333331,1.3203126533333331,0.8936471489819205,0.7702043449030884,0.7858286117059886,0.7537828294262938
LBP08_S05,LBP08,-1478,148,5,147,-1478,1716493808.88,2024-05-23 19:50:08.880000+00:00,2024-05-24 04:50:08.880000+09:00,2024,5,23,19,50,8,880,,,,,,,,,0.0625,-0.252686,0.227783,15.808105,-53.771973,-27.282715,,,,,,,,,,,0.0,1.0,1.0,5.0,0.0,0.0,0.0,4.0,0.0,0.05708332,-0.24640954666666665,0.9821256533333333,4.114583386666666,0.6494140533333332,-5.2335612,-3.1941574620051965,0.3308572237020151,-3.08768905747435,-2.8255123957109816,1.3795494588807085,-7.021276428615186,7.693178776997302,-1.336728862291856,7.803244593632506,-1.339995024256677,0.00541668,-0.006276453333333376,-0.7543426533333333,0.7660357866666666,0.7543882110204542,0.7694903581110205,0.7910921522062624,0.7555929088593816
LBP08_S05,LBP08,-1477,149,5,148,-1477,1716493808.92,2024-05-23 19:50:08.920000+00:00,2024-05-24 04:50:08.920000+09:00,2024,5,23,19,50,8,920,,,,,,,,,0.41748,0.013428,0.716797,5.981445,-136.71875,-59.509277,,,,,,,,,,,0.0,1.0,1.0,5.0,0.0,0.0,0.0,4.0,0.0,0.05935546666666666,-0.24574222666666667,0.9690690133333334,4.769694066666667,0.4760741999999999,-5.078125,-4.409684691214263,0.23826648229124783,-4.23829455409179,-3.001899783359552,1.3890801181723584,-7.190808210778858,7.915091193930775,-1.3270279505351266,8.009934851730565,-1.3459979362707017,0.3581245333333334,0.25917022666666667,-0.2522720133333334,0.8695667733333334,0.508982864620139,0.7517223376983471,0.7785660587046624,0.7460813519275182
LBP08_S05,LBP08,-1476,150,5,149,-1476,1716493808.96,2024-05-23 19:50:08.960000+00:00,2024-05-24 04:50:08.960000+09:00,2024,5,23,19,50,8,960,,,,,,,,,0.600342,-0.587402,1.226807,-43.579102,-31.616211,5.737305,,,,,,,,,,,0.0,1.0,1.0,5.0,0.0,0.0,0.0,4.0,0.0,0.06024739999999999,-0.2501986133333333,0.9819108,5.02360032,-0.8756510533333335,-4.5841471333333335,-5.698378475715279,0.9574668803009706,-5.129253549438353,-3.2298349223881635,1.4273787933843973,-7.3959783527563925,8.1957147119774,-1.327676316094528,8.25089360686667,-1.352718008592894,0.5400946000000001,-0.33720338666666666,0.2448962,1.122194186666667,0.6821894529403615,0.7692748368501063,0.7752280534534549,0.7491332553870541
LBP08_S05,LBP08,-1475,151,5,150,-1475,1716493809.0,2024-05-23 19:50:09+00:00,2024-05-24 04:50:09+09:00,2024,5,23,19,50,9,0,19.0,50.0,7.0,40.790646,141.606613,7.101,3.0,16.0,-0.171631,-0.0896,1.602295,-1.159668,70.251465,28.869629,-589.0,28.0,601.0,25.0,0.0,1018.400024,20.58,0.053513,-42.764385,3.860156,0.0,1.0,1.0,5.0,0.0,0.0,0.0,4.0,0.0,0.06203450666666666,-0.2514095466666667,1.0063509066666665,6.466471413333334,0.3531900933333332,-4.321289053333333,-6.316193627793772,2.4107121159769638,-5.90582659626718,-3.4824826674999145,1.523807278023476,-7.632211416607079,8.526448572400005,-1.3221989579940545,8.52902980591815,-1.3542102811948853,-0.23366550666666666,0.1618095466666667,0.5959440933333335,0.9914191466666669,0.6602509074413689,0.7447690085270979,0.7758229743695937,0.7451796862075514
LBP08_S05,LBP08,-1474,152,5,151,-1474,1716493809.04,2024-05-23 19:50:09.040000+00:00,2024-05-24 04:50:09.040000+09:00,2024,5,23,19,50,9,40,,,,,,,,,-0.082031,-0.4646,2.02832,-5.615234,-25.390625,-16.906738,,,,,,,,,,,0.0,1.0,1.0,5.0,0.0,0.0,0.0,4.0,0.0,0.05919270666666667,-0.25718102666666665,1.01469076,5.183105533333333,3.911946613333333,-2.8043619599999996,-5.658335429478942,4.3266095768556445,-6.801232135557809,-3.7088160846790723,1.6968716610977017,-7.904260702029392,8.894494220013685,-1.3380572483285433,8.848248114367928,-1.3494439639990334,-0.14122370666666667,-0.20741897333333337,1.01362924,1.36227192,1.044227466602131,0.75236043831081,0.786378518614092,0.7482197365538508
LBP08_S05,LBP08,-1473,153,5,152,-1473,1716493809.08,2024-05-23 19:50:09.080000+00:00,2024-05-24 04:50:09.080000+09:00,2024,5,23,19,50,9,80,,,,,,,,,0.152588,-0.310547,1.543945,-4.638672,84.228516,7.385254,,,,,,,,,,,0.0,1.0,1.0,5.0,0.0,0.0,0.0,4.0,0.0,0.043798826666666665,-0.25407554666666665,0.9974641866666667,5.146484439999999,5.2652994799999995,-2.845052066666666,-3.39708215272661,6.4415309857592975,-8.002286286807523,-3.8446993707881365,1.9545329005280736,-8.224352153501693,9.286650658649398,-1.3949143055713555,9.214465973203783,-1.3393201520975517,0.10878917333333334,-0.056471453333333366,0.5464808133333332,0.71174144,0.5600583796512559,0.7486012369169859,0.7709338160031188,0.7486147009256112
LBP08_S05,LBP08,-1472,154,5,153,-1472,1716493809.12,2024-05-23 19:50:09.120000+00:00,2024-05-24 04:50:09.120000+09:00,2024,5,23,19,50,9,120,,,,,,,,,-0.554443,0.12915,-0.050049,9.277344,131.774902,19.897461,,,,,,,,,,,0.0,1.0,1.0,5.0,0.0,0.0,0.0,4.0,0.0,0.04507161333333333,-0.25046551999999994,0.97634764,4.954427146666666,3.0395507866666662,-3.717447893333333,0.45674124639932523,8.685332475974072,-9.546959318169167,-3.8264297209321634,2.3019461995670363,-8.60623052622846,9.695758071730168,-1.3873032072371212,9.635677652244365,-1.3344508229568788,-0.5995146133333333,0.37961551999999993,-1.02639664,2.005526773333333,1.2478043825970384,0.7836338675912897,0.7774386122632846,0.7592032396442958
LBP08_S05,LBP08,-1471,155,5,154,-1471,1716493809.16,2024-05-23 19:50:09.160000+00:00,2024-05-24 04:50:09.160000+09:00,2024,5,23,19,50,9,160,,,,,,,,,-0.027832,-0.151611,0.190186,-3.662109,-65.185547,-26.245117,,,,,,,,,,,0.0,1.0,1.0,5.0,0.0,0.0,0.0,4.0,0.0,0.053382160000000005,-0.24773766666666663,0.9514615733333333,4.910481826666666,0.632324213333333,-4.214680973333333,5.5669053718553645,11.192250023075918,-11.302505509129258,-3.6037535060579486,2.749636200490073,-9.058330746593631,10.129209963375919,-1.352040467178029,10.119937268768606,-1.3325244107875416,-0.08121416000000001,0.09612666666666664,-0.7612755733333333,0.9386163999999999,0.7716064893343921,0.788796737388653,0.7885352679240707,0.7638897068320978
LBP08_S05,LBP08,-1470,156,5,155,-1470,1716493809.2,2024-05-23 19:50:09.200000+00:00,2024-05-24 04:50:09.200000+09:00,2024,5,23,19,50,9,200,,,,,,,,,0.431641,-0.022949,0.751221,6.713867,-129.089355,-61.157227,,,,,,,,,,,0.0,1.0,1.0,5.0,0.0,0.0,0.0,4.0,0.0,0.05793293333333333,-0.24027347999999998,0.9417773333333334,5.462239639999999,-1.5266927066666671,-4.256184866666666,11.347078159938345,14.104483321373333,-13.023783917476631,-3.149870379660415,3.3138155333450063,-9.579282103292696,10.614410130203394,-1.3273558246113555,10.671855344232833,-1.3332228202627823,0.37370806666666667,0.21732448,-0.19055633333333333,0.7815888799999999,0.472439800262904,0.7614463201355326,0.7764925080427981,0.7577205948539217
LBP08_S05,LBP08,-1469,157,5,156,-1469,1716493809.24,2024-05-23 19:50:09.240000+00:00,2024-05-24 04:50:09.240000+09:00,2024,5,23,19,50,9,240,,,,,,,,,0.580078,-0.471436,1.275635,-15.808105,-9.155273,-15.686035,,,,,,,,,,,0.0,1.0,1.0,5.0,0.0,0.0,0.0,4.0,0.0,0.07113280000000001,-0.24450850666666668,0.9598665333333334,5.74625656,-2.631835933333334,-3.823242159999999,17.084560797649814,17.303423580065875,-14.446798796127545,-2.4664879477544224,4.005952476547641,-10.157154055137799,11.193703432759786,-1.2798983811335454,11.289681182156583,-1.3337680913330872,0.5089452,-0.22692749333333334,0.3157684666666667,1.05164116,0.6404928011887471,0.7764239880901529,0.7791023764292418,0.7568223251697386
LBP08_S05,LBP08,-1468,158,5,157,-1468,1716493809.28,2024-05-23 19:50:09.280000+00:00,2024-05-24 04:50:09.280000+09:00,2024,5,23,19,50,9,280,,,,,,,,,-0.271973,-0.057861,1.615967,81.970215,77.636719,7.385254,,,,,,,,,,,0.0,1.0,1.0,5.0,0.0,0.0,0.0,4.0,0.0,0.07049804,-0.24973962666666666,0.9806933600000001,5.679524786666666,-1.50309244,-2.763671853333333,22.09311669446511,20.282986973375493,-15.358186294309983,-1.582763279975818,4.817271955482661,-10.771481506910199,11.905295567403103,-1.2880355708851283,11.964700067114793,-1.3318447886228484,-0.34247104,0.19187862666666666,0.6352736399999999,1.1696233066666666,0.7467773552331491,0.759197557432436,0.7818787499752432,0.7613755084230817
LBP08_S05,LBP08,-1467,159,5,158,-1467,1716493809.32,2024-05-23 19:50:09.320000+00:00,2024-05-24 04:50:09.320000+09:00,2024,5,23,19,50,9,320,,,,,,,,,-0.026855,-0.418945,1.880859,60.119629,-0.915527,-16.418457,,,,,,,,,,,0.0,1.0,1.0,5.0,0.0,0.0,0.0,4.0,0.0,0.06581054666666665,-0.2515462666666667,0.9947037733333334,5.021158906666666,0.7332356799999996,-1.7382812266666663,25.859526207792655,22.28943509133911,-15.610863641352363,-0.5483822316641118,5.7088493591362255,-11.395916052564294,12.757687359173197,-1.307763828841756,12.682982300424305,-1.3208849559007956,-0.09266554666666665,-0.16739873333333333,0.8861552266666667,1.1462195066666667,0.9065761552176894,0.753755853111567,0.7819400600102132,0.7601612249540589
LBP08_S05,LBP08,-1466,160,5,159,-1466,1716493809.36,2024-05-23 19:50:09.360000+00:00,2024-05-24 04:50:09.360000+09:00,2024,5,23,19,50,9,360,,,,,,,,,0.05249,-0.229736,1.587402,-39.428711,125.793457,19.897461,,,,,,,,,,,0.0,1.0,1.0,5.0,0.0,0.0,0.0,4.0,0.0,0.05797525333333333,-0.24797205333333333,0.9887271999999999,5.10335292,3.3390299466666664,-1.4819335733333328,28.13786668115407,22.659037005551767,-15.106537572782683,0.5771324355820511,6.615210839358296,-12.0001775554756,13.714895466619668,-1.334660410846933,13.428062291997003,-1.3078167026202128,-0.005485253333333329,0.018236053333333335,0.5986748000000001,0.6223961066666668,0.5989775937381524,0.7447557260226213,0.7684910847969486,0.7571864746349378
LBP08_S05,LBP08,-1465,161,5,160,-1465,1716493809.4,2024-05-23 19:50:09.400000+00:00,2024-05-24 04:50:09.400000+09:00,2024,5,23,19,50,9,400,,,,,,,,,-0.507324,0.087158,-0.21582,25.32959,121.276855,-7.385254,,,,,,,,,,,0.0,1.0,1.0,5.0,0.0,0.0,0.0,4.0,0.0,0.058564439999999995,-0.24301110666666664,0.9657128666666667,3.097330786666666,2.3266601599999994,-2.206217426666666,28.964729450896314,21.14403289696336,-13.79244158710467,1.7357216136179037,7.46097215523683,-12.551875218959788,14.70470695163751,-1.3276516686971036,14.182875141343976,-1.3005831271608457,-0.5658884399999999,0.33016910666666666,-1.1815328666666667,2.077590413333333,1.3510223094147074,0.777645154852151,0.7745862303124224,0.7665178044981046
LBP08_S05,LBP08,-1464,162,5,161,-1464,1716493809.44,2024-05-23 19:50:09.440000+00:00,2024-05-24 04:50:09.440000+09:00,2024,5,23,19,50,9,440,,,,,,,,,-0.012939,-0.30127,0.387939,33.813477,-59.997559,-43.823242,,,,,,,,,,,0.0,1.0,1.0,5.0,0.0,0.0,0.0,4.0,0.0,0.05956378666666667,-0.23816085333333328,0.9426887866666666,0.8813477199999994,0.5948893333333327,-2.3828124799999992,28.60933463478439,18.02391385627894,-11.700050903279275,2.8800949990092795,8.181928709487988,-13.01987725509096,15.644683069595782,-1.3188242212261558,14.930188192321802,-1.2984653810934461,-0.07250278666666667,-0.0631091466666667,-0.5547497866666666,0.6903617200000001,0.563015758459867,0.7871556708001617,0.7771106252903107,0.7696363578412554
LBP08_S05,LBP08,-1463,163,5,162,-1463,1716493809.48,2024-05-23 19:50:09.480000+00:00,2024-05-24 04:50:09.480000+09:00,2024,5,23,19,50,9,480,,,,,,,,,0.26416,0.1604,0.725586,89.660645,-94.665527,-64.453125,,,,,,,,,,,0.0,1.0,1.0,5.0,0.0,0.0,0.0,4.0,0.0,0.06720701333333333,-0.23544274666666667,0.9412337066666667,1.681315173333333,-1.9189453066666673,-2.6595051866666664,27.491435728860534,13.94014242112423,-9.004236031796662,3.979752428163701,8.739534406332957,-13.380046696362825,16.469472991744517,-1.2853159783508268,15.652135585623725,-1.3040322724779585,0.19695298666666666,0.39584274666666663,-0.21564770666666677,0.8084434400000001,0.491920615990145,0.7692956448051171,0.7670763543194166,0.7697005557184262
LBP08_S05,LBP08,-1462,164,5,163,-1462,1716493809.52,2024-05-23 19:50:09.520000+00:00,2024-05-24 04:50:09.520000+09:00,2024,5,23,19,50,9,520,,,,,,,,,0.341797,-0.331543,1.171143,-6.896973,-12.756348,8.972168,,,,,,,,,,,0.0,1.0,1.0,5.0,0.0,0.0,0.0,4.0,0.0,0.07601235999999999,-0.24033533333333335,0.9646158666666665,1.996256586666666,-1.9018554533333338,-1.580403613333333,26.081098325414068,9.575694854381238,-6.043265512923105,5.0229963611802635,9.122562200508208,-13.621777316879749,17.14655798745716,-1.256620674431293,16.330326254148737,-1.3077470623426153,0.26578464,-0.09120766666666663,0.2065271333333335,0.5635194400000001,0.34873165919026033,0.75581689562895,0.7622158989658067,0.7632016305841134
LBP08_S05,LBP08,-1461,165,5,164,-1461,1716493809.56,2024-05-23 19:50:09.560000+00:00,2024-05-24 04:50:09.560000+09:00,2024,5,23,19,50,9,560,,,,,,,,,-0.234863,-0.4375,1.689209,12.329102,37.536621,37.353516,,,,,,,,,,,0.0,1.0,1.0,5.0,0.0,0.0,0.0,4.0,0.0,0.07331053333333333,-0.25177738666666666,0.9911067466666666,2.087402426666666,-1.0823567600000006,-0.6982421599999994,24.777875289278988,5.395446248143731,-3.251852459764587,6.014111372751423,9.338380050433956,-13.751851415270332,17.677338456845632,-1.2797047125843606,16.94752374704188,-1.307732935553251,-0.3081735333333333,-0.18572261333333334,0.6981022533333333,1.1919984,0.7853728871431656,0.7624042621720392,0.7646556283122133,0.7677977839746015
LBP08_S05,LBP08,-1460,166,5,165,-1460,1716493809.6,2024-05-23 19:50:09.600000+00:00,2024-05-24 04:50:09.600000+09:00,2024,5,23,19,50,9,600,,,,,,,,,-0.144287,-0.731445,1.899658,12.084961,-35.27832,-2.685547,,,,,,,,,,,0.0,1.0,1.0,5.0,0.0,0.0,0.0,4.0,0.0,0.06749998666666666,-0.25645513333333336,1.0086295333333333,2.0646159599999994,0.9676106933333327,0.05371096000000047,23.786725089220322,1.595773821695676,-1.020916800609249,6.965580376320236,9.402211003301783,-13.792688087294701,18.08754063998165,-1.306178363937359,17.490301430555093,-1.3023190352458076,-0.21178698666666668,-0.47498986666666665,0.8910284666666668,1.5778053200000002,1.0316980321623745,0.7612272247453081,0.7695873475487622,0.7647913751146087
LBP08_S05,LBP08,-1459,167,5,166,-1459,1716493809.64,2024-05-23 19:50:09.640000+00:00,2024-05-24 04:50:09.640000+09:00,2024,5,23,19,50,9,640,,,,,,,,,0.127686,-0.14917,1.255371,3.417969,118.591309,33.691406,,,,,,,,,,,0.0,1.0,1.0,5.0,0.0,0.0,0.0,4.0,0.0,0.05869465333333334,-0.25205082666666667,1.0054491866666666,1.341145906666666,3.3992513199999994,0.6990560000000005,23.040631643480236,-1.756178731618871,0.4413732446628956,7.887205642059445,9.331963854037028,-13.775033157508185,18.41317736577905,-1.3355672949786699,17.95095536947711,-1.2950114108227082,0.06899134666666665,0.10288082666666667,0.2499218133333334,0.42179398666666673,0.2789358047836785,0.7430249772899857,0.7510472959351229,0.7588631472656789
LBP08_S05,LBP08,-1458,168,5,167,-1458,1716493809.68,2024-05-23 19:50:09.680000+00:00,2024-05-24 04:50:09.680000+09:00,2024,5,23,19,50,9,680,,,,,,,,,-0.509277,-0.149414,-0.111572,15.075684,80.871582,0.732422,,,,,,,,,,,0.0,1.0,1.0,5.0,0.0,0.0,0.0,4.0,0.0,0.061087226666666675,-0.25102544,0.9831803066666667,-0.04964185333333394,1.645507826666666,-0.21809894666666632,22.220510571436307,-4.5474204032460195,1.1656457579303425,8.776026064916898,9.150067037907187,-13.728407327190972,18.687202252653208,-1.3251834695316964,18.327478598740008,-1.2905885825679555,-0.5703642266666666,0.10161144,-1.0947523066666667,1.7667279733333334,1.2385971293168436,0.7675136077165141,0.7573406191704247,0.7653897671343008
LBP08_S05,LBP08,-1457,169,5,168,-1457,1716493809.72,2024-05-23 19:50:09.720000+00:00,2024-05-24 04:50:09.720000+09:00,2024,5,23,19,50,9,720,,,,,,,,,-0.022461,-0.197266,0.186279,46.203613,-70.495605,-20.263672,,,,,,,,,,,0.0,1.0,1.0,5.0,0.0,0.0,0.0,4.0,0.0,0.062216773333333336,-0.23735357333333332,0.96213212,0.686849026666666,0.08544922666666593,-0.8976236799999996,20.88188760964625,-6.574176265003651,1.363680435837634,9.611301569302748,8.88709998730704,-13.673860109757467,18.929662288104634,-1.3076225609481127,18.621785994541064,-1.291101380593074,-0.08467777333333333,0.04008757333333332,-0.7758531200000001,0.9006184666666667,0.7814892210684554,0.7755428803648683,0.7450320672901836,0.7691661740156428
LBP08_S05,LBP08,-1456,170,5,169,-1456,1716493809.76,2024-05-23 19:50:09.760000+00:00,2024-05-24 04:50:09.760000+09:00,2024,5,23,19,50,9,760,,,,,,,,,0.456299,0.062988,0.655273,73.791504,-154.968262,-55.114746,,,,,,,,,,,0.0,1.0,1.0,5.0,0.0,0.0,0.0,4.0,0.0,0.06966144,-0.23977220000000002,0.9575487866666667,0.6127930266666662,-2.3217773333333342,-1.1279296666666663,18.64158324156836,-7.6774829015997845,1.2966078906635965,10.356964898965483,8.580000671243049,-13.621995794130923,19.14267230175178,-1.280521407772498,18.837278565653513,-1.2977512539012985,0.38663756,0.30276020000000003,-0.30227578666666666,0.9916735466666667,0.5766480665984633,0.746834005233857,0.7438514648900335,0.7724008156429405
LBP08_S05,LBP08,-1455,171,5,170,-1455,1716493809.8,2024-05-23 19:50:09.800000+00:00,2024-05-24 04:50:09.800000+09:00,2024,5,23,19,50,9,800,,,,,,,,,0.439941,-0.297119,1.175781,-26.428223,-22.766113,7.873535,,,,,,,,,,,0.0,1.0,1.0,5.0,0.0,0.0,0.0,4.0,0.0,0.07850584000000001,-0.24667324,0.9764713066666667,1.1995443333333327,-2.937011706666667,-0.939127573333333,15.342303635571252,-7.9440133739771035,1.1530887563385155,10.970657044388332,8.262240136283964,-13.575872243877383,19.311246340857682,-1.254575424466111,18.976886526707446,-1.3037425775917197,0.36143516000000003,-0.050445760000000034,0.19930969333333326,0.6111906133333334,0.41581787292374844,0.7340667346352565,0.7435655230900916,0.7673672472330599
LBP08_S05,LBP08,-1454,172,5,171,-1454,1716493809.84,2024-05-23 19:50:09.840000+00:00,2024-05-24 04:50:09.840000+09:00,2024,5,23,19,50,9,840,,,,,,,,,-0.069092,-0.473145,1.592529,27.526855,49.682617,32.226562,,,,,,,,,,,0.0,1.0,1.0,5.0,0.0,0.0,0.0,4.0,0.0,0.07614256,-0.2568262266666667,1.0020604933333335,1.7106120399999993,-1.7285156133333344,-0.24658199999999966,11.124091364046762,-7.778328815925148,1.0106397120737476,11.415620698950203,7.951106983646958,-13.535446655394432,19.40991536222474,-1.2745959386786274,19.042269948995354,-1.3054025276190877,-0.14523456,-0.21631877333333327,0.5904685066666666,0.9520218399999999,0.6453990598691595,0.7241368110707461,0.7471705779869172,0.7652646781609078
LBP08_S05,LBP08,-1453,173,5,172,-1453,1716493809.88,2024-05-23 19:50:09.880000+00:00,2024-05-24 04:50:09.880000+09:00,2024,5,23,19,50,9,880,,,,,,,,,-0.010254,-0.522217,1.996094,8.239746,-25.32959,3.051758,,,,,,,,,,,0.0,1.0,1.0,5.0,0.0,0.0,0.0,4.0,0.0,0.07247068,-0.2590267466666667,1.0199673866666668,2.6953125599999996,1.1645507999999998,0.5566406533333337,6.383884733042159,-7.743513977989166,0.8909669842460706,11.670976088271889,7.641366424527392,-13.49980797602459,19.412546949755097,-1.2904439586020124,19.0342908187503,-1.3013014786317416,-0.08272468,-0.26319025333333335,0.9761266133333333,1.3220415466666666,1.014364652079502,0.7345358687131079,0.7520131134120642,0.7722400577085442
LBP08_S05,LBP08,-1452,174,5,173,-1452,1716493809.92,2024-05-23 19:50:09.920000+00:00,2024-05-24 04:50:09.920000+09:00,2024,5,23,19,50,9,920,,,,,,,,,0.127441,-0.409912,1.334961,-46.142578,90.209961,26.733398,,,,,,,,,,,0.0,1.0,1.0,5.0,0.0,0.0,0.0,4.0,0.0,0.06305010666666666,-0.25665694666666666,1.0174934266666669,2.657063853333333,4.214681013333334,1.3802083733333337,1.6610387076881263,-8.252923266235218,0.8519061459090216,11.737417636579414,7.311249493877983,-13.465731730188228,19.301483698581688,-1.323119407513537,18.95452344896967,-1.2937627407785581,0.06439089333333334,-0.15325505333333334,0.3174675733333332,0.5351135199999999,0.3583559105618643,0.728510790550777,0.7401165641245621,0.7618809693200339
LBP08_S05,LBP08,-1451,175,5,174,-1451,1716493809.96,2024-05-23 19:50:09.960000+00:00,2024-05-24 04:50:09.960000+09:00,2024,5,23,19,50,9,960,,,,,,,,,-0.421143,0.034424,-0.054199,-0.061035,102.050781,12.817383,,,,,,,,,,,0.0,1.0,1.0,5.0,0.0,0.0,0.0,4.0,0.0,0.057470679999999996,-0.25134770666666667,0.9990168666666667,1.7472331199999998,3.2820638266666666,0.840657586666667,-2.4871390966813554,-9.321316208540368,1.0352042412380638,11.63793207271216,6.938396845536368,-13.424323560538705,19.07341806738493,-1.3396179494885732,18.807501851667134,-1.288913259460276,-0.47861368,0.2857717066666667,-1.0532158666666667,1.8176012533333332,1.1916376063269989,0.7488887166862425,0.7590817767681743,0.7664482745310507
LBP08_S05,LBP08,-1450,176,5,175,-1450,1716493810.0,2024-05-23 19:50:10+00:00,2024-05-24 04:50:10+09:00,2024,5,23,19,50,10,0,19.0,50.0,8.0,40.790569,141.606705,7.754,3.0,16.0,-0.052734,-0.33252,0.108398,0.793457,-69.152832,9.58252,-598.0,19.0,597.0,18.0,0.0,1018.599976,20.620001,0.055495,-44.421192,3.860156,0.0,1.0,1.0,5.0,0.0,0.0,0.0,4.0,0.0,0.05994464000000001,-0.24351568,0.9760253333333333,1.5649414399999995,0.9895833599999999,-0.22298173333333304,-5.568251989153651,-10.560115269952874,1.6225537701965678,11.415201993146013,6.515992234738253,-13.359421409730842,18.74137486286075,-1.3227778642110386,18.603310716472507,-1.2877788158159238,-0.11267864000000001,-0.08900431999999997,-0.8676273333333333,1.0693102933333334,0.8794290388871765,0.7576558419440746,0.7512124252355864,0.7697672635610874
LBP08_S05,LBP08,-1449,177,5,176,-1449,1716493810.04,2024-05-23 19:50:10.040000+00:00,2024-05-24 04:50:10.040000+09:00,2024,5,23,19,50,10,40,,,,,,,,,0.456787,0.118896,0.410156,58.837891,-173.76709,-71.533203,,,,,,,,,,,0.0,1.0,1.0,5.0,0.0,0.0,0.0,4.0,0.0,0.06631182666666667,-0.24053065333333337,0.9630403066666667,2.3071289333333325,-1.7325846133333334,-0.7967121999999996,-7.185038147869739,-11.444172750379025,2.7161893710077583,11.127800467231223,6.058225324723091,-13.250773834890532,18.333386063328486,-1.2945568051052092,18.35977983136274,-1.2923889443500858,0.3904751733333333,0.35942665333333335,-0.5528843066666667,1.3027861333333333,0.766380738715671,0.7465419728286163,0.7494512055697132,0.7730996700189335
LBP08_S05,LBP08,-1448,178,5,177,-1448,1716493810.08,2024-05-23 19:50:10.080000+00:00,2024-05-24 04:50:10.080000+09:00,2024,5,23,19,50,10,80,,,,,,,,,0.593262,-0.39917,0.96582,-65.734863,-77.697754,-12.512207,,,,,,,,,,,0.0,1.0,1.0,5.0,0.0,0.0,0.0,4.0,0.0,0.078291,-0.24188808,0.9698274266666668,2.8906250266666658,-4.2260742,-0.7926431999999995,-7.044951918298342,-11.679451991012641,4.218456518614352,10.84600239049929,5.591047245082586,-13.082035574145959,17.88952855484689,-1.24979609099986,18.10318007297782,-1.2966305239987972,0.514971,-0.15728192000000002,-0.004007426666666758,0.6762603466666668,0.5384689338006187,0.7456783949945909,0.7471398159557885,0.7625153423336095
LBP08_S05,LBP08,-1447,179,5,178,-1447,1716493810.12,2024-05-23 19:50:10.120000+00:00,2024-05-24 04:50:10.120000+09:00,2024,5,23,19,50,10,120,,,,,,,,,0.177002,-0.393555,1.457275,21.972656,48.278809,22.521973,,,,,,,,,,,0.0,1.0,1.0,5.0,0.0,0.0,0.0,4.0,0.0,0.07689452000000001,-0.24512376,0.99182612,2.7319336133333323,-3.0721028533333334,-0.03173825333333298,-4.992496342138323,-11.40720116136096,5.800640427798986,10.646302536813756,5.134759198628148,-12.850009957033999,17.459446315079305,-1.2591277477652913,17.86637199168801,-1.2968718839161124,0.10010747999999998,-0.14843124,0.46544888000000006,0.7139876000000001,0.49869429558913386,0.7157139915142747,0.7496739295527823,0.7568637386802813
LBP08_S05,LBP08,-1446,180,5,179,-1446,1716493810.16,2024-05-23 19:50:10.160000+00:00,2024-05-24 04:50:10.160000+09:00,2024,5,23,19,50,10,160,,,,,,,,,-0.145264,-0.627686,1.869629,-4.089355,18.127441,23.803711,,,,,,,,,,,0.0,1.0,1.0,5.0,0.0,0.0,0.0,4.0,0.0,0.07552733333333334,-0.24932624,1.0124478533333332,3.3333333599999997,-0.8911132666666668,0.7617187733333336,-1.0786029032998499,-11.086397617653821,7.0043957583471785,10.603158420681762,4.691303293921995,-12.569834126700112,17.100760949805498,-1.2691769713289773,17.68411058736686,-1.292206686709148,-0.22079133333333334,-0.37835975999999993,0.8571811466666668,1.45633224,0.9626341148448617,0.7233550965346934,0.7560759169616732,0.7668085441276117
LBP08_S05,LBP08,-1445,181,5,180,-1445,1716493810.2,2024-05-23 19:50:10.200000+00:00,2024-05-24 04:50:10.200000+09:00,2024,5,23,19,50,10,200,,,,,,,,,0.212402,-0.32959,1.605225,8.911133,51.269531,25.57373,,,,,,,,,,,0.0,1.0,1.0,5.0,0.0,0.0,0.0,4.0,0.0,0.0680664,-0.25278002666666666,1.0141438266666667,3.6914062799999994,2.0947265733333333,1.2394206000000005,4.358574661773755,-11.13204799761013,7.433581504829768,10.777501407152712,4.246021374017589,-12.27249086650692,16.875937489760048,-1.3006767098077305,17.586628764730385,-1.2828027469657914,0.1443356,-0.07680997333333334,0.5910811733333332,0.8122267466666666,0.613277662156333,0.7289886110104306,0.7452174655729816,0.7606578756986757
LBP08_S05,LBP08,-1444,182,5,181,-1444,1716493810.24,2024-05-23 19:50:10.240000+00:00,2024-05-24 04:50:10.240000+09:00,2024,5,23,19,50,10,240,,,,,,,,,-0.118164,0.013916,0.583496,-22.338867,133.178711,72.143555,,,,,,,,,,,0.0,1.0,1.0,5.0,0.0,0.0,0.0,4.0,0.0,0.061569000000000006,-0.24402026666666662,0.9888801599999999,3.5986328533333327,2.1289062666666667,0.7535807600000003,10.649144171495424,-11.567456935248046,6.930674452859807,11.203467174012529,3.7833230966076674,-11.995263888392529,16.843917778375527,-1.3170117351657409,17.5938294237334,-1.2762109974959475,-0.179733,0.25793626666666664,-0.4053841599999999,0.8430534266666665,0.5130023256573436,0.7238889919891746,0.7501564900396636,0.7606979149492193
LBP08_S05,LBP08,-1443,183,5,182,-1443,1716493810.28,2024-05-23 19:50:10.280000+00:00,2024-05-24 04:50:10.280000+09:00,2024,5,23,19,50,10,280,,,,,,,,,-0.158936,-0.004883,-0.123535,-50.415039,-47.729492,-17.028809,,,,,,,,,,,0.0,1.0,1.0,5.0,0.0,0.0,0.0,4.0,0.0,0.06399086666666666,-0.23007494666666664,0.9633430533333333,2.962239626666666,1.3452148666666666,0.23356122666666693,16.83339487021223,-11.946990926431951,5.63529236259925,11.876802968821018,3.305443459550389,-11.769852193888559,17.044466136856958,-1.2928575577751655,17.712145778387264,-1.2752403530844219,-0.22292686666666667,0.22519194666666664,-1.0868780533333333,1.5349968666666667,1.1321270704046418,0.7393029805960342,0.7492502690142351,0.7676868268488402
