file_name,test_id,_program_index,program_index,session_id,index,_index,unixtime,datetime_utc,datetime_jst,rtc_year,rtc_month,rtc_day,rtc_hour,rtc_min,rtc_sec,rtc_msec,gps_hour,gps_min,gps_sec,latitude,longitude,altitude,fix_type,SIV,acc_x,acc_y,acc_z,gyro_x,gyro_y,gyro_z,mag_x,mag_y,mag_z,illuminance,atmopress,water_pressure,water_temp,depth,alt_wps,battery_level,behavior_class,camera_command,camera_recording,camera_count,play_audio,speaker_on,audio_file,prev_sd_write_time_ms,delay_occurred_counter,acc_x_ma,acc_y_ma,acc_z_ma,gyro_x_ma,gyro_y_ma,gyro_z_ma,gyro_x_lowpass,gyro_y_lowpass,gyro_z_lowpass,angle_x,angle_y,angle_z,combined_angle_change,gravity_adjusted_angle,smoothed_angle_change,smoothed_gravity_angle,acc_x_dy,acc_y_dy,acc_z_dy,ODBA,VeDBA,smoothed_VeDBA_1s,smoothed_VeDBA_2s,smoothed_VeDBA_3s
LBP08_S03,LBP08,0,1,3,0,0,1716492328.0,2024-05-23 19:25:28+00:00,2024-05-24 04:25:28+09:00,2024,5,23,19,25,28,0,19.0,25.0,26.0,40.796246,141.596558,5.594,3.0,17.0,-0.80957,0.287842,-0.462402,24.353027,134.70459,-0.366211,-546.0,43.0,590.0,0.0,0.0,1017.5,21.209999,0.044594,-35.303478,3.9375,0.0,1.0,1.0,3.0,0.0,0.0,0.0,5.0,0.0,,,,,,,25.555895129203602,135.44147033057496,-0.34150928084506466,1.0222358051681442,5.417658813222999,-0.013660371233802586,5.5132730445356,,10.476991500460908,,,,,,,,,
LBP08_S03,LBP08,1,2,3,1,1,1716492328.04,2024-05-23 19:25:28.040000+00:00,2024-05-24 04:25:28.040000+09:00,2024,5,23,19,25,28,40,,,,,,,,,-0.019043,0.186279,0.128906,-11.535645,-82.641602,-54.931641,,,,,,,,,,,0.0,1.0,1.0,3.0,0.0,0.0,0.0,5.0,0.0,,,,,,,16.606482250446664,94.66324774646068,-5.205662968276506,1.6864950951860107,9.204188723081426,-0.22188688996486286,9.360052860327448,,10.841940682806323,,,,,,,,,
LBP08_S03,LBP08,2,3,3,2,2,1716492328.08,2024-05-23 19:25:28.080000+00:00,2024-05-24 04:25:28.080000+09:00,2024,5,23,19,25,28,80,,,,,,,,,0.584229,-0.360352,1.100342,-97.839355,-5.126953,-44.311523,,,,,,,,,,,0.0,1.0,1.0,3.0,0.0,0.0,0.0,5.0,0.0,,,,,,,9.961394135120411,57.33240670453422,-8.482628148595179,2.084950860590827,11.497484991262795,-0.5611920159086701,11.698466467623494,,11.021338854694623,,,,,,,,,
LBP08_S03,LBP08,3,4,3,3,3,1716492328.12,2024-05-23 19:25:28.120000+00:00,2024-05-24 04:25:28.120000+09:00,2024,5,23,19,25,28,120,,,,,,,,,0.128662,-0.361328,1.564453,5.615234,156.738281,-6.04248,,,,,,,,,,,0.0,1.0,1.0,3.0,0.0,0.0,0.0,5.0,0.0,,,,,,,7.023547720992129,26.270446041125858,-9.212286530465066,2.3658927694305123,12.54830283290783,-0.9296834771272727,12.803189600660051,,11.089921302493023,,,,,,,,,
LBP08_S03,LBP08,4,5,3,4,4,1716492328.16,2024-05-23 19:25:28.160000+00:00,2024-05-24 04:25:28.160000+09:00,2024,5,23,19,25,28,160,,,,,,,,,-0.638428,-0.584717,1.795654,-66.894531,-84.655762,-22.521973,,,,,,,,,,,0.0,1.0,1.0,3.0,0.0,0.0,0.0,5.0,0.0,,,,,,,7.928167113246947,3.087352806155279,-7.237743080197594,2.68301945396039,12.67179694515404,-1.2191932003351766,13.009975529157952,,11.107676518955563,,,,,,,,,
LBP08_S03,LBP08,5,6,3,5,5,1716492328.2,2024-05-23 19:25:28.200000+00:00,2024-05-24 04:25:28.200000+09:00,2024,5,23,19,25,28,200,,,,,,,,,0.291016,-0.377441,1.891113,81.176758,-108.154297,-17.63916,,,,,,,,,,,0.0,1.0,1.0,3.0,0.0,0.0,0.0,5.0,0.0,,,,,,,11.58333216123027,-11.911630719115143,-3.24050921992307,3.146352740409601,12.195331716389434,-1.3488135691320995,12.666686594533392,,11.114297273054607,,,,,,,,,
LBP08_S03,LBP08,6,7,3,6,6,1716492328.24,2024-05-23 19:25:28.240000+00:00,2024-05-24 04:25:28.240000+09:00,2024,5,23,19,25,28,240,,,,,,,,,-0.013428,-0.153564,0.331787,71.472168,210.9375,62.805176,,,,,,,,,,,0.0,1.0,1.0,3.0,0.0,0.0,0.0,5.0,0.0,,,,,,,16.128524177475875,-19.49349266216511,1.4727178658481188,3.791493707508636,11.41559200990283,-1.2899048544981748,12.09772788602442,,11.691083393524728,,,,,,,,,
LBP08_S03,LBP08,7,8,3,7,7,1716492328.28,2024-05-23 19:25:28.280000+00:00,2024-05-24 04:25:28.280000+09:00,2024,5,23,19,25,28,280,,,,,,,,,-0.093994,0.184814,-0.261963,70.983887,-64.819336,-25.390625,,,,,,,,,,,0.0,1.0,1.0,3.0,0.0,0.0,0.0,5.0,0.0,,,,,,,19.600110789976974,-21.08421027644948,5.347705132033756,4.575498139107715,10.572223598844852,-1.0759966492168247,11.56999843708183,,11.904662799464656,,,,,,,,,
LBP08_S03,LBP08,8,9,3,8,8,1716492328.32,2024-05-23 19:25:28.320000+00:00,2024-05-24 04:25:28.320000+09:00,2024,5,23,19,25,28,320,,,,,,,,,0.45874,0.043213,0.667969,-7.568359,-98.327637,-0.061035,,,,,,,,,,,0.0,1.0,1.0,3.0,0.0,0.0,0.0,5.0,0.0,,,,,,,20.541123157159685,-18.3457011929509,7.00989941330647,5.397143065394102,9.838395551126816,-0.7956006726845659,11.249718250655867,,11.914779026818085,,,,,,,,,
LBP08_S03,LBP08,9,10,3,9,9,1716492328.36,2024-05-23 19:25:28.360000+00:00,2024-05-24 04:25:28.360000+09:00,2024,5,23,19,25,28,360,,,,,,,,,0.525146,-0.396973,1.258301,-23.071289,18.371582,29.052734,,,,,,,,,,,0.0,1.0,1.0,3.0,0.0,0.0,0.0,5.0,0.0,,,,,,,18.368665404919692,-12.868624111767005,5.6344552738574265,6.13188968159089,9.323650586656136,-0.5702224617302689,11.173884059946024,,11.858271807479017,,,,,,,,,
LBP08_S03,LBP08,10,11,3,10,10,1716492328.4,2024-05-23 19:25:28.400000+00:00,2024-05-24 04:25:28.400000+09:00,2024,5,23,19,25,28,400,,,,,,,,,-0.375732,-0.387695,1.519043,18.798828,81.237793,48.828125,,,,,,,,,,,0.0,1.0,1.0,3.0,0.0,0.0,0.0,5.0,0.0,,,,,,,13.450578292726867,-6.013881840910072,1.1780869476182516,6.669912813299964,9.083095313019733,-0.5230989838255389,11.281134249236793,,11.843838145232873,,,,,,,,,
LBP08_S03,LBP08,11,12,3,11,11,1716492328.44,2024-05-23 19:25:28.440000+00:00,2024-05-24 04:25:28.440000+09:00,2024,5,23,19,25,28,440,,,,,,,,,-0.27832,-0.655273,1.842285,54.504395,-124.755859,-30.395508,,,,,,,,,,,0.0,1.0,1.0,3.0,0.0,0.0,0.0,5.0,0.0,,,,,,,6.944982391444635,1.1312620468921721,-5.582239725051783,6.94771210895775,9.12834579489542,-0.7463885728276102,11.495846919726736,,11.945071923280308,,,,,,,,,
LBP08_S03,LBP08,12,13,3,12,12,1716492328.48,2024-05-23 19:25:28.480000+00:00,2024-05-24 04:25:28.480000+09:00,2024,5,23,19,25,28,480,,,,,,,,,0.420166,-0.240479,1.470947,24.414062,15.197754,-8.239746,,,,,,,,,,,0.0,1.0,1.0,3.0,0.0,0.0,0.0,5.0,0.0,,,,,,,0.4785167125990146,7.73050597860018,-13.224334977862146,6.96685277746171,9.437566034039428,-1.2753619719420959,11.799628741157779,,12.195321019312805,,,,,,,,,
LBP08_S03,LBP08,13,14,3,13,13,1716492328.52,2024-05-23 19:25:28.520000+00:00,2024-05-24 04:25:28.520000+09:00,2024,5,23,19,25,28,520,,,,,,,,,-0.788574,0.267578,-0.211426,-54.6875,123.840332,-12.023926,,,,,,,,,,,0.0,1.0,1.0,3.0,0.0,0.0,0.0,5.0,0.0,,,,,,,-4.275106997192295,13.15283284146861,-20.03568880979738,6.795848497574019,9.963679347698172,-2.076789524333991,12.23811740726937,,12.589868171189767,,,,,,,,,
LBP08_S03,LBP08,14,15,3,14,14,1716492328.56,2024-05-23 19:25:28.560000+00:00,2024-05-24 04:25:28.560000+09:00,2024,5,23,19,25,28,560,,,,,,,,,0.058105,-0.115723,0.102051,1.403809,-87.585449,-57.006836,,,,,,,,,,,0.0,1.0,1.0,3.0,0.0,0.0,0.0,5.0,0.0,,,,,,,-6.041945292858526,16.936787323153162,-24.456877607790336,6.5541706858596775,10.641150840624299,-3.0550646286456047,12.865638906696512,,13.097659557822857,,,,,,,,,
LBP08_S03,LBP08,15,16,3,15,15,1716492328.6,2024-05-23 19:25:28.600000+00:00,2024-05-24 04:25:28.600000+09:00,2024,5,23,19,25,28,600,,,,,,,,,0.658203,0.089111,1.074219,-110.168457,-5.493164,-49.987793,,,,,,,,,,,0.0,1.0,1.0,3.0,0.0,0.0,0.0,5.0,0.0,,,,,,,-4.304645285045589,18.77730466488325,-25.489643795452437,6.381984874457854,11.392243027219628,-4.074650380463702,13.679024375007746,,13.678649642315946,,,,,,,,,
LBP08_S03,LBP08,16,17,3,16,16,1716492328.64,2024-05-23 19:25:28.640000+00:00,2024-05-24 04:25:28.640000+09:00,2024,5,23,19,25,28,640,,,,,,,,,0.137207,-1.078369,1.636719,6.896973,134.155273,-40.710449,,,,,,,,,,,0.0,1.0,1.0,3.0,0.0,0.0,0.0,5.0,0.0,,,,,,,0.5588913494030393,18.534076234081066,-22.949645763601406,6.404340528433975,12.13360607658287,-4.992636211007759,14.600218846349414,,14.297804533781582,,,,,,,,,
LBP08_S03,LBP08,17,18,3,17,17,1716492328.68,2024-05-23 19:25:28.680000+00:00,2024-05-24 04:25:28.680000+09:00,2024,5,23,19,25,28,680,,,,,,,,,-0.494629,-0.824463,1.815186,70.861816,-60.546875,-35.766602,,,,,,,,,,,0.0,1.0,1.0,3.0,0.0,0.0,0.0,5.0,0.0,,,,,,,7.421030326500143,16.25450774978167,-17.483903317521875,6.701181741493981,12.783786386574137,-5.691992343708634,15.515469955851426,,14.928770753825734,,,,,,,,,
LBP08_S03,LBP08,18,19,3,18,18,1716492328.72,2024-05-23 19:25:28.720000+00:00,2024-05-24 04:25:28.720000+09:00,2024,5,23,19,25,28,720,,,,,,,,,0.159668,-0.278564,1.712891,59.936523,-30.273438,7.324219,,,,,,,,,,,0.0,1.0,1.0,3.0,0.0,0.0,0.0,5.0,0.0,,,,,,,14.778428904649779,12.1928529272823,-10.345470615743134,7.292318897679972,13.271500503665429,-6.105811168338359,16.327632116986763,,15.548342894749137,,,,,,,,,
LBP08_S03,LBP08,19,20,3,19,19,1716492328.76,2024-05-23 19:25:28.760000+00:00,2024-05-24 04:25:28.760000+09:00,2024,5,23,19,25,28,760,,,,,,,,,-0.444092,0.229736,-0.068848,24.902344,173.095703,77.209473,,,,,,,,,,,0.0,1.0,1.0,3.0,0.0,0.0,0.0,5.0,0.0,,,,,,,21.191792074100388,6.800151693748889,-3.0044332715620925,8.139990580643987,13.543506571415385,-6.225988499200843,16.983784904876938,,16.129034219906952,,,,,,,,,
LBP08_S03,LBP08,20,21,3,20,20,1716492328.8,2024-05-23 19:25:28.800000+00:00,2024-05-24 04:25:28.800000+09:00,2024,5,23,19,25,28,800,,,,,,,,,-0.048096,0.078857,-0.07373,36.437988,-98.999023,-2.990723,,,,,,,,,,,0.0,1.0,1.0,3.0,0.0,0.0,0.0,5.0,0.0,,,,,,,25.613519130390664,0.6679398462285371,3.2623806143478387,9.164531345859613,13.570224165264527,-6.0954932746269295,17.47268316389314,,16.63703496066182,,,,,,,,,
LBP08_S03,LBP08,21,22,3,21,21,1716492328.84,2024-05-23 19:25:28.840000+00:00,2024-05-24 04:25:28.840000+09:00,2024,5,23,19,25,28,840,,,,,,,,,0.44043,-0.045898,0.7771,-17.028809,-89.111328,-17.76123,,,,,,,,,,,0.0,1.0,1.0,3.0,0.0,0.0,0.0,5.0,0.0,,,,,,,27.510685664271467,-5.570698574604663,7.659590670882533,10.264958772430472,13.34739622228034,-5.789109647791628,17.805509120168253,,17.03740579282255,,,,,,,,,
LBP08_S03,LBP08,22,23,3,22,22,1716492328.88,2024-05-23 19:25:28.880000+00:00,2024-05-24 04:25:28.880000+09:00,2024,5,23,19,25,28,880,,,,,,,,,0.440918,-0.435791,1.287109,13.122559,73.059082,-2.01416,,,,,,,,,,,0.0,1.0,1.0,3.0,0.0,0.0,0.0,5.0,0.0,,,,,,,26.807767952669746,-11.348885787072238,9.963752801330706,11.337269490537262,12.89344079079745,-5.3905595357384,17.99535015039182,,17.301882595295695,,,,,,,,,
LBP08_S03,LBP08,23,24,3,23,23,1716492328.92,2024-05-23 19:25:28.920000+00:00,2024-05-24 04:25:28.920000+09:00,2024,5,23,19,25,28,920,,,,,,,,,-0.665771,-0.355469,1.591064,10.681152,18.615723,49.926758,,,,,,,,,,,0.0,1.0,1.0,3.0,0.0,0.0,0.0,5.0,0.0,,,,,,,23.7442740892847,-16.23350490360409,10.431347401000544,12.287040454108649,12.244100594653286,-4.973305639698379,18.045030658847526,,17.413476424374686,,,,,,,,,
LBP08_S03,LBP08,24,25,3,24,24,1716492328.96,2024-05-23 19:25:28.960000+00:00,2024-05-24 04:25:28.960000+09:00,2024,5,23,19,25,28,960,,,,,,,,,-0.25708,-0.441406,1.70166,63.964844,-140.197754,-27.526855,,,,,,,,,,,0.0,1.0,1.0,3.0,0.0,0.0,0.0,5.0,0.0,,,,,,,18.738803179406904,-19.932035780735323,9.594334002597751,13.036592581284925,11.446819163423873,-4.589532279594469,17.945646314245156,,17.366248830350038,,,,,,,,,
LBP08_S03,LBP08,25,26,3,25,25,1716492329.0,2024-05-23 19:25:29+00:00,2024-05-24 04:25:29+09:00,2024,5,23,19,25,29,0,19.0,25.0,27.0,40.796349,141.596527,6.388,3.0,16.0,0.130371,-0.213379,0.58374,-9.94873,82.397461,30.883789,-549.0,37.0,596.0,0.0,0.0,1017.400024,21.23,0.043603,-34.47438,3.9375,0.0,1.0,1.0,3.0,0.0,0.0,0.0,5.0,0.0,,,,,,,12.298630894612842,-22.262430484151043,8.020902231241754,13.528537817069438,10.556321944057832,-4.268696190344799,17.68273269661505,,17.162570030615534,,,,,,,,,
LBP08_S03,LBP08,26,27,3,26,26,1716492329.04,2024-05-23 19:25:29.040000+00:00,2024-05-24 04:25:29.040000+09:00,2024,5,23,19,25,29,40,,,,,,,,,-0.370361,0.543213,-0.300781,42.541504,20.812988,-21.54541,,,,,,,,,,,0.0,1.0,1.0,3.0,0.0,0.0,0.0,5.0,0.0,,,,,,,4.963304478740637,-23.125031845424385,6.110547233756124,13.727069996219063,9.631320670240855,-4.024274300994554,17.244986871080872,,16.81098696004133,,,,,,,,,
LBP08_S03,LBP08,27,28,3,27,27,1716492329.08,2024-05-23 19:25:29.080000+00:00,2024-05-24 04:25:29.080000+09:00,2024,5,23,19,25,29,80,,,,,,,,,0.045654,-0.146484,0.158203,-39.978027,-125.854492,-53.405762,,,,,,,,,,,0.0,1.0,1.0,3.0,0.0,0.0,0.0,5.0,0.0,,,,,,,-2.7418197085970277,-22.503453284682188,3.98683817515344,13.617397207875182,8.731182538853568,-3.8648007739884163,16.631408246641346,,16.326465117280005,,,,,,,,,
LBP08_S03,LBP08,28,29,3,28,28,1716492329.12,2024-05-23 19:25:29.120000+00:00,2024-05-24 04:25:29.120000+09:00,2024,5,23,19,25,29,120,,,,,,,,,0.430664,-0.217285,0.811523,-23.681641,-37.109375,4.02832,,,,,,,,,,,0.0,1.0,1.0,3.0,0.0,0.0,0.0,5.0,0.0,,,,,,,-10.343484671316586,-20.495345690057857,1.5345816131608563,13.203657821022519,7.911368711251254,-3.803417509461982,15.855356176740289,,15.73250065495667,,,,,,,,,
LBP08_S03,LBP08,29,30,3,29,29,1716492329.16,2024-05-23 19:25:29.160000+00:00,2024-05-24 04:25:29.160000+09:00,2024,5,23,19,25,29,160,,,,,,,,,0.400879,-0.128174,0.942383,-34.790039,58.654785,57.556152,,,,,,,,,,,0.0,1.0,1.0,3.0,0.0,0.0,0.0,5.0,0.0,,,,,,,-17.424961130122707,-17.342461834212617,-1.4204692984045821,12.50665937581761,7.217670237882749,-3.860236281398165,14.946996907531883,,15.06239167975472,,,,,,,,,
LBP08_S03,LBP08,30,31,3,30,30,1716492329.2,2024-05-23 19:25:29.200000+00:00,2024-05-24 04:25:29.200000+09:00,2024,5,23,19,25,29,200,,,,,,,,,-0.686279,-0.5,1.547363,-50.537109,3.417969,45.715332,,,,,,,,,,,0.0,1.0,1.0,3.0,0.0,0.0,0.0,5.0,0.0,,,,,,,-23.573803816868015,-13.423680543563872,-4.86699916304749,11.56370722314289,6.6807230161401945,-4.054916247920064,13.956852458151104,,14.356538365819347,,,,,,,,,
LBP08_S03,LBP08,31,32,3,31,31,1716492329.24,2024-05-23 19:25:29.240000+00:00,2024-05-24 04:25:29.240000+09:00,2024,5,23,19,25,29,240,,,,,,,,,-0.151611,-0.706787,1.848877,85.205078,-146.42334,-22.644043,,,,,,,,,,,0.0,1.0,1.0,3.0,0.0,0.0,0.0,5.0,0.0,,,,,,,-28.289628201348712,-9.204415271598773,-8.43294892229439,10.43212209508894,6.312546405276244,-4.39223420481184,12.96029069255501,,13.655842325837048,,,,,,,,,
LBP08_S03,LBP08,32,33,3,32,32,1716492329.28,2024-05-23 19:25:29.280000+00:00,2024-05-24 04:25:29.280000+09:00,2024,5,23,19,25,29,280,,,,,,,,,0.284668,-0.328613,0.886475,-34.545898,95.458984,13.61084,,,,,,,,,,,0.0,1.0,1.0,3.0,0.0,0.0,0.0,5.0,0.0,,,,,,,-30.92379906693291,-5.15987681333019,-11.395933993985327,9.195170132411624,6.106151332743036,-4.848071564571253,12.055705527158446,,12.99587267788572,,,,,,,,,
LBP08_S03,LBP08,33,34,3,33,33,1716492329.32,2024-05-23 19:25:29.320000+00:00,2024-05-24 04:25:29.320000+09:00,2024,5,23,19,25,29,320,,,,,,,,,-0.647461,-0.142578,-0.200928,-13.183594,57.617188,-47.119141,,,,,,,,,,,0.0,1.0,1.0,3.0,0.0,0.0,0.0,5.0,0.0,,,,,,,-30.7431362550524,-1.691227195876262,-12.899797729675766,7.965444682209528,6.038502244907986,-5.364063473758284,11.343940906828042,,12.40625181248211,-1.641127615925368,,,,,,,,
LBP08_S03,LBP08,34,35,3,34,34,1716492329.36,2024-05-23 19:25:29.360000+00:00,2024-05-24 04:25:29.360000+09:00,2024,5,23,19,25,29,360,,,,,,,,,0.031006,0.095215,0.127197,-75.317383,-84.411621,-74.768066,,,,,,,,,,,0.0,1.0,1.0,3.0,0.0,0.0,0.0,5.0,0.0,,,,,,,-27.155858512687885,0.94083977718551,-12.284613965851035,6.879210341702012,6.076135835995406,-5.855448032392325,10.887113174891436,,11.914118022535973,-1.6162217642394263,,,,,,,,
LBP08_S03,LBP08,35,36,3,35,35,1716492329.4,2024-05-23 19:25:29.400000+00:00,2024-05-24 04:25:29.400000+09:00,2024,5,23,19,25,29,400,,,,,,,,,0.691406,-0.097168,0.882812,-59.204102,-15.991211,-31.555176,,,,,,,,,,,0.0,1.0,1.0,3.0,0.0,0.0,0.0,5.0,0.0,,,,,,,-20.030916493427718,2.6372186733077476,-9.373765905885971,6.077973681964903,6.181624582927716,-6.230398668627764,10.675772296792063,,11.546063427990209,-1.599765742446247,,,,,,,,
LBP08_S03,LBP08,36,37,3,36,36,1716492329.44,2024-05-23 19:25:29.440000+00:00,2024-05-24 04:25:29.440000+09:00,2024,5,23,19,25,29,440,,,,,,,,,0.242676,-0.757568,1.49585,-47.790527,106.140137,16.601562,,,,,,,,,,,0.0,1.0,1.0,3.0,0.0,0.0,0.0,5.0,0.0,,,,,,,-9.9572788825285,3.4330276777817152,-4.580178139409913,5.679682526663763,6.318945690038984,-6.413605794204161,10.645290391567583,,11.323948511025593,-1.5939265153506852,,,,,,,,
LBP08_S03,LBP08,37,38,3,37,37,1716492329.48,2024-05-23 19:25:29.480000+00:00,2024-05-24 04:25:29.480000+09:00,2024,5,23,19,25,29,480,,,,,,,,,-0.454834,-0.95752,1.790771,5.371094,-71.838379,33.508301,,,,,,,,,,,0.0,1.0,1.0,3.0,0.0,0.0,0.0,5.0,0.0,-0.016471333333333334,-0.24177408,0.9162499333333333,-2.6692707999999996,2.470703106666667,-4.207356773333333,1.707964161755984,3.448790779390547,1.2146623151960663,5.748001093134002,6.456897321214607,-6.365019301596318,10.735199592605241,-1.641127615925368,11.255476184596274,-1.5977092249093299,-0.4383626666666667,-0.71574592,0.8745210666666666,2.0286296533333332,1.2121225786064551,1.2121225786064551,1.2121225786064551,1.2121225786064551
LBP08_S03,LBP08,38,39,3,38,38,1716492329.52,2024-05-23 19:25:29.520000+00:00,2024-05-24 04:25:29.520000+09:00,2024,5,23,19,25,29,520,,,,,,,,,0.165039,-0.907959,1.758057,38.635254,-105.224609,16.296387,,,,,,,,,,,0.0,1.0,1.0,3.0,0.0,0.0,0.0,5.0,0.0,-0.0048860533333333345,-0.24638997333333335,0.9245018799999999,-1.590169226666666,-0.3564453333333328,-5.331217453333333,13.06303336848374,2.851075375738565,6.941286442451316,6.270522427873352,6.570940336244149,-6.0873678438982655,10.93401827727893,-1.5913159125534846,11.325395044380775,-1.593810148746285,0.16992505333333333,-0.6615690266666666,0.8335551200000001,1.6650492,1.0776651793916474,1.1448938789990513,1.1448938789990513,1.1448938789990513
LBP08_S03,LBP08,39,40,3,39,39,1716492329.56,2024-05-23 19:25:29.560000+00:00,2024-05-24 04:25:29.560000+09:00,2024,5,23,19,25,29,560,,,,,,,,,-0.032959,-0.144775,0.686279,70.007324,197.021484,62.37793,,,,,,,,,,,0.0,1.0,1.0,3.0,0.0,0.0,0.0,5.0,0.0,0.0009309999999999989,-0.2440787733333333,0.9332030533333333,-1.7513020266666661,-0.04394533333333271,-5.520833333333333,22.09162340841653,1.838738542324015,11.646668412250326,7.154187364210013,6.64448987793711,-5.621501107408252,11.26645096207422,-1.5668536988598887,11.493444607960873,-1.5915122564511124,-0.03389,0.09930377333333332,-0.24692405333333334,0.38011782666666666,0.2682932343776132,0.8526936641252386,0.8526936641252386,0.8526936641252386
LBP08_S03,LBP08,40,41,3,40,40,1716492329.6,2024-05-23 19:25:29.600000+00:00,2024-05-24 04:25:29.600000+09:00,2024,5,23,19,25,29,600,,,,,,,,,-0.149658,-0.022217,-0.212646,29.47998,-14.709473,-18.981934,,,,,,,,,,,0.0,1.0,1.0,3.0,0.0,0.0,0.0,5.0,0.0,-0.0013541600000000014,-0.2496647066666667,0.9384634666666667,-0.26285802666666613,1.1319986800000008,-5.188802093333333,27.145335894078954,0.6451621690115932,14.699673435754606,8.24000079997317,6.670296364697574,-5.033514169978068,11.735703288504961,-1.5764088340639992,11.701563305428934,-1.592555331888958,-0.14830384000000002,0.2274477066666667,-1.1511094666666666,1.5268610133333334,1.1827000855991723,0.935195269493722,0.935195269493722,0.935195269493722
LBP08_S03,LBP08,41,42,3,41,41,1716492329.64,2024-05-23 19:25:29.640000+00:00,2024-05-24 04:25:29.640000+09:00,2024,5,23,19,25,29,640,,,,,,,,,0.099854,-0.020264,0.240234,42.419434,-89.660645,-21.728516,,,,,,,,,,,0.0,1.0,1.0,3.0,0.0,0.0,0.0,5.0,0.0,-0.010325506666666668,-0.2542285066666667,0.9410546133333333,0.3157552533333338,-0.7307942799999994,-4.909667986666666,27.314112307151408,-0.4807702083022711,15.848912429007195,9.332565292259227,6.6510655563654835,-4.399557672817781,12.275567428261825,-1.6128400631439095,11.887622509614584,-1.590358171078698,0.11017950666666666,0.23396450666666668,-0.7008206133333332,1.0449646266666666,0.7470130160459028,0.8975588188041581,0.8975588188041581,0.8975588188041581
LBP08_S03,LBP08,42,43,3,42,42,1716492329.68,2024-05-23 19:25:29.680000+00:00,2024-05-24 04:25:29.680000+09:00,2024,5,23,19,25,29,680,,,,,,,,,0.449707,-0.226807,0.920654,6.408691,-14.587402,-3.356934,,,,,,,,,,,0.0,1.0,1.0,3.0,0.0,0.0,0.0,5.0,0.0,-0.0008430800000000018,-0.24774738666666668,0.9430337866666667,1.8627930133333341,0.02929686666666735,-4.581705746666667,22.585135447430968,-1.3402339782260795,15.16740060217402,10.235970710156465,6.597456197236441,-3.79286164873082,12.754894125003455,-1.5743147679310594,11.998487165062308,-1.5886790601779044,0.45055008,0.02094038666666667,-0.022379786666666734,0.49387025333333345,0.4515913298913094,0.8232309039853499,0.8232309039853499,0.8232309039853499
LBP08_S03,LBP08,43,44,3,43,43,1716492329.72,2024-05-23 19:25:29.720000+00:00,2024-05-24 04:25:29.720000+09:00,2024,5,23,19,25,29,720,,,,,,,,,0.084717,-0.225098,1.41748,-22.399902,87.158203,60.424805,,,,,,,,,,,0.0,1.0,1.0,3.0,0.0,0.0,0.0,5.0,0.0,-0.0016699066666666683,-0.24945637333333331,0.9342707733333333,0.8732096800000005,3.1884765600000007,-3.871256533333333,13.783876132133562,-1.8664687869160776,12.957844362836825,10.787325755441808,6.522797445759798,-3.274547874217347,13.024436542629015,-1.5777249026800761,11.99622862551282,-1.5857381650049023,0.08638690666666667,0.024358373333333322,0.48320922666666677,0.5939545066666667,0.49147450059049813,0.7758371320717997,0.7758371320717997,0.7758371320717997
LBP08_S03,LBP08,44,45,3,44,44,1716492329.76,2024-05-23 19:25:29.760000+00:00,2024-05-24 04:25:29.760000+09:00,2024,5,23,19,25,29,760,,,,,,,,,-0.486328,-0.966064,1.634033,-8.300781,-70.739746,18.127441,,,,,,,,,,,0.0,1.0,1.0,3.0,0.0,0.0,0.0,5.0,0.0,-0.006972640000000002,-0.2482649733333333,0.9297362666666668,0.1944987466666671,0.6274414000000007,-5.1944987199999995,2.359844299207033,-2.162759061037617,9.669525184157749,10.88171952741009,6.436287083318293,-2.8877668668510372,12.968300149572055,-1.5998568599538787,11.857603989974304,-1.5870074757155792,-0.47935536,-0.7177990266666667,0.7042967333333333,1.90145112,1.1140246372627258,0.8181105702206655,0.8181105702206655,0.8181105702206655
LBP08_S03,LBP08,45,46,3,45,45,1716492329.8,2024-05-23 19:25:29.800000+00:00,2024-05-24 04:25:29.800000+09:00,2024,5,23,19,25,29,800,,,,,,,,,0.210938,-0.209229,1.603027,74.829102,-84.411621,-8.544922,,,,,,,,,,,0.0,1.0,1.0,3.0,0.0,0.0,0.0,5.0,0.0,-0.00047524000000000123,-0.24759113333333332,0.9426431733333334,-0.07649734666666622,0.7486979066666675,-5.240071639999999,-9.904938680186559,-2.4634378224131708,5.827811514918522,10.485521980202627,6.337749570421766,-2.6546544062542963,12.536364338648548,-1.5727808845966185,11.571872237186156,-1.5885395969971987,0.21141323999999997,0.038362133333333326,0.6603838266666666,0.9101592,0.6944595091465678,0.8043715634346547,0.8043715634346547,0.8043715634346547
LBP08_S03,LBP08,46,47,3,46,46,1716492329.84,2024-05-23 19:25:29.840000+00:00,2024-05-24 04:25:29.840000+09:00,2024,5,23,19,25,29,840,,,,,,,,,-0.253662,0.202881,0.224365,-15.380859,172.668457,6.469727,,,,,,,,,,,0.0,1.0,1.0,3.0,0.0,0.0,0.0,5.0,0.0,-0.0006933333333333346,-0.25936522666666667,0.9514192133333333,-1.5958658399999996,1.8212890533333344,-5.275065133333333,-21.21417798414278,-3.0286402810305506,1.9557148963816966,9.636954860836916,6.216603959180544,-2.5764258103990283,11.753936946044833,-1.5735670620707614,11.14137911791133,-1.5938505450620295,-0.2529686666666667,0.4622462266666667,-0.7270542133333333,1.4422691066666666,0.8979268063202226,0.8137270877232116,0.8137270877232116,0.8137270877232116
LBP08_S03,LBP08,47,48,3,47,47,1716492329.88,2024-05-23 19:25:29.880000+00:00,2024-05-24 04:25:29.880000+09:00,2024,5,23,19,25,29,880,,,,,,,,,-0.208496,0.165527,-0.22876,-114.746094,-37.719727,-19.714355,,,,,,,,,,,0.0,1.0,1.0,3.0,0.0,0.0,0.0,5.0,0.0,-0.010065066666666669,-0.25435220000000003,0.9561913466666666,-0.694173133333333,2.336425773333334,-5.594889346666666,-30.074569915020408,-4.015600403837812,-1.512250447196461,8.4339720642361,6.055979943027031,-2.6369158282868868,10.712614197110364,-1.6117186641953474,10.584302140385748,-1.5912008114559038,-0.1984309333333333,0.4198792,-1.1849513466666666,1.8032614799999998,1.272706985862545,0.8554525330086055,0.8554525330086055,0.8554525330086055
LBP08_S03,LBP08,48,49,3,48,48,1716492329.92,2024-05-23 19:25:29.920000+00:00,2024-05-24 04:25:29.920000+09:00,2024,5,23,19,25,29,920,,,,,,,,,0.216064,-0.443359,0.546875,-98.693848,-87.524414,-29.35791,,,,,,,,,,,0.0,1.0,1.0,3.0,0.0,0.0,0.0,5.0,0.0,-0.008238906666666667,-0.25665364,0.9611067066666668,-1.100260373333333,0.5777994666666675,-6.25488284,-35.564282332305346,-5.386963517838805,-4.294406608944428,7.011400770943886,5.840501402313479,-2.8086920926446637,9.547771921893762,-1.6040090196602552,9.935189104946641,-1.5900728911156752,0.22430290666666666,-0.18670536,-0.41423170666666675,0.8252399733333334,0.5067135208377851,0.8263909486610371,0.8263909486610371,0.8263909486610371
LBP08_S03,LBP08,49,50,3,49,49,1716492329.96,2024-05-23 19:25:29.960000+00:00,2024-05-24 04:25:29.960000+09:00,2024,5,23,19,25,29,960,,,,,,,,,0.428711,0.044678,0.991943,53.894043,20.446777,-0.610352,,,,,,,,,,,0.0,1.0,1.0,3.0,0.0,0.0,0.0,5.0,0.0,-0.0027799200000000004,-0.25266926666666667,0.9571223333333332,-0.816243453333333,2.6847330533333342,-5.265299506666666,-37.471803911999494,-6.89795726927311,-6.271946043988553,5.512528614463906,5.564583111542555,-3.0595699344042058,8.409133434192738,-1.582174911676082,9.241013481086132,-1.5890775604776555,0.43149092,0.29734726666666667,0.03482066666666683,0.7636588533333335,0.5251783410077907,0.8032207480723259,0.8032207480723259,0.8032207480723259
LBP08_S03,LBP08,50,51,3,50,50,1716492330.0,2024-05-23 19:25:30+00:00,2024-05-24 04:25:30+09:00,2024,5,23,19,25,30,0,19.0,25.0,28.0,40.796452,141.596497,6.963,3.0,16.0,0.010742,-0.642822,1.592041,-33.813477,79.284668,50.354004,-546.0,40.0,592.0,13.0,0.0,1017.299988,21.27,0.042612,-33.644714,3.9375,0.0,1.0,1.0,3.0,0.0,0.0,0.0,5.0,0.0,-0.014143853333333333,-0.24884113333333333,0.9401334000000001,-0.9969075066666665,4.193522120000001,-4.606933626666667,-36.24748193717246,-8.155016329116792,-7.440655537317303,4.0626293369770075,5.238382458377883,-3.357196155896898,7.43077209575669,-1.6295183147123051,8.554839394307049,-1.589010225709625,0.024885853333333333,-0.39398086666666665,0.6519075999999999,1.07077432,0.7621179357115969,0.8002848329037023,0.8002848329037023,0.8002848329037023
LBP08_S03,LBP08,51,52,3,51,51,1716492330.04,2024-05-23 19:25:30.040000+00:00,2024-05-24 04:25:30.040000+09:00,2024,5,23,19,25,30,40,,,,,,,,,-0.465088,-0.414307,1.770264,-64.697266,-99.243164,-10.742188,,,,,,,,,,,0.0,1.0,1.0,3.0,0.0,0.0,0.0,5.0,0.0,-0.003863906666666668,-0.2575748533333333,0.94550124,-0.1277668799999997,1.4111328000000007,-4.81526696,-32.792014647454494,-8.71011494763196,-7.839879599041338,2.7509487510788277,4.889977860472604,-3.6707913398585514,6.704797653006012,-1.5863427270826536,7.929981420410525,-1.5897023278622182,-0.4612240933333333,-0.15673214666666668,0.82476276,1.442719,0.9578759002880877,0.8107909040626614,0.8107909040626614,0.8107909040626614
LBP08_S03,LBP08,52,53,3,52,52,1716492330.08,2024-05-23 19:25:30.080000+00:00,2024-05-24 04:25:30.080000+09:00,2024,5,23,19,25,30,80,,,,,,,,,0.241943,-0.281494,1.682373,-9.887695,-80.322266,-41.687012,,,,,,,,,,,0.0,1.0,1.0,3.0,0.0,0.0,0.0,5.0,0.0,0.001884799999999999,-0.25113278666666666,0.9538964133333333,0.6111654000000002,1.1043294133333341,-4.737141960000001,-28.170049502445,-8.159943953742976,-7.51081786286216,1.6241467709810278,4.563580102322885,-3.971224054373038,6.2637637706124005,-1.5630355645287743,7.41555609181102,-1.5900046763842441,0.2400582,-0.03036121333333336,0.7284765866666666,0.998896,0.7676118029211312,0.8080922102413157,0.8080922102413157,0.8080922102413157
LBP08_S03,LBP08,53,54,3,53,53,1716492330.12,2024-05-23 19:25:30.120000+00:00,2024-05-24 04:25:30.120000+09:00,2024,5,23,19,25,30,120,,,,,,,,,-0.276611,0.124512,0.135986,-32.043457,160.15625,-3.662109,,,,,,,,,,,0.0,1.0,1.0,3.0,0.0,0.0,0.0,5.0,0.0,0.0007747733333333325,-0.265804,0.9589061733333334,1.4949544666666672,1.0237630000000006,-4.026692746666667,-23.33701111678137,-6.225771373219137,-6.5100069740498245,0.690666326309773,4.31454924739412,-4.231624333335031,6.0826803040239215,-1.5677715962998768,7.052974118451409,-1.5873632745495752,-0.2773857733333333,0.390316,-0.8229201733333333,1.4906219466666666,0.9520961394642322,0.8165630296073696,0.8165630296073696,0.8165630296073696
LBP08_S03,LBP08,54,55,3,54,54,1716492330.16,2024-05-23 19:25:30.160000+00:00,2024-05-24 04:25:30.160000+09:00,2024,5,23,19,25,30,160,,,,,,,,,0.027344,-0.520264,0.265625,7.019043,-68.115234,7.263184,,,,,,,,,,,0.0,1.0,1.0,3.0,0.0,0.0,0.0,5.0,0.0,-0.007093066666666667,-0.2587109066666667,0.9597525199999999,1.8969726933333337,0.00488280000000079,-3.068847693333333,-18.93839982343904,-2.8005227670148787,-4.957840551679812,-0.0668696666277886,4.202528336713525,-4.429937955402223,6.106559281781212,-1.599183512273577,6.872720096374745,-1.5857391349679562,0.03443706666666667,-0.26155309333333326,-0.6941275199999999,0.9901176799999998,0.7425691524795451,0.8124522586558238,0.8124522586558238,0.8124522586558238
LBP08_S03,LBP08,55,56,3,55,55,1716492330.2,2024-05-23 19:25:30.200000+00:00,2024-05-24 04:25:30.200000+09:00,2024,5,23,19,25,30,200,,,,,,,,,0.401855,0.205811,0.849609,39.428711,-44.189453,-26.611328,,,,,,,,,,,0.0,1.0,1.0,3.0,0.0,0.0,0.0,5.0,0.0,-0.0021646800000000004,-0.25128902666666664,0.9578124133333333,2.6383464000000005,0.5517578000000007,-2.476399773333333,-15.223542321821494,2.025508643222735,-3.0790655378920673,-0.6758113595006484,4.283548682442434,-4.553100576917906,6.2877845996833095,-1.5797019061225483,6.891244519881208,-1.5862391936221742,0.40401968,0.4571000266666666,-0.10820341333333339,0.96932312,0.6195807573375354,0.8023011270074928,0.8023011270074928,0.8023011270074928
LBP08_S03,LBP08,56,57,3,56,56,1716492330.24,2024-05-23 19:25:30.240000+00:00,2024-05-24 04:25:30.240000+09:00,2024,5,23,19,25,30,240,,,,,,,,,0.510498,-0.370117,1.218018,-55.114746,68.42041,0.183105,,,,,,,,,,,0.0,1.0,1.0,3.0,0.0,0.0,0.0,5.0,0.0,-0.001412733333333334,-0.25227861333333335,0.9492316800000001,1.7529297333333338,2.568359373333334,-2.176920613333333,-12.099486139436074,7.942170330157784,-1.2035555319982472,-1.1597908050780914,4.601235495648745,-4.601242798197836,6.609683660049782,-1.576590547291022,7.1088489037821505,-1.5824741131210218,0.5119107333333334,-0.11783838666666663,0.2687863199999999,0.89853544,0.5900716652180618,0.7916896539180213,0.7916896539180213,0.7916896539180213
LBP08_S03,LBP08,57,58,3,57,57,1716492330.28,2024-05-23 19:25:30.280000+00:00,2024-05-24 04:25:30.280000+09:00,2024,5,23,19,25,30,280,,,,,,,,,-0.728027,0.01123,1.602783,-38.391113,37.658691,25.024414,,,,,,,,,,,0.0,1.0,1.0,3.0,0.0,0.0,0.0,5.0,0.0,-0.003538386666666667,-0.25236649333333333,0.9476984799999999,1.758626346666667,1.4778645866666675,-3.5546875466666665,-9.308374382793684,14.407580495806984,0.2804185111077503,-1.5321257803898387,5.177538715481025,-4.5900260577535255,7.0867944635142655,-1.5853046458486573,7.510175025786241,-1.5811751954973259,-0.7244886133333334,0.26359649333333335,0.6550845200000002,1.6431696266666669,1.01168304843509,0.8021655298474056,0.8021655298474056,0.8021655298474056
LBP08_S03,LBP08,58,59,3,58,58,1716492330.32,2024-05-23 19:25:30.320000+00:00,2024-05-24 04:25:30.320000+09:00,2024,5,23,19,25,30,320,,,,,,,,,-0.258789,-0.613037,2.025146,-26.184082,-137.939453,-40.893555,,,,,,,,,,,0.0,1.0,1.0,3.0,0.0,0.0,0.0,5.0,0.0,-0.004163386666666667,-0.25389969333333334,0.9501789466666668,-0.15787755999999964,1.4469401066666674,-3.9672851999999996,-6.651340288459265,20.677339432750358,1.0087396243593039,-1.7981793919282092,6.004632292791039,-4.549676472779153,7.745231701127116,-1.5877676238440643,8.06807229332855,-1.5811453364056685,-0.25462561333333333,-0.3591373066666667,1.074967053333333,1.6887299733333332,1.161622991231369,0.8185045053648584,0.8185045053648584,0.8185045053648584
LBP08_S03,LBP08,59,60,3,59,59,1716492330.36,2024-05-23 19:25:30.360000+00:00,2024-05-24 04:25:30.360000+09:00,2024,5,23,19,25,30,360,,,,,,,,,0.370605,-0.602783,1.315674,-25.45166,78.308105,33.02002,,,,,,,,,,,0.0,1.0,1.0,3.0,0.0,0.0,0.0,5.0,0.0,-0.004117813333333334,-0.2606542533333333,0.9508723066666666,0.28320317333333367,1.358235680000001,-3.8891601999999996,-4.148925101882101,25.90376098396616,0.7350694979100044,-1.9641363960034932,7.040782732149686,-4.520273692862753,8.594377669257376,-1.5871754982182642,8.74934239160184,-1.5804195183162537,0.37472281333333335,-0.34212874666666665,0.36480169333333345,1.0816532533333336,0.6249396303540206,0.8100886412339525,0.8100886412339525,0.8100886412339525
LBP08_S03,LBP08,60,61,3,60,60,1716492330.4,2024-05-23 19:25:30.400000+00:00,2024-05-24 04:25:30.400000+09:00,2024,5,23,19,25,30,400,,,,,,,,,-0.734375,-0.035889,-0.140381,15.991211,190.551758,39.001465,,,,,,,,,,,0.0,1.0,1.0,3.0,0.0,0.0,0.0,5.0,0.0,-0.005247373333333334,-0.2580500933333333,0.9479849466666667,-0.03987625333333298,0.4191080800000007,-3.627929733333333,-2.0582996182722066,29.306049116650488,-0.5963731386063882,-2.0464683807343813,8.213024696815705,-4.544128618407009,9.606815934766102,-1.591867509700781,9.519357870178125,-1.5772835875617042,-0.7291276266666666,0.22216109333333328,-1.0883659466666666,2.0396546666666664,1.3287298751903103,0.8316986926488007,0.8316986926488007,0.8316986926488007
LBP08_S03,LBP08,61,62,3,61,61,1716492330.44,2024-05-23 19:25:30.440000+00:00,2024-05-24 04:25:30.440000+09:00,2024,5,23,19,25,30,440,,,,,,,,,0.020264,-0.033203,0.185303,38.635254,-59.143066,-28.259277,,,,,,,,,,,0.0,1.0,1.0,3.0,0.0,0.0,0.0,5.0,0.0,-0.0006379999999999994,-0.2586230133333334,0.9471093066666666,-0.08951817333333299,0.503743493333334,-3.690592493333333,-0.7473111384007084,30.358505454699813,-2.8289066233235114,-2.0763608262704096,9.427364915003697,-4.657284883339949,10.71805887304692,-1.5733535508456935,10.343828443289842,-1.5764160753682928,0.020902,0.22542001333333336,-0.7618063066666666,1.00812832,0.7947326121987869,0.8302200494308001,0.8302200494308001,0.8302200494308001
LBP08_S03,LBP08,62,63,3,62,62,1716492330.48,2024-05-23 19:25:30.480000+00:00,2024-05-24 04:25:30.480000+09:00,2024,5,23,19,25,30,480,,,,,,,,,0.448486,0.158203,0.768066,8.544922,-21.118164,-57.312012,,,,,,,,,,,0.0,1.0,1.0,3.0,0.0,0.0,0.0,5.0,0.0,0.001988946666666667,-0.25563147999999997,0.9460741466666666,-0.7120767733333331,1.5527343733333343,-3.357747453333333,-0.5028274940442372,28.90873697685578,-5.633928766830268,-2.096473926032179,10.583714394077928,-4.88264203401316,11.842736446035488,-1.562736973612201,11.188453489112081,-1.5760879379656527,0.44649705333333334,0.41383448,-0.17800814666666653,1.03833968,0.6342755676769533,0.8071061689936201,0.8226837232094983,0.8226837232094983
LBP08_S03,LBP08,63,64,3,63,63,1716492330.52,2024-05-23 19:25:30.520000+00:00,2024-05-24 04:25:30.520000+09:00,2024,5,23,19,25,30,520,,,,,,,,,0.47583,-0.371826,1.45874,25.939941,93.75,8.972168,,,,,,,,,,,0.0,1.0,1.0,3.0,0.0,0.0,0.0,5.0,0.0,0.002542333333333334,-0.25609697333333337,0.94769524,-0.6420897999999997,1.7447916666666674,-3.4920247999999994,-1.3787203841204467,25.176863286201474,-8.593311121569284,-2.151622741396997,11.590788925525986,-5.226374478875932,12.89538128675683,-1.5605134154057292,12.018381930212955,-1.5748386060845903,0.47328766666666666,-0.11572902666666662,0.5110447599999999,1.1000614533333333,0.7060886415709073,0.7922431074807905,0.8183653868525135,0.8183653868525135
LBP08_S03,LBP08,64,65,3,64,64,1716492330.56,2024-05-23 19:25:30.560000+00:00,2024-05-24 04:25:30.560000+09:00,2024,5,23,19,25,30,560,,,,,,,,,-0.599365,-0.478271,1.683105,-51.208496,2.685547,37.841797,,,,,,,,,,,0.0,1.0,1.0,3.0,0.0,0.0,0.0,5.0,0.0,0.0007487066666666683,-0.2612695066666667,0.9496158133333333,-1.5755207866666665,2.3803710933333337,-3.5164388666666664,-3.153375540062594,19.66502624753208,-11.285588431874691,-2.2777577629995007,12.37738997542727,-5.677798016150919,13.80671406754407,-1.5678242047280802,12.799231761918225,-1.5699672513213738,-0.6001137066666667,-0.2170014933333333,0.7334891866666667,1.5506043866666668,0.9722306804431915,0.8204006053234135,0.8238605759093234,0.8238605759093234
LBP08_S03,LBP08,65,66,3,65,65,1716492330.6,2024-05-23 19:25:30.600000+00:00,2024-05-24 04:25:30.600000+09:00,2024,5,23,19,25,30,600,,,,,,,,,-0.037598,-0.46167,1.724365,-36.865234,-89.660645,-43.457031,,,,,,,,,,,0.0,1.0,1.0,3.0,0.0,0.0,0.0,5.0,0.0,-5.858666666666581e-05,-0.2638281066666667,0.95061516,-1.5852864133333329,2.933756506666667,-3.1339518799999997,-5.394063308703211,13.04175397601602,-13.356931826609962,-2.493520295347629,12.899060134467911,-6.212075289215317,14.53249033080048,-1.571026784188436,13.500376467660157,-1.5646611427687045,-0.037539413333333334,-0.19784189333333335,0.7737498399999999,1.0091311466666666,0.7995245069484452,0.8050735821773846,0.823021401117569,0.823021401117569
LBP08_S03,LBP08,66,67,3,66,66,1716492330.64,2024-05-23 19:25:30.640000+00:00,2024-05-24 04:25:30.640000+09:00,2024,5,23,19,25,30,640,,,,,,,,,0.167236,-0.171875,0.644531,6.164551,122.253418,14.526367,,,,,,,,,,,0.0,1.0,1.0,3.0,0.0,0.0,0.0,5.0,0.0,-0.0006380133333333323,-0.26353188,0.94779616,-0.5680337999999998,2.01822916,-3.6027018799999997,-7.566943918857101,6.045347728265055,-14.587526646120978,-2.7961980521019134,13.140874043598513,-6.795576355060156,15.055934118272182,-1.5733091732646205,14.099636980274193,-1.5589250594785817,0.16787401333333332,0.09165688,-0.30326516000000003,0.5627960533333334,0.35854208298859447,0.789534744855092,0.8075387571799364,0.8075387571799364
LBP08_S03,LBP08,67,68,3,67,67,1716492330.68,2024-05-23 19:25:30.680000+00:00,2024-05-24 04:25:30.680000+09:00,2024,5,23,19,25,30,680,,,,,,,,,-0.356201,-0.003174,-0.17627,8.117676,45.532227,-34.179688,,,,,,,,,,,0.0,1.0,1.0,3.0,0.0,0.0,0.0,5.0,0.0,-0.000507799999999999,-0.26142576,0.9475096933333333,0.24251308000000024,1.0400390533333335,-4.263509173333333,-9.12771173272933,-0.5876126512214925,-14.962188063599998,-3.1613065214110865,13.117369537549653,-7.394063877604156,15.386078874522983,-1.5728113270380324,14.587585114324593,-1.5530845123794579,-0.3556932,0.25825176,-1.1237796933333333,1.7377246533333333,1.206686547210044,0.8197385535478415,0.820414492342198,0.820414492342198
LBP08_S03,LBP08,68,69,3,68,68,1716492330.72,2024-05-23 19:25:30.720000+00:00,2024-05-24 04:25:30.720000+09:00,2024,5,23,19,25,30,720,,,,,,,,,-0.053711,-0.041748,0.169678,13.916016,-89.782715,-58.410645,,,,,,,,,,,0.0,1.0,1.0,3.0,0.0,0.0,0.0,5.0,0.0,0.007812506666666668,-0.2548046666666667,0.9457811866666667,-0.09765619999999994,1.575520826666667,-4.297688866666666,-9.574421382207452,-6.191184649038607,-14.721109994302815,-3.5442833766993846,12.869722151588109,-7.982908277376268,15.553730018179811,-1.539054076211901,14.970075555899461,-1.5488070366686504,-0.06152350666666667,0.21305666666666667,-0.7761031866666667,1.05068336,0.8071644451026255,0.8323661513283267,0.8200004283659614,0.8200004283659614
LBP08_S03,LBP08,69,70,3,69,69,1716492330.76,2024-05-23 19:25:30.760000+00:00,2024-05-24 04:25:30.760000+09:00,2024,5,23,19,25,30,760,,,,,,,,,0.45166,-0.076904,0.770996,-2.197266,-63.232422,-34.851074,,,,,,,,,,,0.0,1.0,1.0,3.0,0.0,0.0,0.0,5.0,0.0,0.009046226666666666,-0.2553417733333333,0.9443814399999998,-2.2827147866666664,2.9549153599999998,-4.108886786666666,-8.49260411576653,-10.251997186331979,-14.339834815037714,-3.883987541330046,12.45964226413483,-8.556501669977777,15.605824726676717,-1.5341144126915693,15.268440595089526,-1.5463214856492709,0.44261377333333335,0.1784377733333333,-0.17338543999999978,0.7944369866666664,0.5077494481538339,0.8081151437639709,0.8105382774504424,0.8105382774504424
LBP08_S03,LBP08,70,71,3,70,70,1716492330.8,2024-05-23 19:25:30.800000+00:00,2024-05-24 04:25:30.800000+09:00,2024,5,23,19,25,30,800,,,,,,,,,0.305176,-0.369629,1.038574,-29.785156,28.503418,2.258301,,,,,,,,,,,0.0,1.0,1.0,3.0,0.0,0.0,0.0,5.0,0.0,0.009199226666666668,-0.2627962,0.9546548666666669,-2.6700845866666665,1.82942708,-4.170735746666666,-5.627871822141986,-12.477007760934889,-14.399433046972728,-4.109102414215726,11.960561953697434,-9.132478991856686,15.599421060906453,-1.5345066767995552,15.517029253778734,-1.5412314680398462,0.29597677333333333,-0.1068328,0.08391913333333323,0.48672870666666657,0.32566534732462576,0.7933633772910933,0.7962773089173301,0.7962773089173301
LBP08_S03,LBP08,71,72,3,71,71,1716492330.84,2024-05-23 19:25:30.840000+00:00,2024-05-24 04:25:30.840000+09:00,2024,5,23,19,25,30,840,,,,,,,,,-0.482666,-0.328857,1.421631,-30.456543,46.386719,44.189453,,,,,,,,,,,0.0,1.0,1.0,3.0,0.0,0.0,0.0,5.0,0.0,0.014153653333333335,-0.2623404666666667,0.9642935466666666,-2.6424153066666665,3.0403645733333335,-3.1347656933333328,-0.9833026470598056,-12.800706227467904,-15.364075217304975,-4.148434520098118,11.448533704598718,-9.747042000548886,15.597540213550936,-1.514948079854455,15.757907639682639,-1.532498266767497,-0.49681965333333333,-0.0665165333333333,0.45733745333333353,1.02067364,0.6785364863928519,0.7845877644939984,0.7929132854166306,0.7929132854166306
LBP08_S03,LBP08,72,73,3,72,72,1716492330.88,2024-05-23 19:25:30.880000+00:00,2024-05-24 04:25:30.880000+09:00,2024,5,23,19,25,30,880,,,,,,,,,-0.13623,-0.333496,1.517822,48.950195,-83.80127,-22.338867,,,,,,,,,,,0.0,1.0,1.0,3.0,0.0,0.0,0.0,5.0,0.0,0.01306316,-0.2663736666666667,0.9629035733333334,-1.6959634799999999,3.4431966,-2.6456706533333327,5.102251904681346,-11.328298743830295,-17.353470983397884,-3.9443444439108646,10.995401754845506,-10.441180839884801,15.667640861784125,-1.519962216504125,16.0334389351602,-1.5256987804166364,-0.14929315999999998,-0.06712233333333334,0.5549184266666666,0.7713339199999999,0.5785570978815361,0.7568217689747582,0.7869589468739893,0.7869589468739893
LBP08_S03,LBP08,73,74,3,73,73,1716492330.92,2024-05-23 19:25:30.920000+00:00,2024-05-24 04:25:30.920000+09:00,2024,5,23,19,25,30,920,,,,,,,,,0.151611,-0.376465,0.922852,-40.95459,40.95459,20.935059,,,,,,,,,,,0.0,1.0,1.0,3.0,0.0,0.0,0.0,5.0,0.0,0.008899746666666666,-0.26248044000000004,0.9586067066666667,-0.04150383999999993,2.3974609200000003,-2.958984453333333,11.94705626007251,-8.265231359843078,-20.028177522125745,-3.4664621935079643,10.664792500451783,-11.24230794076983,15.879031678657519,-1.5356579052119341,16.378701133700595,-1.5173697623713507,0.14271125333333334,-0.11398455999999996,-0.03575470666666669,0.29245052,0.1861112054530404,0.7439976763593683,0.7707198187274771,0.7707198187274771
LBP08_S03,LBP08,74,75,3,74,74,1716492330.96,2024-05-23 19:25:30.960000+00:00,2024-05-24 04:25:30.960000+09:00,2024,5,23,19,25,30,960,,,,,,,,,-0.536377,-0.069092,-0.073242,13.122559,52.55127,-28.442383,,,,,,,,,,,0.0,1.0,1.0,3.0,0.0,0.0,0.0,5.0,0.0,0.013431000000000004,-0.25799802666666666,0.9536945866666665,-0.7250975999999998,0.23763018666666683,-3.2942709066666667,18.616620237505092,-3.887534309637113,-22.66447620513163,-2.7217973840077603,10.509291128066298,-12.148886988975095,16.292600654436136,-1.5169240286338337,16.815916558275617,-1.5125676885337234,-0.549808,0.18890602666666667,-1.0269365866666664,1.765650613333333,1.1800733353523292,0.7701934761331498,0.781492279691289,0.781492279691289
LBP08_S03,LBP08,75,76,3,75,75,1716492331.0,2024-05-23 19:25:31+00:00,2024-05-24 04:25:31+09:00,2024,5,23,19,25,31,0,19.0,25.0,29.0,40.796558,141.596466,7.137,3.0,16.0,0.059326,-0.05835,0.156494,105.285645,-77.331543,-84.655762,-543.0,44.0,590.0,0.0,0.0,1017.299988,21.32,0.042612,-33.644714,3.9375,0.0,1.0,1.0,3.0,0.0,0.0,0.0,6.0,0.0,0.020976573333333335,-0.24822262666666664,0.95006504,-1.1100259866666664,1.9807942533333334,-3.555501373333333,24.098903017743766,1.4307669112970065,-24.402594059361526,-1.7578412632980096,10.566521804518178,-13.124990751349555,16.94127418983952,-1.4836947714649444,17.351995399405688,-1.5090756133483882,0.03834942666666666,0.18987262666666666,-0.79357104,1.0217930933333332,0.816870423267756,0.7723835756353963,0.7823994115778651,0.7823994115778651
LBP08_S03,LBP08,76,77,3,76,76,1716492331.04,2024-05-23 19:25:31.040000+00:00,2024-05-24 04:25:31.040000+09:00,2024,5,23,19,25,31,40,,,,,,,,,0.417236,0.359619,0.781494,-23.620605,-59.204102,-69.152832,,,,,,,,,,,0.0,1.0,1.0,3.0,0.0,0.0,0.0,6.0,0.0,0.015426440000000001,-0.24277341333333335,0.9500422533333334,-2.4902343199999994,2.9850260133333335,-3.73860684,27.52028604799478,7.164552555257745,-24.560439387733165,-0.6570298213782184,10.853103906728489,-14.107408326858883,17.81124707304777,-1.505314309756014,17.978972000539436,-1.5057781312134773,0.40180956,0.6023924133333334,-0.16854825333333334,1.1727502266666667,0.7434622087575593,0.763807027974175,0.7814259815073574,0.7814259815073574
LBP08_S03,LBP08,77,78,3,77,77,1716492331.08,2024-05-23 19:25:31.080000+00:00,2024-05-24 04:25:31.080000+09:00,2024,5,23,19,25,31,80,,,,,,,,,0.412842,-0.779297,1.494873,13.793945,83.068848,-19.40918,,,,,,,,,,,0.0,1.0,1.0,3.0,0.0,0.0,0.0,6.0,0.0,0.01953450666666667,-0.24755857333333334,0.9635546266666666,-3.4700520266666666,0.28808592000000033,-4.462890693333333,28.34444897380366,12.624457140058748,-22.867160193605443,0.476748137573928,11.358082192330839,-15.022094734603101,18.838700859926973,-1.4895211465851745,18.676333346357445,-1.502344240201021,0.3933074933333333,-0.5317384266666667,0.5313183733333333,1.4563642933333334,0.8483724138299592,0.7670374524105281,0.7830588213201037,0.7830588213201037
LBP08_S03,LBP08,78,79,3,78,78,1716492331.12,2024-05-23 19:25:31.120000+00:00,2024-05-24 04:25:31.120000+09:00,2024,5,23,19,25,31,120,,,,,,,,,-0.544189,-0.703613,1.758789,49.01123,17.028809,14.892578,,,,,,,,,,,0.0,1.0,1.0,3.0,0.0,0.0,0.0,6.0,0.0,0.01933918666666667,-0.24966794666666667,0.9771190799999999,-3.560384053333333,2.6497395733333335,-3.628743546666666,26.50839575819285,17.039607856086505,-19.514609331132128,1.537083967901642,12.0396665065743,-15.802679107848386,19.925884263930048,-1.4910333378356269,19.414133965587933,-1.4945992658105522,-0.5635281866666667,-0.45394505333333335,0.78166992,1.7991431600000003,1.0651938755205228,0.7715613618527799,0.7897763226105899,0.7897763226105899
LBP08_S03,LBP08,79,80,3,79,79,1716492331.16,2024-05-23 19:25:31.160000+00:00,2024-05-24 04:25:31.160000+09:00,2024,5,23,19,25,31,160,,,,,,,,,0.072754,-0.098633,1.944092,49.133301,-27.648926,2.075195,,,,,,,,,,,0.0,1.0,1.0,3.0,0.0,0.0,0.0,6.0,0.0,0.017327466666666666,-0.24933916,0.9735285866666668,-3.25602208,3.271484373333333,-3.779296933333333,22.471614569430276,19.730114658593166,-15.028352392832392,2.435948550678853,12.828871092918027,-16.403813203561683,20.966613137977404,-1.4991936608382201,20.15633009551658,-1.4883356546787756,0.05542653333333333,0.15070616,0.9705634133333332,1.1766961066666666,0.9837569753554722,0.7812088747678169,0.7942875005814012,0.7942875005814012
LBP08_S03,LBP08,80,81,3,80,80,1716492331.2,2024-05-23 19:25:31.200000+00:00,2024-05-24 04:25:31.200000+09:00,2024,5,23,19,25,31,200,,,,,,,,,0.229004,-0.505615,1.233887,6.958008,128.78418,35.644531,,,,,,,,,,,0.0,1.0,1.0,3.0,0.0,0.0,0.0,6.0,0.0,0.016347653333333333,-0.2428808266666667,0.9699739066666666,-1.9384765066666663,2.291666666666667,-4.226074266666666,17.16288708809754,20.297429348986306,-10.054198832849467,3.1224640342027548,13.64076826687748,-16.80598115687566,21.869187072243932,-1.5015318554504455,20.864684352729086,-1.4822375703010704,0.2126563466666667,-0.2627341733333334,0.26391309333333335,0.7393036133333334,0.42883806786190554,0.7735791671887917,0.785981831655958,0.785981831655958
LBP08_S03,LBP08,81,82,3,81,81,1716492331.24,2024-05-23 19:25:31.240000+00:00,2024-05-24 04:25:31.240000+09:00,2024,5,23,19,25,31,240,,,,,,,,,-0.411133,-0.064209,-0.008301,20.568848,18.859863,-36.437988,,,,,,,,,,,0.0,1.0,1.0,3.0,0.0,0.0,0.0,6.0,0.0,0.02184244,-0.24935869333333335,0.9677603733333334,-2.699381453333333,0.41829426666666686,-5.076497453333333,11.813564495974429,18.74276013835625,-5.179041933009824,3.595006614041732,14.39047867241173,-17.013142834196053,22.571153671731032,-1.4806091697298915,21.50401092532129,-1.4798702248502293,-0.43297544000000004,0.18514969333333336,-0.9760613733333334,1.594186506666667,1.0837176500814103,0.7933250065833256,0.7925981831765238,0.7925981831765238
LBP08_S03,LBP08,82,83,3,82,82,1716492331.28,2024-05-23 19:25:31.280000+00:00,2024-05-24 04:25:31.280000+09:00,2024,5,23,19,25,31,280,,,,,,,,,0.393311,0.235352,0.706055,50.65918,-55.725098,-28.808594,,,,,,,,,,,0.0,1.0,1.0,3.0,0.0,0.0,0.0,6.0,0.0,0.029970693333333333,-0.2392317466666667,0.96721676,-2.667643173333333,2.00276692,-5.211588599999999,7.6905440278274915,15.458222126684804,-0.851434842247237,3.9026283751548316,15.008807557479122,-17.04720022788594,23.045647054088988,-1.4425124725994363,22.04857923131916,-1.476329763011206,0.36334030666666667,0.4745837466666667,-0.26116176,1.0990858133333334,0.6522663381894668,0.7789483381735006,0.7895474908941964,0.7895474908941964
LBP08_S03,LBP08,83,84,3,83,83,1716492331.32,2024-05-23 19:25:31.320000+00:00,2024-05-24 04:25:31.320000+09:00,2024,5,23,19,25,31,320,,,,,,,,,0.442383,-0.839844,1.326172,-121.520996,-17.883301,-2.685547,,,,,,,,,,,0.0,1.0,1.0,3.0,0.0,0.0,0.0,6.0,0.0,0.023421213333333336,-0.24627601333333335,0.9704817333333333,-3.765462186666666,2.656249986666667,-4.993489639999999,5.7852664086413785,11.101994656271751,2.613107360670067,4.134039031500487,15.45288734372999,-16.94267593345914,23.300992977944,-1.4730217938941677,22.487763945290517,-1.4749535284764685,0.41896178666666667,-0.5935679866666667,0.3556902666666666,1.36822004,0.808929848184532,0.7648406124516272,0.7899598814748418,0.7899598814748418
LBP08_S03,LBP08,84,85,3,84,84,1716492331.36,2024-05-23 19:25:31.360000+00:00,2024-05-24 04:25:31.360000+09:00,2024,5,23,19,25,31,360,,,,,,,,,-0.177734,-0.020996,1.616211,44.555664,57.006836,5.065918,,,,,,,,,,,0.0,1.0,1.0,3.0,0.0,0.0,0.0,6.0,0.0,0.02813476,-0.25154945333333334,0.98891924,-2.86376948,0.6925455600000002,-4.560546933333333,6.551964395871754,6.43051509191039,5.004828259039646,4.396117607335357,15.710107947406406,-16.742482803097552,23.3761432265612,-1.4559431848567843,22.82835158953101,-1.4702808348796348,-0.20586876,0.23055345333333332,0.6272917600000001,1.0637139733333334,0.6993080818578896,0.767815350511782,0.7880713023161553,0.7880713023161553
LBP08_S03,LBP08,85,86,3,85,85,1716492331.4,2024-05-23 19:25:31.400000+00:00,2024-05-24 04:25:31.400000+09:00,2024,5,23,19,25,31,400,,,,,,,,,-0.23877,-0.560303,1.887695,-11.657715,-50.65918,-0.671387,,,,,,,,,,,0.0,1.0,1.0,3.0,0.0,0.0,0.0,6.0,0.0,0.027555333333333334,-0.2556021866666667,0.9998307066666666,-1.0677082799999997,3.29752604,-3.7117513733333323,9.789859174535076,2.1679370813917584,6.222045458465295,4.78771197431676,15.796825430662077,-16.49360098475894,23.334539915761557,-1.4600213169565326,23.092109960459986,-1.464215994367807,-0.26632533333333336,-0.3047008133333333,0.8878642933333333,1.4588904399999998,0.9757431896751344,0.7536958830911749,0.7919013408336856,0.7919013408336856
LBP08_S03,LBP08,86,87,3,86,86,1716492331.44,2024-05-23 19:25:31.440000+00:00,2024-05-24 04:25:31.440000+09:00,2024,5,23,19,25,31,440,,,,,,,,,0.131104,-0.356445,1.543457,75.805664,33.26416,43.823242,,,,,,,,,,,0.0,1.0,1.0,3.0,0.0,0.0,0.0,6.0,0.0,0.024873053333333336,-0.2534960666666667,0.9937727599999999,0.7259115200000004,3.711751293333333,-3.872070386666666,14.712488636943013,-1.0619376925517736,6.306104831146625,5.376211519794481,15.754347922960006,-16.241356791513077,23.256930133026437,-1.46990969136578,23.30933912329659,-1.4596585185608624,0.10623094666666666,-0.10294893333333333,0.5496842400000002,0.7588641200000001,0.5692418296370577,0.7446762517887058,0.787448150609753,0.787448150609753
LBP08_S03,LBP08,87,88,3,87,87,1716492331.48,2024-05-23 19:25:31.480000+00:00,2024-05-24 04:25:31.480000+09:00,2024,5,23,19,25,31,480,,,,,,,,,-0.432129,0.046631,0.196777,10.864258,128.356934,41.137695,,,,,,,,,,,0.0,1.0,1.0,3.0,0.0,0.0,0.0,6.0,0.0,0.023108733333333333,-0.2499381333333333,0.9914290133333332,1.531575586666667,2.288411453333333,-4.68994148,20.165986913553184,-2.7808774254275925,5.468900849323548,6.182850996336608,15.643112825942902,-16.022600757540136,23.230547999640596,-1.4757588012377998,23.510753399169353,-1.454450979405745,-0.45523773333333334,0.2965691333333333,-0.7946520133333332,1.5464588799999999,0.9626351681666713,0.7578106358082946,0.7824584024009573,0.7908831901696926
LBP08_S03,LBP08,88,89,3,88,88,1716492331.52,2024-05-23 19:25:31.520000+00:00,2024-05-24 04:25:31.520000+09:00,2024,5,23,19,25,31,520,,,,,,,,,-0.017578,-0.387451,0.191162,10.498047,-84.838867,-27.648926,,,,,,,,,,,0.0,1.0,1.0,3.0,0.0,0.0,0.0,6.0,0.0,0.030494800000000002,-0.24707681333333337,0.9871614400000001,1.3338216800000005,1.0123697866666665,-5.321451893333333,24.905529465210833,-2.737036468185709,4.0660617267086385,7.179072174945041,15.533631367215474,-15.859958288471791,23.331760706334954,-1.44430640186729,23.72040389652448,-1.4566976970573267,-0.0480728,-0.14037418666666662,-0.7959994400000001,0.9844464266666667,0.8097104512493846,0.7619555081954336,0.7770993078381119,0.7912452528827635
LBP08_S03,LBP08,89,90,3,89,89,1716492331.56,2024-05-23 19:25:31.560000+00:00,2024-05-24 04:25:31.560000+09:00,2024,5,23,19,25,31,560,,,,,,,,,0.489258,0.367432,0.731689,56.82373,-110.595703,-51.147461,,,,,,,,,,,0.0,1.0,1.0,3.0,0.0,0.0,0.0,6.0,0.0,0.03197266666666667,-0.24768227999999998,0.9860546666666666,2.545572986666667,2.942708333333333,-5.170084693333333,27.848399426803905,-1.0310671877946647,2.504971223347452,8.293008152017197,15.492388679703687,-15.759759439537893,23.60419684726719,-1.4385452557199423,23.951505336065093,-1.4580816152058786,0.4572853333333334,0.61511428,-0.2543656666666666,1.32676528,0.8075749785131248,0.7553692801182309,0.7878849427208223,0.7915533609135251
LBP08_S03,LBP08,90,91,3,90,90,1716492331.6,2024-05-23 19:25:31.600000+00:00,2024-05-24 04:25:31.600000+09:00,2024,5,23,19,25,31,600,,,,,,,,,0.574951,-1.01123,1.449951,-43.884277,-11.535645,3.295898,,,,,,,,,,,0.0,1.0,1.0,3.0,0.0,0.0,0.0,6.0,0.0,0.027981786666666668,-0.2501204266666667,0.9893749733333332,2.88085944,3.396809906666667,-4.76074224,28.267449528980453,1.7917836436033832,1.130701600869801,9.423706133176415,15.564060025447823,-15.714531375503102,24.041478700609932,-1.4559570973809985,24.205609376520794,-1.4621269556445888,0.5469692133333334,-0.7611095733333334,0.46057602666666675,1.7686548133333335,1.0443147893686984,0.765160891415041,0.7851172367962128,0.7962341281071394
LBP08_S03,LBP08,91,92,3,91,91,1716492331.64,2024-05-23 19:25:31.640000+00:00,2024-05-24 04:25:31.640000+09:00,2024,5,23,19,25,31,640,,,,,,,,,-0.452881,-0.546387,1.700195,37.04834,57.739258,31.12793,,,,,,,,,,,0.0,1.0,1.0,3.0,0.0,0.0,0.0,6.0,0.0,0.035755213333333334,-0.2574837066666667,1.0083072666666666,3.184407613333333,2.4926757866666667,-4.373372453333333,25.922441892199494,4.805952444271643,0.15502914286814412,10.460603808864395,15.756298123218688,-15.708330209788375,24.58529643045866,-1.4285337781787173,24.474264697842166,-1.460247800932651,-0.4886362133333333,-0.28890329333333326,0.6918877333333333,1.46942724,0.8949520084433146,0.7866172884332299,0.7880760166441609,0.7980289986587062
LBP08_S03,LBP08,92,93,3,92,92,1716492331.68,2024-05-23 19:25:31.680000+00:00,2024-05-24 04:25:31.680000+09:00,2024,5,23,19,25,31,680,,,,,,,,,-0.125,-0.267822,1.669678,126.464844,-19.53125,8.666992,,,,,,,,,,,0.0,1.0,1.0,3.0,0.0,0.0,0.0,6.0,0.0,0.02553710666666667,-0.24757158666666665,1.00272784,3.029785213333333,5.535481773333333,-4.36604824,21.12380779920541,6.974414625503431,-0.34245268859647426,11.30555612083261,16.035274708238823,-15.722028317332235,25.142152027640275,-1.464979649115254,24.741688071089435,-1.4576346137592155,-0.15053710666666667,-0.020250413333333356,0.6669501600000001,0.83773768,0.6840277886517243,0.7657109380908972,0.7927247458193694,0.7959932627657244
LBP08_S03,LBP08,93,94,3,93,93,1716492331.72,2024-05-23 19:25:31.720000+00:00,2024-05-24 04:25:31.720000+09:00,2024,5,23,19,25,31,720,,,,,,,,,0.216064,-0.352783,1.069336,-6.469727,120.97168,29.785156,,,,,,,,,,,0.0,1.0,1.0,3.0,0.0,0.0,0.0,6.0,0.0,0.020784506666666668,-0.2549511466666667,0.9961197733333332,1.7000326133333337,5.334472653333334,-3.9607747999999994,14.69543326703208,7.524203408828483,-0.3715837567785879,11.893373451513893,16.33624284459196,-15.736891667603379,25.612007373350146,-1.4868609753796866,24.98731482099797,-1.4567730115150201,0.19527949333333333,-0.09783185333333333,0.07321622666666683,0.3663275733333335,0.23036008311003658,0.7426387636111934,0.7875024574697601,0.786069873648958
LBP08_S03,LBP08,94,95,3,94,94,1716492331.76,2024-05-23 19:25:31.760000+00:00,2024-05-24 04:25:31.760000+09:00,2024,5,23,19,25,31,760,,,,,,,,,-0.603516,0.223145,-0.183838,25.32959,91.308594,-26.123047,,,,,,,,,,,0.0,1.0,1.0,3.0,0.0,0.0,0.0,6.0,0.0,0.018274746666666668,-0.25299152,0.9912922933333335,2.8605143866666665,3.5327148399999997,-4.300944066666666,7.79506953965969,6.234932963182308,-0.0006843067987935018,12.20517623310028,16.585640163119255,-15.73691903987533,25.9171836311182,-1.4963965892438864,25.188062161183954,-1.4543613858701032,-0.6217907466666667,0.47613652000000006,-1.1751302933333334,2.2730575600000003,1.412183035101218,0.778816107089089,0.7934656254265299,0.7968649281567555
LBP08_S03,LBP08,95,96,3,95,95,1716492331.8,2024-05-23 19:25:31.800000+00:00,2024-05-24 04:25:31.800000+09:00,2024,5,23,19,25,31,800,,,,,,,,,-0.094971,-0.036133,0.112305,-107.299805,-101.318359,-33.935547,,,,,,,,,,,0.0,1.0,1.0,3.0,0.0,0.0,0.0,6.0,0.0,0.032031253333333336,-0.25368813333333334,0.98715492,3.1250000533333337,3.334147133333333,-4.440104226666667,1.6031515206072169,3.4775198280775808,0.6407933611932042,12.26930229392457,16.724740956242357,-15.711287305427602,26.021093128975263,-1.4412297698371548,25.320851951482677,-1.4551024768008183,-0.12700225333333334,0.21755513333333334,-0.8748499200000001,1.2194073066666666,0.910396721718304,0.8022053620648361,0.7977843696779646,0.7987891958442394
LBP08_S03,LBP08,96,97,3,96,96,1716492331.84,2024-05-23 19:25:31.840000+00:00,2024-05-24 04:25:31.840000+09:00,2024,5,23,19,25,31,840,,,,,,,,,0.443848,-0.55249,0.829102,16.052246,-95.76416,-11.901855,,,,,,,,,,,0.0,1.0,1.0,3.0,0.0,0.0,0.0,6.0,0.0,0.03140300000000001,-0.2538216,0.9839322666666668,3.2649740133333336,5.06184896,-3.6873372933333326,-3.021411555143843,-0.016573848467179308,1.353917922644361,12.148445831718815,16.72407800230367,-15.657130588521827,25.931163865499165,-1.443777819631426,25.36575005873122,-1.4567384001303663,0.412445,-0.29866840000000006,-0.15483026666666677,0.8659436666666669,0.5322462800805949,0.7963537538123459,0.7904707591531721,0.7943468139148453
LBP08_S03,LBP08,97,98,3,97,97,1716492331.88,2024-05-23 19:25:31.880000+00:00,2024-05-24 04:25:31.880000+09:00,2024,5,23,19,25,31,880,,,,,,,,,0.356201,-0.240479,1.070557,-11.108398,2.624512,17.578125,,,,,,,,,,,0.0,1.0,1.0,3.0,0.0,0.0,0.0,6.0,0.0,0.025380866666666665,-0.2516341066666667,0.9917187199999998,3.9290365066666664,3.0379231866666663,-4.310709693333333,-5.7772098076452805,-3.5091767545651043,1.901617801453949,11.917357439413005,16.583710932121065,-15.581065876463668,25.686815498725892,-1.467142778795844,25.309277445172206,-1.461228873379138,0.3308201333333333,0.011155106666666692,0.07883828000000015,0.42081352000000016,0.34026735285182386,0.7868221640111571,0.7718219664929576,0.7869028883236482
LBP08_S03,LBP08,98,99,3,98,98,1716492331.92,2024-05-23 19:25:31.920000+00:00,2024-05-24 04:25:31.920000+09:00,2024,5,23,19,25,31,920,,,,,,,,,-0.320068,-0.398438,1.525391,6.958008,24.963379,45.227051,,,,,,,,,,,0.0,1.0,1.0,3.0,0.0,0.0,0.0,6.0,0.0,0.03678712,-0.24956378666666665,1.00799476,3.5213216666666667,2.1907552133333326,-4.56949876,-6.9556247158617275,-6.519683655060819,2.0915341254319486,11.639132450778536,16.32292358591863,-15.49740451144639,25.339234108194816,-1.4201901454181227,25.146923703921438,-1.4573350136081196,-0.35685512,-0.14887421333333337,0.5173962399999998,1.023125573333333,0.6459163856351461,0.8052143712184414,0.7746060237889049,0.7846289124738337
LBP08_S03,LBP08,99,100,3,99,99,1716492331.96,2024-05-23 19:25:31.960000+00:00,2024-05-24 04:25:31.960000+09:00,2024,5,23,19,25,31,960,,,,,,,,,-0.060059,-0.217041,1.624023,17.272949,-61.523438,-2.563477,,,,,,,,,,,0.0,1.0,1.0,3.0,0.0,0.0,0.0,6.0,0.0,0.030133466666666664,-0.24716469333333332,1.0050357733333333,2.9117839066666664,3.8924153599999993,-4.370931053333333,-7.283574401398705,-8.872972730007719,1.8674717381351589,11.347789474722589,15.968004676718321,-15.422705641920984,24.932094750254425,-1.445956165027094,24.88408713301353,-1.4529084568531796,-0.09019246666666667,0.030123693333333312,0.6189872266666667,0.7393033866666667,0.6262485965812219,0.7830613816675972,0.7766274289003735,0.782114939205697
LBP08_S03,LBP08,100,101,3,100,100,1716492332.0,2024-05-23 19:25:32+00:00,2024-05-24 04:25:32+09:00,2024,5,23,19,25,32,0,19.0,25.0,30.0,40.796673,141.596451,6.636,3.0,16.0,0.171875,-0.248291,0.705322,-4.699707,96.801758,20.812988,-544.0,33.0,595.0,7.0,0.0,1017.299988,21.360001,0.042612,-33.644714,3.9375,0.0,1.0,1.0,3.0,0.0,0.0,0.0,5.0,0.0,0.02416668,-0.25220049333333333,0.9991959333333333,2.8230794799999996,3.274739573333332,-4.178059959999999,-7.65826470746651,-10.562757165788419,1.3424387538557148,11.041458886423928,15.545494390086784,-15.369008091766755,24.490459773095353,-1.4723163306764782,24.535269828489056,-1.4486580207553241,0.14770832,0.003909493333333319,-0.29387393333333334,0.4454917466666667,0.3289299631048382,0.7635437632610804,0.7679636694482384,0.7750339239541211
LBP08_S03,LBP08,101,102,3,101,101,1716492332.04,2024-05-23 19:25:32.040000+00:00,2024-05-24 04:25:32.040000+09:00,2024,5,23,19,25,32,40,,,,,,,,,-0.504883,0.155273,-0.156738,-27.46582,68.481445,-23.376465,,,,,,,,,,,0.0,1.0,1.0,3.0,0.0,0.0,0.0,5.0,0.0,0.02342124,-0.2470768,0.9912271866666666,2.310384173333333,1.286621079999999,-4.807128973333333,-8.87291730711779,-11.572558350399289,0.7370749569646746,10.686542194139216,15.082592056070812,-15.339525093488168,24.02057029486855,-1.4734385106664334,24.12188688362102,-1.4480088977538768,-0.52830424,0.4023498,-1.1479651866666667,2.0786192266666665,1.3262031523717068,0.7868534010056465,0.7753302144899107,0.7835134505451609
LBP08_S03,LBP08,102,103,3,102,102,1716492332.08,2024-05-23 19:25:32.080000+00:00,2024-05-24 04:25:32.080000+09:00,2024,5,23,19,25,32,80,,,,,,,,,-0.014893,-0.338379,0.233154,-40.710449,-84.350586,-24.719238,,,,,,,,,,,0.0,1.0,1.0,3.0,0.0,0.0,0.0,5.0,0.0,0.034960946666666666,-0.24708657333333334,0.9861490666666667,2.535807346666666,1.5917968533333327,-5.295410226666666,-11.401551492772835,-11.801422548314,0.24964728864678673,10.230480134428303,14.610535154138251,-15.329539201942296,23.518614615132574,-1.426041051405071,23.669278985435277,-1.448922196720487,-0.04985394666666666,-0.09129242666666665,-0.7529950666666667,0.8941414400000001,0.7601455739457208,0.7833243274102769,0.7751808899104025,0.7831593918088057
LBP08_S03,LBP08,103,104,3,103,103,1716492332.12,2024-05-23 19:25:32.120000+00:00,2024-05-24 04:25:32.120000+09:00,2024,5,23,19,25,32,120,,,,,,,,,0.387207,-0.195068,0.600098,52.612305,-105.773926,-31.12793,,,,,,,,,,,0.0,1.0,1.0,3.0,0.0,0.0,0.0,5.0,0.0,0.030511080000000003,-0.24369790666666666,0.9857551866666665,2.881673226666667,2.8190103999999994,-4.467773506666666,-15.275557652419746,-11.14787123634715,-0.06732709559880772,9.619457828331512,14.164620304684366,-15.33223228576625,22.98364166427109,-1.4425954078302876,23.20353355852471,-1.4492922103390309,0.35669592,0.04862990666666667,-0.3856571866666665,0.7909830133333331,0.5275683015446466,0.7618193044512418,0.7666903331520107,0.7793445994168033
LBP08_S03,LBP08,104,105,3,104,104,1716492332.16,2024-05-23 19:25:32.160000+00:00,2024-05-24 04:25:32.160000+09:00,2024,5,23,19,25,32,160,,,,,,,,,0.410645,0.029785,0.920898,26.000977,-14.709473,7.995605,,,,,,,,,,,0.0,1.0,1.0,3.0,0.0,0.0,0.0,5.0,0.0,0.02849610666666667,-0.24999348,1.0011881333333332,2.9728190533333336,0.690104146666666,-4.641113346666666,-20.072040288375444,-9.671635316414196,-0.3460286798806927,8.816576216796495,13.777754892027797,-15.346073432961477,22.429010585873456,-1.45389222826533,22.748710633402847,-1.4540578311754246,0.3821488933333333,0.27977848,-0.08029013333333324,0.7422175066666665,0.4803751451289775,0.7416840312421819,0.7614464530049995,0.7749479897949235
LBP08_S03,LBP08,105,106,3,105,105,1716492332.2,2024-05-23 19:25:32.200000+00:00,2024-05-24 04:25:32.200000+09:00,2024,5,23,19,25,32,200,,,,,,,,,-0.062256,-0.003418,1.417725,-76.049805,43.579102,43.151855,,,,,,,,,,,0.0,1.0,1.0,3.0,0.0,0.0,0.0,5.0,0.0,0.033984386666666665,-0.25580728,1.0182324133333334,2.9565430133333335,1.9645181999999992,-3.654785213333333,-25.029472522278855,-7.682865848773122,-0.8276137721644848,7.815397315905341,13.470440258076872,-15.379177983848056,21.887263680294875,-1.4347385398226813,22.32499476079027,-1.4527859422720324,-0.09624038666666666,0.25238928000000005,0.39949258666666654,0.7481222533333333,0.48224152401705517,0.7438201694883879,0.7586996683385898,0.7707058671024907
LBP08_S03,LBP08,106,107,3,106,106,1716492332.24,2024-05-23 19:25:32.240000+00:00,2024-05-24 04:25:32.240000+09:00,2024,5,23,19,25,32,240,,,,,,,,,-0.059082,-0.74707,1.743896,-78.674316,-42.96875,-8.483887,,,,,,,,,,,0.0,1.0,1.0,3.0,0.0,0.0,0.0,5.0,0.0,0.029335946666666668,-0.2552799333333333,1.0166861866666665,2.744954466666667,3.3015950266666656,-3.030599013333333,-29.27155379328742,-5.666049493055759,-1.7115802794090607,6.644535164173844,13.24379827835464,-15.447641195024419,21.405084883641727,-1.4529108092975287,21.94794047602079,-1.4502773889443048,-0.08841794666666666,-0.4917900666666667,0.7272098133333333,1.3074178266666667,0.8823317491584758,0.7357647334514706,0.764544870017398,0.7723005225604334
LBP08_S03,LBP08,107,108,3,107,107,1716492332.28,2024-05-23 19:25:32.280000+00:00,2024-05-24 04:25:32.280000+09:00,2024,5,23,19,25,32,280,,,,,,,,,0.296143,-0.887695,1.656982,-63.598633,11.047363,8.972168,,,,,,,,,,,0.0,1.0,1.0,3.0,0.0,0.0,0.0,5.0,0.0,0.025013026666666667,-0.25727864,1.0113150933333332,3.4472656666666666,2.945149719999999,-2.8206380799999997,-32.0566401241406,-4.073702722642723,-3.0160629302886495,5.36226955920822,13.080850169448931,-15.568283712235965,21.029361229620243,-1.470842914981283,21.628458678067616,-1.4484749662282093,0.27112997333333333,-0.63041636,0.6456669066666667,1.54721324,0.9422430704228532,0.747363802740806,0.7631560704571534,0.7746940795725801
LBP08_S03,LBP08,108,109,3,108,108,1716492332.32,2024-05-23 19:25:32.320000+00:00,2024-05-24 04:25:32.320000+09:00,2024,5,23,19,25,32,320,,,,,,,,,-0.275879,-0.108398,0.521973,-11.108398,148.4375,30.578613,,,,,,,,,,,0.0,1.0,1.0,3.0,0.0,0.0,0.0,5.0,0.0,0.025527346666666666,-0.2547428266666667,1.0097232933333333,2.9923502933333337,1.761067693333333,-3.3089193333333333,-32.94009540433319,-3.116268602216197,-4.527794555048563,4.0446657430348925,12.956199425360284,-15.749395494437907,20.791004856976183,-1.4678463537820607,21.372959525176263,-1.4486001607409902,-0.30140634666666666,0.1463448266666667,-0.4877502933333333,0.9355014666666667,0.591745674044007,0.738676435775185,0.7517585241134062,0.7721531294957944
LBP08_S03,LBP08,109,110,3,109,109,1716492332.36,2024-05-23 19:25:32.360000+00:00,2024-05-24 04:25:32.360000+09:00,2024,5,23,19,25,32,360,,,,,,,,,-0.050781,-0.207275,0.022949,-4.333496,-54.199219,-38.085938,,,,,,,,,,,0.0,1.0,1.0,3.0,0.0,0.0,0.0,5.0,0.0,0.03434570666666667,-0.25577798666666673,1.01061848,4.187825559999999,2.0019531066666656,-3.8940430266666666,-31.78962957373613,-2.6812183476144313,-5.870282915439612,2.7730805600854476,12.848950691455707,-15.984206811055492,20.694936024128626,-1.4332372759931695,21.183285293000683,-1.4488909202089135,-0.08512670666666666,0.04850298666666675,-0.98766948,1.1212991733333335,0.992517051554768,0.7504047945630602,0.759110072537421,0.7751718133596158
LBP08_S03,LBP08,110,111,3,110,110,1716492332.4,2024-05-23 19:25:32.400000+00:00,2024-05-24 04:25:32.400000+09:00,2024,5,23,19,25,32,400,,,,,,,,,0.37915,0.194824,0.560547,64.880371,-94.421387,-55.053711,,,,,,,,,,,0.0,1.0,1.0,3.0,0.0,0.0,0.0,5.0,0.0,0.03127604,-0.25984049333333337,1.01374348,3.7508138399999997,2.738443999999999,-3.332519586666666,-28.694799557572928,-2.4411711582355307,-6.656479313272757,1.6252885777825303,12.751303845126285,-16.250465983586402,20.71991692540058,-1.4472307973992031,21.056454263447996,-1.4497166111137718,0.34787396,0.45466449333333336,-0.45319648,1.2557349333333332,0.7301528216945606,0.7405811798438373,0.7471385314675062,0.7745634486073855
LBP08_S03,LBP08,111,112,3,111,111,1716492332.44,2024-05-23 19:25:32.440000+00:00,2024-05-24 04:25:32.440000+09:00,2024,5,23,19,25,32,440,,,,,,,,,0.58252,-0.421387,1.127441,-99.060059,-55.847168,-8.544922,,,,,,,,,,,0.0,1.0,1.0,3.0,0.0,0.0,0.0,5.0,0.0,0.02926106666666667,-0.2604003866666667,1.0242643066666666,5.221354213333333,1.8245442533333327,-3.527018293333334,-23.87421141430462,-2.0876093422299067,-6.646850403313202,0.6703201212103455,12.667799471437089,-16.51633999971893,20.825752315336818,-1.455414283505478,20.984577383600367,-1.4523712901143428,0.5532589333333333,-0.1609866133333333,0.10317669333333335,0.81742224,0.585369598657869,0.7412262906046698,0.7429512711966876,0.7720408639413918
LBP08_S03,LBP08,112,113,3,112,112,1716492332.48,2024-05-23 19:25:32.480000+00:00,2024-05-24 04:25:32.480000+09:00,2024,5,23,19,25,32,480,,,,,,,,,0.111084,-0.224365,1.518555,-23.498535,58.898926,13.916016,,,,,,,,,,,0.0,1.0,1.0,3.0,0.0,0.0,0.0,5.0,0.0,0.03676106666666666,-0.26228840000000003,1.0347428133333334,5.190429733333334,3.18196612,-2.46256516,-17.654369218136086,-1.5325932135782476,-5.83103154013267,-0.03585464751509804,12.606495742893959,-16.749581261324238,20.96362308621904,-1.4272929965328796,20.95555068984271,-1.4487625332640242,0.07432293333333334,0.037923400000000024,0.4838121866666667,0.59605852,0.4909544934655478,0.7223590636166247,0.7400848497124596,0.7624252894728465
LBP08_S03,LBP08,113,114,3,113,113,1716492332.52,2024-05-23 19:25:32.520000+00:00,2024-05-24 04:25:32.520000+09:00,2024,5,23,19,25,32,520,,,,,,,,,-0.251221,-0.499268,1.756348,-64.880371,-29.907227,2.563477,,,,,,,,,,,0.0,1.0,1.0,3.0,0.0,0.0,0.0,5.0,0.0,0.03163086666666667,-0.25880531999999995,1.0307551866666667,3.6197917066666667,4.205729146666666,-1.71305344,-10.50253246062632,-0.9425003548213283,-4.399631440286662,-0.4559559459401508,12.568795728701106,-16.925566518935703,21.086899342515263,-1.4455030025095221,20.95505899326374,-1.4467359873552303,-0.2828518666666667,-0.24046268000000004,0.7255928133333334,1.24890736,0.8150536238251945,0.7225727905196571,0.7422641493575454,0.7589238020652936
LBP08_S03,LBP08,114,115,3,114,114,1716492332.56,2024-05-23 19:25:32.560000+00:00,2024-05-24 04:25:32.560000+09:00,2024,5,23,19,25,32,560,,,,,,,,,0.275146,-0.503662,1.699707,-3.479004,-5.249023,8.056641,,,,,,,,,,,0.0,1.0,1.0,3.0,0.0,0.0,0.0,5.0,0.0,0.028115240000000003,-0.2662076666666667,1.0249999866666668,3.5164388399999997,3.5538736799999993,-0.7967122933333333,-3.0281792396968785,-0.5915497719097748,-2.6408795336941853,-0.5770831155280259,12.545133737824715,-17.03120170028347,21.160700290346586,-1.4621491373139104,20.969838110274782,-1.446147989770901,0.24703076,-0.23745433333333338,0.6747070133333333,1.1591921066666666,0.7567286902491157,0.7205389389890968,0.7379541095536639,0.7654362748102471
LBP08_S03,LBP08,115,116,3,115,115,1716492332.6,2024-05-23 19:25:32.600000+00:00,2024-05-24 04:25:32.600000+09:00,2024,5,23,19,25,32,600,,,,,,,,,-0.164307,-0.18042,0.804688,22.705078,162.414551,43.579102,,,,,,,,,,,0.0,1.0,1.0,3.0,0.0,0.0,0.0,5.0,0.0,0.027653000000000004,-0.25945636,1.0174283733333334,3.8883463999999996,1.6373697733333328,-0.81054692,4.11446417477295,-0.6443179272636941,-0.8349882814591194,-0.41250454853710794,12.519361020734166,-17.064601231541836,21.168494881818617,-1.4612853298283925,20.991315262181498,-1.446079316611549,-0.19196000000000002,0.07903636,-0.2127403733333334,0.48373673333333345,0.29724376233666483,0.6906560979078155,0.7279084946614283,0.7536301905000804
LBP08_S03,LBP08,116,117,3,116,116,1716492332.64,2024-05-23 19:25:32.640000+00:00,2024-05-24 04:25:32.640000+09:00,2024,5,23,19,25,32,640,,,,,,,,,-0.051025,0.004395,-0.029053,65.246582,-43.029785,-33.02002,,,,,,,,,,,0.0,1.0,1.0,3.0,0.0,0.0,0.0,5.0,0.0,0.0384082,-0.25501952000000006,1.0124446533333333,2.57324224,1.564127586666666,-0.1798503066666666,10.403256215445142,-1.016236728200425,0.794292565299481,0.0036257000806977357,12.47871155160615,-17.032829528929856,21.114817946065145,-1.4168232407943449,21.01831937906033,-1.4492552558753968,-0.0894332,0.25941452000000004,-1.0414976533333333,1.3903453733333333,1.0770383244564283,0.69793955054834,0.7422784194907848,0.7580305279455539
LBP08_S03,LBP08,117,118,3,117,117,1716492332.68,2024-05-23 19:25:32.680000+00:00,2024-05-24 04:25:32.680000+09:00,2024,5,23,19,25,32,680,,,,,,,,,0.376221,0.257568,0.654053,105.224609,-88.07373,-36.865234,,,,,,,,,,,0.0,1.0,1.0,3.0,0.0,0.0,0.0,5.0,0.0,0.03066405333333334,-0.2621386533333333,1.0093456933333333,2.1337891066666668,1.7179361866666658,0.0024413599999999745,15.600919553130545,-1.40542045401201,2.061578286214333,0.6276624822059196,12.422494733445669,-16.950366397481282,21.02444426383054,-1.4505774558933437,21.057811144407715,-1.453796440553332,0.3455569466666667,0.5197066533333333,-0.35529269333333335,1.2205562933333334,0.7181486662555164,0.6993043856524916,0.7325076618716944,0.7615846257637434
LBP08_S03,LBP08,118,119,3,118,118,1716492332.72,2024-05-23 19:25:32.720000+00:00,2024-05-24 04:25:32.720000+09:00,2024,5,23,19,25,32,720,,,,,,,,,0.496826,-0.710938,1.251465,-79.467773,-53.344727,-3.356934,,,,,,,,,,,0.0,1.0,1.0,3.0,0.0,0.0,0.0,5.0,0.0,0.027392573333333333,-0.25862302666666664,1.01496092,2.7392578533333336,-0.9960937600000007,-0.7039388400000001,19.769891248980734,-1.4676917434693058,2.7797030194866776,1.4184581321651488,12.363787063706896,-16.839178276701816,20.938796027086603,-1.4619663779387682,21.123275122145053,-1.4575532840441736,0.46943342666666665,-0.4523149733333333,0.23650408,1.15825248,0.6934628735773741,0.7178284972711851,0.7302336304411893,0.764277804070235
LBP08_S03,LBP08,119,120,3,119,119,1716492332.76,2024-05-23 19:25:32.760000+00:00,2024-05-24 04:25:32.760000+09:00,2024,5,23,19,25,32,760,,,,,,,,,0.123291,-0.206543,1.593262,-5.92041,48.095703,7.995605,,,,,,,,,,,0.0,1.0,1.0,3.0,0.0,0.0,0.0,5.0,0.0,0.034830733333333336,-0.25799152000000003,1.0255729066666668,2.650553426666667,0.3043619733333325,0.007324173333333258,23.118269990712143,-1.000405698916454,2.7615056948823486,2.3431889317936347,12.323770835750238,-16.728718048906522,20.909707543195797,-1.4325505443996465,21.23121702486301,-1.4561163228314709,0.08846026666666666,0.051448520000000025,0.5676890933333332,0.7075978799999998,0.5768388645701241,0.6844147304499414,0.7316154187695152,0.7571153271010005
LBP08_S03,LBP08,120,121,3,120,120,1716492332.8,2024-05-23 19:25:32.800000+00:00,2024-05-24 04:25:32.800000+09:00,2024,5,23,19,25,32,800,,,,,,,,,-0.280273,-0.737549,1.8479,-7.507324,-35.400391,7.8125,,,,,,,,,,,0.0,1.0,1.0,3.0,0.0,0.0,0.0,5.0,0.0,0.023092440000000002,-0.2588085866666667,1.01356444,1.5380859733333336,1.4925130133333324,-0.10823572000000008,25.766790207223977,-0.0018036319601238884,1.8933659842179134,3.373860540082594,12.323698690471833,-16.652983409537807,20.989958094188875,-1.4789901900376834,21.3968767747445,-1.4557802298498939,-0.30336544,-0.47874041333333334,0.8343355600000002,1.6164414133333336,1.0086321431649292,0.6883441473078064,0.7452747546863212,0.7613042955545786
LBP08_S03,LBP08,121,122,3,121,121,1716492332.84,2024-05-23 19:25:32.840000+00:00,2024-05-24 04:25:32.840000+09:00,2024,5,23,19,25,32,840,,,,,,,,,0.099854,-0.192627,1.607178,52.246094,25.390625,38.94043,,,,,,,,,,,0.0,1.0,1.0,3.0,0.0,0.0,0.0,5.0,0.0,0.016888013333333333,-0.24827148000000004,0.9982324133333332,2.373860706666667,0.4622395733333326,-0.7373047333333335,27.587107405830814,1.4195301770079976,0.2462162319207304,4.477344836315826,12.380479897552153,-16.643134760260978,21.220669968810697,-1.5008261302848283,21.630490679104213,-1.45309226085862,0.08296598666666666,0.05564448000000005,0.6089455866666668,0.7475560533333334,0.6170853997777414,0.6917377120956922,0.7440457329540189,0.7575597434673454
LBP08_S03,LBP08,122,123,3,122,122,1716492332.88,2024-05-23 19:25:32.880000+00:00,2024-05-24 04:25:32.880000+09:00,2024,5,23,19,25,32,880,,,,,,,,,-0.251953,-0.138428,0.5896,19.958496,157.653809,43.945312,,,,,,,,,,,0.0,1.0,1.0,3.0,0.0,0.0,0.0,5.0,0.0,0.0258854,-0.25111328,0.9865364533333334,0.9513346666666667,-1.2841796933333343,-1.18326828,28.212333271264704,3.1923588371468328,-1.855121955695761,5.605838167166414,12.508174251038026,-16.71733963848881,21.61826286359243,-1.4648614314412967,21.93502626676595,-1.453509536003191,-0.2778384,0.11268528,-0.3969364533333334,0.7874601333333333,0.4974441645331504,0.6980247845629454,0.7424234742870514,0.7472229058496203
LBP08_S03,LBP08,123,124,3,123,123,1716492332.92,2024-05-23 19:25:32.920000+00:00,2024-05-24 04:25:32.920000+09:00,2024,5,23,19,25,32,920,,,,,,,,,0.014893,-0.2854,0.092529,35.827637,-56.45752,-41.381836,,,,,,,,,,,0.0,1.0,1.0,3.0,0.0,0.0,0.0,5.0,0.0,0.034026680000000004,-0.24966470666666665,0.9776627599999999,0.8626302400000001,-0.1627604133333342,-1.21826176,27.210201769451157,5.353226461151257,-3.874919244599476,6.69424623794446,12.722303309484076,-16.872336408272787,22.16631836969483,-1.4311333903824939,22.305535337411094,-1.4560772885231055,-0.019133680000000004,-0.035735293333333334,-0.8851337599999999,0.9400027333333332,0.8860614436886977,0.7076305868850875,0.7564224790517645,0.7522808781542991
LBP08_S03,LBP08,124,125,3,124,124,1716492332.96,2024-05-23 19:25:32.960000+00:00,2024-05-24 04:25:32.960000+09:00,2024,5,23,19,25,32,960,,,,,,,,,0.296387,0.311523,0.816162,114.318848,-86.303711,-61.950684,,,,,,,,,,,0.0,1.0,1.0,3.0,0.0,0.0,0.0,5.0,0.0,0.027441386666666668,-0.2518098933333333,0.9790885466666667,-0.1863606399999999,-0.33284505333333414,-1.4672852000000003,24.321356563077256,7.964954889749326,-5.230475793301377,7.6671005004675505,13.040901505074048,-17.08155544000484,22.817297789161433,-1.45878820749814,22.729700067333063,-1.4600109969189798,0.26894561333333333,0.5633328933333333,-0.16292654666666662,0.9952050533333332,0.6451517273101521,0.7083867121142445,0.7457240468909209,0.7538805233049972
LBP08_S03,LBP08,125,126,3,125,125,1716492333.0,2024-05-23 19:25:33+00:00,2024-05-24 04:25:33+09:00,2024,5,23,19,25,33,0,19.0,25.0,31.0,40.796787,141.596436,6.091,3.0,16.0,0.564697,-0.428223,1.271973,-48.64502,-16.418457,2.990723,-541.0,31.0,593.0,0.0,0.0,1017.700012,21.41,0.046576,-36.961975,3.9375,0.0,1.0,1.0,3.0,0.0,0.0,0.0,4.0,0.0,0.03406898666666667,-0.25608724,1.0008821733333333,0.05696618666666675,-2.542317720000001,-2.1329752933333337,19.642135477739014,10.935187216580712,-5.506930095516378,8.452785919577112,13.478308993737278,-17.301832643825495,23.504633925415767,-1.434405639915656,23.189144793280015,-1.4618386534105532,0.5306280133333333,-0.17213576000000003,0.27109082666666673,0.9738546000000001,0.6202314444686552,0.7200387713687972,0.7417912673149389,0.7519887034217579
LBP08_S03,LBP08,126,127,3,126,126,1716492333.04,2024-05-23 19:25:33.040000+00:00,2024-05-24 04:25:33.040000+09:00,2024,5,23,19,25,33,40,,,,,,,,,-0.354248,-0.459717,1.687256,26.184082,45.532227,0.610352,,,,,,,,,,,0.0,1.0,1.0,3.0,0.0,0.0,0.0,4.0,0.0,0.03738929333333334,-0.25525716000000004,1.0155241066666667,-0.16357417333333327,0.46712238666666583,-1.2223307600000002,13.669165454074928,13.885483721484402,-4.615854563005066,8.999552537740108,14.033728342596653,-17.486466826345698,24.16017382268252,-1.420995992240056,23.661459797448405,-1.45763760508768,-0.39163729333333336,-0.20445983999999995,0.6717318933333334,1.2678290266666667,0.80399460957364,0.6991504296568746,0.7430019153312604,0.7499369528788986
LBP08_S03,LBP08,127,128,3,127,127,1716492333.08,2024-05-23 19:25:33.080000+00:00,2024-05-24 04:25:33.080000+09:00,2024,5,23,19,25,33,80,,,,,,,,,-0.057373,-0.464355,1.931396,15.258789,-46.264648,-10.986328,,,,,,,,,,,0.0,1.0,1.0,3.0,0.0,0.0,0.0,4.0,0.0,0.02379228,-0.2590169333333333,1.0062304933333333,-1.1157226,3.133951813333333,-0.5712890933333336,7.194328602358968,16.20081214444551,-2.825105069012162,9.287325681834467,14.681760828374474,-17.599471029106184,24.729534970282014,-1.4762549810924863,24.123082124034493,-1.4544405289831814,-0.08116528,-0.2053380666666667,0.9251655066666666,1.2116688533333333,0.9511481162393546,0.7067905313486199,0.7450574293794484,0.7523841037231417
LBP08_S03,LBP08,128,129,3,128,128,1716492333.12,2024-05-23 19:25:33.120000+00:00,2024-05-24 04:25:33.120000+09:00,2024,5,23,19,25,33,120,,,,,,,,,0.306396,-0.427734,1.555908,-9.277344,92.346191,25.390625,,,,,,,,,,,0.0,1.0,1.0,3.0,0.0,0.0,0.0,4.0,0.0,0.016800093333333335,-0.2488118666666667,0.99147464,-0.5485025466666666,2.498372386666666,-1.1018880400000002,1.100908060072247,17.263687831554154,-0.6608623467246318,9.331362004237358,15.37230834163664,-17.62590552297517,25.180443326306285,-1.5013034618975105,24.552854332561424,-1.4510804268802302,0.2895959066666667,-0.17892213333333332,0.5644333600000001,1.0329514,0.6591387841991468,0.7120533506547999,0.7369363275530209,0.7484780056529405
LBP08_S03,LBP08,129,130,3,129,129,1716492333.16,2024-05-23 19:25:33.160000+00:00,2024-05-24 04:25:33.160000+09:00,2024,5,23,19,25,33,160,,,,,,,,,-0.739014,0.223145,-0.152832,-4.577637,160.095215,7.8125,,,,,,,,,,,0.0,1.0,1.0,3.0,0.0,0.0,0.0,4.0,0.0,0.02832028,-0.24184246666666667,0.9824186533333336,-0.5094400533333334,1.4225260266666657,-2.119140653333334,-3.863675526499629,16.74694144128932,1.2615270291742144,9.176814983177373,16.04218599928821,-17.5754444418082,25.504154802665276,-1.45082710931538,24.935465068574658,-1.450883670437505,-0.7673342799999999,0.4649874666666667,-1.1352506533333335,2.3675724000000002,1.4470000992791823,0.7507183488208082,0.7462011900314951,0.7578704182769357
LBP08_S03,LBP08,130,131,3,130,130,1716492333.2,2024-05-23 19:25:33.200000+00:00,2024-05-24 04:25:33.200000+09:00,2024,5,23,19,25,33,200,,,,,,,,,0.04541,-0.347656,0.354004,-60.302734,-59.265137,3.78418,,,,,,,,,,,0.0,1.0,1.0,3.0,0.0,0.0,0.0,4.0,0.0,0.03237301333333333,-0.24789065333333332,0.9815462533333335,-2.998860626666666,2.0719400933333327,-1.3387044533333334,-7.268134016623151,14.789624128504334,2.4085624724098684,8.886089622512447,16.633770964428386,-17.479101942911807,25.713108135872794,-1.4369797068089545,25.263657048213236,-1.4510937090045604,0.013036986666666667,-0.0997653466666667,-0.6275422533333335,0.7403445866666668,0.6355567379357603,0.7568509573775565,0.7503355634329723,0.7580834313515786
LBP08_S03,LBP08,131,132,3,131,131,1716492333.24,2024-05-23 19:25:33.240000+00:00,2024-05-24 04:25:33.240000+09:00,2024,5,23,19,25,33,240,,,,,,,,,0.322266,-0.223145,0.855957,31.921387,-66.711426,-25.32959,,,,,,,,,,,0.0,1.0,1.0,3.0,0.0,0.0,0.0,4.0,0.0,0.024869760000000005,-0.25070966666666666,0.9901692933333331,-3.05175776,-0.37434897333333406,-1.5901692933333336,-9.077232067182626,11.944116832630957,2.4527612003349257,8.523000339825142,17.111535637733624,-17.38099149489841,25.836893234671585,-1.4688553692398418,25.538450619088525,-1.4542816233549227,0.29739624,0.027564666666666654,-0.13421229333333318,0.45917319999999984,0.3274404893967371,0.7346553069870868,0.7352100202192787,0.7545816823406276
LBP08_S03,LBP08,132,133,3,132,132,1716492333.28,2024-05-23 19:25:33.280000+00:00,2024-05-24 04:25:33.280000+09:00,2024,5,23,19,25,33,280,,,,,,,,,0.303711,-0.041016,1.29248,-18.554688,22.766113,14.587402,,,,,,,,,,,0.0,1.0,1.0,3.0,0.0,0.0,0.0,4.0,0.0,0.035234346666666666,-0.258724,1.0157845333333333,-2.946777293333333,-2.170410173333334,-1.4469401200000003,-9.607969163350125,8.927362316340037,1.333793492504477,8.138681573291137,17.468630130387226,-17.32763975519823,25.91598494886172,-1.4312604104117832,25.767491908097327,-1.4548598972095768,0.26847665333333337,0.217708,0.2766954666666668,0.7628801200000002,0.4427605085403975,0.7146760045117887,0.7310199036262972,0.746996048475365
LBP08_S03,LBP08,133,134,3,133,133,1716492333.32,2024-05-23 19:25:33.320000+00:00,2024-05-24 04:25:33.320000+09:00,2024,5,23,19,25,33,320,,,,,,,,,-0.305908,-0.623047,1.783447,-15.686035,-8.361816,15.563965,,,,,,,,,,,0.0,1.0,1.0,3.0,0.0,0.0,0.0,4.0,0.0,0.03627926666666667,-0.2625488666666667,1.0211621333333334,-2.5488280666666667,1.449381493333333,-0.6811523600000002,-9.381572779885305,6.331195492723227,-0.7376925993882401,7.7634186620957255,17.721877950096154,-17.35714745917376,25.992425729827193,-1.4291658259552402,25.96239894294543,-1.4491308795939746,-0.34218726666666666,-0.3604981333333333,0.7622848666666666,1.4649702666666666,0.9100160699430752,0.7274068203477512,0.7330416280614682,0.7436412895248545
LBP08_S03,LBP08,134,135,3,134,134,1716492333.36,2024-05-23 19:25:33.360000+00:00,2024-05-24 04:25:33.360000+09:00,2024,5,23,19,25,33,360,,,,,,,,,-0.081055,-0.438721,1.899658,24.353027,-73.486328,-13.73291,,,,,,,,,,,0.0,1.0,1.0,3.0,0.0,0.0,0.0,4.0,0.0,0.02723629333333334,-0.25443364,1.0097819200000002,-2.836914,2.480468733333333,-0.9863281466666668,-8.92745006412116,4.451756406361291,-3.326550107300103,7.406320659530879,17.899948206350604,-17.490209463465764,26.099217585547187,-1.4608885931686957,26.136141803936702,-1.4440740846633955,-0.10829129333333334,-0.18428736,0.8898760799999998,1.182454733333333,0.915187561663587,0.7243136407521041,0.7373592176575821,0.7475112619423153
LBP08_S03,LBP08,135,136,3,135,135,1716492333.4,2024-05-23 19:25:33.400000+00:00,2024-05-24 04:25:33.400000+09:00,2024,5,23,19,25,33,400,,,,,,,,,0.121094,0.119385,1.080322,-14.587402,127.01416,19.592285,,,,,,,,,,,0.0,1.0,1.0,3.0,0.0,0.0,0.0,4.0,0.0,0.02576494666666667,-0.2532878,1.0009179866666666,-2.4340819733333334,1.0327148266666666,-1.53971356,-8.606809453909856,3.2990531008695894,-5.869390567889888,7.0620482813744845,18.031910330385386,-17.72498508618136,26.252569634168673,-1.4662847834192774,26.30105015470185,-1.441022989999835,0.09532905333333333,0.3726728,0.07940401333333336,0.5474058666666667,0.39278192626788433,0.710818804935037,0.725699992389437,0.7350319559566831
LBP08_S03,LBP08,136,137,3,136,136,1716492333.44,2024-05-23 19:25:33.440000+00:00,2024-05-24 04:25:33.440000+09:00,2024,5,23,19,25,33,440,,,,,,,,,-0.47876,0.146729,-0.036621,-7.080078,68.481445,-13.366699,,,,,,,,,,,0.0,1.0,1.0,3.0,0.0,0.0,0.0,4.0,0.0,0.03510738666666667,-0.24944338666666666,0.9933951999999999,-2.7270507200000003,0.19694007999999988,-2.355143253333334,-8.510423979410486,2.7299365603717245,-7.814266896146148,6.721631322198065,18.141107792800256,-18.037555762027203,26.450586712770534,-1.4267787307865984,26.467455770053327,-1.4392589493141579,-0.5138673866666666,0.39617238666666665,-1.0300162,1.9400559733333331,1.2173518896766178,0.736098096575787,0.7386621935902283,0.7406668796563874
LBP08_S03,LBP08,137,138,3,137,137,1716492333.48,2024-05-23 19:25:33.480000+00:00,2024-05-24 04:25:33.480000+09:00,2024,5,23,19,25,33,480,,,,,,,,,0.000977,-0.219482,0.330078,1.89209,-67.443848,-42.84668,,,,,,,,,,,0.0,1.0,1.0,3.0,0.0,0.0,0.0,4.0,0.0,0.0371126,-0.24998049333333333,0.9905729466666667,-2.3225910799999996,1.8513997199999999,-2.0003255333333336,-8.45670192252159,2.5844867065354378,-8.775242678521021,6.383363245297201,18.24448726106167,-18.388565469168043,26.67860531876305,-1.4189648049364647,26.642743747269712,-1.4367734010147282,-0.036135600000000004,0.03049849333333332,-0.6604949466666667,0.7271290400000001,0.6621854077636914,0.7429473331477127,0.7326531983821687,0.741039010857544
LBP08_S03,LBP08,138,139,3,138,138,1716492333.52,2024-05-23 19:25:33.520000+00:00,2024-05-24 04:25:33.520000+09:00,2024,5,23,19,25,33,520,,,,,,,,,0.419922,0.012451,0.861084,-12.512207,-55.358887,-38.208008,,,,,,,,,,,0.0,1.0,1.0,3.0,0.0,0.0,0.0,4.0,0.0,0.029488906666666665,-0.25189456,1.0045247733333331,-2.89876296,-0.24251304000000032,-2.0662434933333333,-8.0825256279024,2.7352061020930423,-8.648700214834815,6.060062220181106,18.353895505145392,-18.734513477761435,26.91787193621902,-1.45073551259172,26.830776239605363,-1.4391001524366485,0.39043309333333337,0.26434556,-0.14344077333333316,0.7982194266666665,0.49284057352861443,0.7300588111358496,0.7263158008277535,0.7381957032836468
LBP08_S03,LBP08,139,140,3,139,139,1716492333.56,2024-05-23 19:25:33.560000+00:00,2024-05-24 04:25:33.560000+09:00,2024,5,23,19,25,33,560,,,,,,,,,0.266113,-0.479004,1.302246,-34.301758,25.57373,1.220703,,,,,,,,,,,0.0,1.0,1.0,3.0,0.0,0.0,0.0,4.0,0.0,0.03822262666666667,-0.2598014533333334,1.0299609733333333,-2.4251301466666666,-1.8994140800000003,-1.8652343733333334,-6.990136852008368,3.0565418441604524,-7.633674626332764,5.7804567461007705,18.47615717891181,-19.039860462814747,27.153238310316734,-1.4203161626797747,27.031875079383603,-1.4386230106022675,0.2278903733333333,-0.2192025466666666,0.27228502666666676,0.7193779466666667,0.4172803787263734,0.7164808786749398,0.7185099088320183,0.7307963659274226
LBP08_S03,LBP08,140,141,3,140,140,1716492333.6,2024-05-23 19:25:33.600000+00:00,2024-05-24 04:25:33.600000+09:00,2024,5,23,19,25,33,600,,,,,,,,,-0.371338,-0.20752,1.694824,-10.925293,2.380371,18.615723,,,,,,,,,,,0.0,1.0,1.0,3.0,0.0,0.0,0.0,4.0,0.0,0.037874319999999996,-0.25542645333333336,1.0349349333333333,-2.034505146666667,1.3631184666666665,-1.1767578133333336,-4.896940365474702,3.39545535814712,-6.131565561276788,5.5845791314817825,18.611975393237692,-19.28512308526582,27.377164289387604,-1.4193392999521826,27.243416354189314,-1.4340368966976564,-0.40921232,0.04790645333333335,0.6598890666666668,1.1170078400000003,0.7779481547101748,0.7357090543698801,0.7131825761388478,0.7305086812309123
LBP08_S03,LBP08,141,142,3,141,141,1716492333.64,2024-05-23 19:25:33.640000+00:00,2024-05-24 04:25:33.640000+09:00,2024,5,23,19,25,33,640,,,,,,,,,0.016113,-0.644043,1.802002,13.000488,-37.414551,1.525879,,,,,,,,,,,0.0,1.0,1.0,3.0,0.0,0.0,0.0,4.0,0.0,0.03156246666666667,-0.25499352000000003,1.0263281599999998,-2.77180984,2.38199868,-1.2980143200000005,-1.7379169887165813,3.603625941725707,-4.562023896015934,5.515062451933119,18.75612043090672,-19.46760404110646,27.589773006835404,-1.443999886245543,27.46068089028288,-1.4313517511410647,-0.015449466666666672,-0.38904948,0.7756738400000003,1.180172786666667,0.8679101854275596,0.7273439288087254,0.7126417396785327,0.7373002559300984
LBP08_S03,LBP08,142,143,3,142,142,1716492333.68,2024-05-23 19:25:33.680000+00:00,2024-05-24 04:25:33.680000+09:00,2024,5,23,19,25,33,680,,,,,,,,,0.05542,-0.439209,1.102051,6.896973,141.113281,39.794922,,,,,,,,,,,0.0,1.0,1.0,3.0,0.0,0.0,0.0,4.0,0.0,0.029049440000000003,-0.2563444266666667,1.0204980933333334,-2.3445637466666667,1.2337239466666663,-2.0719400933333336,2.3054718059497654,3.61267094079533,-3.182029941073352,5.607281324171109,18.900627268538532,-19.59488523874939,27.796309872218277,-1.454527924630987,27.677375626688143,-1.4296301324019842,0.026370559999999994,-0.18286457333333334,0.08155290666666648,0.2907880399999998,0.20195478504080477,0.706696173560137,0.7030002796063143,0.7239038324345085
LBP08_S03,LBP08,143,144,3,143,143,1716492333.72,2024-05-23 19:25:33.720000+00:00,2024-05-24 04:25:33.720000+09:00,2024,5,23,19,25,33,720,,,,,,,,,-0.402344,-0.002197,0.053711,-1.953125,10.498047,-11.59668,,,,,,,,,,,0.0,1.0,1.0,3.0,0.0,0.0,0.0,4.0,0.0,0.03703121333333334,-0.2589778933333334,1.01683272,-2.0483397866666664,0.030924466666666414,-3.0664062266666665,6.84273329474276,3.475470598323263,-1.9974073620222847,5.88099065596082,19.03964609247146,-19.674781533230284,28.003414127609542,-1.424394407611432,27.885503554049933,-1.4300683761329416,-0.4393752133333333,0.25678089333333337,-0.9631217200000001,1.6592778266666666,1.0893073270700677,0.7225299516998447,0.720179224485515,0.7276657375274078
LBP08_S03,LBP08,144,145,3,144,144,1716492333.76,2024-05-23 19:25:33.760000+00:00,2024-05-24 04:25:33.760000+09:00,2024,5,23,19,25,33,760,,,,,,,,,0.127441,-0.226807,0.368164,50.476074,-89.96582,-19.104004,,,,,,,,,,,0.0,1.0,1.0,3.0,0.0,0.0,0.0,4.0,0.0,0.0385514,-0.25282229333333334,1.0137598133333334,-0.9423827599999997,1.5405273333333331,-2.536621066666667,11.350809991461002,3.3077290747358483,-0.8074472727188358,6.33502305561926,19.171955255460894,-19.70707942413904,28.214630333604344,-1.4150274541225842,28.074849643151644,-1.4300639523701557,0.0888896,0.026015293333333328,-0.6455958133333335,0.7605007066666668,0.6522055739327193,0.7255446200743485,0.7049796752621451,0.7295918192044597
LBP08_S03,LBP08,145,146,3,145,145,1716492333.8,2024-05-23 19:25:33.800000+00:00,2024-05-24 04:25:33.800000+09:00,2024,5,23,19,25,33,800,,,,,,,,,0.34375,-0.179443,0.919189,-63.903809,-60.302734,-34.362793,,,,,,,,,,,0.0,1.0,1.0,3.0,0.0,0.0,0.0,4.0,0.0,0.031865199999999996,-0.24815758666666668,1.0150358666666666,0.7486979733333335,0.568033853333333,-2.7433268,15.265039759288571,3.1442612737691134,0.6474334199933162,6.945624645990803,19.297725706411658,-19.681182087339305,28.42521499510429,-1.4394333278533609,28.232799736300745,-1.4337177646218775,0.3118848,0.06871458666666669,-0.09584686666666653,0.47644625333333324,0.3334373175600305,0.6985368270501527,0.6934404871789794,0.7296954454742649
LBP08_S03,LBP08,146,147,3,146,146,1716492333.84,2024-05-23 19:25:33.840000+00:00,2024-05-24 04:25:33.840000+09:00,2024,5,23,19,25,33,840,,,,,,,,,0.178711,-0.406494,1.48877,59.204102,64.453125,0.305176,,,,,,,,,,,0.0,1.0,1.0,3.0,0.0,0.0,0.0,4.0,0.0,0.03935218666666667,-0.24875329333333332,1.0278255733333335,1.0083008266666669,-1.573893226666667,-3.019205706666667,18.07454916149775,2.814347876331291,2.517040937234519,7.668606612450713,19.410299621464908,-19.580500449849925,28.617534076823194,-1.4095625433957928,28.345152536809046,-1.4344473167098273,0.13935881333333333,-0.1577407066666667,0.46094442666666646,0.7580439466666665,0.5067275144181892,0.6941225116357705,0.6929301118657315,0.7274046591812695
LBP08_S03,LBP08,147,148,3,147,147,1716492333.88,2024-05-23 19:25:33.880000+00:00,2024-05-24 04:25:33.880000+09:00,2024,5,23,19,25,33,880,,,,,,,,,-0.366455,-0.638184,1.752197,16.174316,-28.564453,19.775391,,,,,,,,,,,0.0,1.0,1.0,3.0,0.0,0.0,0.0,4.0,0.0,0.03568356,-0.24690434666666666,1.0302637333333333,1.08968104,1.1328125066666663,-2.311197893333334,19.41728225892637,1.9503273418752773,4.735776155226702,8.445297902807768,19.48831271513992,-19.391069403640856,28.75988459238093,-1.4233472422460376,28.398022881396024,-1.4338753671638789,-0.40213856,-0.3912796533333333,0.7219332666666667,1.51535148,0.9143319036714904,0.7107980212013042,0.7044114028821248,0.7318816565918023
LBP08_S03,LBP08,148,149,3,148,148,1716492333.92,2024-05-23 19:25:33.920000+00:00,2024-05-24 04:25:33.920000+09:00,2024,5,23,19,25,33,920,,,,,,,,,0.000488,-0.418457,1.711914,69.335938,-27.587891,6.347656,,,,,,,,,,,0.0,1.0,1.0,3.0,0.0,0.0,0.0,4.0,0.0,0.029589813333333333,-0.25240890666666665,1.024336,0.013834693333333684,1.5852864666666664,-2.127278626666667,19.155305908176906,0.15455829731295717,7.017876526095633,9.211510139134845,19.494495047032437,-19.11035434259703,28.811332827236118,-1.4506912749638619,28.38026072242149,-1.436116968293934,-0.029101813333333334,-0.16604809333333337,0.687578,0.8827279066666667,0.7079423641250209,0.7036732580187571,0.7056519224519222,0.7388394053740953
LBP08_S03,LBP08,149,150,3,149,149,1716492333.96,2024-05-23 19:25:33.960000+00:00,2024-05-24 04:25:33.960000+09:00,2024,5,23,19,25,33,960,,,,,,,,,0.026123,-0.210693,0.712646,10.803223,154.35791,51.391602,,,,,,,,,,,0.0,1.0,1.0,3.0,0.0,0.0,0.0,4.0,0.0,0.027180946666666667,-0.2441732266666667,1.0175261066666668,0.6624349600000002,0.7071940133333328,-2.972005186666667,17.393310453941826,-2.761104538290898,8.933583747399032,9.907242557292518,19.3840508655008,-18.75301099270107,28.732739241807725,-1.4568542851969943,28.285555886643817,-1.439212861616876,-0.001057946666666667,0.033480226666666696,-0.30488010666666676,0.3394182800000001,0.30671472783333864,0.6901357780396846,0.6992612450769645,0.7271946239405087
LBP08_S03,LBP08,150,151,3,150,150,1716492334.0,2024-05-23 19:25:34+00:00,2024-05-24 04:25:34+09:00,2024,5,23,19,25,34,0,19.0,25.0,32.0,40.796909,141.596436,6.001,3.0,16.0,-0.325439,0.202881,-0.142578,-12.512207,-0.549316,-28.442383,-549.0,32.0,599.0,0.0,0.0,1017.799988,21.450001,0.047567,-37.790871,3.9375,0.0,1.0,1.0,3.0,0.0,0.0,0.0,5.0,0.0,0.03533849333333333,-0.2505762266666667,1.01580084,-0.08707675999999974,0.15950521333333284,-3.3040364400000004,14.414918755786282,-6.6035524711580935,10.017265274781114,10.483839307523969,19.119908766654476,-18.352320381709827,28.500692294470625,-1.4266348208316766,28.113762231657194,-1.4463790889857486,-0.3607774933333333,0.45345722666666666,-1.1583788400000001,1.97261356,1.295231791252768,0.7171357919110491,0.7185872816399231,0.7335727755136422
LBP08_S03,LBP08,151,152,3,151,151,1716492334.04,2024-05-23 19:25:34.040000+00:00,2024-05-24 04:25:34.040000+09:00,2024,5,23,19,25,34,40,,,,,,,,,0.153564,-0.195557,0.349854,-31.37207,-108.093262,-0.427246,,,,,,,,,,,0.0,1.0,1.0,3.0,0.0,0.0,0.0,5.0,0.0,0.03255854666666667,-0.2515202266666667,1.01454432,-0.45654290666666647,1.6479492266666662,-3.042805973333334,10.559238553860528,-10.804452405294876,9.8703406109047,10.90620884967839,18.68773067044268,-17.957506757273638,28.118476452705178,-1.4382803907860633,27.871562290436394,-1.4534073744609222,0.12100545333333335,0.05596322666666667,-0.66469032,0.8416589999999999,0.6779287750029884,0.712093158528223,0.7056217940925488,0.7326989963969146
LBP08_S03,LBP08,152,153,3,152,152,1716492334.08,2024-05-23 19:25:34.080000+00:00,2024-05-24 04:25:34.080000+09:00,2024,5,23,19,25,34,80,,,,,,,,,0.378174,-0.272949,0.927002,41.687012,-60.668945,-20.446777,,,,,,,,,,,0.0,1.0,1.0,3.0,0.0,0.0,0.0,5.0,0.0,0.023619746666666667,-0.25885096,1.0176107333333335,0.07568365333333346,0.6575520799999997,-3.2918294133333337,6.1066610336350875,-14.608023550600949,8.252549321425633,11.150475291023794,18.10340972841864,-17.627404784416612,27.61868828247295,-1.4769439359315375,27.572779485541055,-1.4633188620968611,0.35455425333333335,-0.014098039999999978,-0.09060873333333352,0.45926102666666685,0.3662204470600601,0.6886960517610512,0.6977432915548357,0.7262703035066493
LBP08_S03,LBP08,153,154,3,153,153,1716492334.12,2024-05-23 19:25:34.120000+00:00,2024-05-24 04:25:34.120000+09:00,2024,5,23,19,25,34,120,,,,,,,,,0.262451,-0.37085,1.38501,-49.621582,11.535645,62.194824,,,,,,,,,,,0.0,1.0,1.0,3.0,0.0,0.0,0.0,5.0,0.0,0.030195266666666665,-0.2690885866666667,1.0259245333333336,-0.6241861333333333,-0.5086263066666669,-3.2348632800000003,1.2440351768523386,-17.32561925709359,5.168097707775079,11.200236698097887,17.410384958134898,-17.42068087610561,27.056365769832805,-1.4553533408408499,27.238263501507305,-1.4711557925124126,0.23225573333333333,-0.10176141333333333,0.3590854666666665,0.6931026133333331,0.43959126843127766,0.6799141511303365,0.6959837508925681,0.7179289354121261
LBP08_S03,LBP08,154,155,3,154,154,1716492334.16,2024-05-23 19:25:34.160000+00:00,2024-05-24 04:25:34.160000+09:00,2024,5,23,19,25,34,160,,,,,,,,,-0.508057,-0.632568,1.71167,16.174316,-16.113281,15.74707,,,,,,,,,,,0.0,1.0,1.0,3.0,0.0,0.0,0.0,5.0,0.0,0.021982373333333336,-0.2695540933333333,1.0247787066666667,-0.29134107999999986,1.5812174399999996,-2.4894205600000006,-3.8692397887401455,-18.508956775209942,0.9319841095187448,11.045467106548282,16.6700266871265,-17.38340151172486,26.49669378373815,-1.4866897278113116,26.894838411507738,-1.4771315480862248,-0.5300393733333333,-0.3630139066666667,0.6868912933333333,1.5799445733333333,0.9405001236438661,0.6596541521049238,0.7051862504628659,0.7173521773893046
LBP08_S03,LBP08,155,156,3,155,155,1716492334.2,2024-05-23 19:25:34.200000+00:00,2024-05-24 04:25:34.200000+09:00,2024,5,23,19,25,34,200,,,,,,,,,-0.016357,-0.241943,1.655029,52.368164,-74.768066,-17.333984,,,,,,,,,,,0.0,1.0,1.0,3.0,0.0,0.0,0.0,5.0,0.0,0.016051373333333334,-0.2715886,1.0192871733333333,-1.1352538399999998,1.8945312399999996,-2.64567056,-8.977623884180302,-17.97190323144414,-3.8280668415006964,10.68636215118107,15.951150557868736,-17.536524185384888,26.003215582896292,-1.509716182605096,26.572913748092596,-1.4825472184545672,-0.03240837333333334,0.029645600000000022,0.6357418266666668,0.6977958000000002,0.6372572749172369,0.6597221735841827,0.7082865654808695,0.7201311001500424
LBP08_S03,LBP08,156,157,3,156,156,1716492334.24,2024-05-23 19:25:34.240000+00:00,2024-05-24 04:25:34.240000+09:00,2024,5,23,19,25,34,240,,,,,,,,,0.146729,-0.016846,0.787598,13.916016,116.394043,16.906738,,,,,,,,,,,0.0,1.0,1.0,3.0,0.0,0.0,0.0,5.0,0.0,0.016100200000000002,-0.26764002666666664,1.0164128266666665,-0.49560541333333336,1.853027333333333,-3.060709613333334,-13.636775601783272,-15.70240048192699,-8.274816227413444,10.14089112710974,15.323054538591657,-17.867516834481425,25.62970602786978,-1.5086774197551824,26.30296169019967,-1.489631941327945,0.1306288,0.2507940266666666,-0.22881482666666653,0.6102376533333331,0.36375507158473724,0.6611747568717028,0.6979150319293949,0.7105315991034201
LBP08_S03,LBP08,157,158,3,157,157,1716492334.28,2024-05-23 19:25:34.280000+00:00,2024-05-24 04:25:34.280000+09:00,2024,5,23,19,25,34,280,,,,,,,,,-0.487061,0.174072,-0.19458,-32.775879,33.38623,-37.475586,,,,,,,,,,,0.0,1.0,1.0,3.0,0.0,0.0,0.0,5.0,0.0,0.018297466666666668,-0.27385096,1.0157552666666667,-0.3214517733333333,2.233072906666666,-3.344726533333333,-17.238721996115558,-11.77093010142327,-11.564196014509962,9.451342247265117,14.852217334534727,-18.330084675061823,25.41472475204342,-1.5017165464015516,26.111542715132906,-1.4966359585511781,-0.5053584666666667,0.44792296,-1.2103352666666667,2.163616693333333,1.3859774946455363,0.6989034363159083,0.7067897204138484,0.7203144145228343
LBP08_S03,LBP08,158,159,3,158,158,1716492334.32,2024-05-23 19:25:34.320000+00:00,2024-05-24 04:25:34.320000+09:00,2024,5,23,19,25,34,320,,,,,,,,,-0.022949,-0.049561,0.17627,-58.837891,-95.153809,-49.865723,,,,,,,,,,,0.0,1.0,1.0,3.0,0.0,0.0,0.0,5.0,0.0,0.015846293333333334,-0.2714714,1.01383796,0.56152348,2.2216796799999994,-3.3569335600000003,-19.1807296282362,-6.332239705750069,-13.084928217045153,8.684113062135669,14.598927746304724,-18.85348180374363,25.37708192724044,-1.5104488307019845,26.017584604890782,-1.5002256338456,-0.038795293333333335,0.22191039999999998,-0.83756796,1.0982736533333333,0.8673346459305895,0.697196179355409,0.7123014998515801,0.7210931451594484
LBP08_S03,LBP08,159,160,3,159,159,1716492334.36,2024-05-23 19:25:34.360000+00:00,2024-05-24 04:25:34.360000+09:00,2024,5,23,19,25,34,360,,,,,,,,,0.49707,-0.234131,0.739014,-62.133789,-73.974609,-28.381348,,,,,,,,,,,0.0,1.0,1.0,3.0,0.0,0.0,0.0,5.0,0.0,0.01578444,-0.27301437333333334,1.0166341866666666,0.2718099333333334,1.021321613333333,-3.7996418933333342,-19.10963563930376,0.26563211442070017,-12.642021758378467,7.919727636563518,14.609553030881553,-19.359162674078767,25.513492607656303,-1.5110109888804162,26.029477627790527,-1.5060138852176987,0.48128556,0.03888337333333333,-0.27762018666666666,0.79778912,0.5569745730561925,0.6828676598111132,0.7035906502816087,0.7191953650420925
LBP08_S03,LBP08,160,161,3,160,160,1716492334.4,2024-05-23 19:25:34.400000+00:00,2024-05-24 04:25:34.400000+09:00,2024,5,23,19,25,34,400,,,,,,,,,0.371826,-0.45166,1.222168,-18.310547,33.447266,-3.295898,,,,,,,,,,,0.0,1.0,1.0,3.0,0.0,0.0,0.0,5.0,0.0,0.01934564,-0.27269536,1.0147526666666666,0.7617187866666668,1.0465494666666662,-3.6263020400000006,-17.112428884040842,7.3603908437128975,-10.505273030539165,7.235230481201885,14.903968664630069,-19.779373595300335,25.80117171554137,-1.4974820495654577,26.14354198155184,-1.506410833920787,0.35248036,-0.17896464,0.20741533333333328,0.7388603333333332,0.4464211767578202,0.6850132298307107,0.6979160173828738,0.7121377382031949
LBP08_S03,LBP08,161,162,3,161,161,1716492334.44,2024-05-23 19:25:34.440000+00:00,2024-05-24 04:25:34.440000+09:00,2024,5,23,19,25,34,440,,,,,,,,,-0.362793,-0.517334,1.650391,-2.868652,20.507812,25.146484,,,,,,,,,,,0.0,1.0,1.0,3.0,0.0,0.0,0.0,5.0,0.0,0.01601556,-0.2645996666666667,1.0112923866666668,0.15380862666666664,1.2060546799999994,-3.40901688,-13.745434019334587,13.979088001894793,-7.300870647169406,6.685413120428501,15.463132184705861,-20.07140842118711,26.204286702037603,-1.5083205630183931,26.344371116503247,-1.505829958900783,-0.37880855999999996,-0.2527343333333333,0.6390986133333332,1.2706415066666663,0.7847404704354857,0.6677087730610655,0.7019034348184262,0.7150110534138406
LBP08_S03,LBP08,162,163,3,162,162,1716492334.48,2024-05-23 19:25:34.480000+00:00,2024-05-24 04:25:34.480000+09:00,2024,5,23,19,25,34,480,,,,,,,,,0.064941,-0.27417,1.831299,29.11377,-37.353516,-8.789062,,,,,,,,,,,0.0,1.0,1.0,3.0,0.0,0.0,0.0,5.0,0.0,0.015136653333333335,-0.2701139866666667,1.0048861333333334,-2.5952148133333335,0.6054687466666663,-2.9142252133333333,-9.882856869520962,19.029643503621244,-3.7967093347208274,6.2900988456476625,16.224317924850713,-20.223276794575945,26.67910718005166,-1.5128406888757537,26.607177023403416,-1.5062838682069313,0.049804346666666666,-0.00405601333333333,0.8264128666666666,0.8802732266666666,0.8279221886042621,0.6743382442946882,0.7086427887212003,0.7132148803530085
LBP08_S03,LBP08,163,164,3,163,163,1716492334.52,2024-05-23 19:25:34.520000+00:00,2024-05-24 04:25:34.520000+09:00,2024,5,23,19,25,34,520,,,,,,,,,0.231445,-0.325195,1.289307,-6.04248,140.869141,40.649414,,,,,,,,,,,0.0,1.0,1.0,3.0,0.0,0.0,0.0,5.0,0.0,0.015110613333333335,-0.27163741333333336,1.0032975866666667,-1.9734700133333334,0.4785156266666663,-2.9687499600000002,-6.456786848472512,21.619087872522794,-0.6770718628359869,6.031827371708762,17.089081439751624,-20.250359669089384,27.17529599883027,-1.5132358545618407,26.90168813815683,-1.5040674818757185,0.21633438666666668,-0.05355758666666666,0.2860094133333333,0.5559013866666667,0.3625884257105815,0.6691281583819669,0.6995934847589083,0.7072532533458246
LBP08_S03,LBP08,164,165,3,164,164,1716492334.56,2024-05-23 19:25:34.560000+00:00,2024-05-24 04:25:34.560000+09:00,2024,5,23,19,25,34,560,,,,,,,,,-0.530518,0.085449,0.034668,-14.587402,89.416504,-2.319336,,,,,,,,,,,0.0,1.0,1.0,3.0,0.0,0.0,0.0,5.0,0.0,0.021083920000000003,-0.27198572000000004,1.0013932933333332,-1.9099934533333336,0.9741210933333329,-2.2688801733333337,-4.198648337659661,21.352027291777823,1.6055047533700453,5.863881438202376,17.943162531422736,-20.186139478954583,27.637337321351275,-1.4906592148421935,27.196700721322845,-1.5015629070335947,-0.5516019200000001,0.35743472000000004,-0.9667252933333331,1.875761933333333,1.1690090033783247,0.6991973033680449,0.7078390910214923,0.7120723736773605
LBP08_S03,LBP08,165,166,3,165,165,1716492334.6,2024-05-23 19:25:34.600000+00:00,2024-05-24 04:25:34.600000+09:00,2024,5,23,19,25,34,600,,,,,,,,,0.050537,-0.24585,0.343262,-1.342773,-59.204102,-36.499023,,,,,,,,,,,0.0,1.0,1.0,3.0,0.0,0.0,0.0,5.0,0.0,0.017620373333333335,-0.2726302533333333,0.9979850933333334,-1.8269856400000004,0.5875650933333327,-1.9628905866666666,-3.468082707471544,18.45947499707395,2.864754645847519,5.725158129903514,18.681541531305694,-20.071549293120682,28.011506932410352,-1.5039074324050565,27.464204690511004,-1.4995428579113117,0.032916626666666664,0.02678025333333328,-0.6547230933333335,0.7144199733333334,0.6560968032414722,0.6943232493092968,0.7150161518395884,0.7068961338623307
LBP08_S03,LBP08,166,167,3,166,166,1716492334.64,2024-05-23 19:25:34.640000+00:00,2024-05-24 04:25:34.640000+09:00,2024,5,23,19,25,34,640,,,,,,,,,0.411133,-0.023682,1.020996,39.978027,-22.949219,-45.166016,,,,,,,,,,,0.0,1.0,1.0,3.0,0.0,0.0,0.0,5.0,0.0,0.01492832,-0.26812505333333336,0.9982780666666667,-1.2752278266666668,-0.9806315200000006,-2.3706054266666667,-4.203964304514105,13.691151843532795,3.12840941562928,5.55699955772295,19.229187605047006,-19.94641291649551,28.257765096871434,-1.5132165128166652,27.682202849459507,-1.4985923805255543,0.39620468000000003,0.24444305333333335,0.022717933333333273,0.6633656666666666,0.4660972637462733,0.6782507324420454,0.7027973306253855,0.7011780705997036
LBP08_S03,LBP08,167,168,3,167,167,1716492334.68,2024-05-23 19:25:34.680000+00:00,2024-05-24 04:25:34.680000+09:00,2024,5,23,19,25,34,680,,,,,,,,,0.178955,-0.721436,1.604248,-60.241699,29.174805,67.199707,,,,,,,,,,,0.0,1.0,1.0,3.0,0.0,0.0,0.0,5.0,0.0,0.024094986666666665,-0.27277024,1.0059929066666666,-1.6503905866666668,-0.7470703200000006,-2.1476236533333335,-5.98991416162189,8.03415903302028,2.562199246523258,5.317402991258074,19.55055396636782,-19.84392494663458,28.35983589957754,-1.479552683089421,27.836013294039578,-1.4935392869663477,0.15486001333333332,-0.44866575999999997,0.5982550933333333,1.2017808666666665,0.7636699186332097,0.7007193377857415,0.7037077556729393,0.7022399656661233
LBP08_S03,LBP08,168,169,3,168,168,1716492334.72,2024-05-23 19:25:34.720000+00:00,2024-05-24 04:25:34.720000+09:00,2024,5,23,19,25,34,720,,,,,,,,,-0.34668,-0.564209,1.716064,-10.437012,-62.5,10.925293,,,,,,,,,,,0.0,1.0,1.0,3.0,0.0,0.0,0.0,5.0,0.0,0.021936786666666666,-0.2650781866666667,0.99857428,-0.9415689733333334,-0.2978515600000006,-2.4975585600000003,-8.200354381244312,2.409152868966229,1.4168942460742524,4.989388816008302,19.646920081126467,-19.787249176791608,28.327207758900617,-1.4854030822807491,27.91861964392307,-1.4899868518974393,-0.36861678666666664,-0.29913081333333325,0.71748972,1.3852373199999999,0.860319171705245,0.6915598115711487,0.7070448816354968,0.7106394201807262
LBP08_S03,LBP08,169,170,3,169,169,1716492334.76,2024-05-23 19:25:34.760000+00:00,2024-05-24 04:25:34.760000+09:00,2024,5,23,19,25,34,760,,,,,,,,,0.173828,-0.37793,1.737305,33.203125,-43.395996,-15.380859,,,,,,,,,,,0.0,1.0,1.0,3.0,0.0,0.0,0.0,5.0,0.0,0.02039056,-0.26312830666666664,0.9917806666666666,-2.0882161066666667,-0.8740234266666673,-2.7107747066666668,-10.176486045378223,-2.519022517516644,-0.005080276790368751,4.582329374193173,19.5461591804258,-19.787452387863222,28.188532299537897,-1.4908104976575873,27.930787696468638,-1.4875076112847547,0.15343744,-0.11480169333333334,0.7455243333333335,1.0137634666666668,0.7697590586528135,0.6962619509599525,0.7109032855171504,0.7020737671614141
LBP08_S03,LBP08,170,171,3,170,170,1716492334.8,2024-05-23 19:25:34.800000+00:00,2024-05-24 04:25:34.800000+09:00,2024,5,23,19,25,34,800,,,,,,,,,-0.016602,-0.322998,0.515625,-77.453613,170.166016,23.498535,,,,,,,,,,,0.0,1.0,1.0,3.0,0.0,0.0,0.0,5.0,0.0,0.021321546666666667,-0.26594080000000003,0.9878972133333334,-1.0864257333333334,-1.3932291466666675,-3.0151366800000003,-11.378864718376704,-6.371734675762358,-1.3967898674652255,4.127174785458105,19.291289793395304,-19.84332398256183,27.98115330502645,-1.4879772757078829,27.88102972821512,-1.4845846810514607,-0.03792354666666667,-0.057057199999999975,-0.47227221333333336,0.56725296,0.47721563569353465,0.7020130836852926,0.7002749553677226,0.6962980193477505
LBP08_S03,LBP08,171,172,3,171,171,1716492334.84,2024-05-23 19:25:34.840000+00:00,2024-05-24 04:25:34.840000+09:00,2024,5,23,19,25,34,840,,,,,,,,,-0.234375,0.056152,-0.024414,-5.554199,-18.432617,-34.790039,,,,,,,,,,,0.0,1.0,1.0,3.0,0.0,0.0,0.0,5.0,0.0,0.0286718,-0.26130212,0.9828223466666667,-1.7097981333333332,-0.7609049333333341,-2.3209635066666667,-11.477978155241116,-8.986598850390447,-2.5222081868004342,3.66805565924846,18.931825839379687,-19.944212310033848,27.742391147838262,-1.4577896274263273,27.78480756963292,-1.4814282098162443,-0.2630468,0.31745412,-1.0072363466666667,1.5877372666666667,1.0883454393443417,0.7252778006823387,0.7097001561590547,0.7037126748046005
LBP08_S03,LBP08,172,173,3,172,172,1716492334.88,2024-05-23 19:25:34.880000+00:00,2024-05-24 04:25:34.880000+09:00,2024,5,23,19,25,34,880,,,,,,,,,0.24585,-0.154541,0.405762,19.104004,-105.957031,-23.925781,,,,,,,,,,,0.0,1.0,1.0,3.0,0.0,0.0,0.0,5.0,0.0,0.023775973333333335,-0.26248375999999995,0.9788542533333335,-2.0458983866666665,-0.4825846266666674,-2.084147106666667,-10.368688516650375,-10.352145090837276,-3.293402354571574,3.2533081185824453,18.517740035746197,-20.07594840421671,27.505170678886607,-1.4773163381866694,27.662432518347224,-1.4787458207006214,0.22207402666666667,0.10794275999999994,-0.5730922533333336,0.9031090400000001,0.6240218294154802,0.7136653977120981,0.7122317094567012,0.7074960678254493
LBP08_S03,LBP08,173,174,3,173,173,1716492334.92,2024-05-23 19:25:34.920000+00:00,2024-05-24 04:25:34.920000+09:00,2024,5,23,19,25,34,920,,,,,,,,,0.380615,-0.110107,0.961182,-15.014648,-37.719727,-15.930176,,,,,,,,,,,0.0,1.0,1.0,3.0,0.0,0.0,0.0,5.0,0.0,0.021490813333333334,-0.26987308,0.9864909733333334,-1.2597655733333333,-3.109537746666667,-2.790527306666667,-8.123819824995689,-10.60386305259694,-3.80119208155595,2.9283553255826176,18.09358551364232,-20.22799608747895,27.296976524285963,-1.4884434484349953,27.53588995080729,-1.478718290467654,0.3591241866666666,0.15976607999999998,-0.025308973333333373,0.54419924,0.3938729819354821,0.7011026224245167,0.7023879402216369,0.7041354891094538
LBP08_S03,LBP08,174,175,3,174,174,1716492334.96,2024-05-23 19:25:34.960000+00:00,2024-05-24 04:25:34.960000+09:00,2024,5,23,19,25,34,960,,,,,,,,,0.090332,-0.257324,1.412354,47.607422,62.561035,24.047852,,,,,,,,,,,0.0,1.0,1.0,3.0,0.0,0.0,0.0,5.0,0.0,0.02895176,-0.27328779999999997,0.9964388933333334,-1.1751301600000001,-1.9864908666666679,-2.522786426666667,-4.93039004160393,-10.0433052260276,-4.2667922834716245,2.7311397239184605,17.691853304601217,-20.398667778817813,27.139757638816057,-1.4614299125092516,27.42550279911014,-1.475199110281076,0.061380239999999996,0.015963799999999972,0.41591510666666676,0.4932591466666667,0.42072289303821153,0.7056629490327115,0.6978993635361981,0.7013951463955469
LBP08_S03,LBP08,175,176,3,175,175,1716492335.0,2024-05-23 19:25:35+00:00,2024-05-24 04:25:35+09:00,2024,5,23,19,25,35,0,19.0,25.0,33.0,40.797024,141.59642,6.675,3.0,16.0,-0.399902,-0.391846,1.751709,-47.912598,-60.241699,15.869141,-547.0,35.0,598.0,0.0,0.0,1017.799988,21.48,0.047567,-37.790871,3.9375,0.0,1.0,1.0,3.0,0.0,0.0,0.0,4.0,0.0,0.02581698666666667,-0.27087894666666673,0.99071624,-1.7960611466666667,-1.460774720000001,-2.407226533333333,-1.057881149969612,-9.104177706010015,-4.927318754939033,2.688824477919676,17.327686196360816,-20.595760529015376,27.04928534658838,-1.4723427200528947,27.34735061561448,-1.473072842902927,-0.42571898666666663,-0.1209670533333333,0.7609927599999999,1.3076788,0.8803292931472066,0.6890668491084893,0.703101320509769,0.7087471374627785
LBP08_S03,LBP08,176,177,3,176,176,1716492335.04,2024-05-23 19:25:35.040000+00:00,2024-05-24 04:25:35.040000+09:00,2024,5,23,19,25,35,40,,,,,,,,,0.150146,-0.437744,1.750977,8.056641,-55.786133,-8.300781,,,,,,,,,,,0.0,1.0,1.0,3.0,0.0,0.0,0.0,4.0,0.0,0.022346933333333333,-0.27412764,0.9836621999999999,-2.30061844,-1.8107096133333342,-2.32340492,3.1223696255895184,-8.238688803221862,-5.913179426990616,2.813719262943257,16.99813864423194,-20.832287706095002,27.034014584014454,-1.4863926216604353,27.311835128340288,-1.4707575838645268,0.12779906666666668,-0.16361636000000002,0.7673148000000001,1.0587302266666667,0.7949056025715009,0.6937459222112297,0.7029195403697264,0.7016631701321091
LBP08_S03,LBP08,177,178,3,177,177,1716492335.08,2024-05-23 19:25:35.080000+00:00,2024-05-24 04:25:35.080000+09:00,2024,5,23,19,25,35,80,,,,,,,,,-0.041016,-0.010254,0.606201,-11.413574,160.339355,26.916504,,,,,,,,,,,0.0,1.0,1.0,3.0,0.0,0.0,0.0,4.0,0.0,0.023681573333333334,-0.26745446666666667,0.9769760000000001,-1.28580724,-2.5944010133333344,-2.7473958,7.094790893185826,-7.767749371154782,-7.185596143569919,3.0975108986706896,16.68742866938575,-21.1197115518378,27.094410224178198,-1.479277380759748,27.32333393914606,-1.469530342954003,-0.06469757333333333,0.2572004666666667,-0.3707750000000001,0.6926730400000001,0.45586396729043327,0.6973316630204447,0.6930138573907478,0.6976060820433719
LBP08_S03,LBP08,178,179,3,178,178,1716492335.12,2024-05-23 19:25:35.120000+00:00,2024-05-24 04:25:35.120000+09:00,2024,5,23,19,25,35,120,,,,,,,,,-0.086182,-0.162598,-0.04541,-2.685547,-29.35791,-40.222168,,,,,,,,,,,0.0,1.0,1.0,3.0,0.0,0.0,0.0,4.0,0.0,0.03152988,-0.26986657333333336,0.9740397999999999,-1.8155924,-1.9783528400000008,-2.578124973333334,10.18976189787952,-7.774200647879511,-8.567923803215702,3.5051013745858706,16.37646064347057,-21.46242850396643,27.223336241929182,-1.450211280414968,27.380844104464007,-1.4676628031075285,-0.11771187999999999,0.10726857333333337,-1.0194497999999999,1.2444302533333331,1.031814192690788,0.7210205799908249,0.7004673655605808,0.7043293605919871
LBP08_S03,LBP08,179,180,3,179,179,1716492335.16,2024-05-23 19:25:35.160000+00:00,2024-05-24 04:25:35.160000+09:00,2024,5,23,19,25,35,160,,,,,,,,,0.222168,-0.071533,0.483643,58.044434,-100.830078,-50.048828,,,,,,,,,,,0.0,1.0,1.0,3.0,0.0,0.0,0.0,4.0,0.0,0.026217386666666672,-0.26755212,0.9721973466666668,-1.7122395333333331,-2.3494465866666676,-2.9239908533333336,11.650816695582444,-8.10442682708102,-9.847164585296774,3.9711340424091683,16.052283570387328,-21.8563150873783,27.407010464581287,-1.4695478238760973,27.479621980842154,-1.4653410548049315,0.19595061333333333,0.19601912,-0.4885543466666668,0.88052408,0.5616987519286273,0.7058685251222154,0.6827613386135696,0.7054136753493158
LBP08_S03,LBP08,180,181,3,180,180,1716492335.2,2024-05-23 19:25:35.200000+00:00,2024-05-24 04:25:35.200000+09:00,2024,5,23,19,25,35,200,,,,,,,,,0.536377,-0.200928,1.142822,-53.833008,-46.630859,-31.433105,,,,,,,,,,,0.0,1.0,1.0,3.0,0.0,0.0,0.0,4.0,0.0,0.02713536,-0.2641211333333333,0.9790788533333333,-2.3274739066666665,-5.180664026666667,-3.6482747066666668,10.786993468692698,-8.476507420836676,-10.877617215628865,4.402613781156877,15.713223273553862,-22.291419776003455,27.62599843228449,-1.4648246853238822,27.613607713850865,-1.4644119024702709,0.5092416399999999,0.06319313333333332,0.16374314666666667,0.7361779199999999,0.5386392467047639,0.7019238039937166,0.6808229887889498,0.7061656449851519
LBP08_S03,LBP08,181,182,3,181,181,1716492335.24,2024-05-23 19:25:35.240000+00:00,2024-05-24 04:25:35.240000+09:00,2024,5,23,19,25,35,240,,,,,,,,,0.054932,-0.2854,1.513428,4.272461,70.251465,31.25,,,,,,,,,,,0.0,1.0,1.0,3.0,0.0,0.0,0.0,4.0,0.0,0.032477160000000005,-0.26701501333333333,0.9865300266666666,-2.8540038533333334,-3.0249023066666676,-3.3666991866666667,7.183330935100756,-8.613825994734453,-11.618029503415828,4.689947018560907,15.368670233764483,-22.756140956140086,27.857379255895967,-1.4455172183210871,27.777852401724783,-1.45942984279011,0.022454839999999997,-0.01838498666666666,0.5268979733333334,0.5677378000000001,0.5276966002135444,0.7084814651388689,0.6848281110052858,0.7014371763325528
LBP08_S03,LBP08,182,183,3,182,182,1716492335.28,2024-05-23 19:25:35.280000+00:00,2024-05-24 04:25:35.280000+09:00,2024,5,23,19,25,35,280,,,,,,,,,-0.205322,-0.537842,1.752686,63.232422,-61.889648,-6.530762,,,,,,,,,,,0.0,1.0,1.0,3.0,0.0,0.0,0.0,4.0,0.0,0.028505813333333338,-0.26186201333333337,0.9802214400000001,-4.047037706666667,-1.967773400000001,-3.583984346666667,0.9180704272983752,-8.312631719682711,-12.083798276227858,4.726669835652841,15.036164964977175,-23.2394928871892,28.080272332066066,-1.4586409397219258,27.969815316671166,-1.4560267052051976,-0.23382781333333336,-0.2759799866666667,0.7724645599999999,1.2822723599999999,0.8529606648520054,0.6871607919471276,0.693032114131518,0.7002467442582748
LBP08_S03,LBP08,183,184,3,183,183,1716492335.32,2024-05-23 19:25:35.320000+00:00,2024-05-24 04:25:35.320000+09:00,2024,5,23,19,25,35,320,,,,,,,,,0.285645,-0.153076,1.481201,8.361816,-12.207031,9.887695,,,,,,,,,,,0.0,1.0,1.0,3.0,0.0,0.0,0.0,4.0,0.0,0.026884720000000004,-0.2626920933333334,0.9733594666666666,-3.1477863999999998,-2.0808918933333342,-3.527832,-7.287261855136833,-7.423554007034015,-12.26213886679395,4.435179361447368,14.739222804695814,-23.729978441860958,28.28475528806745,-1.4652259654090263,28.188892716934742,-1.452561634362042,0.25876027999999995,0.10961609333333339,0.5078415333333334,0.8762179066666667,0.5804098495043754,0.675683800090079,0.686439989722744,0.7000955999310797
