file_name,test_id,_program_index,program_index,session_id,index,_index,unixtime,datetime_utc,datetime_jst,rtc_year,rtc_month,rtc_day,rtc_hour,rtc_min,rtc_sec,rtc_msec,gps_hour,gps_min,gps_sec,latitude,longitude,altitude,fix_type,SIV,acc_x,acc_y,acc_z,gyro_x,gyro_y,gyro_z,mag_x,mag_y,mag_z,illuminance,atmopress,water_pressure,water_temp,depth,alt_wps,battery_level,behavior_class,camera_command,camera_recording,camera_count,play_audio,speaker_on,audio_file,prev_sd_write_time_ms,delay_occurred_counter,acc_x_ma,acc_y_ma,acc_z_ma,gyro_x_ma,gyro_y_ma,gyro_z_ma,gyro_x_lowpass,gyro_y_lowpass,gyro_z_lowpass,angle_x,angle_y,angle_z,combined_angle_change,gravity_adjusted_angle,smoothed_angle_change,smoothed_gravity_angle,acc_x_dy,acc_y_dy,acc_z_dy,ODBA,VeDBA,smoothed_VeDBA_1s,smoothed_VeDBA_2s,smoothed_VeDBA_3s
LBP08_S14,LBP08,0,1,14,0,0,1716538398.0,2024-05-24 08:13:18+00:00,2024-05-24 17:13:18+09:00,2024,5,24,8,13,18,0,8.0,13.0,16.0,40.564903,141.494034,29.434999,3.0,12.0,0.018066,-0.493896,1.860596,-150.085449,4.699707,22.338867,-587.0,4.0,598.0,457.0,0.0,1019.200012,22.709999,0.061441,-49.391544,3.628125,0.0,1.0,1.0,14.0,0.0,0.0,0.0,4.0,0.0,,,,,,,-150.18118521166824,5.556877646129685,22.368734777798814,-6.007247408466729,0.2222751058451874,0.8947493911119526,6.077582095052599,,10.571491782600313,,,,,,,,,
LBP08_S14,LBP08,1,2,14,1,1,1716538398.04,2024-05-24 08:13:18.040000+00:00,2024-05-24 17:13:18.040000+09:00,2024,5,24,8,13,18,40,,,,,,,,,-0.298096,-0.11084,1.956543,-26.245117,-53.283691,-9.338379,,,,,,,,,,,0.0,1.0,1.0,14.0,0.0,0.0,0.0,4.0,0.0,,,,,,,-95.54680653302117,18.212820552260496,12.838557388577561,-9.829119669787577,0.9507879279356073,1.4082916866550552,9.974912362603236,,10.753774091632451,,,,,,,,,
LBP08_S14,LBP08,2,3,14,2,2,1716538398.08,2024-05-24 08:13:18.080000+00:00,2024-05-24 17:13:18.080000+09:00,2024,5,24,8,13,18,80,,,,,,,,,0.088623,-0.775635,2.084717,-67.077637,-27.160645,14.343262,,,,,,,,,,,0.0,1.0,1.0,14.0,0.0,0.0,0.0,4.0,0.0,,,,,,,-46.481429222547675,28.66984116255556,3.64876629448362,-11.688376838689484,2.0975815744378297,1.5542423384344,11.97637970470275,,10.8023812613504,,,,,,,,,
LBP08_S14,LBP08,3,4,14,3,3,1716538398.12,2024-05-24 08:13:18.120000+00:00,2024-05-24 17:13:18.120000+09:00,2024,5,24,8,13,18,120,,,,,,,,,0.1604,-0.00415,1.927002,154.785156,179.443359,38.208008,,,,,,,,,,,0.0,1.0,1.0,14.0,0.0,0.0,0.0,4.0,0.0,,,,,,,-7.215651773604153,35.279522391734055,-4.798135970897401,-11.97700290963365,3.508762470107192,1.362316899598504,12.554517916030761,,10.788728643465276,,,,,,,,,
LBP08_S14,LBP08,4,5,14,4,4,1716538398.16,2024-05-24 08:13:18.160000+00:00,2024-05-24 17:13:18.160000+09:00,2024,5,24,8,13,18,160,,,,,,,,,-0.293701,-0.493652,0.630127,-59.448242,119.262695,75.927734,,,,,,,,,,,0.0,1.0,1.0,14.0,0.0,0.0,0.0,4.0,0.0,,,,,,,20.017991562634762,37.18828849187316,-11.972072830293609,-11.17628324712826,4.996294009782119,0.8834339863867596,12.274066834612222,,10.746696953405625,,,,,,,,,
LBP08_S14,LBP08,5,6,14,5,5,1716538398.2,2024-05-24 08:13:18.200000+00:00,2024-05-24 17:13:18.200000+09:00,2024,5,24,8,13,18,200,,,,,,,,,0.025635,-0.291504,0.373047,120.788574,-37.658691,-136.657715,,,,,,,,,,,0.0,1.0,1.0,14.0,0.0,0.0,0.0,4.0,0.0,,,,,,,35.24548782515338,34.49796965210064,-17.299642082486535,-9.766463734122125,6.376212795866145,0.1914483030872982,11.665185636793133,,10.685530831557681,,,,,,,,,
LBP08_S14,LBP08,6,7,14,6,6,1716538398.24,2024-05-24 08:13:18.240000+00:00,2024-05-24 17:13:18.240000+09:00,2024,5,24,8,13,18,240,,,,,,,,,0.234863,-0.136963,1.250977,-34.606934,-43.151855,-54.931641,,,,,,,,,,,0.0,1.0,1.0,14.0,0.0,0.0,0.0,4.0,0.0,,,,,,,40.43690667537014,28.151045772088384,-20.34965622264858,-8.14898746710732,7.50225462674968,-0.622537945818645,11.094024279658093,,11.05735887942991,,,,,,,,,
LBP08_S14,LBP08,7,8,14,7,7,1716538398.28,2024-05-24 08:13:18.280000+00:00,2024-05-24 17:13:18.280000+09:00,2024,5,24,8,13,18,280,,,,,,,,,0.248047,0.20459,1.559814,19.65332,16.235352,-17.822266,,,,,,,,,,,0.0,1.0,1.0,14.0,0.0,0.0,0.0,4.0,0.0,,,,,,,38.76145675945607,19.599534531529084,-21.02021276634272,-6.598529196729077,8.286236008010844,-1.4633464564723537,10.693160318269419,,10.999015294149057,,,,,,,,,
LBP08_S14,LBP08,8,9,14,8,8,1716538398.32,2024-05-24 08:13:18.320000+00:00,2024-05-24 17:13:18.320000+09:00,2024,5,24,8,13,18,320,,,,,,,,,-0.370361,-0.526123,1.71875,0.305176,7.873535,-4.760742,,,,,,,,,,,0.0,1.0,1.0,14.0,0.0,0.0,0.0,4.0,0.0,,,,,,,33.66956612530561,10.42255204540757,-19.607296580403837,-5.2517465517168525,8.703138089827148,-2.247638319688507,10.410443432928405,,10.698990808804432,,,,,,,,,
LBP08_S14,LBP08,9,10,14,9,9,1716538398.36,2024-05-24 08:13:18.360000+00:00,2024-05-24 17:13:18.360000+09:00,2024,5,24,8,13,18,360,,,,,,,,,0.043701,-0.288086,1.597412,-37.109375,-0.305176,-5.737305,,,,,,,,,,,0.0,1.0,1.0,14.0,0.0,0.0,0.0,4.0,0.0,,,,,,,28.0766819534002,2.0378136200891204,-16.708244813858414,-4.128679273580844,8.784650634630712,-2.915968112242844,10.135035734926193,,10.306444353983228,,,,,,,,,
LBP08_S14,LBP08,10,11,14,10,10,1716538398.4,2024-05-24 08:13:18.400000+00:00,2024-05-24 17:13:18.400000+09:00,2024,5,24,8,13,18,400,,,,,,,,,-0.115234,-0.152344,0.931641,67.382812,105.773926,40.466309,,,,,,,,,,,0.0,1.0,1.0,14.0,0.0,0.0,0.0,4.0,0.0,,,,,,,23.849928030459022,-4.457292782672365,-13.018282603911572,-3.1746821523624833,8.606358923323818,-3.436699416399307,9.795862573774896,,9.920681600309205,,,,,,,,,
LBP08_S14,LBP08,11,12,14,11,11,1716538398.44,2024-05-24 08:13:18.440000+00:00,2024-05-24 17:13:18.440000+09:00,2024,5,24,8,13,18,440,,,,,,,,,-0.156738,-0.233887,0.05127,42.785645,-40.283203,-17.211914,,,,,,,,,,,0.0,1.0,1.0,14.0,0.0,0.0,0.0,4.0,0.0,,,,,,,21.667628053038154,-8.370209430713112,-9.130280954148027,-2.307977030240957,8.271550546095293,-3.801910654565228,9.391476509794709,,9.58962777714629,,,,,,,,,
LBP08_S14,LBP08,12,13,14,12,12,1716538398.48,2024-05-24 08:13:18.480000+00:00,2024-05-24 17:13:18.480000+09:00,2024,5,24,8,13,18,480,,,,,,,,,0.089111,-0.162598,0.565186,100.830078,-80.383301,-52.429199,,,,,,,,,,,0.0,1.0,1.0,14.0,0.0,0.0,0.0,4.0,0.0,,,,,,,21.187889708141853,-9.482770296864988,-5.421760179394369,-1.460461441915283,7.892239734220693,-4.018781061741003,8.976134851256488,,9.319864648136324,,,,,,,,,
LBP08_S14,LBP08,13,14,14,13,13,1716538398.52,2024-05-24 08:13:18.520000+00:00,2024-05-24 17:13:18.520000+09:00,2024,5,24,8,13,18,520,,,,,,,,,0.435547,-0.19165,1.118652,-92.651367,-43.029785,-12.145996,,,,,,,,,,,0.0,1.0,1.0,14.0,0.0,0.0,0.0,4.0,0.0,,,,,,,21.38823590451911,-8.096672314954919,-2.0437403518283164,-0.6049320057345187,7.568372841622496,-4.100530675814136,8.629053367818726,,9.096546405556865,,,,,,,,,
LBP08_S14,LBP08,14,15,14,14,14,1716538398.56,2024-05-24 08:13:18.560000+00:00,2024-05-24 17:13:18.560000+09:00,2024,5,24,8,13,18,560,,,,,,,,,-0.00708,-0.959229,1.474609,24.169922,34.362793,42.785645,,,,,,,,,,,0.0,1.0,1.0,14.0,0.0,0.0,0.0,4.0,0.0,,,,,,,20.95221329681467,-4.981435552998716,1.0298125076650206,0.23315652613806814,7.369115419502547,-4.059338175507535,8.416439297871982,,8.904741790314606,,,,,,,,,
LBP08_S14,LBP08,15,16,14,15,15,1716538398.6,2024-05-24 08:13:18.600000+00:00,2024-05-24 17:13:18.600000+09:00,2024,5,24,8,13,18,600,,,,,,,,,-0.255371,-0.261475,1.656494,76.599121,-33.874512,-11.901855,,,,,,,,,,,0.0,1.0,1.0,14.0,0.0,0.0,0.0,4.0,0.0,,,,,,,18.63850569172249,-1.166859184857247,3.9381348975241637,0.9786967538069677,7.322441052108258,-3.9018127796065687,8.354647405164009,,8.744633158272716,,,,,,,,,
LBP08_S14,LBP08,16,17,14,16,16,1716538398.64,2024-05-24 08:13:18.640000+00:00,2024-05-24 17:13:18.640000+09:00,2024,5,24,8,13,18,640,,,,,,,,,0.183838,-0.197998,1.727783,52.67334,4.638672,8.728027,,,,,,,,,,,0.0,1.0,1.0,14.0,0.0,0.0,0.0,4.0,0.0,,,,,,,13.598833489249818,2.387379567616887,6.8701645947419285,1.5226500933769604,7.417936234812933,-3.6270061958168913,8.396392989558413,,8.639314249941815,,,,,,,,,
LBP08_S14,LBP08,17,18,14,17,17,1716538398.68,2024-05-24 08:13:18.680000+00:00,2024-05-24 17:13:18.680000+09:00,2024,5,24,8,13,18,680,,,,,,,,,-0.186768,-0.510986,1.236816,-42.175293,170.776367,49.804688,,,,,,,,,,,0.0,1.0,1.0,14.0,0.0,0.0,0.0,4.0,0.0,,,,,,,5.599955890933861,5.118680425737457,9.993904948014217,1.7466483290143149,7.622683451842431,-3.2272499978963225,8.459977892474823,,8.632791942339557,,,,,,,,,
LBP08_S14,LBP08,18,19,14,18,18,1716538398.72,2024-05-24 08:13:18.720000+00:00,2024-05-24 17:13:18.720000+09:00,2024,5,24,8,13,18,720,,,,,,,,,-0.255615,-0.146973,0.192383,-66.955566,-19.470215,-58.898926,,,,,,,,,,,0.0,1.0,1.0,14.0,0.0,0.0,0.0,4.0,0.0,,,,,,,-4.891562552330254,7.024685851459262,13.379499125100747,1.5509858269211048,7.903670885900802,-2.6920700328922926,8.492397280505829,,8.773491221779304,,,,,,,,,
LBP08_S14,LBP08,19,20,14,19,19,1716538398.76,2024-05-24 08:13:18.760000+00:00,2024-05-24 17:13:18.760000+09:00,2024,5,24,8,13,18,760,,,,,,,,,0.327393,-0.71875,1.144775,78.308105,-52.734375,10.925293,,,,,,,,,,,0.0,1.0,1.0,14.0,0.0,0.0,0.0,4.0,0.0,,,,,,,-16.762521481629644,8.555722779819844,16.939467269823933,0.880484967655919,8.245899797093596,-2.014491342099335,8.533949414507296,,9.090430267215797,,,,,,,,,
LBP08_S14,LBP08,20,21,14,20,20,1716538398.8,2024-05-24 08:13:18.800000+00:00,2024-05-24 17:13:18.800000+09:00,2024,5,24,8,13,18,800,,,,,,,,,0.283936,-0.296387,1.442871,-64.331055,-8.178711,51.574707,,,,,,,,,,,0.0,1.0,1.0,14.0,0.0,0.0,0.0,4.0,0.0,,,,,,,-28.415617854600253,10.263750249611897,20.41849320413483,-0.25613974652809124,8.656449807078072,-1.197751613933942,8.74267349046588,,9.579061741144063,,,,,,,,,
LBP08_S14,LBP08,21,22,14,21,21,1716538398.84,2024-05-24 08:13:18.840000+00:00,2024-05-24 17:13:18.840000+09:00,2024,5,24,8,13,18,840,,,,,,,,,-0.429688,-1.022705,1.793945,31.433105,-18.432617,59.692383,,,,,,,,,,,0.0,1.0,1.0,14.0,0.0,0.0,0.0,4.0,0.0,,,,,,,-38.02510293870923,12.380624756000683,23.443251839179595,-1.7771438640764605,9.1516747973181,-0.26002154036675806,9.326253433772138,,10.203289346677948,,,,,,,,,
LBP08_S14,LBP08,22,23,14,22,22,1716538398.88,2024-05-24 08:13:18.880000+00:00,2024-05-24 17:13:18.880000+09:00,2024,5,24,8,13,18,880,,,,,,,,,-0.229492,-0.300293,1.817871,-71.533203,-101.501465,6.896973,,,,,,,,,,,0.0,1.0,1.0,14.0,0.0,0.0,0.0,4.0,0.0,,,,,,,-43.88089323127891,14.55424496670804,25.603933099068534,-3.532379593327617,9.73384459598642,0.7641357835959832,10.383127645653946,,10.90771610270141,,,,,,,,,
LBP08_S14,LBP08,23,24,14,23,23,1716538398.92,2024-05-24 08:13:18.920000+00:00,2024-05-24 17:13:18.920000+09:00,2024,5,24,8,13,18,920,,,,,,,,,0.154053,-0.586914,1.838867,-117.492676,57.739258,4.516602,,,,,,,,,,,0.0,1.0,1.0,14.0,0.0,0.0,0.0,4.0,0.0,,,,,,,-44.781489027040514,15.896864013972763,26.524635400183517,-5.323639154409237,10.369719156545331,1.8251211996033239,11.79844382218366,,11.631241539948087,,,,,,,,,
LBP08_S14,LBP08,24,25,14,24,24,1716538398.96,2024-05-24 08:13:18.960000+00:00,2024-05-24 17:13:18.960000+09:00,2024,5,24,8,13,18,960,,,,,,,,,-0.508789,0.004883,0.502686,-14.587402,211.914062,35.03418,,,,,,,,,,,0.0,1.0,1.0,14.0,0.0,0.0,0.0,4.0,0.0,,,,,,,-40.37394449805203,15.337779148815397,25.90775318380859,-6.9385969343313185,10.983230322497947,2.8614313269556675,13.302754037154623,,12.31562448009745,,,,,,,,,
LBP08_S14,LBP08,25,26,14,25,25,1716538399.0,2024-05-24 08:13:19+00:00,2024-05-24 17:13:19+09:00,2024,5,24,8,13,19,0,8.0,13.0,17.0,40.564816,141.494171,29.591999,3.0,12.0,0.123779,-0.810303,0.742432,-135.742188,-63.354492,-9.399414,-595.0,13.0,588.0,605.0,0.0,1018.5,22.719999,0.054504,-43.592819,3.628125,0.0,1.0,1.0,14.0,0.0,0.0,0.0,3.0,0.0,,,,,,,-31.31106816574091,12.10673066563746,23.574343374223638,-8.191039660960955,11.467499549123445,3.804405061924613,14.59692346050288,,12.906820925333388,,,,,,,,,
LBP08_S14,LBP08,26,27,14,26,26,1716538399.04,2024-05-24 08:13:19.040000+00:00,2024-05-24 17:13:19.040000+09:00,2024,5,24,8,13,19,40,,,,,,,,,0.205566,-0.146484,1.384277,109.436035,23.498535,33.569336,,,,,,,,,,,0.0,1.0,1.0,14.0,0.0,0.0,0.0,3.0,0.0,,,,,,,-19.141547389918486,6.105939165872728,19.527097914698295,-8.956701556557695,11.711737115758355,4.5854889785125446,15.440660549793034,,13.351624477893967,,,,,,,,,
LBP08_S14,LBP08,27,28,14,27,27,1716538399.08,2024-05-24 08:13:19.080000+00:00,2024-05-24 17:13:19.080000+09:00,2024,5,24,8,13,19,80,,,,,,,,,-0.08374,-0.571777,1.487549,-85.876465,-26.794434,35.461426,,,,,,,,,,,0.0,1.0,1.0,14.0,0.0,0.0,0.0,3.0,0.0,,,,,,,-5.951004190933549,-1.988791214154822,14.032171987580663,-9.194741724195037,11.632185467192162,5.146775858015771,15.695232264941595,,13.597751502777228,,,,,,,,,
LBP08_S14,LBP08,28,29,14,28,28,1716538399.12,2024-05-24 08:13:19.120000+00:00,2024-05-24 17:13:19.120000+09:00,2024,5,24,8,13,19,120,,,,,,,,,-0.422363,-0.640137,1.762939,75.012207,-65.795898,17.028809,,,,,,,,,,,0.0,1.0,1.0,14.0,0.0,0.0,0.0,3.0,0.0,,,,,,,6.127156448233778,-10.89510526659454,7.677043352943906,-8.949655466265686,11.19638125652838,5.453857592133527,15.336226681999449,,13.605595756911763,,,,,,,,,
LBP08_S14,LBP08,29,30,14,29,29,1716538399.16,2024-05-24 08:13:19.160000+00:00,2024-05-24 17:13:19.160000+09:00,2024,5,24,8,13,19,160,,,,,,,,,0.137939,-0.078369,1.362305,85.205078,-12.268066,35.766602,,,,,,,,,,,0.0,1.0,1.0,14.0,0.0,0.0,0.0,3.0,0.0,,,,,,,15.365584469794685,-19.04719759958118,1.3421037138227208,-8.335032087473898,10.434493352545132,5.507541740686436,14.445913866866695,,13.365748547555878,,,,,,,,,
LBP08_S14,LBP08,30,31,14,30,30,1716538399.2,2024-05-24 08:13:19.200000+00:00,2024-05-24 17:13:19.200000+09:00,2024,5,24,8,13,19,200,,,,,,,,,-0.175049,0.08374,0.232422,24.108887,111.022949,14.099121,,,,,,,,,,,0.0,1.0,1.0,14.0,0.0,0.0,0.0,3.0,0.0,,,,,,,20.72016378340397,-24.96332352116788,-3.9583261573394033,-7.506225536137739,9.435960411698417,5.3492086943928605,13.190709016071661,,12.906634374089432,,,,,,,,,
LBP08_S14,LBP08,31,32,14,31,31,1716538399.24,2024-05-24 08:13:19.240000+00:00,2024-05-24 17:13:19.240000+09:00,2024,5,24,8,13,19,240,,,,,,,,,-0.056396,0.093994,-0.127441,-108.825684,-63.903809,-57.800293,,,,,,,,,,,0.0,1.0,1.0,14.0,0.0,0.0,0.0,3.0,0.0,,,,,,,21.874643927624223,-27.60449705436303,-7.353284217367831,-6.631239779032771,8.331780529523897,5.055077325698147,11.787523682604741,,12.287800793582036,,,,,,,,,
LBP08_S14,LBP08,32,33,14,32,32,1716538399.28,2024-05-24 08:13:19.280000+00:00,2024-05-24 17:13:19.280000+09:00,2024,5,24,8,13,19,280,,,,,,,,,0.185791,-0.261475,0.176514,-1.77002,-112.365723,-58.532715,,,,,,,,,,,0.0,1.0,1.0,14.0,0.0,0.0,0.0,3.0,0.0,,,,,,,19.111595929909107,-26.69648313544798,-8.423447696014003,-5.866775941836407,7.263921204105978,4.7181394178575875,10.461570186999293,,11.585698875585098,,,,,,,,,
LBP08_S14,LBP08,33,34,14,33,33,1716538399.32,2024-05-24 08:13:19.320000+00:00,2024-05-24 17:13:19.320000+09:00,2024,5,24,8,13,19,320,,,,,,,,,0.234863,-0.025879,0.502197,89.233398,-83.374023,-46.508789,,,,,,,,,,,0.0,1.0,1.0,14.0,0.0,0.0,0.0,3.0,0.0,,,,,,,13.141691800000613,-22.937663344645557,-7.400749780445416,-5.341108269836382,6.346414670320156,4.4221094266397705,9.399971728624816,,10.879383247662878,-1.5677522720527446,,,,,,,,
LBP08_S14,LBP08,34,35,14,34,34,1716538399.36,2024-05-24 08:13:19.360000+00:00,2024-05-24 17:13:19.360000+09:00,2024,5,24,8,13,19,360,,,,,,,,,0.302002,-0.073486,0.63501,-3.78418,-45.715332,4.394531,,,,,,,,,,,0.0,1.0,1.0,14.0,0.0,0.0,0.0,3.0,0.0,,,,,,,4.990485378559919,-17.954204201010636,-5.136529086041516,-5.141488854693985,5.628246502279731,4.21664826319811,8.711612302490172,,10.240315644077986,-1.5607456628579475,,,,,,,,
LBP08_S14,LBP08,35,36,14,35,35,1716538399.4,2024-05-24 08:13:19.400000+00:00,2024-05-24 17:13:19.400000+09:00,2024,5,24,8,13,19,400,,,,,,,,,0.033203,-0.219727,0.856689,14.953613,9.216309,45.715332,,,,,,,,,,,0.0,1.0,1.0,14.0,0.0,0.0,0.0,3.0,0.0,,,,,,,-4.064322965916051,-13.899627317822068,-2.8143082765365315,-5.304061773330627,5.072261409566848,4.104075932136649,8.408587655428919,,9.726889592681173,-1.5486719519567298,,,,,,,,
LBP08_S14,LBP08,36,37,14,36,36,1716538399.44,2024-05-24 08:13:19.440000+00:00,2024-05-24 17:13:19.440000+09:00,2024,5,24,8,13,19,440,,,,,,,,,0.028076,-0.390381,1.163086,-4.272461,13.061523,52.062988,,,,,,,,,,,0.0,1.0,1.0,14.0,0.0,0.0,0.0,3.0,0.0,,,,,,,-12.585486054732451,-12.75025918129748,-1.5159566660979313,-5.807481215519925,4.562251042314949,4.043437665492731,8.419641369823653,,9.381165328451942,-1.543335557051672,,,,,,,,
LBP08_S14,LBP08,37,38,14,37,37,1716538399.48,2024-05-24 08:13:19.480000+00:00,2024-05-24 17:13:19.480000+09:00,2024,5,24,8,13,19,480,,,,,,,,,0.143799,-0.222168,0.895996,-5.371094,71.228027,24.658203,,,,,,,,,,,0.0,1.0,1.0,14.0,0.0,0.0,0.0,3.0,0.0,0.0007909999999999995,-0.27046224,0.93682292,-7.588704453333333,-3.3333333733333337,-2.70589192,-19.165502608365603,-15.528673728553558,-1.833655182872842,-6.574101319854549,3.9411040931728065,3.9700914581778175,8.632075985719382,-1.5677522720527446,9.224990945604542,-1.5390082587694922,0.14300800000000002,0.048294240000000016,-0.04082691999999999,0.23212916000000003,0.1563664256733651,0.1563664256733651,0.1563664256733651,0.1563664256733651
LBP08_S14,LBP08,38,39,14,38,38,1716538399.52,2024-05-24 08:13:19.520000+00:00,2024-05-24 17:13:19.520000+09:00,2024,5,24,8,13,19,520,,,,,,,,,-0.384033,-0.128418,0.244629,-15.136719,116.210938,-24.719238,,,,,,,,,,,0.0,1.0,1.0,14.0,0.0,0.0,0.0,3.0,0.0,0.004469386666666666,-0.2728125066666667,0.9396647066666666,-5.450846386666666,-3.54817712,-2.890624986666667,-22.714540229693476,-21.78227406265735,-3.6993564593011845,-7.482682929042288,3.0698131306665126,3.82211719980577,8.945550646150549,-1.5537390536631503,9.256765632570742,-1.5320237383323558,-0.3885023866666667,0.14439450666666667,-0.6950357066666666,1.2279326,0.8092332862301445,0.4827998559517548,0.4827998559517548,0.4827998559517548
LBP08_S14,LBP08,39,40,14,39,39,1716538399.56,2024-05-24 08:13:19.560000+00:00,2024-05-24 17:13:19.560000+09:00,2024,5,24,8,13,19,560,,,,,,,,,-0.194092,-0.059326,-0.063721,-67.749023,-40.100098,-30.639648,,,,,,,,,,,0.0,1.0,1.0,14.0,0.0,0.0,0.0,3.0,0.0,0.012317693333333333,-0.2773763066666667,0.9379915333333334,-4.87548832,-1.5380859733333339,-2.5919596266666667,-22.78206271674703,-29.594718212679318,-6.491348949008257,-8.393965437712168,1.88602440215934,3.56246324184544,9.311653352898553,-1.5245245301542947,9.454447187902616,-1.5272341953950341,-0.2064096933333333,0.2180503066666667,-1.0017125333333334,1.4261725333333335,1.0457432271721738,0.6704476463585611,0.6704476463585611,0.6704476463585611
LBP08_S14,LBP08,40,41,14,40,40,1716538399.6,2024-05-24 08:13:19.600000+00:00,2024-05-24 17:13:19.600000+09:00,2024,5,24,8,13,19,600,,,,,,,,,0.026123,-0.085205,0.083984,-78.430176,-107.666016,-29.35791,,,,,,,,,,,0.0,1.0,1.0,14.0,0.0,0.0,0.0,3.0,0.0,0.011396466666666666,-0.2730794266666667,0.9285123600000001,-4.275716186666666,-0.38004560000000037,-2.7319335866666665,-19.798971618330494,-36.21294801336507,-9.34430548049676,-9.185924302445388,0.43750648162473715,3.1886910226255694,9.73346637377935,-1.5273263723364985,9.788601128470404,-1.5256154073474828,0.014726533333333335,0.18787442666666668,-0.8445283600000002,1.0471293200000003,0.8652986893689579,0.7191604071111604,0.7191604071111604,0.7191604071111604
LBP08_S14,LBP08,41,42,14,41,41,1716538399.64,2024-05-24 08:13:19.640000+00:00,2024-05-24 17:13:19.640000+09:00,2024,5,24,8,13,19,640,,,,,,,,,0.190674,-0.263184,0.1604,-33.02002,-151.672363,-27.22168,,,,,,,,,,,0.0,1.0,1.0,14.0,0.0,0.0,0.0,3.0,0.0,0.013180319999999999,-0.28025390666666666,0.9248567600000002,-5.512695346666666,-2.174479186666667,-3.273925773333333,-15.114835570763049,-39.09621342866902,-11.509459526314433,-9.79051772527591,-1.1263420555220236,2.728312641572992,10.225779854130753,-1.5216990656407725,10.242051685792564,-1.5255361298982875,0.17749368000000001,0.01706990666666669,-0.7644567600000002,0.9590203466666669,0.784977404810641,0.7323238066510565,0.7323238066510565,0.7323238066510565
LBP08_S14,LBP08,42,43,14,42,42,1716538399.68,2024-05-24 08:13:19.680000+00:00,2024-05-24 17:13:19.680000+09:00,2024,5,24,8,13,19,680,,,,,,,,,0.200439,0.052979,0.155762,26.611328,-97.900391,-32.348633,,,,,,,,,,,0.0,1.0,1.0,14.0,0.0,0.0,0.0,3.0,0.0,0.019840479999999997,-0.2803450533333333,0.9410546799999999,-5.139974,-3.18196616,-4.31640624,-10.753635429138535,-36.969721812969645,-12.614347535075295,-10.22066314244145,-2.6051309280408095,2.22373874016998,10.779317056661274,-1.4971011361466753,10.826693764535502,-1.5235353076277458,0.18059852,0.3333240533333333,-0.78529268,1.2992152533333332,0.8720122379980315,0.7556052118755523,0.7556052118755523,0.7556052118755523
LBP08_S14,LBP08,43,44,14,43,43,1716538399.72,2024-05-24 08:13:19.720000+00:00,2024-05-24 17:13:19.720000+09:00,2024,5,24,8,13,19,720,,,,,,,,,0.148926,-0.105225,0.22583,-8.056641,-84.594727,-8.911133,,,,,,,,,,,0.0,1.0,1.0,14.0,0.0,0.0,0.0,3.0,0.0,0.019235013333333332,-0.27628581333333335,0.9609928266666666,-4.922688839999999,-1.7944336133333336,-2.6888020666666668,-8.919799652433532,-30.428599466051768,-12.735079593183793,-10.577455128538793,-3.82227490668288,1.7143355564426281,11.376787281943558,-1.4984969377711042,11.588339394830669,-1.5177126565543602,0.12969098666666667,0.17106081333333334,-0.7351628266666667,1.0359146266666666,0.7658628699665223,0.7570705916028337,0.7570705916028337,0.7570705916028337
LBP08_S14,LBP08,44,45,14,44,44,1716538399.76,2024-05-24 08:13:19.760000+00:00,2024-05-24 17:13:19.760000+09:00,2024,5,24,8,13,19,760,,,,,,,,,0.20752,-0.287109,0.279297,46.386719,-26.855469,3.295898,,,,,,,,,,,0.0,1.0,1.0,14.0,0.0,0.0,0.0,3.0,0.0,0.015472000000000001,-0.28483398666666665,0.9772135199999998,-4.14225264,-0.4687500266666667,-1.7879231600000003,-11.403089494551505,-21.8164327821958,-12.27838670308891,-11.033578708320853,-4.694932217970712,1.223200088319072,12.053151708168052,-1.5142838910146221,12.597413101076773,-1.5134029877906723,0.192048,-0.0022750133333333533,-0.6979165199999998,0.8922395333333332,0.7238612290201603,0.7529194212799996,0.7529194212799996,0.7529194212799996
LBP08_S14,LBP08,45,46,14,45,45,1716538399.8,2024-05-24 08:13:19.800000+00:00,2024-05-24 17:13:19.800000+09:00,2024,5,24,8,13,19,800,,,,,,,,,-0.028564,0.370117,0.342529,73.913574,36.804199,10.253906,,,,,,,,,,,0.0,1.0,1.0,14.0,0.0,0.0,0.0,3.0,0.0,0.012854813333333333,-0.29185221333333333,0.98708332,-3.9233398800000003,0.2547200133333332,-1.21012368,-19.0884892412555,-14.403021357567946,-11.744162527049923,-11.797118277971073,-5.27105307227343,0.753433587237075,12.943093228650532,-1.5249019103047234,13.931025929445601,-1.512767810238802,-0.04141881333333333,0.6619692133333333,-0.64455432,1.3479423466666667,0.9248616269095372,0.7720241107943927,0.7720241107943927,0.7720241107943927
LBP08_S14,LBP08,46,47,14,46,46,1716538399.84,2024-05-24 08:13:19.840000+00:00,2024-05-24 17:13:19.840000+09:00,2024,5,24,8,13,19,840,,,,,,,,,0.257568,-0.313232,0.797119,-82.092285,102.050781,25.146484,,,,,,,,,,,0.0,1.0,1.0,14.0,0.0,0.0,0.0,3.0,0.0,0.018554679999999997,-0.2962044266666667,0.9923079333333333,-3.7882487333333326,1.1116536133333332,-0.5615234266666668,-31.739876116921877,-11.172451477609059,-11.480260271535233,-13.066713322647947,-5.717951131377792,0.29422317637566564,14.266062157253016,-1.5055279071928733,15.654285301473118,-1.5115127641940524,0.23901332000000003,-0.017027573333333323,-0.19518893333333331,0.45122982666666667,0.30905666970128454,0.7257273666850818,0.7257273666850818,0.7257273666850818
LBP08_S14,LBP08,47,48,14,47,47,1716538399.88,2024-05-24 08:13:19.880000+00:00,2024-05-24 17:13:19.880000+09:00,2024,5,24,8,13,19,880,,,,,,,,,-0.200684,0.276855,-0.178223,-135.681152,134.643555,-28.198242,,,,,,,,,,,0.0,1.0,1.0,14.0,0.0,0.0,0.0,3.0,0.0,0.01747721333333333,-0.29730142666666665,0.9944921733333333,-3.085937533333333,2.227376266666667,-0.3523762933333334,-48.10371530287522,-13.69752724981946,-11.535586048644399,-14.990861934762956,-6.2658522213705705,-0.1672002655701103,16.248532288671065,-1.5095257613188893,17.806455797804098,-1.5112917848818859,-0.21816121333333333,0.5741564266666667,-1.1727151733333332,1.9650328133333332,1.3238243067159392,0.7800998157787962,0.7800998157787962,0.7800998157787962
LBP08_S14,LBP08,48,49,14,48,48,1716538399.92,2024-05-24 08:13:19.920000+00:00,2024-05-24 17:13:19.920000+09:00,2024,5,24,8,13,19,920,,,,,,,,,-0.104004,-0.363525,-0.263184,-136.047363,-2.01416,-2.197266,,,,,,,,,,,0.0,1.0,1.0,14.0,0.0,0.0,0.0,3.0,0.0,0.017005199999999998,-0.2944108,0.9950260266666667,-3.602701853333333,2.2688801733333332,-0.7584635333333334,-66.22857350703651,-21.554310266904213,-11.665784962565008,-17.640004875044415,-7.128024632046739,-0.6338316640727106,19.036287708611596,-1.5106423660262702,20.393142949568094,-1.5150209119977702,-0.1210092,-0.06911420000000001,-1.2582100266666667,1.4483334266666668,1.2659038155921698,0.8205834824299106,0.8205834824299106,0.8205834824299106
LBP08_S14,LBP08,49,50,14,49,49,1716538399.96,2024-05-24 08:13:19.960000+00:00,2024-05-24 17:13:19.960000+09:00,2024,5,24,8,13,19,960,,,,,,,,,0.028809,0.078613,-0.287842,-37.658691,-130.981445,-45.837402,,,,,,,,,,,0.0,1.0,1.0,14.0,0.0,0.0,0.0,3.0,0.0,0.01471028,-0.2909472533333333,0.9948046666666667,-5.7674154,1.954752573333333,-0.75113932,-83.81564753709985,-32.50882822666009,-11.470806544331786,-20.992630776528408,-8.428377761113143,-1.092663925845982,22.647781636586828,-1.5181727546355908,23.38151701761492,-1.5178701625037083,0.014098720000000002,0.3695602533333333,-1.2826466666666667,1.66630564,1.3348992569705578,0.8601462343176528,0.8601462343176528,0.8601462343176528
LBP08_S14,LBP08,50,51,14,50,50,1716538400.0,2024-05-24 08:13:20+00:00,2024-05-24 17:13:20+09:00,2024,5,24,8,13,20,0,8.0,13.0,18.0,40.564747,141.494308,32.320999,3.0,12.0,0.212402,0.023438,0.104736,-24.536133,-169.433594,-56.945801,-581.0,20.0,601.0,333.0,0.0,1018.5,22.76,0.054504,-43.592819,3.628125,0.0,1.0,1.0,14.0,0.0,0.0,0.0,4.0,0.0,0.01597330666666667,-0.29716144,0.9977669066666668,-7.673339879999999,1.2353515333333334,-0.008951826666666763,-98.47349280535096,-43.36618592662162,-10.582187967523211,-24.931570488742445,-10.163025198178008,-1.5159514445469104,26.966060094054495,-1.514775911889003,26.69600100104652,-1.5191150812335208,0.19642869333333335,0.32059944,-0.8930309066666668,1.4100590400000002,0.9689542985893831,0.8679182389084906,0.8679182389084906,0.8679182389084906
LBP08_S14,LBP08,51,52,14,51,51,1716538400.04,2024-05-24 08:13:20.040000+00:00,2024-05-24 17:13:20.040000+09:00,2024,5,24,8,13,20,40,,,,,,,,,0.16748,0.106445,0.246338,-93.811035,-110.961914,-5.92041,,,,,,,,,,,0.0,1.0,1.0,14.0,0.0,0.0,0.0,4.0,0.0,0.014544266666666665,-0.29527017333333333,1.0005631333333334,-5.54768884,1.5722656000000002,-0.13427734666666674,-107.89924782639592,-51.082726482597636,-8.802235512062863,-29.247540401798283,-12.206334257481913,-1.868040865029425,31.747484817440565,-1.519489272519106,30.216236205223332,-1.5189132148637483,0.15293573333333332,0.40171517333333334,-0.7542251333333334,1.3088760400000001,0.8681128790474882,0.867931214917757,0.867931214917757,0.867931214917757
LBP08_S14,LBP08,52,53,14,52,52,1716538400.08,2024-05-24 08:13:20.080000+00:00,2024-05-24 17:13:20.080000+09:00,2024,5,24,8,13,20,80,,,,,,,,,0.188965,-0.237793,0.415283,-24.597168,-25.390625,45.166016,,,,,,,,,,,0.0,1.0,1.0,14.0,0.0,0.0,0.0,4.0,0.0,0.01014973333333333,-0.29014972,1.0006575333333334,-5.895182333333333,1.6381835733333332,-0.3776041733333334,-110.11340828723323,-53.67097501169861,-6.138866168909743,-33.652076733287615,-14.353173257949857,-2.1135955117858147,36.64618857430122,-1.534392407305521,33.78229137989232,-1.51926423890808,0.17881526666666667,0.052356719999999995,-0.5853745333333333,0.8165465199999999,0.6143121926166266,0.8520800260239364,0.8520800260239364,0.8520800260239364
LBP08_S14,LBP08,53,54,14,53,53,1716538400.12,2024-05-24 08:13:20.120000+00:00,2024-05-24 17:13:20.120000+09:00,2024,5,24,8,13,20,120,,,,,,,,,0.017578,0.162354,0.876221,-107.48291,14.282227,56.640625,,,,,,,,,,,0.0,1.0,1.0,14.0,0.0,0.0,0.0,4.0,0.0,0.012252599999999999,-0.29104489333333333,1.0021223733333333,-5.261230506666666,1.3753255066666668,-0.34830730666666676,-103.84168687915785,-50.59960520994098,-2.7567954718824734,-37.80574420845393,-16.377157466347498,-2.223867330661114,41.260527962411864,-1.5269894428304844,37.21035898245755,-1.519385672588021,0.005325400000000001,0.45339889333333333,-0.1259013733333333,0.5846256666666666,0.47058481931344825,0.8296391315115548,0.8296391315115548,0.8296391315115548
LBP08_S14,LBP08,54,55,14,54,54,1716538400.16,2024-05-24 08:13:20.160000+00:00,2024-05-24 17:13:20.160000+09:00,2024,5,24,8,13,20,160,,,,,,,,,-0.415039,-0.057373,0.996338,-285.949707,-89.538574,-20.324707,,,,,,,,,,,0.0,1.0,1.0,14.0,0.0,0.0,0.0,4.0,0.0,0.012333973333333331,-0.29126625333333334,1.00308592,-6.645507853333333,1.3777669066666667,-0.40690105333333343,-88.98617372549789,-42.66607073805797,1.0785278089095538,-41.365191157473845,-18.083800295869818,-2.1807262183047316,45.197991542484004,-1.5267330783127466,40.31599395008505,-1.5195669607483278,-0.42737297333333335,0.23389325333333333,-0.006747920000000018,0.6680141466666667,0.48723633558566964,0.8106167539601167,0.8106167539601167,0.8106167539601167
LBP08_S14,LBP08,55,56,14,55,55,1716538400.2,2024-05-24 08:13:20.200000+00:00,2024-05-24 17:13:20.200000+09:00,2024,5,24,8,13,20,200,,,,,,,,,0.017334,-0.811279,1.265625,-178.344727,-33.569336,-87.402344,,,,,,,,,,,0.0,1.0,1.0,14.0,0.0,0.0,0.0,4.0,0.0,0.013395173333333333,-0.29089190666666664,1.00087564,-5.80973312,1.7057291466666666,-0.5924479333333335,-66.96231783347358,-31.521269541296526,5.006249921373143,-44.043683870812785,-19.34465107752168,-1.980476221449806,48.145445270418705,-1.5228832466070004,42.937373026895244,-1.516698597366346,0.003938826666666666,-0.5203870933333333,0.26474935999999993,0.7890752799999999,0.583875384721633,0.7986829976844071,0.7986829976844071,0.7986829976844071
LBP08_S14,LBP08,56,57,14,56,56,1716538400.24,2024-05-24 08:13:20.240000+00:00,2024-05-24 17:13:20.240000+09:00,2024,5,24,8,13,20,240,,,,,,,,,-0.549561,-0.929932,0.555176,-17.272949,163.024902,35.03418,,,,,,,,,,,0.0,1.0,1.0,14.0,0.0,0.0,0.0,4.0,0.0,0.01729165333333333,-0.29117185333333334,1.0013671733333334,-4.034830786666666,1.3411458133333334,-0.8194987066666668,-40.62993309641184,-19.085766377746022,8.546101394413867,-45.66888119466926,-20.10808173263152,-1.6386321656732512,49.9266139039429,-1.5090381476361876,44.95303846757482,-1.5135007054385232,-0.5668526533333333,-0.6387601466666666,-0.44619117333333336,1.6518039733333332,0.9635471024922644,0.8069262029248,0.8069262029248,0.8069262029248
LBP08_S14,LBP08,57,58,14,57,57,1716538400.28,2024-05-24 08:13:20.280000+00:00,2024-05-24 17:13:20.280000+09:00,2024,5,24,8,13,20,280,,,,,,,,,-0.02417,0.283447,0.036865,177.55127,-130.981445,-26.916504,,,,,,,,,,,0.0,1.0,1.0,14.0,0.0,0.0,0.0,4.0,0.0,0.016298813333333332,-0.28164385333333336,0.9966568933333334,-3.6499023999999993,1.35172524,-1.2434895866666666,-13.701391403063875,-7.059464842611615,11.12488548219556,-46.21693685079182,-20.390460326335983,-1.1936367463854287,50.52920831432333,-1.5107400981183006,46.2928034740236,-1.5094372364143227,-0.04046881333333333,0.5650908533333334,-0.9597918933333334,1.56535156,1.1145249552531284,0.8215737625594822,0.8215737625594822,0.8215737625594822
LBP08_S14,LBP08,58,59,14,58,58,1716538400.32,2024-05-24 08:13:20.320000+00:00,2024-05-24 17:13:20.320000+09:00,2024,5,24,8,13,20,320,,,,,,,,,0.468994,-0.241455,0.902832,52.55127,-34.606934,67.443848,,,,,,,,,,,0.0,1.0,1.0,14.0,0.0,0.0,0.0,4.0,0.0,0.015582666666666665,-0.2770312133333333,0.9888183466666667,-3.0346680266666657,0.9773762799999998,-1.9270833333333337,10.198567934725665,3.3582616211801684,12.206086400251518,-45.80899413340279,-20.256129861488777,-0.7053932903753679,50.092637384886565,-1.5124552476293394,46.942030587495324,-1.5013229378027058,0.45341133333333333,0.0355762133333333,-0.08598634666666671,0.5749738933333334,0.46286191889518213,0.8052686787565595,0.8052686787565595,0.8052686787565595
LBP08_S14,LBP08,59,60,14,59,59,1716538400.36,2024-05-24 08:13:20.360000+00:00,2024-05-24 17:13:20.360000+09:00,2024,5,24,8,13,20,360,,,,,,,,,0.20459,-0.156006,0.94165,30.212402,78.24707,44.311523,,,,,,,,,,,0.0,1.0,1.0,14.0,0.0,0.0,0.0,4.0,0.0,0.021289053333333332,-0.27093421333333334,0.9830794133333333,-4.214681039999999,0.9814452933333333,-1.8823242266666667,28.434939418639363,11.528745065784367,11.486488613766557,-44.671596556657214,-19.7949800588574,-0.24593374582470562,48.8615724046888,-1.4894891208157703,46.939333650449626,-1.4948707414465932,0.18330094666666666,0.11492821333333333,-0.041429413333333276,0.33965857333333327,0.22028192744306677,0.779834472177712,0.779834472177712,0.779834472177712
LBP08_S14,LBP08,60,61,14,60,60,1716538400.4,2024-05-24 08:13:20.400000+00:00,2024-05-24 17:13:20.400000+09:00,2024,5,24,8,13,20,400,,,,,,,,,-0.321777,-0.273926,1.353271,13.549805,20.629883,22.399902,,,,,,,,,,,0.0,1.0,1.0,14.0,0.0,0.0,0.0,4.0,0.0,0.02338866666666667,-0.27532549333333334,0.9778157466666666,-2.3714193199999993,1.4029947733333332,-1.8481445466666666,39.87441991549937,17.288419329851912,9.053792111116815,-43.07661976003724,-19.103443285663325,0.11621793861996699,47.12271450085026,-1.4827969926107762,46.36788562927761,-1.4896144208926825,-0.34516566666666665,0.0013994933333333348,0.3754552533333333,0.7220204133333332,0.5100077874725365,0.7685916936483297,0.7685916936483297,0.7685916936483297
LBP08_S14,LBP08,61,62,14,61,61,1716538400.44,2024-05-24 08:13:20.440000+00:00,2024-05-24 17:13:20.440000+09:00,2024,5,24,8,13,20,440,,,,,,,,,-0.227539,-0.554688,1.546387,25.695801,-62.5,-13.244629,,,,,,,,,,,0.0,1.0,1.0,14.0,0.0,0.0,0.0,4.0,0.0,0.02374022666666667,-0.26705076,0.96640624,0.5794270400000009,0.2628580533333332,-1.767578146666667,44.885425061783856,20.807249332932567,5.403395955844725,-41.281202757565886,-18.271153312346023,0.332353776853756,45.14513488192839,-1.4788545822771004,45.3413928901437,-1.4831242968162872,-0.2512792266666667,-0.28763723999999996,0.57998076,1.1188972266666666,0.6944451839844475,0.7656258332617744,0.7656258332617744,0.7656258332617744
LBP08_S14,LBP08,62,63,14,62,62,1716538400.48,2024-05-24 08:13:20.480000+00:00,2024-05-24 17:13:20.480000+09:00,2024,5,24,8,13,20,480,,,,,,,,,0.330078,-0.387451,1.466553,3.356934,7.568359,-3.967285,,,,,,,,,,,0.0,1.0,1.0,14.0,0.0,0.0,0.0,4.0,0.0,0.02990558666666666,-0.2623014133333333,0.9651269333333332,0.42317704000000084,-1.268717466666667,-1.8587239866666667,44.93869061179963,22.454319390106576,1.283817732112652,-39.4836551330939,-17.37298053674176,0.3837064861382621,43.13845970901841,-1.4532494211893519,43.98714563846419,-1.4735840890598606,0.30017241333333333,-0.1251495866666667,0.5014260666666668,0.9267480666666668,0.5976570898952004,0.7832774598306478,0.7591654969784446,0.7591654969784446
LBP08_S14,LBP08,63,64,14,63,63,1716538400.52,2024-05-24 08:13:20.520000+00:00,2024-05-24 17:13:20.520000+09:00,2024,5,24,8,13,20,520,,,,,,,,,-0.385254,-0.394531,0.345215,41.259766,155.456543,13.000488,,,,,,,,,,,0.0,1.0,1.0,14.0,0.0,0.0,0.0,4.0,0.0,0.02658853333333333,-0.2527994533333333,0.9553027066666667,1.5519205333333341,-0.31331382666666696,-1.820475293333333,42.02642115135368,22.703438508857925,-2.572067040060741,-37.80259828703975,-16.464842996387443,0.28082380453583244,41.23355859195497,-1.4624674792693573,42.42966445597268,-1.4632825103046576,-0.4118425333333333,-0.1417315466666667,-0.6100877066666668,1.1636617866666668,0.7496059721005004,0.7808923672654619,0.7588114405014836,0.7588114405014836
LBP08_S14,LBP08,64,65,14,64,64,1716538400.56,2024-05-24 08:13:20.560000+00:00,2024-05-24 17:13:20.560000+09:00,2024,5,24,8,13,20,560,,,,,,,,,0.280762,0.276855,0.33252,94.421387,-43.212891,-78.369141,,,,,,,,,,,0.0,1.0,1.0,14.0,0.0,0.0,0.0,4.0,0.0,0.023610026666666666,-0.2521744533333333,0.9367284933333334,-0.5094401466666659,-1.359863306666667,-2.731119826666667,38.095422734328665,22.074083328208214,-5.71797330143254,-36.278781377666604,-15.581879663259114,0.05210487247853085,39.4835113307638,-1.4741698727736392,40.778408846369125,-1.451473848380994,0.25715197333333334,0.5290294533333333,-0.6042084933333334,1.39038992,0.8432480081799953,0.772792558505775,0.7618270322042877,0.7618270322042877
LBP08_S14,LBP08,65,66,14,65,65,1716538400.6,2024-05-24 08:13:20.600000+00:00,2024-05-24 17:13:20.600000+09:00,2024,5,24,8,13,20,600,,,,,,,,,0.323242,-0.519775,1.1521,-15.380859,30.944824,-25.878906,,,,,,,,,,,0.0,1.0,1.0,14.0,0.0,0.0,0.0,4.0,0.0,0.026731773333333333,-0.24402015999999999,0.9190201600000001,0.5712890266666674,-2.2965494933333335,-3.4228516,34.61057420461165,21.068381558330078,-8.149532909566624,-34.89435840948214,-14.73914440092591,-0.2738764439041341,37.880517879079584,-1.4579820058430497,39.12140578811723,-1.4414668208197985,0.29651022666666665,-0.27575484,0.23307983999999982,0.8053449066666665,0.46721007921037955,0.7568690140994317,0.7516678269286357,0.7516678269286357
LBP08_S14,LBP08,66,67,14,66,66,1716538400.64,2024-05-24 08:13:20.640000+00:00,2024-05-24 17:13:20.640000+09:00,2024,5,24,8,13,20,640,,,,,,,,,0.00293,-0.153809,1.450928,47.058105,47.424316,-10.925293,,,,,,,,,,,0.0,1.0,1.0,14.0,0.0,0.0,0.0,4.0,0.0,0.03631836,-0.2368001066666667,0.8995735466666668,-1.436360706666666,-2.904459653333334,-4.073893266666667,32.298568452218696,20.07606949398698,-10.26443622267094,-33.60241567139339,-13.936101621166431,-0.6844538928109717,36.38414138714786,-1.413636070071921,37.524173886736364,-1.4322426888587318,-0.03338836,0.0829911066666667,0.5513544533333332,0.6677339199999999,0.5585642662932766,0.7478124885587373,0.7452310415741238,0.7452310415741238
LBP08_S14,LBP08,67,68,14,67,67,1716538400.68,2024-05-24 08:13:20.680000+00:00,2024-05-24 17:13:20.680000+09:00,2024,5,24,8,13,20,680,,,,,,,,,-0.081299,-0.947754,1.721191,-51.696777,-51.086426,32.287598,,,,,,,,,,,0.0,1.0,1.0,14.0,0.0,0.0,0.0,4.0,0.0,0.037656253333333334,-0.2366243333333333,0.88896156,-3.161621119999999,-3.435058613333334,-4.471028693333333,31.096572392845005,19.275808346208077,-12.625486556437123,-32.358552775679584,-13.165069287318108,-1.1894733550684566,34.9543964894081,-1.4077243105662716,36.031403558600594,-1.4250200072896124,-0.11895525333333333,-0.7111296666666667,0.8322294399999999,1.6623143599999999,1.101118338741007,0.7569767325884562,0.7567112769666039,0.7567112769666039
LBP08_S14,LBP08,68,69,14,68,68,1716538400.72,2024-05-24 08:13:20.720000+00:00,2024-05-24 17:13:20.720000+09:00,2024,5,24,8,13,20,720,,,,,,,,,0.085449,-0.420166,1.582764,44.006348,-78.552246,1.159668,,,,,,,,,,,0.0,1.0,1.0,14.0,0.0,0.0,0.0,4.0,0.0,0.041585293333333335,-0.24130857333333333,0.8959700266666666,-4.540201853333333,-5.046386733333334,-4.282226613333334,30.321404405205357,18.60738458881297,-15.62158823995933,-31.14569659947137,-12.420773903765589,-1.81433688466683,33.580081288851126,-1.3943686283927017,34.66875089261551,-1.4224902560396413,0.04386370666666666,-0.17885742666666665,0.6867939733333335,0.9095151066666668,0.711055529226339,0.754784438958849,0.7552845348497206,0.7552845348497206
LBP08_S14,LBP08,69,70,14,69,69,1716538400.76,2024-05-24 08:13:20.760000+00:00,2024-05-24 17:13:20.760000+09:00,2024,5,24,8,13,20,760,,,,,,,,,0.275146,-0.354492,1.623291,69.641113,111.694336,49.743652,,,,,,,,,,,0.0,1.0,1.0,14.0,0.0,0.0,0.0,4.0,0.0,0.043912759999999995,-0.24787433333333334,0.9104133866666666,-2.956542999999999,-4.099934906666667,-3.2259115066666673,29.03591917010536,17.87851353821979,-19.187991072473753,-29.984259832667156,-11.705633362236798,-2.58185652756578,32.29154182216981,-1.3894188452038165,33.443813484560195,-1.4189722018296618,0.23123324,-0.10661766666666664,0.7128776133333334,1.05072852,0.756987866295208,0.7561095044498508,0.7553361509541293,0.7553361509541293
LBP08_S14,LBP08,70,71,14,70,70,1716538400.8,2024-05-24 08:13:20.800000+00:00,2024-05-24 17:13:20.800000+09:00,2024,5,24,8,13,20,800,,,,,,,,,-0.401611,-0.212158,0.104004,64.208984,117.492676,15.74707,,,,,,,,,,,0.0,1.0,1.0,14.0,0.0,0.0,0.0,4.0,0.0,0.04324218666666666,-0.24536456,0.9182193733333333,-2.438151066666666,-1.8131510533333335,-1.9539388533333333,26.511329713829912,16.99208994655148,-22.73538619684961,-28.92380664411396,-11.025949764374738,-3.4912719754397648,31.15039548704153,-1.3905556730001105,32.34735249738017,-1.4135508330121207,-0.4448531866666667,0.033206559999999996,-0.8142153733333333,1.29227512,0.9284092349211425,0.7562514087703149,0.7604265357766885,0.7604265357766885
LBP08_S14,LBP08,71,72,14,71,71,1716538400.84,2024-05-24 08:13:20.840000+00:00,2024-05-24 17:13:20.840000+09:00,2024,5,24,8,13,20,840,,,,,,,,,-0.015869,-0.17749,0.912598,63.720703,-10.620117,-145.446777,,,,,,,,,,,0.0,1.0,1.0,14.0,0.0,0.0,0.0,4.0,0.0,0.039147133333333334,-0.24434242666666667,0.9164810933333335,-2.8816731999999985,0.5249023199999997,-0.8829753066666668,22.61482475651626,16.175023085293,-25.341077152162693,-28.01921365385331,-10.378948840963018,-4.5049150615262725,30.21743160057078,-1.406627766585906,31.356367909115498,-1.4093373829754383,-0.055016133333333335,0.06685242666666666,-0.003883093333333476,0.12575165333333346,0.0866666042487447,0.7473558061522134,0.7411762520187472,0.7411762520187472
LBP08_S14,LBP08,72,73,14,72,72,1716538400.88,2024-05-24 08:13:20.880000+00:00,2024-05-24 17:13:20.880000+09:00,2024,5,24,8,13,20,880,,,,,,,,,0.186523,-0.36499,1.362793,60.180664,20.202637,-79.650879,,,,,,,,,,,0.0,1.0,1.0,14.0,0.0,0.0,0.0,4.0,0.0,0.03360677333333333,-0.24163734666666664,0.9077571333333333,-2.7628580933333327,1.1490885199999998,-1.0205078533333336,17.95357103987248,16.050045683062816,-26.116059183219747,-27.30107081225841,-9.736947013640505,-5.549557428855063,29.511933049167606,-1.4279519086896386,30.43960694285726,-1.4056251611968527,0.15291622666666665,-0.12335265333333334,0.4550358666666666,0.7313047466666667,0.49563786116017133,0.7142283483299827,0.7343557411615645,0.7343557411615645
LBP08_S14,LBP08,73,74,14,73,73,1716538400.92,2024-05-24 08:13:20.920000+00:00,2024-05-24 17:13:20.920000+09:00,2024,5,24,8,13,20,920,,,,,,,,,0.01001,-0.564941,1.836426,-64.575195,6.04248,-6.958008,,,,,,,,,,,0.0,1.0,1.0,14.0,0.0,0.0,0.0,4.0,0.0,0.03356445333333333,-0.24027341333333335,0.8982877333333332,-2.8955078266666656,0.20345049333333293,-2.285156293333334,13.698363462930114,17.472803911381668,-24.560209312202467,-26.753136273741205,-9.038034857185238,-6.531965801343161,28.98418451140172,-1.4272869371695622,29.56481509215751,-1.400404226718576,-0.02355445333333333,-0.3246675866666667,0.9381382666666667,1.2863603066666667,0.9930091950672599,0.7033125635089863,0.7413463750509077,0.7413463750509077
LBP08_S14,LBP08,74,75,14,74,74,1716538400.96,2024-05-24 08:13:20.960000+00:00,2024-05-24 17:13:20.960000+09:00,2024,5,24,8,13,20,960,,,,,,,,,-0.282471,-0.634521,2.105225,-23.681641,-38.208008,-3.112793,,,,,,,,,,,0.0,1.0,1.0,14.0,0.0,0.0,0.0,4.0,0.0,0.03461262666666667,-0.23547197333333333,0.8846191066666668,-2.3608398533333323,-1.3330078400000005,-3.6580404000000004,11.151303843974631,21.19814504109771,-20.730708503479086,-26.30708411998222,-8.19010905554133,-7.361194141482325,28.518901458963573,-1.419956184598229,28.706443818341427,-1.396915211214607,-0.3170836266666667,-0.39904902666666664,1.220605893333333,1.9367385466666662,1.3227474811254656,0.7028264924751825,0.7566464041581329,0.7566464041581329
LBP08_S14,LBP08,75,76,14,75,75,1716538401.0,2024-05-24 08:13:21+00:00,2024-05-24 17:13:21+09:00,2024,5,24,8,13,21,0,8.0,13.0,19.0,40.564667,141.494446,29.002001,3.0,12.0,0.293945,-0.670166,2.07373,10.253906,-11.413574,8.483887,-579.0,25.0,601.0,338.0,0.0,1018.799988,22.82,0.057477,-46.078239,3.628125,0.0,1.0,1.0,14.0,0.0,0.0,0.0,5.0,0.0,0.035498039999999995,-0.23511064,0.8758918933333335,-2.229003906666666,-3.8720703333333337,-4.729003933333334,11.23607269379949,27.532631423819538,-15.171275313790312,-25.85764121223024,-7.088803798588548,-7.968045154033938,27.970671996432888,-1.4158475054762258,27.852282010721222,-1.3942680102125464,0.25844696,-0.43505536,1.1978381066666663,1.8913404266666665,1.300340004452972,0.7160819207097262,0.7705872657041544,0.7705872657041544
LBP08_S14,LBP08,76,77,14,76,76,1716538401.04,2024-05-24 08:13:21.040000+00:00,2024-05-24 17:13:21.040000+09:00,2024,5,24,8,13,21,40,,,,,,,,,0.290527,-0.453125,1.831055,16.906738,97.473145,13.061523,,,,,,,,,,,0.0,1.0,1.0,14.0,0.0,0.0,0.0,5.0,0.0,0.044055973333333324,-0.23126298666666667,0.87708656,-1.878255199999999,-6.450195346666667,-5.070800813333333,14.113688625995314,36.124715891910995,-8.68460037300595,-25.29309366719043,-5.643815162912108,-8.315429168954175,27.21653172456548,-1.3765138522860654,27.006872863971665,-1.392345872820141,0.24647102666666665,-0.22186201333333333,0.9539684400000001,1.4223014800000002,1.0099636154151668,0.7217559501644333,0.7765716744469298,0.7765716744469298
LBP08_S14,LBP08,77,78,14,77,77,1716538401.08,2024-05-24 08:13:21.080000+00:00,2024-05-24 17:13:21.080000+09:00,2024,5,24,8,13,21,80,,,,,,,,,0.019531,-0.453369,1.373779,-22.094727,59.692383,3.845215,,,,,,,,,,,0.0,1.0,1.0,14.0,0.0,0.0,0.0,5.0,0.0,0.049707013333333334,-0.23477861333333336,0.8867740666666667,-0.6453450533333326,-6.404622426666666,-4.769694053333334,19.05831136868448,45.96217991538423,-2.0855807949085516,-24.53076121244305,-3.8053279662967388,-8.398852400750517,26.206477982410632,-1.3555149657835044,26.189156760512766,-1.3901802447825247,-0.030176013333333335,-0.21859038666666666,0.4870049333333334,0.7357713333333333,0.5346645247393742,0.718570043449343,0.7706715000638186,0.7706715000638186
LBP08_S14,LBP08,78,79,14,78,78,1716538401.12,2024-05-24 08:13:21.120000+00:00,2024-05-24 17:13:21.120000+09:00,2024,5,24,8,13,21,120,,,,,,,,,0.294189,-0.542236,1.652832,62.011719,44.86084,-2.441406,,,,,,,,,,,0.0,1.0,1.0,14.0,0.0,0.0,0.0,5.0,0.0,0.04848956,-0.23323564,0.8955305866666666,-1.0701497333333325,-5.0610351866666665,-3.8028971866666668,24.622983179673447,55.54897374948969,3.960519654186709,-23.545841885256113,-1.583369016317151,-8.240431614583049,24.9963685506902,-1.3594784733530125,25.424021709357408,-1.3886265020341928,0.24569944,-0.3090003600000001,0.7573014133333335,1.3120012133333336,0.8540227560979319,0.7339075609207225,0.7726560537789166,0.7726560537789166
LBP08_S14,LBP08,79,80,14,79,79,1716538401.16,2024-05-24 08:13:21.160000+00:00,2024-05-24 17:13:21.160000+09:00,2024,5,24,8,13,21,160,,,,,,,,,0.205811,-0.500488,1.844971,-31.494141,43.701172,-2.258301,,,,,,,,,,,0.0,1.0,1.0,14.0,0.0,0.0,0.0,5.0,0.0,0.047509746666666665,-0.23221676000000002,0.9075065066666668,-0.9822591066666658,-2.587076853333334,-3.3805339066666664,29.03852155135383,63.18351565755596,8.984676547290046,-22.38430102320196,0.9439716099850872,-7.8810445526914465,23.749923745967813,-1.3629468351832106,24.732700635873844,-1.387034481326832,0.15830125333333334,-0.26827124,0.9374644933333331,1.3640369866666666,0.9878605272399362,0.7539325285868931,0.7776608089756845,0.7776608089756845
LBP08_S14,LBP08,80,81,14,80,80,1716538401.2,2024-05-24 08:13:21.200000+00:00,2024-05-24 17:13:21.200000+09:00,2024,5,24,8,13,21,200,,,,,,,,,-0.019775,0.012939,1.868408,137.084961,66.40625,-14.587402,,,,,,,,,,,0.0,1.0,1.0,14.0,0.0,0.0,0.0,5.0,0.0,0.04655271999999999,-0.23753902666666665,0.9198209599999999,-2.4959309733333326,-0.5183919466666672,-2.5781250533333337,30.731087415219676,67.27326826762734,12.680578599049918,-21.155057526593172,3.6349023406901813,-7.37382140872945,22.696304019545963,-1.3713342990760569,24.128735194066603,-1.386841440647465,-0.06632771999999999,0.25047802666666663,0.9485870400000002,1.2653927866666668,0.9833391992284186,0.7699110811671648,0.7823353178450648,0.7823353178450648
LBP08_S14,LBP08,81,82,14,81,81,1716538401.24,2024-05-24 08:13:21.240000+00:00,2024-05-24 17:13:21.240000+09:00,2024,5,24,8,13,21,240,,,,,,,,,-0.047363,-0.778076,2.467529,23.925781,56.274414,12.634277,,,,,,,,,,,0.0,1.0,1.0,14.0,0.0,0.0,0.0,5.0,0.0,0.04407225333333333,-0.24202469333333335,0.9266927066666665,-2.462565079999999,1.8367512933333325,-1.7431641066666672,28.80874833362224,66.65172710898085,14.855537981303808,-20.00270759324828,6.300971425049415,-6.779599889477297,22.040270565981768,-1.3849714862097413,23.620381218171943,-1.384450637156308,-0.09143525333333333,-0.5360513066666667,1.5408362933333333,2.168322853333333,1.6339791589198367,0.7967283634242674,0.8012607365356152,0.8012607365356152
LBP08_S14,LBP08,82,83,14,82,82,1716538401.28,2024-05-24 08:13:21.280000+00:00,2024-05-24 17:13:21.280000+09:00,2024,5,24,8,13,21,280,,,,,,,,,0.051758,-0.321777,2.300049,36.071777,70.495605,25.512695,,,,,,,,,,,0.0,1.0,1.0,14.0,0.0,0.0,0.0,5.0,0.0,0.03700844,-0.23913081333333333,0.9252734399999999,-3.1632486799999993,2.735188799999999,-1.0872396266666668,23.365654009753673,60.86733388015194,15.417165026135256,-19.068081432858136,8.735664780255492,-6.162913288431887,21.86058253761404,-1.4124144812063213,23.21408985132897,-1.3835115372561024,0.014749560000000002,-0.08264618666666665,1.3747755600000002,1.4721713066666668,1.3773364810619262,0.8072408244566194,0.8137841222861872,0.8137841222861872
LBP08_S14,LBP08,83,84,14,83,83,1716538401.32,2024-05-24 08:13:21.320000+00:00,2024-05-24 17:13:21.320000+09:00,2024,5,24,8,13,21,320,,,,,,,,,0.057129,-0.852539,2.110596,10.437012,72.143555,43.884277,,,,,,,,,,,0.0,1.0,1.0,14.0,0.0,0.0,0.0,5.0,0.0,0.03770830666666666,-0.24228510666666664,0.9212174533333333,-3.2633463333333323,1.1661783866666664,-1.9091797333333338,15.50232726948294,50.38802037339069,14.404435028968122,-18.44798834207882,10.751185595191119,-5.5867358872731625,22.070973776566063,-1.411366730095955,22.913675535152844,-1.3844915203389037,0.019420693333333336,-0.6102538933333335,1.1893785466666669,1.8190531333333335,1.3369399032600349,0.8422039438312134,0.8249150963494606,0.8249150963494606
LBP08_S14,LBP08,84,85,14,84,84,1716538401.36,2024-05-24 08:13:21.360000+00:00,2024-05-24 17:13:21.360000+09:00,2024,5,24,8,13,21,360,,,,,,,,,-0.037109,-0.370361,1.76123,15.563965,83.374023,9.94873,,,,,,,,,,,0.0,1.0,1.0,14.0,0.0,0.0,0.0,5.0,0.0,0.035651013333333335,-0.23915360000000002,0.9142675866666667,-1.3492838399999991,-1.8758138000000009,-3.1437174933333334,7.051718268111957,36.639203209549414,12.029157876300953,-18.16591961135434,12.216753723573095,-5.105569572221125,22.479247040891195,-1.4180257778045553,22.714042450307783,-1.3859985629275937,-0.07276001333333335,-0.13120739999999997,0.8469624133333333,1.0509298266666667,0.8601480866423241,0.8677985901991839,0.8256491169805619,0.8256491169805619
LBP08_S14,LBP08,85,86,14,85,85,1716538401.4,2024-05-24 08:13:21.400000+00:00,2024-05-24 17:13:21.400000+09:00,2024,5,24,8,13,21,400,,,,,,,,,-0.150635,0.064453,0.97168,28.625488,108.886719,10.009766,,,,,,,,,,,0.0,1.0,1.0,14.0,0.0,0.0,0.0,5.0,0.0,0.042288386666666664,-0.24154292,0.9224479333333333,0.7812500133333341,-4.877115893333333,-3.7613932800000005,0.09214832439293832,21.797149228984768,8.681261268164869,-18.162233678378623,13.088639692732485,-4.75831912149453,22.887132237486274,-1.3919394705646562,22.59282711304066,-1.3878753165286757,-0.19292338666666664,0.30599592,0.049232066666666685,0.5481513733333333,0.3650708596531003,0.8620011130864065,0.8162495607085729,0.8162495607085729
LBP08_S14,LBP08,86,87,14,86,86,1716538401.44,2024-05-24 08:13:21.440000+00:00,2024-05-24 17:13:21.440000+09:00,2024,5,24,8,13,21,440,,,,,,,,,-0.328857,0.025879,0.034668,-119.567871,-63.842773,-16.662598,,,,,,,,,,,0.0,1.0,1.0,14.0,0.0,0.0,0.0,5.0,0.0,0.04855141333333333,-0.2425390133333333,0.9342122666666666,2.6717122533333337,-5.21321616,-4.361979213333333,-3.6110262063444263,8.317303113775882,4.875930279323563,-18.3066747266324,13.421331817283521,-4.563281910321588,23.153618056135777,-1.367122853284009,22.50591980265075,-1.3895139052019534,-0.37740841333333336,0.2684180133333333,-0.8995442666666665,1.545370693333333,1.0117634249316727,0.8746938427242955,0.8201598379930348,0.8201598379930348
LBP08_S14,LBP08,87,88,14,87,87,1716538401.48,2024-05-24 08:13:21.480000+00:00,2024-05-24 17:13:21.480000+09:00,2024,5,24,8,13,21,480,,,,,,,,,0.183838,-0.628662,0.787354,-42.114258,-134.338379,3.234863,,,,,,,,,,,0.0,1.0,1.0,14.0,0.0,0.0,0.0,5.0,0.0,0.04929685333333333,-0.24387690666666667,0.9491504266666666,3.867187506666667,-3.1917317866666672,-3.8094076,-3.068278494487486,-1.7077918251618924,1.160079215841777,-18.4294058664119,13.353020144277046,-4.516878741687917,23.20233482064937,-1.365314796611521,22.3924049876948,-1.3920905804892665,0.13454114666666667,-0.3847850933333334,-0.1617964266666666,0.6811226666666667,0.43856467240308544,0.8683301460246109,0.8258038029276293,0.8126775798442124
LBP08_S14,LBP08,88,89,14,88,88,1716538401.52,2024-05-24 08:13:21.520000+00:00,2024-05-24 17:13:21.520000+09:00,2024,5,24,8,13,21,520,,,,,,,,,0.328369,-0.049805,1.328369,66.772461,-17.76123,-21.54541,,,,,,,,,,,0.0,1.0,1.0,14.0,0.0,0.0,0.0,5.0,0.0,0.04869138666666666,-0.2528970933333333,0.96320968,4.358723973333334,-0.9098307466666671,-2.535807333333334,1.7115197063788106,-7.144330709430997,-1.9814914259960223,-18.36094507815675,13.067246915899807,-4.596138398727757,23.000037702239563,-1.374548899239911,22.1895605673077,-1.38924781254581,0.27967761333333335,0.20309209333333333,0.36515931999999995,0.8479290266666666,0.502799457793271,0.8584578854523217,0.819675126358892,0.8067183851893867
LBP08_S14,LBP08,89,90,14,89,89,1716538401.56,2024-05-24 08:13:21.560000+00:00,2024-05-24 17:13:21.560000+09:00,2024,5,24,8,13,21,560,,,,,,,,,-0.33667,-0.575195,1.481689,-1.89209,39.306641,24.536133,,,,,,,,,,,0.0,1.0,1.0,14.0,0.0,0.0,0.0,5.0,0.0,0.04811848,-0.25990554666666665,0.97519536,5.949707040000001,0.8553059733333328,-2.0686849333333335,9.795839268519913,-8.120028228857187,-4.187367778286596,-17.969111507415953,12.742445786745519,-4.763633109859221,22.537770373296556,-1.3817143711940294,21.85051396560544,-1.384263066838513,-0.38478848000000004,-0.31528945333333336,0.5064936400000001,1.2065715733333335,0.70993339200547,0.8531253008053405,0.8129589296555578,0.8048922532425202
LBP08_S14,LBP08,90,91,14,90,90,1716538401.6,2024-05-24 08:13:21.600000+00:00,2024-05-24 17:13:21.600000+09:00,2024,5,24,8,13,21,600,,,,,,,,,-0.097656,-0.328613,1.766357,124.145508,-53.588867,-9.70459,,,,,,,,,,,0.0,1.0,1.0,14.0,0.0,0.0,0.0,5.0,0.0,0.0465104,-0.2595800266666667,0.97973312,5.9057617333333345,2.3811848799999993,-2.536621133333334,19.631724409294858,-5.901766629200055,-5.242762424371736,-17.183842531044156,12.506375121577516,-4.97334360683409,21.82723091564692,-1.3877201858088337,21.35407024383768,-1.3730898612079858,-0.1441664,-0.0690329733333333,0.7866238799999999,0.9998232533333332,0.8026995894370789,0.8665448812144086,0.8117069476569202,0.8048516483572342
LBP08_S14,LBP08,91,92,14,91,91,1716538401.64,2024-05-24 08:13:21.640000+00:00,2024-05-24 17:13:21.640000+09:00,2024,5,24,8,13,21,640,,,,,,,,,0.189941,-0.2146,1.800049,-51.147461,4.821777,4.333496,,,,,,,,,,,0.0,1.0,1.0,14.0,0.0,0.0,0.0,5.0,0.0,0.040638,-0.26041010666666664,0.9699056399999999,8.3520508,2.891438786666666,-3.3235677466666673,29.42760619182089,-2.4073961681678453,-5.084349962012251,-16.00673828337132,12.410079274850803,-5.176717605314581,20.90512241642226,-1.4107382390828729,20.703028475401652,-1.364753461552003,0.149303,0.04581010666666663,0.8301433600000001,1.0252564666666668,0.8447058362731378,0.877990544013603,0.8129015162861701,0.8055762699557053
LBP08_S14,LBP08,92,93,14,92,92,1716538401.68,2024-05-24 08:13:21.680000+00:00,2024-05-24 17:13:21.680000+09:00,2024,5,24,8,13,21,680,,,,,,,,,-0.107178,-0.48291,1.071045,20.507812,195.373535,35.888672,,,,,,,,,,,0.0,1.0,1.0,14.0,0.0,0.0,0.0,5.0,0.0,0.047493466666666664,-0.2600292533333334,0.9587435333333334,11.919759133333333,3.081868466666666,-3.346354200000001,37.48207432401719,0.4403058208094464,-3.8110335717535095,-14.507455310410633,12.42769150768318,-5.3291589481847215,19.832138333743025,-1.3839868017717583,19.916037149267698,-1.361699840132273,-0.15467146666666665,-0.22288074666666663,0.11230146666666663,0.4898536799999999,0.29361660247845833,0.845690474563101,0.8013336035757788,0.7964341330364687
LBP08_S14,LBP08,93,94,14,93,93,1716538401.72,2024-05-24 08:13:21.720000+00:00,2024-05-24 17:13:21.720000+09:00,2024,5,24,8,13,21,720,,,,,,,,,0.036621,-0.167969,0.229248,66.162109,-46.813965,-75.927734,,,,,,,,,,,0.0,1.0,1.0,14.0,0.0,0.0,0.0,5.0,0.0,0.051721986666666664,-0.25155594666666664,0.9495117599999999,14.884440133333333,2.4772135199999994,-2.3795573200000004,42.409528225839765,1.2635167960889109,-1.7049688085670671,-12.811074181377041,12.478232179526737,-5.3973577005274045,18.680507759543488,-1.3615192730229833,19.0205261226814,-1.359867815530968,-0.015100986666666663,0.08358694666666663,-0.7202637599999999,0.8189516933333332,0.7252549216797501,0.8462584502612376,0.8005214446100432,0.7951853749424912
LBP08_S14,LBP08,94,95,14,94,94,1716538401.76,2024-05-24 08:13:21.760000+00:00,2024-05-24 17:13:21.760000+09:00,2024,5,24,8,13,21,760,,,,,,,,,0.25293,-0.00415,0.791504,107.177734,-51.940918,-20.874023,,,,,,,,,,,0.0,1.0,1.0,14.0,0.0,0.0,0.0,5.0,0.0,0.06313149333333333,-0.23985021333333337,0.9516146266666665,15.17903648,-0.2750651200000006,-2.837727893333334,43.27535798606437,-0.5083118229845707,0.7662035178350877,-11.080059861934465,12.457899706607353,-5.366709559814001,17.514809823213547,-1.3062937214992854,18.051361908885145,-1.355148053321615,0.18979850666666664,0.23570021333333338,-0.16011062666666653,0.5856093466666665,0.34236453740109857,0.8296735171054731,0.792891510777662,0.787378119122812
LBP08_S14,LBP08,95,96,14,95,95,1716538401.8,2024-05-24 08:13:21.800000+00:00,2024-05-24 17:13:21.800000+09:00,2024,5,24,8,13,21,800,,,,,,,,,0.230225,0.049561,0.85498,-18.188477,-36.254883,0.305176,,,,,,,,,,,0.0,1.0,1.0,14.0,0.0,0.0,0.0,5.0,0.0,0.06370116,-0.2442968266666667,0.9646094266666667,12.027181,1.4420572666666662,-1.8465169600000004,39.66340254939467,-4.702624261996901,3.014385752458482,-9.493523759958679,12.269794736127478,-5.246134129715661,16.376714553126003,-1.3085754740048245,17.05511854265314,-1.348019454771959,0.16652384,0.2938578266666667,-0.10962942666666675,0.5700110933333334,0.3551073397901885,0.8067414413002351,0.7814964250352748,0.7800514957442929
LBP08_S14,LBP08,96,97,14,96,96,1716538401.84,2024-05-24 08:13:21.840000+00:00,2024-05-24 17:13:21.840000+09:00,2024,5,24,8,13,21,840,,,,,,,,,-0.001709,-0.56543,1.363525,-57.067871,-18.127441,63.049316,,,,,,,,,,,0.0,1.0,1.0,14.0,0.0,0.0,0.0,5.0,0.0,0.05730793333333333,-0.2474608933333333,0.9697786933333333,11.692708333333334,1.8774413866666662,-2.539876333333334,31.694001052668668,-10.669188048626857,4.486590838828947,-8.225763717851931,11.843027214182404,-5.066670496162503,15.28370479479625,-1.33658663908671,16.094527310188223,-1.3415752450891985,-0.059016933333333334,-0.31796910666666667,0.39374630666666677,0.7707323466666668,0.5095326341149407,0.8236560824948829,0.785505944323548,0.7755428480504704
LBP08_S14,LBP08,97,98,14,97,97,1716538401.88,2024-05-24 08:13:21.880000+00:00,2024-05-24 17:13:21.880000+09:00,2024,5,24,8,13,21,880,,,,,,,,,-0.072021,-0.629639,1.423096,66.711426,-69.885254,9.460449,,,,,,,,,,,0.0,1.0,1.0,14.0,0.0,0.0,0.0,5.0,0.0,0.05569985333333334,-0.25237625333333336,0.9742578666666666,11.924641933333334,1.1311848799999997,-2.749023466666667,20.02182697276315,-17.55462191751853,4.867648784431761,-7.424890638941405,11.140842337481663,-4.871964544785233,14.24722455478638,-1.3469945505984697,15.243544993636913,-1.32816191840914,-0.12772085333333333,-0.3772627466666666,0.44883813333333333,0.9538217333333332,0.6000795500038503,0.8278337500486299,0.7710310491893064,0.7726664005415095
LBP08_S14,LBP08,98,99,14,98,98,1716538401.92,2024-05-24 08:13:21.920000+00:00,2024-05-24 17:13:21.920000+09:00,2024,5,24,8,13,21,920,,,,,,,,,0.18042,0.033691,0.983154,103.820801,-27.770996,10.559082,,,,,,,,,,,0.0,1.0,1.0,14.0,0.0,0.0,0.0,5.0,0.0,0.05992836000000001,-0.24867833333333336,0.9657292266666667,12.459309893333334,2.1720377466666667,-2.8629557600000006,5.833901029142705,-24.45472221442503,4.230789065008592,-7.191534597775697,10.162653448904662,-4.702732982184889,13.30839556427702,-1.3273512771463805,14.56850603166917,-1.3195514350630553,0.12049163999999998,0.28236933333333336,0.017424773333333254,0.4202857466666666,0.30749682671975453,0.8004132553147297,0.7518629094118578,0.7651636654798681
LBP08_S14,LBP08,99,100,14,99,99,1716538401.96,2024-05-24 08:13:21.960000+00:00,2024-05-24 17:13:21.960000+09:00,2024,5,24,8,13,21,960,,,,,,,,,-0.046387,0.361084,0.406738,-26.306152,97.045898,28.198242,,,,,,,,,,,0.0,1.0,1.0,14.0,0.0,0.0,0.0,5.0,0.0,0.06084633333333333,-0.23484369333333333,0.9454167200000001,12.244466146666669,2.922363266666667,-3.222656280000001,-9.186952757083194,-30.43889265626717,3.0430908498757336,-7.559012708059025,8.945097742653974,-4.58100934818986,12.575336710976527,-1.3104283856974734,14.10663199255924,-1.314976826321168,-0.10723333333333332,0.5959276933333333,-0.53867872,1.2418397466666666,0.810434184150819,0.7799207234357439,0.7413736079554633,0.7658822451413119
LBP08_S14,LBP08,100,101,14,100,100,1716538402.0,2024-05-24 08:13:22+00:00,2024-05-24 17:13:22+09:00,2024,5,24,8,13,22,0,8.0,13.0,20.0,40.564568,141.494568,29.384001,3.0,12.0,-0.125,-0.097656,0.005615,-51.086426,8.300781,-6.530762,-590.0,9.0,591.0,600.0,0.0,1018.099976,22.889999,0.05054,-40.277672,3.628125,0.0,1.0,1.0,14.0,0.0,0.0,0.0,5.0,0.0,0.059280573333333336,-0.24184565333333333,0.9335514800000001,11.905110666666667,1.7553710799999995,-3.496093786666668,-23.011337023249787,-34.55202907189753,1.9972886575798758,-8.479466188989017,7.563016579778074,-4.501117801886665,12.22131859099774,-1.3232780889812275,13.857544917912168,-1.3154264066275596,-0.18428057333333334,0.14418965333333333,-0.9279364800000001,1.2564067066666667,0.9569828090155222,0.766186435618246,0.741134178163986,0.7688681914518464
LBP08_S14,LBP08,101,102,14,101,101,1716538402.04,2024-05-24 08:13:22.040000+00:00,2024-05-24 17:13:22.040000+09:00,2024,5,24,8,13,22,40,,,,,,,,,-0.017822,-0.099609,-0.008789,-45.166016,-54.992676,-34.729004,,,,,,,,,,,0.0,1.0,1.0,14.0,0.0,0.0,0.0,5.0,0.0,0.06800778666666667,-0.23050775999999998,0.9400521333333334,11.258138,-0.49072266666666736,-4.651692746666667,-33.565845258703234,-35.93162481134693,1.7213494261098627,-9.822099999337146,6.125751587324197,-4.432263824842271,12.395299250909158,-1.2766049722822885,13.789845476412884,-1.3148049166539546,-0.08582978666666667,0.13089875999999998,-0.9488411333333334,1.16556968,0.9616656040194366,0.7642545151624166,0.743005232663425,0.7718343054913478
LBP08_S14,LBP08,102,103,14,102,102,1716538402.08,2024-05-24 08:13:22.080000+00:00,2024-05-24 17:13:22.080000+09:00,2024,5,24,8,13,22,80,,,,,,,,,0.150391,0.039795,0.159424,-4.821777,-97.045898,-16.418457,,,,,,,,,,,0.0,1.0,1.0,14.0,0.0,0.0,0.0,5.0,0.0,0.06572913333333333,-0.24167312,0.9542904133333333,9.05680336,0.18636066666666604,-3.3902995066666675,-39.13921020652258,-34.09384711300574,2.476845739502363,-11.38766840759805,4.761997702803967,-4.333189995262177,13.081748714065606,-1.2978819683109117,13.855207244266705,-1.3122039032354769,0.08466186666666667,0.28146812,-0.7948664133333333,1.1609964,0.8474694975568243,0.7767667140751148,0.7476683787622289,0.7729802932499156
LBP08_S14,LBP08,103,104,14,103,103,1716538402.12,2024-05-24 08:13:22.120000+00:00,2024-05-24 17:13:22.120000+09:00,2024,5,24,8,13,22,120,,,,,,,,,0.296631,-0.098633,0.304443,-75.561523,-111.38916,-31.799316,,,,,,,,,,,0.0,1.0,1.0,14.0,0.0,0.0,0.0,5.0,0.0,0.061272759999999996,-0.24187169333333333,0.9609473066666665,9.2301432,-0.2726237066666673,-2.967936226666667,-38.782431960258876,-29.282509079480914,3.976500304247652,-12.938965686008405,3.5906973396247306,-4.1741299830922705,14.061767368444158,-1.3157731856041084,14.00272110186317,-1.3112920955906435,0.23535824,0.14323869333333333,-0.6565043066666665,1.03510124,0.7119752306615862,0.7710848130576609,0.7524961869891916,0.7720697699277017
LBP08_S14,LBP08,104,105,14,104,104,1716538402.16,2024-05-24 08:13:22.160000+00:00,2024-05-24 17:13:22.160000+09:00,2024,5,24,8,13,22,160,,,,,,,,,0.238281,-0.065186,0.566406,-44.189453,-52.062988,5.981445,,,,,,,,,,,0.0,1.0,1.0,14.0,0.0,0.0,0.0,5.0,0.0,0.06359697333333333,-0.24619459999999999,0.9642546000000001,8.03385414666667,-0.8032226533333339,-2.4267578400000005,-32.59120544750128,-22.65958232550069,5.417813985848237,-14.242613903908456,2.684314046604703,-3.957417423658341,15.023939076742836,-1.310789524563203,14.189297316468707,-1.3091963200120795,0.17468402666666666,0.1810086,-0.3978486000000001,0.7535412266666668,0.47070386759447896,0.7503985466718426,0.7521655376293679,0.7676379184228014
LBP08_S14,LBP08,105,106,14,105,105,1716538402.2,2024-05-24 08:13:22.200000+00:00,2024-05-24 17:13:22.200000+09:00,2024,5,24,8,13,22,200,,,,,,,,,0.119629,-0.267578,0.758057,-79.284668,-9.82666,28.259277,,,,,,,,,,,0.0,1.0,1.0,14.0,0.0,0.0,0.0,5.0,0.0,0.06462888,-0.2417121733333333,0.9617155466666666,8.418782533333335,1.0595703199999995,-2.2363281600000007,-21.783356062916372,-16.144169895820728,5.748429559073745,-15.11394814642511,2.038547250771874,-3.727480241295391,15.699720138133168,-1.302360574268775,14.384670485645708,-1.3069867625813183,0.05500012,-0.025865826666666675,-0.2036585466666666,0.2845244933333333,0.21253436856081245,0.7195663534451383,0.7447387173061516,0.7595929394392944
LBP08_S14,LBP08,106,107,14,106,106,1716538402.24,2024-05-24 08:13:22.240000+00:00,2024-05-24 17:13:22.240000+09:00,2024,5,24,8,13,22,240,,,,,,,,,0.118164,-0.398438,0.955811,9.94873,7.080078,21.42334,,,,,,,,,,,0.0,1.0,1.0,14.0,0.0,0.0,0.0,5.0,0.0,0.06217445333333333,-0.24031244000000002,0.9529590266666668,7.797037733333335,3.732096359999999,-1.6178385733333343,-8.519847477068431,-11.86946729734043,4.080946263256225,-15.454742045507848,1.5637685588782566,-3.564242390765142,15.937322473334456,-1.3105765049019311,14.571738059415924,-1.3046787271063855,0.055989546666666674,-0.15812556,0.002851973333333202,0.21696707999999987,0.16776965104912892,0.6609179731303101,0.7288231682772889,0.7511383210337206
LBP08_S14,LBP08,107,108,14,107,107,1716538402.28,2024-05-24 08:13:22.280000+00:00,2024-05-24 17:13:22.280000+09:00,2024,5,24,8,13,22,280,,,,,,,,,0.135498,-0.073242,0.761963,37.109375,59.143066,36.865234,,,,,,,,,,,0.0,1.0,1.0,14.0,0.0,0.0,0.0,5.0,0.0,0.055221333333333324,-0.23991205333333335,0.9343815466666666,6.5519205466666675,1.8066406266666657,-2.7010091466666677,4.519774901119464,-11.427137228708085,0.1033409308157858,-15.273951049463069,1.1066830697299332,-3.5601087535325107,15.72236313075104,-1.3378764741501374,14.744508818982435,-1.3081792767841711,0.08027666666666669,0.16667005333333335,-0.17241854666666667,0.41936526666666674,0.2528861505181587,0.6159399599085593,0.7115903921825893,0.744120684829276
LBP08_S14,LBP08,108,109,14,108,108,1716538402.32,2024-05-24 08:13:22.320000+00:00,2024-05-24 17:13:22.320000+09:00,2024,5,24,8,13,22,320,,,,,,,,,-0.072266,0.050781,0.371826,55.969238,91.97998,33.813477,,,,,,,,,,,0.0,1.0,1.0,14.0,0.0,0.0,0.0,5.0,0.0,0.06333330666666666,-0.2409114,0.9419271200000001,5.974121066666668,-1.1246744800000008,-3.698730493333334,14.712923883671058,-15.200213233854317,-5.682322839971695,-14.685434094116227,0.49867454037576053,-3.7874016671313786,15.174157710332386,-1.3063935213607383,14.906073667840712,-1.3073157091799696,-0.13559930666666664,0.2916924,-0.5701011200000001,0.9973928266666667,0.6545891193806198,0.5886459285533827,0.7154249361922982,0.7428771908647113
LBP08_S14,LBP08,109,110,14,109,109,1716538402.36,2024-05-24 08:13:22.360000+00:00,2024-05-24 17:13:22.360000+09:00,2024,5,24,8,13,22,360,,,,,,,,,-0.113525,0.129395,-0.019287,5.126953,1.098633,-5.92041,,,,,,,,,,,0.0,1.0,1.0,14.0,0.0,0.0,0.0,5.0,0.0,0.06746416,-0.23918940000000002,0.9441666933333335,5.373535133333335,-1.0595703200000008,-1.9344075866666675,20.06585877263913,-22.087692255623473,-12.008454457770034,-13.882799743210661,-0.3848331498491784,-4.26773984544218,14.529068402746534,-1.2883328113898609,15.06772156988076,-1.3052428061699788,-0.18098915999999998,0.36858440000000003,-0.9634536933333335,1.5130272533333335,1.0473082426671274,0.5961323347943748,0.7319654624967794,0.7470474792455664
LBP08_S14,LBP08,110,111,14,110,110,1716538402.4,2024-05-24 08:13:22.400000+00:00,2024-05-24 17:13:22.400000+09:00,2024,5,24,8,13,22,400,,,,,,,,,0.030029,-0.117432,0.146484,5.004883,-61.706543,-49.133301,,,,,,,,,,,0.0,1.0,1.0,14.0,0.0,0.0,0.0,5.0,0.0,0.06575518666666666,-0.24422521333333336,0.9457422133333332,4.885253880000001,-1.026204440000001,-0.477701853333334,19.633597357599022,-29.78716226461593,-17.191962144045604,-13.0974558489067,-1.5763196404338156,-4.9554183312040045,14.09199432869991,-1.3001977342319022,15.249062710829026,-1.305235335986754,-0.03572618666666666,0.12679321333333338,-0.7992582133333332,0.9617776133333333,0.8100410921317053,0.6139311440935191,0.7379661285899627,0.7478987442845682
LBP08_S14,LBP08,111,112,14,111,111,1716538402.44,2024-05-24 08:13:22.440000+00:00,2024-05-24 17:13:22.440000+09:00,2024,5,24,8,13,22,440,,,,,,,,,0.106689,-0.030273,0.137939,35.827637,-102.172852,-50.90332,,,,,,,,,,,0.0,1.0,1.0,14.0,0.0,0.0,0.0,5.0,0.0,0.06403644,-0.2492122,0.9439681200000001,6.994628880000001,-1.2727864666666675,-0.20996096000000064,13.703235206663738,-35.5715751148736,-19.682103638478726,-12.54932644064015,-2.9991826450287595,-5.742702476743154,14.123006846574267,-1.311610469060144,15.477269247602788,-1.3059858184183122,0.042652560000000006,0.2189392,-0.80602912,1.06762088,0.8363232368284216,0.606913536569389,0.7408036896468421,0.7490777375184863
LBP08_S14,LBP08,112,113,14,112,112,1716538402.48,2024-05-24 08:13:22.480000+00:00,2024-05-24 17:13:22.480000+09:00,2024,5,24,8,13,22,480,,,,,,,,,0.210205,-0.195068,0.241455,4.516602,-119.20166,-55.664062,,,,,,,,,,,0.0,1.0,1.0,14.0,0.0,0.0,0.0,5.0,0.0,0.06903969333333332,-0.24610022666666664,0.9387695466666666,8.225097640000001,-0.6437174533333342,0.16113278666666606,3.7257513266738482,-37.27347609300655,-18.614706788925258,-12.400296387573198,-4.490121688749022,-6.487290748300164,14.697397202648371,-1.289246292268896,15.782563905336332,-1.306147419830409,0.14116530666666668,0.05103222666666665,-0.6973145466666666,0.8895120799999999,0.713287816353112,0.6179024623273901,0.7431163041760004,0.7565033560608829
LBP08_S14,LBP08,113,114,14,113,113,1716538402.52,2024-05-24 08:13:22.520000+00:00,2024-05-24 17:13:22.520000+09:00,2024,5,24,8,13,22,520,,,,,,,,,0.257812,0.160156,0.334229,11.169434,-77.148438,-50.354004,,,,,,,,,,,0.0,1.0,1.0,14.0,0.0,0.0,0.0,5.0,0.0,0.06673826666666666,-0.24313147999999998,0.9317545733333332,7.852376293333335,0.5045572799999991,0.3230793999999994,-7.9790870453197815,-34.087855263031095,-14.16557154573924,-12.71945986938599,-5.853635899270266,-7.053913610129733,15.678246388844633,-1.2950441555041985,16.189216595460017,-1.3043875576735462,0.19107373333333333,0.40328748,-0.5975255733333332,1.1918867866666667,0.7457793064184718,0.6276216562723981,0.7430397708623598,0.7556573029967273
LBP08_S14,LBP08,114,115,14,114,114,1716538402.56,2024-05-24 08:13:22.560000+00:00,2024-05-24 17:13:22.560000+09:00,2024,5,24,8,13,22,560,,,,,,,,,0.229736,-0.322998,0.662842,24.719238,-36.682129,-8.056641,,,,,,,,,,,0.0,1.0,1.0,14.0,0.0,0.0,0.0,5.0,0.0,0.06147134666666666,-0.23805335999999996,0.9216243599999999,8.331705720000002,0.258789039999999,0.5078124799999993,-18.700625670794302,-26.87522242730159,-7.562979255808843,-13.467484896217762,-6.928644796362329,-7.356432780362087,16.837350486225503,-1.3107148227309537,16.704705214332108,-1.3052659960428517,0.16826465333333335,-0.08494464000000004,-0.2587823599999999,0.5119916533333333,0.3201513630664189,0.612030375114836,0.7325778379600884,0.7459827448086506
LBP08_S14,LBP08,115,116,14,115,115,1716538402.6,2024-05-24 08:13:22.600000+00:00,2024-05-24 17:13:22.600000+09:00,2024,5,24,8,13,22,600,,,,,,,,,-0.065186,0.030518,0.740723,-110.290527,-6.896973,43.151855,,,,,,,,,,,0.0,1.0,1.0,14.0,0.0,0.0,0.0,5.0,0.0,0.06282877333333332,-0.24280596,0.9189127733333333,7.298177080000002,-0.819498720000001,0.4964192533333327,-25.925278197158747,-17.849234711520886,-0.7419855871476637,-14.504496024104112,-7.642614184823165,-7.386112203847993,17.981785505870782,-1.309865398584359,17.311413274971517,-1.306424044655301,-0.12801477333333333,0.27332396,-0.1781897733333333,0.5795285066666667,0.35049303077557903,0.593942112768376,0.7302434969913923,0.7391186693607388
LBP08_S14,LBP08,116,117,14,116,116,1716538402.64,2024-05-24 08:13:22.640000+00:00,2024-05-24 17:13:22.640000+09:00,2024,5,24,8,13,22,640,,,,,,,,,0.117188,-0.186768,1.058594,-26.428223,33.874512,4.455566,,,,,,,,,,,0.0,1.0,1.0,14.0,0.0,0.0,0.0,5.0,0.0,0.06039387999999999,-0.23526364,0.9122721466666665,7.871907546666668,-1.4786784133333342,0.37434893333333275,-27.916054201235184,-9.77157167632328,4.247693861349792,-15.62113819215352,-8.033477051876096,-7.216204449394001,18.990269050669898,-1.3121925190229002,17.96530516642473,-1.306328681102612,0.05679412000000001,0.048495640000000007,0.14632185333333358,0.2516116133333336,0.16427867764407403,0.5667250264232134,0.7223577852184083,0.7308426863318512
LBP08_S14,LBP08,117,118,14,117,117,1716538402.68,2024-05-24 08:13:22.680000+00:00,2024-05-24 17:13:22.680000+09:00,2024,5,24,8,13,22,680,,,,,,,,,0.128662,-0.346191,1.079346,-86.914062,57.250977,27.832031,,,,,,,,,,,0.0,1.0,1.0,14.0,0.0,0.0,0.0,5.0,0.0,0.05944986666666666,-0.23982093333333335,0.90517904,7.809244786666668,-2.1858724266666676,0.5143228933333328,-24.12947153115918,-4.95675574675528,5.883278804655963,-16.58631705339989,-8.231747281746307,-6.980873297207763,19.788890031987897,-1.320277852581507,18.60559154768738,-1.3040752057454417,0.06921213333333334,-0.10637006666666668,0.17416695999999987,0.3497491599999999,0.21549719357537764,0.5636002500670902,0.7046453623150957,0.7220891524062159
LBP08_S14,LBP08,118,119,14,118,118,1716538402.72,2024-05-24 08:13:22.720000+00:00,2024-05-24 17:13:22.720000+09:00,2024,5,24,8,13,22,720,,,,,,,,,-0.037109,-0.44165,0.741211,-5.554199,92.041016,53.710938,,,,,,,,,,,0.0,1.0,1.0,14.0,0.0,0.0,0.0,5.0,0.0,0.06121418666666667,-0.24203772,0.8977539066666668,5.697428373333334,-3.049316440000001,0.9480793999999994,-15.332267441730218,-4.456231582297233,3.6500289278223432,-17.199607751069095,-8.409996545038195,-6.83487214009487,20.329043899053282,-1.315177905053795,19.174084748449623,-1.3030733282385583,-0.09832318666666667,-0.19961227999999998,-0.15654290666666681,0.45447837333333346,0.2720628475017038,0.5454725670999685,0.695865508680603,0.715505152106685
LBP08_S14,LBP08,119,120,14,119,119,1716538402.76,2024-05-24 08:13:22.760000+00:00,2024-05-24 17:13:22.760000+09:00,2024,5,24,8,13,22,760,,,,,,,,,-0.322266,-0.070068,0.172852,-6.164551,40.527344,52.490234,,,,,,,,,,,0.0,1.0,1.0,14.0,0.0,0.0,0.0,5.0,0.0,0.06353514666666667,-0.2362206666666667,0.8828190133333333,5.101725253333335,-3.647460973333334,1.0408528399999994,-3.365479578905955,-7.728765878775169,-1.7955121832041834,-17.334226934225335,-8.719147180189202,-6.906692627423037,20.596149009140618,-1.2999132975143548,19.631785747589976,-1.3009465916044802,-0.38580114666666665,0.16615266666666667,-0.7099670133333333,1.2619208266666666,0.8249256896419294,0.5647750131896017,0.6972242651475375,0.7168526782483086
LBP08_S14,LBP08,120,121,14,120,120,1716538402.8,2024-05-24 08:13:22.800000+00:00,2024-05-24 17:13:22.800000+09:00,2024,5,24,8,13,22,800,,,,,,,,,0.023926,0.133545,0.03833,66.40625,-80.871582,-51.391602,,,,,,,,,,,0.0,1.0,1.0,14.0,0.0,0.0,0.0,5.0,0.0,0.06428058666666668,-0.23876298666666665,0.8694726533333333,4.635416666666668,-4.291178413333334,0.9163411199999995,9.374556441950675,-12.925343684729675,-8.8401438213335,-16.959244676547307,-9.23616092757839,-7.260298380276376,20.63091324323205,-1.2992440987050127,19.961293374614534,-1.2954382493421694,-0.04035458666666668,0.37230798666666665,-0.8311426533333334,1.2438052266666668,0.9116138655103914,0.5870352742184098,0.6968883577593223,0.7166760414296532
LBP08_S14,LBP08,121,122,14,121,121,1716538402.84,2024-05-24 08:13:22.840000+00:00,2024-05-24 17:13:22.840000+09:00,2024,5,24,8,13,22,840,,,,,,,,,0.103271,-0.078369,0.275879,61.462402,-126.098633,-67.443848,,,,,,,,,,,0.0,1.0,1.0,14.0,0.0,0.0,0.0,5.0,0.0,0.06532876,-0.2332388933333333,0.85811848,4.698079426666668,-5.084635453333334,0.46874997333333285,20.567869540497725,-17.669561455406747,-15.440576303356712,-16.1365298949274,-9.94294338579466,-7.877921432410645,20.525870659200756,-1.2890757154884398,20.159463497432988,-1.289639892066301,0.03794224,0.1548698933333333,-0.58223948,0.7750516133333334,0.6036779849455884,0.5908010882516357,0.7072285853732594,0.7206043256329107
LBP08_S14,LBP08,122,123,14,122,122,1716538402.88,2024-05-24 08:13:22.880000+00:00,2024-05-24 17:13:22.880000+09:00,2024,5,24,8,13,22,880,,,,,,,,,0.297119,0.097656,0.435303,24.108887,-90.454102,-74.523926,,,,,,,,,,,0.0,1.0,1.0,14.0,0.0,0.0,0.0,5.0,0.0,0.06714190666666665,-0.23110673333333334,0.8506022133333333,4.459635413333334,-6.118164093333335,0.6119791466666662,28.51342929738683,-19.999196241018,-19.773854630842283,-14.995992723031925,-10.742911235435379,-8.668875617644336,20.382329210270807,-1.279227517200062,20.231274771123758,-1.2857333693052417,0.22997709333333338,0.32876273333333333,-0.4152992133333333,0.9740390400000001,0.5774494219255386,0.5898958831285033,0.7088648165885667,0.710652660502372
LBP08_S14,LBP08,123,124,14,123,123,1716538402.92,2024-05-24 08:13:22.920000+00:00,2024-05-24 17:13:22.920000+09:00,2024,5,24,8,13,22,920,,,,,,,,,0.365723,-0.438232,0.619141,5.737305,-27.22168,-47.241211,,,,,,,,,,,0.0,1.0,1.0,14.0,0.0,0.0,0.0,5.0,0.0,0.07058917333333334,-0.23867184,0.85290364,4.493815106666667,-7.4031575866666675,0.5696614399999995,32.43373767082748,-19.069074206940176,-20.76764377946353,-13.698643216198827,-11.505674203712987,-9.499581368822877,20.25525638024815,-1.273776789163419,20.18899892390781,-1.2785256058298087,0.29513382666666665,-0.19956016000000001,-0.2337626399999999,0.7284566266666666,0.4261140750572612,0.5946405730620036,0.6975269141883667,0.6994554639619066
LBP08_S14,LBP08,124,125,14,124,124,1716538402.96,2024-05-24 08:13:22.960000+00:00,2024-05-24 17:13:22.960000+09:00,2024,5,24,8,13,22,960,,,,,,,,,0.084717,-0.021729,0.83252,52.001953,20.629883,-4.394531,,,,,,,,,,,0.0,1.0,1.0,14.0,0.0,0.0,0.0,5.0,0.0,0.07618486666666667,-0.24163408,0.8677441333333333,6.303710933333335,-6.369628946666667,1.1889648266666661,32.497951396734685,-15.345394540186797,-18.323121837289804,-12.39872516032944,-12.11948998532046,-10.23250624231447,20.13242675647111,-1.255631400107847,20.053308453384073,-1.2705814405860685,0.00853213333333333,0.21990508,-0.035224133333333296,0.26366134666666663,0.22287166952779938,0.5711380724770827,0.6755293979564133,0.6846284294626698
LBP08_S14,LBP08,125,126,14,125,125,1716538403.0,2024-05-24 08:13:23+00:00,2024-05-24 17:13:23+09:00,2024,5,24,8,13,23,0,8.0,13.0,21.0,40.564484,141.494705,31.242001,3.0,12.0,0.166992,-0.653076,1.15918,12.329102,1.708984,38.574219,-575.0,19.0,602.0,272.0,0.0,1018.700012,22.959999,0.056486,-45.25,3.628125,1.0,1.0,1.0,14.0,0.0,0.0,0.0,5.0,0.0,0.07463213333333334,-0.23307939999999996,0.8741926933333332,7.013346346666667,-4.431966186666668,1.5242512933333325,29.617093968961242,-10.268779231222904,-13.189126734778947,-11.21404140157099,-12.530241154569376,-10.760071311705628,19.963486734055323,-1.251881825825674,19.851413300569796,-1.2649429135727104,0.09235986666666667,-0.41999660000000005,0.28498730666666694,0.7973437733333336,0.5158926767684974,0.5534944671872017,0.6598404514027238,0.6785876078383912
LBP08_S14,LBP08,126,127,14,126,126,1716538403.04,2024-05-24 08:13:23.040000+00:00,2024-05-24 17:13:23.040000+09:00,2024,5,24,8,13,23,40,,,,,,,,,0.124512,-0.419189,1.145264,25.512695,21.42334,29.11377,,,,,,,,,,,1.0,1.0,1.0,14.0,0.0,0.0,0.0,5.0,0.0,0.07163409333333333,-0.2414387733333333,0.87384764,4.825032546666668,-4.219563853333334,2.3193359333333325,25.11174255752222,-5.585249192000598,-6.599085146769673,-10.2095716992701,-12.7536511222494,-11.024034717576415,19.7083817875776,-1.2731272914123062,19.610968539203327,-1.2577737088183751,0.05287790666666667,-0.17775022666666668,0.27141636,0.5020444933333333,0.32872185289260847,0.5281767171421285,0.6462156161522726,0.6713957274896596
LBP08_S14,LBP08,127,128,14,127,127,1716538403.08,2024-05-24 08:13:23.080000+00:00,2024-05-24 17:13:23.080000+09:00,2024,5,24,8,13,23,80,,,,,,,,,0.068359,-0.213379,0.755615,-27.893066,89.050293,10.070801,,,,,,,,,,,1.0,1.0,1.0,14.0,0.0,0.0,0.0,5.0,0.0,0.07768878666666666,-0.24014972,0.8698600133333332,5.3556315066666675,-4.770507866666668,2.206217439999999,20.353448158402678,-2.646124514522287,0.1396231695192532,-9.395433772933993,-12.859496102830292,-11.018449790795644,19.36613155982838,-1.2482002178271765,19.35326623729045,-1.2513869168859015,-0.009329786666666659,0.026770719999999998,-0.11424501333333315,0.1503455199999998,0.11770998020600199,0.4989863364480957,0.6378765252616052,0.6647743646575179
LBP08_S14,LBP08,128,129,14,128,128,1716538403.12,2024-05-24 08:13:23.120000+00:00,2024-05-24 17:13:23.120000+09:00,2024,5,24,8,13,23,120,,,,,,,,,-0.422852,0.100098,0.13916,75.98877,52.55127,-2.380371,,,,,,,,,,,1.0,1.0,1.0,14.0,0.0,0.0,0.0,5.0,0.0,0.08049477333333334,-0.23885740000000003,0.8617871066666667,4.855957026666668,-4.200846413333334,2.559407546666666,16.45938527524702,-1.9519960692778988,5.941990562451253,-8.737058361924113,-12.937575945601408,-10.780770168297595,18.972139193815956,-1.235736252616392,19.09076937293137,-1.2474984560450408,-0.5033467733333333,0.3389554,-0.7226271066666667,1.56492928,0.9436305806318891,0.5082525504469079,0.6396686817522843,0.6710816414750971
LBP08_S14,LBP08,129,130,14,129,129,1716538403.16,2024-05-24 08:13:23.160000+00:00,2024-05-24 17:13:23.160000+09:00,2024,5,24,8,13,23,160,,,,,,,,,0.099121,-0.028809,0.15918,-18.371582,-75.256348,-22.033691,,,,,,,,,,,1.0,1.0,1.0,14.0,0.0,0.0,0.0,5.0,0.0,0.07892250666666667,-0.24051429333333335,0.8533756399999999,6.791178386666668,-4.112955786666667,2.4641927066666662,14.086779504682795,-3.0951018872969556,10.066596224420344,-8.173587181736801,-13.061380021093285,-10.37810631932078,18.577197480997853,-1.2435280273807736,18.83070148866143,-1.24517205189753,0.02019849333333333,0.21170529333333335,-0.6941956399999999,0.9260994266666666,0.7260404237735657,0.5184660126940713,0.6344322796829569,0.674265695984269
LBP08_S14,LBP08,130,131,14,130,130,1716538403.2,2024-05-24 08:13:23.200000+00:00,2024-05-24 17:13:23.200000+09:00,2024,5,24,8,13,23,200,,,,,,,,,0.334473,-0.175781,0.573242,44.006348,-78.918457,-14.892578,,,,,,,,,,,1.0,1.0,1.0,14.0,0.0,0.0,0.0,5.0,0.0,0.08158201333333333,-0.23574216000000003,0.8535904799999999,6.513671880000001,-6.372070373333334,2.118326813333333,13.338230620278413,-5.076090085261395,12.105950820882244,-7.640057956925665,-13.26442362450374,-9.89386828648549,18.226465629567336,-1.2275520511616609,18.581051123415783,-1.2438586673359913,0.2528909866666667,0.05996116000000004,-0.2803484799999999,0.5932006266666666,0.38228845402927897,0.52525617611281,0.6224112647789741,0.6715778702417043
LBP08_S14,LBP08,131,132,14,131,131,1716538403.24,2024-05-24 08:13:23.240000+00:00,2024-05-24 17:13:23.240000+09:00,2024,5,24,8,13,23,240,,,,,,,,,0.306152,-0.052002,0.712891,4.821777,-43.395996,0.671387,,,,,,,,,,,1.0,1.0,1.0,14.0,0.0,0.0,0.0,5.0,0.0,0.08268878666666667,-0.23704749333333333,0.8654231600000001,5.3523763066666685,-5.436197973333335,3.2446288933333327,13.769248787568753,-6.80209764462951,11.940023069061652,-7.089288005422914,-13.53650753028892,-9.416267363723025,17.94884764007197,-1.2252077961637038,18.353521431617537,-1.2419782003134987,0.2234632133333333,0.18504549333333334,-0.15253216000000003,0.5610408666666666,0.32778606155616374,0.5316568325330914,0.5962874028317007,0.6631010563625563
LBP08_S14,LBP08,132,133,14,132,132,1716538403.28,2024-05-24 08:13:23.280000+00:00,2024-05-24 17:13:23.280000+09:00,2024,5,24,8,13,23,280,,,,,,,,,0.018555,-0.050049,1.011475,-58.837891,-2.197266,47.424316,,,,,,,,,,,1.0,1.0,1.0,14.0,0.0,0.0,0.0,5.0,0.0,0.07974281333333334,-0.24014319999999997,0.8704850133333332,3.9184570400000007,-4.540201880000001,3.6051432133333323,14.494115253049788,-7.508060342238215,9.724251565456106,-6.509523395300922,-13.836829943978449,-9.027297301104781,17.757360566680013,-1.2403429087914553,18.161455147488798,-1.239592547497803,-0.06118781333333334,0.19009419999999996,0.14098998666666673,0.39227200000000007,0.24445435098279944,0.531319560551677,0.5736297602301181,0.6515001149722853
LBP08_S14,LBP08,133,134,14,133,133,1716538403.32,2024-05-24 08:13:23.320000+00:00,2024-05-24 17:13:23.320000+09:00,2024,5,24,8,13,23,320,,,,,,,,,-0.010498,-0.47876,1.290527,27.46582,-1.953125,15.441895,,,,,,,,,,,1.0,1.0,1.0,14.0,0.0,0.0,0.0,5.0,0.0,0.07839841333333333,-0.2444010133333333,0.8759374933333334,3.7548828266666683,-4.106445373333334,3.8899739333333323,14.397319996545558,-6.924684828548706,5.915089411386219,-5.9336305954391,-14.113817337120397,-8.790693724649332,17.654577537548736,-1.2505127476883104,18.015312275177507,-1.2414075454750073,-0.08889641333333334,-0.2343589866666667,0.4145895066666666,0.7378449066666667,0.484469984594575,0.5245147951602351,0.556580361856809,0.6517882225149438
LBP08_S14,LBP08,134,135,14,134,134,1716538403.36,2024-05-24 08:13:23.360000+00:00,2024-05-24 17:13:23.360000+09:00,2024,5,24,8,13,23,360,,,,,,,,,0.083984,-0.524658,1.277588,47.607422,22.277832,28.625488,,,,,,,,,,,1.0,1.0,1.0,14.0,0.0,0.0,0.0,5.0,0.0,0.07960934666666666,-0.24137692000000002,0.8791373733333334,5.007324226666668,-3.819173240000001,3.400065079999999,12.442637972277412,-5.181903212975502,1.2742307515427305,-5.435925076548004,-14.321093465639416,-8.739724494587623,17.635923104014665,-1.2424975544924601,17.91945990007934,-1.243291386990414,0.004374653333333339,-0.28328107999999996,0.39845062666666653,0.6861063599999998,0.4889071586393602,0.5021787517991245,0.5491555432967496,0.6553698922642277
LBP08_S14,LBP08,135,136,14,135,135,1716538403.4,2024-05-24 08:13:23.400000+00:00,2024-05-24 17:13:23.400000+09:00,2024,5,24,8,13,23,400,,,,,,,,,-0.004639,0.003418,0.713623,53.649902,98.693848,13.85498,,,,,,,,,,,1.0,1.0,1.0,14.0,0.0,0.0,0.0,5.0,0.0,0.08176429333333332,-0.24030269333333332,0.8811555999999999,4.232584640000002,-2.574869853333334,3.928222639999999,8.018955435858091,-2.577000506118979,-3.2194637078628796,-5.11516685911368,-14.424173485884175,-8.868503042902137,17.688189816072853,-1.2330771556007498,17.87186219926133,-1.243000779438913,-0.08640329333333333,0.24372069333333332,-0.16753259999999992,0.49765658666666657,0.3081111447521604,0.4821015539039427,0.5480163489987309,0.6526779370279561
LBP08_S14,LBP08,136,137,14,136,136,1716538403.44,2024-05-24 08:13:23.440000+00:00,2024-05-24 17:13:23.440000+09:00,2024,5,24,8,13,23,440,,,,,,,,,-0.158691,0.48291,0.022949,9.58252,-6.225586,-40.222168,,,,,,,,,,,1.0,1.0,1.0,14.0,0.0,0.0,0.0,5.0,0.0,0.07930661333333333,-0.24621089333333335,0.8818392,1.634114586666668,-1.577148506666667,4.11702472,1.2074518414214697,0.6177390047753106,-6.576200310337856,-5.066868785456821,-14.399463925693162,-9.131551055315652,17.787718946290212,-1.249270763255345,17.865476547366466,-1.24311250521627,-0.23799761333333333,0.7291208933333333,-0.8588902,1.8260087066666668,1.1515001158070288,0.49470862906308694,0.550811082816238,0.6587720027855904
LBP08_S14,LBP08,137,138,14,137,137,1716538403.48,2024-05-24 08:13:23.480000+00:00,2024-05-24 17:13:23.480000+09:00,2024,5,24,8,13,23,480,,,,,,,,,0.212646,-0.912598,0.57666,-22.094727,-79.956055,-24.475098,,,,,,,,,,,1.0,1.0,1.0,14.0,0.0,0.0,0.0,5.0,0.0,0.07566729333333333,-0.24943029333333339,0.8773925866666668,1.3850911466666678,-2.6009115200000004,3.3976236799999993,-7.143944461002607,4.193314598534646,-8.071112815171047,-5.3526265638969255,-14.231731341751777,-9.454395567922495,17.90470283671548,-1.2663501975992228,17.889106450436252,-1.245326206624744,0.13697870666666667,-0.6631677066666666,-0.3007325866666668,1.100879,0.7409417399018785,0.49581478600503764,0.5568586241662138,0.6606824647856795
LBP08_S14,LBP08,138,139,14,138,138,1716538403.52,2024-05-24 08:13:23.520000+00:00,2024-05-24 17:13:23.520000+09:00,2024,5,24,8,13,23,520,,,,,,,,,0.269287,0.455811,0.832764,-7.263184,-13.000488,-73.669434,,,,,,,,,,,1.0,1.0,1.0,14.0,0.0,0.0,0.0,5.0,0.0,0.07911130666666667,-0.25035477333333334,0.8806022266666665,0.9733072933333347,-4.3334961466666675,2.6334635333333325,-15.58155778581768,7.901501449085519,-7.480717286963941,-5.975888875329632,-13.915671283788356,-9.753624259401052,18.013615442834265,-1.254574667770458,17.926651254145902,-1.2474801688512014,0.19017569333333334,0.7061657733333333,-0.047838226666666595,0.9441796933333333,0.7328883882917576,0.49529914927996915,0.5614604027761836,0.6604595636682297
LBP08_S14,LBP08,139,140,14,139,139,1716538403.56,2024-05-24 08:13:23.560000+00:00,2024-05-24 17:13:23.560000+09:00,2024,5,24,8,13,23,560,,,,,,,,,0.109863,-0.560547,1.400391,-70.678711,7.568359,16.235352,,,,,,,,,,,1.0,1.0,1.0,14.0,0.0,0.0,0.0,5.0,0.0,0.08373044,-0.2528645466666667,0.8900000133333333,2.0190429733333346,-4.8844401600000005,2.3730468666666655,-22.390674153988336,11.335538851053048,-5.162763044970857,-6.871515841489166,-13.462249729746235,-9.960134781199887,18.10122047281776,-1.2406219518657637,17.955848801425336,-1.2488302799238815,0.02613256,-0.30768245333333333,0.5103909866666666,0.8442059999999999,0.596531945541851,0.5063543725789864,0.5591923738469112,0.6571700161663876
LBP08_S14,LBP08,140,141,14,140,140,1716538403.6,2024-05-24 08:13:23.600000+00:00,2024-05-24 17:13:23.600000+09:00,2024,5,24,8,13,23,600,,,,,,,,,-0.010986,-0.534668,1.651367,-2.380371,-3.479004,5.79834,,,,,,,,,,,1.0,1.0,1.0,14.0,0.0,0.0,0.0,5.0,0.0,0.08823889333333333,-0.25640296,0.89982748,1.9132486933333344,-4.020182346666668,2.312011706666666,-26.011949730222913,13.930483803234605,-1.9210641658259995,-7.911993830698083,-12.90503037761685,-10.036977347832927,18.162609110618703,-1.228669308935231,17.948721945020623,-1.2515739828187358,-0.09922489333333333,-0.27826504,0.75153952,1.1290294533333334,0.8075200691407264,0.5246354541135922,0.5592887834409841,0.6617074826987923
LBP08_S14,LBP08,141,142,14,141,141,1716538403.64,2024-05-24 08:13:23.640000+00:00,2024-05-24 17:13:23.640000+09:00,2024,5,24,8,13,23,640,,,,,,,,,0.177246,-0.478027,1.698975,-42.663574,7.629395,29.663086,,,,,,,,,,,1.0,1.0,1.0,14.0,0.0,0.0,0.0,5.0,0.0,0.08459632,-0.26135413333333335,0.9140201866666666,2.381998693333334,-2.412923240000001,3.2869466,-25.412220852068995,15.13213377286147,1.3021828093236283,-8.928482664780843,-12.299745026702391,-9.984890035459982,18.185146670769807,-1.2473448102484426,17.874992887220397,-1.2577620331269421,0.09264967999999998,-0.21667286666666663,0.7849548133333333,1.09427736,0.8195640019722813,0.5508468670867206,0.5587859467549671,0.6651874791745124
LBP08_S14,LBP08,142,143,14,142,142,1716538403.68,2024-05-24 08:13:23.680000+00:00,2024-05-24 17:13:23.680000+09:00,2024,5,24,8,13,23,680,,,,,,,,,-0.003906,-0.611572,1.530762,-22.827148,88.623047,46.569824,,,,,,,,,,,1.0,1.0,1.0,14.0,0.0,0.0,0.0,5.0,0.0,0.08188147999999999,-0.26591468,0.9257128933333335,3.582356760000001,-1.796061266666667,3.472493479999999,-20.326475426178558,14.666057150981926,3.7763416909836858,-9.741541681827986,-11.713102740663114,-9.833836367820634,18.132808603776567,-1.2618825310560315,17.707555684081285,-1.261268757436443,-0.08578748,-0.34565732,0.6050491066666664,1.0364939066666663,0.7020846787051146,0.57031036649191,0.5669553082795001,0.6598670303740338
LBP08_S14,LBP08,143,144,14,143,143,1716538403.72,2024-05-24 08:13:23.720000+00:00,2024-05-24 17:13:23.720000+09:00,2024,5,24,8,13,23,720,,,,,,,,,-0.098633,-0.315186,0.926025,-2.624512,121.887207,47.546387,,,,,,,,,,,1.0,1.0,1.0,14.0,0.0,0.0,0.0,5.0,0.0,0.08141273333333333,-0.2662109066666667,0.9346679733333334,5.525716133333335,-0.9741211600000008,3.550618479999999,-11.332910468554298,12.758412638686814,5.219562519225953,-10.194858100570158,-11.202766235115641,-9.625053867051596,17.946553010343045,-1.26401385841511,17.427489848512625,-1.2618554743011774,-0.18004573333333335,-0.04897509333333333,-0.008642973333333415,0.2376638000000001,0.18678791943428036,0.5668993693692131,0.5561859682345908,0.6528767955768063
LBP08_S14,LBP08,144,145,14,144,144,1716538403.76,2024-05-24 08:13:23.760000+00:00,2024-05-24 17:13:23.760000+09:00,2024,5,24,8,13,23,760,,,,,,,,,-0.246338,-0.324463,0.22998,-23.742676,-32.714844,-31.494141,,,,,,,,,,,1.0,1.0,1.0,14.0,0.0,0.0,0.0,5.0,0.0,0.07966794666666667,-0.26598304,0.9350618533333332,5.197753893333334,0.6274413466666658,3.451334626666666,0.2407613864242923,10.156194684524666,5.8213526741535695,-10.185227645113187,-10.796518447734655,-9.392199760085454,17.564654539967528,-1.2699345834410039,17.02627883239007,-1.2640307261074013,-0.32600594666666666,-0.05847996,-0.7050818533333333,1.08956776,0.7789994883718468,0.5650623213184098,0.5649186672540057,0.6531702838711615
LBP08_S14,LBP08,145,146,14,145,145,1716538403.8,2024-05-24 08:13:23.800000+00:00,2024-05-24 17:13:23.800000+09:00,2024,5,24,8,13,23,800,,,,,,,,,0.206787,-0.287109,0.669922,20.874023,-102.355957,-59.082031,,,,,,,,,,,1.0,1.0,1.0,14.0,0.0,0.0,0.0,5.0,0.0,0.07249671999999999,-0.26563798666666666,0.9261165333333334,4.603678373333334,0.2547199999999993,2.7718098933333324,12.557711569600457,7.886844612674492,6.055999666735981,-9.682919182329169,-10.481044663227676,-9.149959773416015,16.95089923807061,-1.2949576586828115,16.50471507727875,-1.2691885304450632,0.13429028,-0.021471013333333344,-0.2561945333333334,0.41195582666666675,0.2900526204431242,0.5401998715157191,0.5636175728670644,0.644658862344788
LBP08_S14,LBP08,146,147,14,146,146,1716538403.84,2024-05-24 08:13:23.840000+00:00,2024-05-24 17:13:23.840000+09:00,2024,5,24,8,13,23,840,,,,,,,,,0.293945,-0.04834,1.080566,18.676758,-5.737305,-13.122559,,,,,,,,,,,1.0,1.0,1.0,14.0,0.0,0.0,0.0,5.0,0.0,0.07596677333333332,-0.26747066666666663,0.9296061199999999,3.4374999866666673,-1.9384766133333338,1.7838541599999993,23.618552700903777,6.852696785122111,6.399815753150598,-8.738177074293018,-10.206936791822791,-8.893967143289991,16.113346914899083,-1.2843380063503553,15.870123225893957,-1.2766302467027646,0.2179782266666667,0.21913066666666664,0.15095988000000005,0.5880687733333334,0.343979129808971,0.5298119173102545,0.5603065027809451,0.6480896960189243
LBP08_S14,LBP08,147,148,14,147,147,1716538403.88,2024-05-24 08:13:23.880000+00:00,2024-05-24 17:13:23.880000+09:00,2024,5,24,8,13,23,880,,,,,,,,,0.05835,-0.742676,1.480957,23.55957,22.705078,29.602051,,,,,,,,,,,1.0,1.0,1.0,14.0,0.0,0.0,0.0,5.0,0.0,0.08154945333333333,-0.2749511466666667,0.9437630133333332,2.7937825466666677,-2.543945360000001,1.925455719999999,31.654039769043944,7.466303456784441,7.1065255093668425,-7.47201548353126,-9.908284653551414,-8.609706122915318,15.104044481028875,-1.2722173662465683,15.134414345166357,-1.2832032579269987,-0.023199453333333328,-0.4677248533333333,0.5371939866666668,1.0281182933333335,0.7126584963160691,0.5352202802858756,0.5625580817071895,0.6509833044876696
LBP08_S14,LBP08,148,149,14,148,148,1716538403.92,2024-05-24 08:13:23.920000+00:00,2024-05-24 17:13:23.920000+09:00,2024,5,24,8,13,23,920,,,,,,,,,-0.118896,-0.938965,1.703369,93.62793,-12.451172,13.122559,,,,,,,,,,,1.0,1.0,1.0,14.0,0.0,0.0,0.0,5.0,0.0,0.08165362666666667,-0.27937497333333333,0.96070312,2.0450846266666676,-1.7309570800000005,2.9239908799999994,35.48397896856753,9.507702377328815,8.141886134444304,-6.052656324788559,-9.527976558458262,-8.284030677537546,14.001505281608697,-1.2763271858326974,14.314315218072204,-1.2903082260368506,-0.20054962666666667,-0.6595900266666668,0.7426658799999999,1.6028055333333333,1.0133270771821148,0.5587088003708698,0.5766746867164366,0.6512542095825343
LBP08_S14,LBP08,149,150,14,149,149,1716538403.96,2024-05-24 08:13:23.960000+00:00,2024-05-24 17:13:23.960000+09:00,2024,5,24,8,13,23,960,,,,,,,,,0.092773,-0.401123,1.715332,68.603516,8.972168,24.719238,,,,,,,,,,,1.0,1.0,1.0,14.0,0.0,0.0,0.0,5.0,0.0,0.07790362666666666,-0.2825618266666666,0.9799283866666667,1.6389973866666676,-0.8097331200000006,3.7377929599999993,34.751854811394885,12.253701748124401,9.274720714692444,-4.662582132332764,-9.037828488533286,-7.913041848949848,12.885582921704561,-1.2921999952423804,13.432794872582289,-1.2963197547025687,0.014869373333333338,-0.11856117333333338,0.7354036133333334,0.86883416,0.7450478673140576,0.5795958482823201,0.5753669603797015,0.643551548065049
LBP08_S14,LBP08,150,151,14,150,150,1716538404.0,2024-05-24 08:13:24+00:00,2024-05-24 17:13:24+09:00,2024,5,24,8,13,24,0,8.0,13.0,22.0,40.564388,141.494827,28.274,3.0,12.0,0.121338,-0.44751,1.547607,-17.700195,74.707031,20.629883,-578.0,13.0,600.0,316.0,0.0,1019.200012,23.02,0.061441,-49.391544,3.628125,0.0,1.0,1.0,14.0,0.0,0.0,0.0,6.0,0.0,0.07502928,-0.2835384,0.9991471333333332,1.4420572800000009,0.4931640133333328,4.4506835733333325,29.96193607394959,14.796363940311881,10.243264965928477,-3.46410468937478,-8.445973930920811,-7.503311250312709,11.816690596770805,-1.3030864715122445,12.519264692121288,-1.301824581719439,0.04630872,-0.1639716,0.5484598666666668,0.7587401866666668,0.5743164706837305,0.5819328000389294,0.5677136336130656,0.633871234281459
LBP08_S14,LBP08,151,152,14,151,151,1716538404.04,2024-05-24 08:13:24.040000+00:00,2024-05-24 17:13:24.040000+09:00,2024,5,24,8,13,24,40,,,,,,,,,-0.104492,-0.072266,1.071289,52.856445,79.040527,26.916504,,,,,,,,,,,0.0,1.0,1.0,14.0,0.0,0.0,0.0,6.0,0.0,0.07418618666666665,-0.29208982666666666,1.0152897066666666,0.930989560000001,2.8776041199999995,5.515136693333333,22.303406960676213,16.397257065451047,10.900841849911597,-2.571968410947732,-7.790083648302769,-7.067277576316245,10.828057863493786,-1.3130749224907825,11.606764628942223,-1.304839076447981,-0.17867818666666666,0.21982382666666667,0.05599929333333331,0.45450130666666666,0.2887634499286528,0.5803344639203712,0.55425559053125,0.6242552320749722
LBP08_S14,LBP08,152,153,14,152,152,1716538404.08,2024-05-24 08:13:24.080000+00:00,2024-05-24 17:13:24.080000+09:00,2024,5,24,8,13,24,80,,,,,,,,,0.121338,-0.809814,1.17041,-99.609375,-21.179199,2.990723,,,,,,,,,,,0.0,1.0,1.0,14.0,0.0,0.0,0.0,6.0,0.0,0.06737629333333334,-0.28825518666666666,1.0146321466666668,1.1417643066666676,5.19205724,6.028645813333333,13.325653464381077,16.723965909688175,11.278477179537518,-2.0389422723724886,-7.121125011915241,-6.616138489134745,9.93181733283504,-1.332932212154554,10.726409919843618,-1.3093017291216407,0.053961706666666664,-0.5215588133333333,0.15577785333333316,0.7312983733333331,0.5469937852857156,0.5975058161235597,0.5482460762858277,0.6244196222155901
LBP08_S14,LBP08,153,154,14,153,153,1716538404.12,2024-05-24 08:13:24.120000+00:00,2024-05-24 17:13:24.120000+09:00,2024,5,24,8,13,24,120,,,,,,,,,0.111572,0.023438,1.154785,105.041504,-4.577637,-11.59668,,,,,,,,,,,0.0,1.0,1.0,14.0,0.0,0.0,0.0,6.0,0.0,0.06964517333333334,-0.28684894666666666,1.0101887866666668,2.1834309733333344,4.556477813333332,5.404459626666666,4.580797630834926,15.882245772485009,11.553239321283495,-1.8557103671390915,-6.485835181015841,-6.154008916283405,9.131349555443924,-1.3241291450722892,9.901279343542189,-1.3139930528518093,0.04192682666666667,0.3102869466666667,0.14459621333333317,0.49680998666666654,0.34488246255267657,0.5735558914003912,0.5409042209236495,0.61763108496832
LBP08_S14,LBP08,154,155,14,154,154,1716538404.16,2024-05-24 08:13:24.160000+00:00,2024-05-24 17:13:24.160000+09:00,2024,5,24,8,13,24,160,,,,,,,,,0.13501,-0.842285,1.312988,-36.193848,-9.338379,8.239746,,,,,,,,,,,0.0,1.0,1.0,14.0,0.0,0.0,0.0,6.0,0.0,0.07093097333333334,-0.2936230266666666,1.0137434666666667,1.5983072800000009,3.7898762533333334,5.629069013333333,-2.6610683036748526,14.266067277368945,11.955806704353748,-1.9621530992860856,-5.9151924899210835,-5.675776648109255,8.429352735357508,-1.3249828536097055,9.142423341308676,-1.3190452478512236,0.06407902666666665,-0.5486619733333333,0.29924453333333334,0.9119855333333333,0.6282383093782639,0.5696438068245792,0.5440549097593252,0.6128361220634976
LBP08_S14,LBP08,155,156,14,155,155,1716538404.2,2024-05-24 08:13:24.200000+00:00,2024-05-24 17:13:24.200000+09:00,2024,5,24,8,13,24,200,,,,,,,,,0.112549,-0.15332,1.311523,-21.30127,1.647949,17.944336,,,,,,,,,,,0.0,1.0,1.0,14.0,0.0,0.0,0.0,6.0,0.0,0.06995116,-0.28929360000000004,1.0193163733333335,2.7270507600000014,3.0867512533333326,5.490722666666667,-7.573626326742094,12.334544546833081,12.670801869699265,-2.2650981523557694,-5.42181070804776,-5.168944573321284,7.825898606279948,-1.325102605968232,8.448519114506942,-1.3245575939130005,0.04259784,0.13597360000000003,0.2922066266666665,0.47077806666666655,0.32509707555980605,0.5673561516858002,0.5463061638993051,0.6040595604145829
LBP08_S14,LBP08,156,157,14,156,156,1716538404.24,2024-05-24 08:13:24.240000+00:00,2024-05-24 17:13:24.240000+09:00,2024,5,24,8,13,24,240,,,,,,,,,0.126709,-0.341797,1.347412,-20.751953,11.413574,19.592285,,,,,,,,,,,0.0,1.0,1.0,14.0,0.0,0.0,0.0,6.0,0.0,0.06983397333333333,-0.2936620933333333,1.03325192,2.1256510133333344,1.5771483866666662,4.868977866666666,-9.812482094179895,10.435937334060997,13.771789798587001,-2.6575974361229653,-5.0043732146853195,-4.6180729813778045,7.309799823913027,-1.3289645330869533,7.8088717868093385,-1.3300873910589075,0.05687502666666666,-0.0481349066666667,0.31416007999999995,0.4191700133333333,0.32287504357529573,0.5671597109665655,0.5494082717498284,0.586578172209989
LBP08_S14,LBP08,157,158,14,157,157,1716538404.28,2024-05-24 08:13:24.280000+00:00,2024-05-24 17:13:24.280000+09:00,2024,5,24,8,13,24,280,,,,,,,,,0.107666,-0.512451,1.299072,1.098633,22.216797,16.174316,,,,,,,,,,,0.0,1.0,1.0,14.0,0.0,0.0,0.0,6.0,0.0,0.07371093333333333,-0.2971223866666666,1.05439124,2.460937480000001,0.8951822399999996,4.416503919999999,-9.45036101238655,8.743681194142342,15.203552791277724,-3.0356118766184275,-4.6546259669196255,-4.009930869726696,6.852738718014602,-1.3191306035482546,7.208394244110536,-1.3348181990838153,0.03395506666666667,-0.21532861333333336,0.24468076000000005,0.49396444000000006,0.3277011330260724,0.5704895822482965,0.5509045713999867,0.5725830342361775
LBP08_S14,LBP08,158,159,14,158,158,1716538404.32,2024-05-24 08:13:24.320000+00:00,2024-05-24 17:13:24.320000+09:00,2024,5,24,8,13,24,320,,,,,,,,,0.135742,-0.438232,1.259033,15.136719,12.634277,10.314941,,,,,,,,,,,0.0,1.0,1.0,14.0,0.0,0.0,0.0,6.0,0.0,0.07307941333333333,-0.30457681333333336,1.06906572,0.7861327866666676,3.3601887466666667,5.644531266666666,-6.84237499647024,7.298454364856473,16.801768961314153,-3.309306876477237,-4.362687792325366,-3.3378601112741295,6.412945259273561,-1.3268491358268422,6.633681053326718,-1.3367095241058777,0.06266258666666667,-0.13365518666666665,0.18996728000000007,0.3862850533333334,0.2405782121499315,0.5607339113505106,0.542624353255373,0.5579648783547095
LBP08_S14,LBP08,159,160,14,159,159,1716538404.36,2024-05-24 08:13:24.360000+00:00,2024-05-24 17:13:24.360000+09:00,2024,5,24,8,13,24,360,,,,,,,,,0.098877,-0.210449,1.19751,-2.319336,5.859375,20.690918,,,,,,,,,,,0.0,1.0,1.0,14.0,0.0,0.0,0.0,6.0,0.0,0.06667317333333334,-0.30451495999999995,1.0656119466666667,0.011393213333334285,5.53873692,6.613769546666666,-2.474027654901221,6.104791799727366,18.3358046832788,-3.408267982673286,-4.118496120336272,-2.6044279239429775,5.946540653687207,-1.3473234558601481,6.080850107224086,-1.33965868434132,0.03220382666666667,0.09406595999999995,0.13189805333333338,0.25816784,0.1651744161661277,0.5477846016515814,0.524981676725353,0.5486985627483604
LBP08_S14,LBP08,160,161,14,160,160,1716538404.4,2024-05-24 08:13:24.400000+00:00,2024-05-24 17:13:24.400000+09:00,2024,5,24,8,13,24,400,,,,,,,,,0.10791,-0.50293,1.144287,31.188965,12.512207,6.835938,,,,,,,,,,,0.0,1.0,1.0,14.0,0.0,0.0,0.0,6.0,0.0,0.06360677333333332,-0.3063867066666667,1.0632226266666667,0.8121744533333343,5.955403586666666,6.333007826666665,3.1450384961248363,5.22162862950906,19.565696427075903,-3.282466442828292,-3.9096309751559097,-1.8218000668599412,5.420217319794776,-1.3583844429713137,5.565167068661088,-1.3426935291191777,0.04430322666666668,-0.1965432933333333,0.08106437333333338,0.3219108933333334,0.2171715328290446,0.5441470171746567,0.5131242855392998,0.5467265717240395
LBP08_S14,LBP08,161,162,14,161,161,1716538404.44,2024-05-24 08:13:24.440000+00:00,2024-05-24 17:13:24.440000+09:00,2024,5,24,8,13,24,440,,,,,,,,,0.09082,-0.196289,1.147705,16.174316,13.671875,29.785156,,,,,,,,,,,0.0,1.0,1.0,14.0,0.0,0.0,0.0,6.0,0.0,0.062145186666666664,-0.30196288,1.06350908,1.5787760133333344,5.06835932,5.749511733333332,9.498188792355158,4.802180710740742,20.30626731664941,-2.902538891134086,-3.71754374672628,-1.0095493741939647,4.823282436505765,-1.3603830027398611,5.1218827225256325,-1.3452475248866809,0.028674813333333334,0.10567388,0.08419591999999998,0.2185446133333333,0.13812373720183765,0.5036119620304491,0.49916029554676805,0.5350780425543085
LBP08_S14,LBP08,162,163,14,162,162,1716538404.48,2024-05-24 08:13:24.480000+00:00,2024-05-24 17:13:24.480000+09:00,2024,5,24,8,13,24,480,,,,,,,,,0.067383,0.012939,1.270996,11.108398,10.986328,28.381348,,,,,,,,,,,0.0,1.0,1.0,14.0,0.0,0.0,0.0,6.0,0.0,0.06517253333333334,-0.3040169066666667,1.0650292533333334,0.5834960666666675,4.4750976,5.428873706666666,15.994107609356922,5.063379360492249,20.484919287820848,-2.262774586759809,-3.51500857230659,-0.19015260268113077,4.1846854249968715,-1.351845462375176,4.7848565463925095,-1.3463030308827766,0.0022104666666666606,0.3169559066666667,0.2059667466666666,0.5251331199999999,0.37800560004611566,0.48909451643621865,0.4924546512206281,0.5342705882562154
LBP08_S14,LBP08,163,164,14,163,163,1716538404.52,2024-05-24 08:13:24.520000+00:00,2024-05-24 17:13:24.520000+09:00,2024,5,24,8,13,24,520,,,,,,,,,0.103516,-0.676758,1.30249,-97.351074,-1.831055,38.085938,,,,,,,,,,,0.0,1.0,1.0,14.0,0.0,0.0,0.0,6.0,0.0,0.06387370666666667,-0.30017250666666667,1.06696284,0.40608721333333425,4.497070266666667,4.983723959999999,21.87586481177629,6.190612888586423,20.170467099861078,-1.3877399942887574,-3.267384056763133,0.6166660813133124,3.6030400944175995,-1.3536207474267128,4.567365184447704,-1.3501865121706713,0.03964229333333333,-0.3765854933333333,0.23552715999999996,0.6517549466666666,0.44593854768062113,0.47761652281177314,0.4864578360458712,0.5335124427880467
LBP08_S14,LBP08,164,165,14,164,164,1716538404.56,2024-05-24 08:13:24.560000+00:00,2024-05-24 17:13:24.560000+09:00,2024,5,24,8,13,24,560,,,,,,,,,0.117432,-0.478516,1.182617,37.902832,-2.01416,16.052246,,,,,,,,,,,0.0,1.0,1.0,14.0,0.0,0.0,0.0,6.0,0.0,0.06461589333333334,-0.30648436,1.0731477333333332,-0.664062519999999,3.9729817200000004,4.843749999999999,26.205263340546278,8.208891505177744,19.549710008444546,-0.33952946066690615,-2.9390283965560235,1.3986544816510942,3.272522349727519,-1.355331301388283,4.4638277104954796,-1.3549589106736697,0.052816106666666654,-0.17203163999999999,0.10946926666666679,0.3343170133333334,0.2106370020415504,0.46218072507176117,0.48426754882537376,0.5268551575885279
LBP08_S14,LBP08,165,166,14,165,165,1716538404.6,2024-05-24 08:13:24.600000+00:00,2024-05-24 17:13:24.600000+09:00,2024,5,24,8,13,24,600,,,,,,,,,0.112793,-0.231689,1.160889,86.669922,-10.864258,16.784668,,,,,,,,,,,0.0,1.0,1.0,14.0,0.0,0.0,0.0,6.0,0.0,0.06686525333333333,-0.3101269333333333,1.08738276,1.1100260133333342,3.4041340666666664,5.259602866666666,27.997739792641813,10.871988170289717,18.845047679050005,0.7803801310387664,-2.504148869744435,2.1524563888130945,3.393055144925399,-1.3506425636432629,4.45816160606974,-1.3589178529902257,0.04592774666666667,0.07843793333333329,0.07350624000000017,0.19787192000000015,0.11689753897503392,0.4345558238651334,0.4795956389893628,0.517711130249034
LBP08_S14,LBP08,166,167,14,166,166,1716538404.64,2024-05-24 08:13:24.640000+00:00,2024-05-24 17:13:24.640000+09:00,2024,5,24,8,13,24,640,,,,,,,,,0.072021,-0.338867,1.169189,93.994141,11.413574,-2.807617,,,,,,,,,,,0.0,1.0,1.0,14.0,0.0,0.0,0.0,6.0,0.0,0.07233401333333334,-0.3190201733333333,1.1052506000000002,-0.7828776399999993,4.421386666666667,6.070149746666666,26.489182532174993,13.625022488644351,18.19680519156245,1.839947432325766,-1.959147970198661,2.8803285964755925,3.939538062581801,-1.3395195930479096,4.530720862632423,-1.362025898387273,-0.00031301333333333403,-0.01984682666666665,0.06393839999999984,0.08409823999999982,0.06694858848880636,0.4044512073257944,0.47764903720625745,0.5073410336119095
LBP08_S14,LBP08,167,168,14,167,167,1716538404.68,2024-05-24 08:13:24.680000+00:00,2024-05-24 17:13:24.680000+09:00,2024,5,24,8,13,24,680,,,,,,,,,0.092285,-0.125,1.087158,-0.305176,25.939941,9.94873,,,,,,,,,,,0.0,1.0,1.0,14.0,0.0,0.0,0.0,6.0,0.0,0.06695966666666667,-0.32204099999999997,1.1100162266666667,0.22135413333333417,6.431477813333333,6.210937506666666,21.41419456908055,15.674953343567664,17.560997714446728,2.696515215088988,-1.3321498364559545,3.5827685050534614,4.677825098566539,-1.3579654164272041,4.6638080799282795,-1.3642808560352238,0.02532533333333334,0.19704099999999997,-0.022858226666666592,0.2452245599999999,0.19997256490776213,0.3843667227739003,0.4773385446329052,0.5060924464443002
LBP08_S14,LBP08,168,169,14,168,168,1716538404.72,2024-05-24 08:13:24.720000+00:00,2024-05-24 17:13:24.720000+09:00,2024,5,24,8,13,24,720,,,,,,,,,0.119629,-0.265869,1.116699,-20.935059,23.376465,8.544922,,,,,,,,,,,0.0,1.0,1.0,14.0,0.0,0.0,0.0,6.0,0.0,0.06179364,-0.32312824,1.1163671466666667,-0.1285807733333325,7.290039013333334,6.271158853333333,13.157474433145362,16.163583317273012,16.67836704628266,3.222814192414803,-0.6856065037650341,4.249903186904768,5.377570519751321,-1.374573120856824,4.845841255675659,-1.367323907640581,0.05783536,0.05725923999999999,0.0003318533333334095,0.1154264533333334,0.08138586829629603,0.38015064072838095,0.473525005048797,0.49750752573252083
LBP08_S14,LBP08,169,170,14,169,169,1716538404.76,2024-05-24 08:13:24.760000+00:00,2024-05-24 17:13:24.760000+09:00,2024,5,24,8,13,24,760,,,,,,,,,0.031982,-0.236328,1.171143,-0.366211,15.258789,6.164551,,,,,,,,,,,0.0,1.0,1.0,14.0,0.0,0.0,0.0,6.0,0.0,0.05814781333333334,-0.32502602666666663,1.1238801600000001,2.1557616800000003,7.578124946666667,5.610351559999999,2.7209705675007223,14.399143331381229,15.147305160657817,3.331653015114832,-0.10964077050978493,4.85579539333108,5.889879609429812,-1.38691287902571,5.071364148659148,-1.3705924477028701,-0.026165813333333343,0.08869802666666662,0.04726283999999992,0.16212667999999988,0.1038545413875635,0.35314484284900965,0.45910358208370966,0.49432739245234036
LBP08_S14,LBP08,170,171,14,170,170,1716538404.8,2024-05-24 08:13:24.800000+00:00,2024-05-24 17:13:24.800000+09:00,2024,5,24,8,13,24,800,,,,,,,,,0.129395,-0.269775,1.263916,-30.456543,-3.723145,21.66748,,,,,,,,,,,0.0,1.0,1.0,14.0,0.0,0.0,0.0,6.0,0.0,0.05794273333333333,-0.32865884,1.13162104,1.967773400000001,7.327473906666667,5.111490893333333,-8.453034438730588,10.084646142504141,12.590798435125269,2.9935316375656082,0.29374507519038073,5.359427330736091,6.145809885421596,-1.3894648969417882,5.332060352915863,-1.3751950932038564,0.07145226666666668,0.05888384000000002,0.13229496000000007,0.2626310666666668,0.16147659107855747,0.34800180167442696,0.444100836595073,0.49174564913618535
LBP08_S14,LBP08,171,172,14,171,171,1716538404.84,2024-05-24 08:13:24.840000+00:00,2024-05-24 17:13:24.840000+09:00,2024,5,24,8,13,24,840,,,,,,,,,0.089111,-0.338623,1.603516,36.865234,3.417969,26.306152,,,,,,,,,,,0.0,1.0,1.0,14.0,0.0,0.0,0.0,6.0,0.0,0.06001956,-0.3281412533333334,1.1372037333333334,1.451009080000001,7.2216796400000005,4.964192706666666,-18.72949218010189,3.485234465644315,8.862313959504993,2.2443519503615326,0.43315445381615336,5.713919889116291,6.154154609464333,-1.3829325792193667,5.605388786885571,-1.3802962211591818,0.029091439999999996,-0.010481746666666625,0.4663122666666666,0.5058854533333332,0.46733639804562854,0.35293609240389323,0.4413740048570739,0.49118303265526114
LBP08_S14,LBP08,172,173,14,172,172,1716538404.88,2024-05-24 08:13:24.880000+00:00,2024-05-24 17:13:24.880000+09:00,2024,5,24,8,13,24,880,,,,,,,,,0.0896,-0.549072,1.574463,8.605957,23.4375,49.072266,,,,,,,,,,,0.0,1.0,1.0,14.0,0.0,0.0,0.0,6.0,0.0,0.05903649333333333,-0.32099281333333335,1.1424218266666666,1.2377929333333342,7.654622346666667,4.81119792,-26.554489685821423,-4.5133792060215425,4.204041525919446,1.1821723629286756,0.2526192855752917,5.882081550153068,6.005017182470676,-1.382275978428748,5.861343077739594,-1.3865870493082673,0.03056350666666667,-0.22807918666666666,0.43204117333333336,0.6906838666666667,0.48950364532405166,0.34400989836421253,0.43961508932504406,0.4897086872595305
LBP08_S14,LBP08,173,174,14,173,173,1716538404.92,2024-05-24 08:13:24.920000+00:00,2024-05-24 17:13:24.920000+09:00,2024,5,24,8,13,24,920,,,,,,,,,-0.003906,-0.409424,1.034424,-91.064453,47.058105,24.719238,,,,,,,,,,,0.0,1.0,1.0,14.0,0.0,0.0,0.0,6.0,0.0,0.05871097333333334,-0.3266764133333333,1.1480761199999998,-0.7218424799999991,7.70670568,4.597167973333333,-30.741181503828567,-12.49912630176596,-0.7307267243446578,-0.04747489722446718,-0.24734576649534673,5.852852481179282,5.858269024252482,-1.3863061480496046,6.076253570088407,-1.390864300242209,-0.06261697333333334,-0.0827475866666667,-0.1136521199999998,0.25901667999999983,0.15389883959627262,0.3096327688607789,0.43417078461582437,0.48766071409788414
LBP08_S14,LBP08,174,175,14,174,174,1716538404.96,2024-05-24 08:13:24.960000+00:00,2024-05-24 17:13:24.960000+09:00,2024,5,24,8,13,24,960,,,,,,,,,-0.319336,0.119629,0.073242,-44.98291,20.263672,-25.756836,,,,,,,,,,,0.0,1.0,1.0,14.0,0.0,0.0,0.0,6.0,0.0,0.05491865333333333,-0.33393878666666665,1.1479328933333333,-2.698567746666666,7.600097613333334,5.5436198,-30.73783079222339,-18.811769512637955,-5.037013295081281,-1.2769881289134029,-0.9998165470008649,5.65137194937603,5.879484392294678,-1.4013577563981452,6.237066287936859,-1.3935173415639421,-0.37425465333333335,0.45356778666666664,-1.0746908933333332,1.9025133333333333,1.2250513453961636,0.3288329079840631,0.4542143781331916,0.49318894291448867
LBP08_S14,LBP08,175,176,14,175,175,1716538405.0,2024-05-24 08:13:25+00:00,2024-05-24 17:13:25+09:00,2024,5,24,8,13,25,0,8.0,13.0,23.0,40.564289,141.49498,25.572001,3.0,12.0,0.133301,-0.166992,0.246338,-81.970215,-121.643066,-63.842773,-585.0,5.0,595.0,363.0,0.0,1018.900024,23.09,0.058468,-46.906914,3.628125,1.0,1.0,1.0,14.0,0.0,0.0,0.0,5.0,0.0,0.05377608,-0.32714190666666665,1.1447167466666666,-3.4342448266666663,7.085774706666666,5.74544272,-26.802909447851537,-21.984257046776708,-7.862035882952591,-2.349104506827464,-1.8791868288719331,5.336890514057926,6.126339484622472,-1.4016538431965169,6.343252109906989,-1.3952751449778948,0.07952492,0.16014990666666665,-0.8983787466666666,1.1380535733333332,0.9160003154850543,0.3425002617761161,0.4622165309075228,0.4926425096674158
LBP08_S14,LBP08,176,177,14,176,176,1716538405.04,2024-05-24 08:13:25.040000+00:00,2024-05-24 17:13:25.040000+09:00,2024,5,24,8,13,25,40,,,,,,,,,0.328613,-0.287842,0.696045,33.26416,-96.313477,-54.260254,,,,,,,,,,,1.0,1.0,1.0,14.0,0.0,0.0,0.0,5.0,0.0,0.054960973333333336,-0.33663084000000004,1.1453775466666667,-3.401692733333333,6.240234333333333,6.3142903866666655,-19.998332577769744,-21.229408729150194,-8.728516242239484,-3.149037809938254,-2.7283631780379407,4.987749864368347,6.49908097112203,-1.4024278745387655,6.407932659252671,-1.396179292689303,0.27365202666666666,0.048788840000000055,-0.44933254666666667,0.7717734133333334,0.5283611644521878,0.3520841703570574,0.46620931713871433,0.4868651171398524
LBP08_S14,LBP08,177,178,14,177,177,1716538405.08,2024-05-24 08:13:25.080000+00:00,2024-05-24 17:13:25.080000+09:00,2024,5,24,8,13,25,80,,,,,,,,,0.488525,-0.225586,0.896484,-12.756348,-32.226562,-20.996094,,,,,,,,,,,1.0,1.0,1.0,14.0,0.0,0.0,0.0,5.0,0.0,0.05554692000000001,-0.3368424266666667,1.1427375733333334,-1.6829427333333322,6.0400390266666655,6.147460959999999,-11.964658746711445,-16.770911324536026,-7.719501715044716,-3.627624159806712,-3.399199631019382,4.678969795766558,6.826930022054672,-1.400737925766621,6.454841151111206,-1.3982747251075445,0.43297808,0.11125642666666669,-0.24625357333333342,0.7904880800000001,0.5103810660815673,0.3506196615888916,0.4740627388562257,0.48237060472018234
LBP08_S14,LBP08,178,179,14,178,178,1716538405.12,2024-05-24 08:13:25.120000+00:00,2024-05-24 17:13:25.120000+09:00,2024,5,24,8,13,25,120,,,,,,,,,0.023438,-0.469971,1.368896,-40.405273,9.155273,41.320801,,,,,,,,,,,1.0,1.0,1.0,14.0,0.0,0.0,0.0,5.0,0.0,0.05536788,-0.3365559733333333,1.1391568400000003,-1.3330078399999992,5.838216106666667,6.428222679999999,-4.529124623823191,-9.835527090939971,-5.425136603652023,-3.8087891447596394,-3.792620714656981,4.461964331620477,6.985697698235836,-1.4011035340741556,6.50998775266679,-1.3994894667140034,-0.03192988,-0.13341502666666671,0.2297391599999996,0.3950840666666663,0.2675802089370348,0.3475275714442659,0.46054173142232857,0.47644533776385506
LBP08_S14,LBP08,179,180,14,179,179,1716538405.16,2024-05-24 08:13:25.160000+00:00,2024-05-24 17:13:25.160000+09:00,2024,5,24,8,13,25,160,,,,,,,,,0.034668,-0.407227,1.443359,45.837402,-5.79834,19.897461,,,,,,,,,,,1.0,1.0,1.0,14.0,0.0,0.0,0.0,5.0,0.0,0.05369145333333333,-0.33290689333333334,1.1377863866666666,0.25227861333333407,5.657552040000001,5.924479186666666,0.7404217035968726,-2.262917796028601,-2.6748704184351793,-3.7791722766157645,-3.883137426498125,4.35496951488307,6.951737829131112,-1.4044909131652383,6.591389720007581,-1.400714249692479,-0.019023453333333336,-0.07432010666666666,0.3055726133333334,0.3989161733333334,0.31505553804215713,0.3350002605908216,0.45232203370770035,0.47437002670315737
LBP08_S14,LBP08,180,181,14,180,180,1716538405.2,2024-05-24 08:13:25.200000+00:00,2024-05-24 17:13:25.200000+09:00,2024,5,24,8,13,25,200,,,,,,,,,0.084473,-0.289795,1.429688,66.467285,51.818848,34.118652,,,,,,,,,,,1.0,1.0,1.0,14.0,0.0,0.0,0.0,5.0,0.0,0.05497725333333334,-0.32853841333333333,1.1340591733333334,0.07812496000000077,5.724283813333333,5.402018253333333,2.906913784791748,4.130090344550566,-0.1895254127886633,-3.662895725224095,-3.7179338127161023,4.347388498371523,6.7926153788784225,-1.398506374055869,6.704576012207854,-1.4001478937918679,0.02949574666666667,0.03874341333333331,0.2956288266666667,0.36386798666666664,0.29961217315798727,0.33398086449474884,0.4506685080902746,0.4755310640977863
LBP08_S14,LBP08,181,182,14,181,181,1716538405.24,2024-05-24 08:13:25.240000+00:00,2024-05-24 17:13:25.240000+09:00,2024,5,24,8,13,25,240,,,,,,,,,-0.012695,-0.381348,0.985352,-14.648438,127.197266,13.977051,,,,,,,,,,,1.0,1.0,1.0,14.0,0.0,0.0,0.0,5.0,0.0,0.05276045333333334,-0.32563801333333336,1.1259537066666667,0.5525715733333342,5.36214188,4.886067733333333,1.8500287679592577,8.17612119685461,1.6811835613929438,-3.5888945745057246,-3.390888964841918,4.414635840827241,6.623239528049681,-1.4038869034017807,6.850151651924712,-1.3988561241374078,-0.06545545333333334,-0.055709986666666655,-0.14060170666666671,0.26176714666666673,0.16479338246134687,0.32765759805019085,0.44740865450837825,0.47549138051661594
LBP08_S14,LBP08,182,183,14,182,182,1716538405.28,2024-05-24 08:13:25.280000+00:00,2024-05-24 17:13:25.280000+09:00,2024,5,24,8,13,25,280,,,,,,,,,-0.402344,-0.047363,0.091064,-7.446289,31.188965,-14.099121,,,,,,,,,,,1.0,1.0,1.0,14.0,0.0,0.0,0.0,5.0,0.0,0.05489586666666667,-0.31989908,1.1223729866666665,0.8081054266666675,5.319010373333334,4.935709666666666,-1.7940335259438527,9.714665781717944,3.028468069375704,-3.6606559155434786,-3.0023023335732,4.53577456360227,6.556483198026508,-1.3944233944933369,7.037401598900983,-1.3976324134935214,-0.45723986666666666,0.27253608,-1.0313089866666665,1.7610849333333332,1.1605784921971216,0.3609726924170329,0.4657311373326647,0.4875939450723354
