file_name,test_id,_program_index,program_index,session_id,index,_index,unixtime,datetime_utc,datetime_jst,rtc_year,rtc_month,rtc_day,rtc_hour,rtc_min,rtc_sec,rtc_msec,gps_hour,gps_min,gps_sec,latitude,longitude,altitude,fix_type,SIV,acc_x,acc_y,acc_z,gyro_x,gyro_y,gyro_z,mag_x,mag_y,mag_z,illuminance,atmopress,water_pressure,water_temp,depth,alt_wps,battery_level,behavior_class,camera_command,camera_recording,camera_count,play_audio,speaker_on,audio_file,prev_sd_write_time_ms,delay_occurred_counter,acc_x_ma,acc_y_ma,acc_z_ma,gyro_x_ma,gyro_y_ma,gyro_z_ma,gyro_x_lowpass,gyro_y_lowpass,gyro_z_lowpass,angle_x,angle_y,angle_z,combined_angle_change,gravity_adjusted_angle,smoothed_angle_change,smoothed_gravity_angle,acc_x_dy,acc_y_dy,acc_z_dy,ODBA,VeDBA,smoothed_VeDBA_1s,smoothed_VeDBA_2s,smoothed_VeDBA_3s
LBP08_S08,LBP08,0,1,8,0,0,1716495743.0,2024-05-23 20:22:23+00:00,2024-05-24 05:22:23+09:00,2024,5,23,20,22,23,0,20.0,22.0,21.0,40.79166,141.620117,-4.21,3.0,15.0,-0.029053,0.04126,0.304688,27.893066,-52.429199,-57.250977,-543.0,22.0,595.0,249.0,0.0,1020.400024,23.26,0.073332,-59.324638,3.817969,0.0,1.0,1.0,8.0,0.0,0.0,0.0,4.0,0.0,,,,,,,27.978561478741547,-51.67777793063723,-56.64767865151094,1.119142459149662,-2.067111117225489,-2.2659071460604374,3.2649293115466556,,5.641831804747549,,,,,,,,,
LBP08_S08,LBP08,1,2,8,1,1,1716495743.04,2024-05-23 20:22:23.040000+00:00,2024-05-24 05:22:23.040000+09:00,2024,5,23,20,22,23,40,,,,,,,,,0.343018,-0.259033,0.938721,-3.173828,-59.326172,-32.531738,,,,,,,,,,,0.0,1.0,1.0,8.0,0.0,0.0,0.0,4.0,0.0,,,,,,,17.942517767581656,-34.95271191577676,-35.02866376974915,1.8368431698529282,-3.4652195938565598,-3.6670536968504033,5.369266475028687,,5.690808222427557,,,,,,,,,
LBP08_S08,LBP08,2,3,8,2,2,1716495743.08,2024-05-23 20:22:23.080000+00:00,2024-05-24 05:22:23.080000+09:00,2024,5,23,20,22,23,80,,,,,,,,,0.303711,-0.262939,1.211914,12.207031,26.184082,25.268555,,,,,,,,,,,0.0,1.0,1.0,8.0,0.0,0.0,0.0,4.0,0.0,,,,,,,8.406820956347934,-20.194324530594223,-15.810354691662512,2.1731160081068457,-4.272992575080329,-4.299467884516904,6.439434976872902,,5.657923385551038,,,,,,,,,
LBP08_S08,LBP08,3,4,8,3,3,1716495743.12,2024-05-23 20:22:23.120000+00:00,2024-05-24 05:22:23.120000+09:00,2024,5,23,20,22,23,120,,,,,,,,,-0.37085,-0.47876,1.612549,-9.094238,31.25,51.452637,,,,,,,,,,,0.0,1.0,1.0,8.0,0.0,0.0,0.0,4.0,0.0,,,,,,,-0.1856246084238421,-8.908281310421714,-0.843389698656443,2.165691023769892,-4.629323827497197,-4.333203472463162,6.700560352988218,,5.59847392090475,,,,,,,,,
LBP08_S08,LBP08,4,5,8,4,4,1716495743.16,2024-05-23 20:22:23.160000+00:00,2024-05-24 05:22:23.160000+09:00,2024,5,23,20,22,23,160,,,,,,,,,-0.156982,-0.372314,1.786133,46.569824,-78.308105,-0.793457,,,,,,,,,,,0.0,1.0,1.0,8.0,0.0,0.0,0.0,4.0,0.0,,,,,,,-7.410352136769334,-1.8202320447985123,8.94271362442746,1.8692769382991188,-4.702133109289138,-3.975494927486064,6.434967907301286,,5.548115787429172,,,,,,,,,
LBP08_S08,LBP08,5,6,8,5,5,1716495743.2,2024-05-23 20:22:23.200000+00:00,2024-05-24 05:22:23.200000+09:00,2024,5,23,20,22,23,200,,,,,,,,,0.094727,-0.246826,1.085205,-20.141602,102.050781,31.555176,,,,,,,,,,,0.0,1.0,1.0,8.0,0.0,0.0,0.0,4.0,0.0,,,,,,,-12.886892685636763,1.2635049225684243,13.646757553521546,1.3538012308736482,-4.651592912386401,-3.429624625345202,5.935690310827598,,5.521154729394804,,,,,,,,,
LBP08_S08,LBP08,6,7,8,6,6,1716495743.24,2024-05-23 20:22:23.240000+00:00,2024-05-24 05:22:23.240000+09:00,2024,5,23,20,22,23,240,,,,,,,,,-0.659424,0.080811,-0.183838,-39.18457,41.625977,-18.371582,,,,,,,,,,,0.0,1.0,1.0,8.0,0.0,0.0,0.0,4.0,0.0,,,,,,,-16.345177523415348,1.3407468578643793,14.208047202834821,0.6999941299370342,-4.597963038071826,-2.861302737231809,5.46061436429192,,5.741673312521487,,,,,,,,,
LBP08_S08,LBP08,7,8,8,7,7,1716495743.28,2024-05-23 20:22:23.280000+00:00,2024-05-24 05:22:23.280000+09:00,2024,5,23,20,22,23,280,,,,,,,,,-0.064209,-0.087402,0.226074,-46.020508,-73.730469,-24.414062,,,,,,,,,,,0.0,1.0,1.0,8.0,0.0,0.0,0.0,4.0,0.0,,,,,,,-17.718516945519198,-0.13197693244159278,12.020985589441654,-0.008746547883733746,-4.60324211536949,-2.380463313654143,5.182327668380736,,5.768121045305969,,,,,,,,,
LBP08_S08,LBP08,8,9,8,8,8,1716495743.32,2024-05-23 20:22:23.320000+00:00,2024-05-24 05:22:23.320000+09:00,2024,5,23,20,22,23,320,,,,,,,,,0.367432,-0.296631,0.762207,-13.977051,-95.458984,-14.831543,,,,,,,,,,,0.0,1.0,1.0,8.0,0.0,0.0,0.0,4.0,0.0,,,,,,,-17.21209422514056,-1.7135981733596042,8.509805740318262,-0.6972303168893562,-4.671786042303874,-2.0400710840414122,5.1452507196245385,,5.697173431459946,,,,,,,,,
LBP08_S08,LBP08,9,10,8,9,9,1716495743.36,2024-05-23 20:22:23.360000+00:00,2024-05-24 05:22:23.360000+09:00,2024,5,23,20,22,23,360,,,,,,,,,0.353271,-0.179932,1.022949,-21.789551,0.915527,3.356934,,,,,,,,,,,0.0,1.0,1.0,8.0,0.0,0.0,0.0,4.0,0.0,,,,,,,-15.29170481983565,-2.410232435392,4.811172571706886,-1.3088985096827823,-4.768195339719554,-1.8476241811731369,5.278505207085505,,5.602834516140584,,,,,,,,,
LBP08_S08,LBP08,10,11,8,10,10,1716495743.4,2024-05-23 20:22:23.400000+00:00,2024-05-24 05:22:23.400000+09:00,2024,5,23,20,22,23,400,,,,,,,,,-0.174805,-0.317871,1.563721,4.577637,46.081543,35.766602,,,,,,,,,,,0.0,1.0,1.0,8.0,0.0,0.0,0.0,4.0,0.0,,,,,,,-12.57694923638125,-1.892907578703847,1.6413276638551044,-1.8119764791380324,-4.843911642867708,-1.7819710746189328,5.470115142813481,,5.532752693215334,,,,,,,,,
LBP08_S08,LBP08,11,12,8,11,11,1716495743.44,2024-05-23 20:22:23.440000+00:00,2024-05-24 05:22:23.440000+09:00,2024,5,23,20,22,23,440,,,,,,,,,-0.135254,-0.553467,1.788818,16.723633,-47.302246,-0.244141,,,,,,,,,,,0.0,1.0,1.0,8.0,0.0,0.0,0.0,4.0,0.0,,,,,,,-9.677435834491629,-0.432978742541617,-0.6694854536336359,-2.1990739125176977,-4.861230792569373,-1.8087504927642781,5.6337438028735,,5.507854123487062,,,,,,,,,
LBP08_S08,LBP08,12,13,8,12,12,1716495743.48,2024-05-23 20:22:23.480000+00:00,2024-05-24 05:22:23.480000+09:00,2024,5,23,20,22,23,480,,,,,,,,,0.079346,-0.319092,1.174316,-15.258789,84.655762,35.888672,,,,,,,,,,,0.0,1.0,1.0,8.0,0.0,0.0,0.0,4.0,0.0,,,,,,,-7.04232918835842,1.3697717413626311,-2.0593923339921085,-2.4807670800520345,-4.806439922914867,-1.8911261861239625,5.729958838412675,,5.526040148918613,,,,,,,,,
LBP08_S08,LBP08,13,14,8,13,13,1716495743.52,2024-05-23 20:22:23.520000+00:00,2024-05-24 05:22:23.520000+09:00,2024,5,23,20,22,23,520,,,,,,,,,-0.660889,0.151855,-0.062012,14.160156,76.721191,-11.352539,,,,,,,,,,,0.0,1.0,1.0,8.0,0.0,0.0,0.0,4.0,0.0,,,,,,,-4.886079691062183,2.905597278825515,-2.6267073484825563,-2.676210267694522,-4.690216031761847,-1.9961944800632647,5.757171199794608,,5.57086414510063,,,,,,,,,
LBP08_S08,LBP08,14,15,8,14,14,1716495743.56,2024-05-23 20:22:23.560000+00:00,2024-05-24 05:22:23.560000+09:00,2024,5,23,20,22,23,560,,,,,,,,,0.014404,-0.162598,0.310791,-17.822266,-78.552246,-24.414062,,,,,,,,,,,0.0,1.0,1.0,8.0,0.0,0.0,0.0,4.0,0.0,,,,,,,-3.214178627227186,3.7701400600519124,-2.579952164193744,-2.804777412783609,-4.53941042935977,-2.0993925666310145,5.73414967804878,,5.624314227586718,,,,,,,,,
LBP08_S08,LBP08,15,16,8,15,15,1716495743.6,2024-05-23 20:22:23.600000+00:00,2024-05-24 05:22:23.600000+09:00,2024,5,23,20,22,23,600,,,,,,,,,0.354004,-0.030273,0.802246,-17.089844,-52.856445,-41.015625,,,,,,,,,,,0.0,1.0,1.0,8.0,0.0,0.0,0.0,4.0,0.0,,,,,,,-1.9243273481622287,3.815599537000716,-2.231659813087186,-2.881750506710098,-4.386786447879741,-2.188658959154502,5.686704613544872,,5.677607546405417,,,,,,,,,
LBP08_S08,LBP08,16,17,8,16,16,1716495743.64,2024-05-23 20:22:23.640000+00:00,2024-05-24 05:22:23.640000+09:00,2024,5,23,20,22,23,640,,,,,,,,,0.243652,-0.552002,1.282471,-29.11377,26.123047,3.78418,,,,,,,,,,,0.0,1.0,1.0,8.0,0.0,0.0,0.0,4.0,0.0,,,,,,,-0.9236010988237537,3.0876949740344024,-1.9800707970078184,-2.9186945506630484,-4.263278648918365,-2.2678617910348144,5.642474618607425,,5.73352311095311,,,,,,,,,
LBP08_S08,LBP08,17,18,8,17,17,1716495743.68,2024-05-23 20:22:23.680000+00:00,2024-05-24 05:22:23.680000+09:00,2024,5,23,20,22,23,680,,,,,,,,,-0.295654,-0.472168,1.616943,-0.305176,13.977051,19.042969,,,,,,,,,,,0.0,1.0,1.0,8.0,0.0,0.0,0.0,4.0,0.0,,,,,,,-0.19699844842854664,1.7532782053961773,-2.2312047917527864,-2.92657448860019,-4.193147520702518,-2.3571099827049258,5.6305676302009156,,5.801310452068412,,,,,,,,,
LBP08_S08,LBP08,18,19,8,18,18,1716495743.72,2024-05-23 20:22:23.720000+00:00,2024-05-24 05:22:23.720000+09:00,2024,5,23,20,22,23,720,,,,,,,,,-0.055908,-0.45752,1.688477,30.334473,-49.560547,-1.098633,,,,,,,,,,,0.0,1.0,1.0,8.0,0.0,0.0,0.0,4.0,0.0,,,,,,,0.20763620715043657,0.08370698810396121,-3.2658279446972656,-2.9182690403141724,-4.18979924117836,-2.4877431004928163,5.679751544485425,,5.88964269236113,,,,,,,,,
LBP08_S08,LBP08,19,20,8,19,19,1716495743.76,2024-05-23 20:22:23.760000+00:00,2024-05-24 05:22:23.760000+09:00,2024,5,23,20,22,23,760,,,,,,,,,0.152344,-0.313965,1.035156,3.112793,120.727539,44.006348,,,,,,,,,,,0.0,1.0,1.0,8.0,0.0,0.0,0.0,4.0,0.0,,,,,,,0.26189029284084586,-1.5265361233638022,-5.11047616339801,-2.9077934286005385,-4.250860686112912,-2.692162147028737,5.811438395272481,,6.001660264050251,,,,,,,,,
LBP08_S08,LBP08,20,21,8,20,20,1716495743.8,2024-05-23 20:22:23.800000+00:00,2024-05-24 05:22:23.800000+09:00,2024,5,23,20,22,23,800,,,,,,,,,-0.505615,0.266602,-0.237061,23.31543,29.052734,-34.179688,,,,,,,,,,,0.0,1.0,1.0,8.0,0.0,0.0,0.0,4.0,0.0,,,,,,,0.048208638639236114,-2.581045058086259,-7.486678862671508,-2.905865083054969,-4.354102488436362,-2.991629301535597,6.029270788290416,,6.1333891268096234,,,,,,,,,
LBP08_S08,LBP08,21,22,8,21,21,1716495743.84,2024-05-23 20:22:23.840000+00:00,2024-05-24 05:22:23.840000+09:00,2024,5,23,20,22,23,840,,,,,,,,,0.084961,-0.142822,0.205811,-12.329102,-95.88623,3.78418,,,,,,,,,,,0.0,1.0,1.0,8.0,0.0,0.0,0.0,4.0,0.0,,,,,,,-0.20075331486210832,-2.6029040732367537,-9.87778649770541,-2.9138952156494535,-4.458218651365832,-3.3867407614438134,6.311617214026526,,6.274790266334471,,,,,,,,,
LBP08_S08,LBP08,22,23,8,22,22,1716495743.88,2024-05-23 20:22:23.880000+00:00,2024-05-24 05:22:23.880000+09:00,2024,5,23,20,22,23,880,,,,,,,,,0.277344,-0.068604,0.613037,-37.475586,-72.692871,-59.326172,,,,,,,,,,,0.0,1.0,1.0,8.0,0.0,0.0,0.0,4.0,0.0,,,,,,,-0.1410456373919241,-1.3367552307957782,-11.691664220521334,-2.9195370411451305,-4.511688860597663,-3.854407330264667,6.6132812413398465,,6.411916015016402,,,,,,,,,
LBP08_S08,LBP08,23,24,8,23,23,1716495743.92,2024-05-23 20:22:23.920000+00:00,2024-05-24 05:22:23.920000+09:00,2024,5,23,20,22,23,920,,,,,,,,,0.328857,-0.229736,1.010254,52.490234,21.362305,-25.756836,,,,,,,,,,,0.0,1.0,1.0,8.0,0.0,0.0,0.0,4.0,0.0,,,,,,,0.5837592236894796,1.0797669837624821,-12.447351456127407,-2.896186672197551,-4.468498181247163,-4.352301388509763,6.877346916685819,,6.529121900867695,,,,,,,,,
LBP08_S08,LBP08,24,25,8,24,24,1716495743.96,2024-05-23 20:22:23.960000+00:00,2024-05-24 05:22:23.960000+09:00,2024,5,23,20,22,23,960,,,,,,,,,-0.207031,-0.261963,1.523926,-26.000977,46.447754,10.009766,,,,,,,,,,,0.0,1.0,1.0,8.0,0.0,0.0,0.0,4.0,0.0,,,,,,,2.226115914148438,4.1011419611240605,-11.904996795981834,-2.8071420356316135,-4.304452502802201,-4.828501260349036,7.051438305642499,,6.611305433050847,,,,,,,,,
LBP08_S08,LBP08,25,26,8,25,25,1716495744.0,2024-05-23 20:22:24+00:00,2024-05-24 05:22:24+09:00,2024,5,23,20,22,24,0,20.0,22.0,22.0,40.791744,141.620117,-3.242,3.0,15.0,-0.085205,-0.674316,1.85791,-4.150391,-31.738281,-14.160156,-540.0,30.0,592.0,293.0,0.0,1019.700012,23.299999,0.066396,-53.531441,3.817969,0.0,1.0,1.0,8.0,0.0,0.0,0.0,6.0,0.0,,,,,,,4.840848515303041,6.94995069053954,-10.09603002801917,-2.6135080950194918,-4.0264544751806195,-5.232342461469803,7.100716008793361,,6.646704250454626,,,,,,,,,
LBP08_S08,LBP08,26,27,8,26,26,1716495744.04,2024-05-23 20:22:24.040000+00:00,2024-05-24 05:22:24.040000+09:00,2024,5,23,20,22,24,40,,,,,,,,,0.23584,-0.217773,1.311279,-10.375977,74.401855,26.611328,,,,,,,,,,,0.0,1.0,1.0,8.0,0.0,0.0,0.0,6.0,0.0,,,,,,,8.244091304808084,8.898582955861562,-7.268177120793479,-2.2837444428271683,-3.670511156946157,-5.523069546301542,7.013732105426732,,6.630274387875977,,,,,,,,,
LBP08_S08,LBP08,27,28,8,27,27,1716495744.08,2024-05-23 20:22:24.080000+00:00,2024-05-24 05:22:24.080000+09:00,2024,5,23,20,22,24,80,,,,,,,,,-0.651611,0.380859,-0.16748,9.399414,85.571289,-1.159668,,,,,,,,,,,0.0,1.0,1.0,8.0,0.0,0.0,0.0,6.0,0.0,,,,,,,12.043452912037933,9.516265177268817,-3.7975849251364644,-1.802006326345651,-3.289860549855404,-5.674972943307001,6.802626488713839,,6.566291232255482,,,,,,,,,
LBP08_S08,LBP08,28,29,8,28,28,1716495744.12,2024-05-23 20:22:24.120000+00:00,2024-05-24 05:22:24.120000+09:00,2024,5,23,20,22,24,120,,,,,,,,,0.235352,-0.496582,0.430664,45.043945,-81.054688,-21.057129,,,,,,,,,,,0.0,1.0,1.0,8.0,0.0,0.0,0.0,6.0,0.0,,,,,,,15.735270119191592,8.770731987590793,-0.11543554394028924,-1.1725955215779873,-2.939031270351772,-5.6795903650646125,6.501586866316951,,6.467916322470641,,,,,,,,,
LBP08_S08,LBP08,29,30,8,29,29,1716495744.16,2024-05-23 20:22:24.160000+00:00,2024-05-24 05:22:24.160000+09:00,2024,5,23,20,22,24,160,,,,,,,,,0.285889,0.349365,0.766846,94.116211,-39.428711,-45.715332,,,,,,,,,,,0.0,1.0,1.0,8.0,0.0,0.0,0.0,6.0,0.0,,,,,,,18.829412801034938,6.960741337663846,3.3405355612700847,-0.4194190095365897,-2.6606016168452182,-5.5459689426138095,6.1654265693102674,,6.352938461825115,,,,,,,,,
LBP08_S08,LBP08,30,31,8,30,30,1716495744.2,2024-05-23 20:22:24.200000+00:00,2024-05-24 05:22:24.200000+09:00,2024,5,23,20,22,24,200,,,,,,,,,0.363281,-0.549072,1.355957,-69.213867,25.57373,35.705566,,,,,,,,,,,0.0,1.0,1.0,8.0,0.0,0.0,0.0,6.0,0.0,,,,,,,20.94255993251519,4.55175362587678,6.173237020346115,0.41828338776401797,-2.478531471810147,-5.299039461799965,5.864972162503927,,6.238005274932847,,,,,,,,,
LBP08_S08,LBP08,31,32,8,31,31,1716495744.24,2024-05-23 20:22:24.240000+00:00,2024-05-24 05:22:24.240000+09:00,2024,5,23,20,22,24,240,,,,,,,,,-0.433838,-0.498291,1.7854,4.150391,5.79834,42.175293,,,,,,,,,,,0.0,1.0,1.0,8.0,0.0,0.0,0.0,6.0,0.0,,,,,,,21.826495082448773,2.026959598642457,8.092999357598453,1.2913431910619688,-2.397453087864449,-4.9753194874960265,5.671785657821584,,6.134564450847323,,,,,,,,,
LBP08_S08,LBP08,32,33,8,32,32,1716495744.28,2024-05-23 20:22:24.280000+00:00,2024-05-24 05:22:24.280000+09:00,2024,5,23,20,22,24,280,,,,,,,,,0.040039,-0.407471,1.987793,64.575195,-42.297363,5.371094,,,,,,,,,,,0.0,1.0,1.0,8.0,0.0,0.0,0.0,6.0,0.0,,,,,,,21.352280539022367,-0.18105358129225527,8.9864312888812,2.1454344126228637,-2.4046952311161394,-4.615862235940779,5.629532143491439,,6.047719263751261,,,,,,,,,
LBP08_S08,LBP08,33,34,8,33,33,1716495744.32,2024-05-23 20:22:24.320000+00:00,2024-05-24 05:22:24.320000+09:00,2024,5,23,20,22,24,320,,,,,,,,,-0.011475,-0.364746,0.85498,-18.859863,157.897949,43.029785,,,,,,,,,,,0.0,1.0,1.0,8.0,0.0,0.0,0.0,6.0,0.0,,,,,,,19.49842567107758,-1.6987801859977665,8.938640858672091,2.925371439465967,-2.47264643855605,-4.258316601593895,5.727568310230554,,5.9772699082514675,-1.5599969806962755,,,,,,,,
LBP08_S08,LBP08,34,35,8,34,34,1716495744.36,2024-05-23 20:22:24.360000+00:00,2024-05-24 05:22:24.360000+09:00,2024,5,23,20,22,24,360,,,,,,,,,-0.300537,0.05835,0.017578,65.856934,-36.193848,-30.151367,,,,,,,,,,,0.0,1.0,1.0,8.0,0.0,0.0,0.0,6.0,0.0,,,,,,,16.36564813532591,-2.2320573373407187,8.175794241710493,3.579997364879003,-2.5619287320496786,-3.931284831925476,5.9021064367198255,,5.919547414197065,-1.5772918579313564,,,,,,,,
LBP08_S08,LBP08,35,36,8,35,35,1716495744.4,2024-05-23 20:22:24.400000+00:00,2024-05-24 05:22:24.400000+09:00,2024,5,23,20,22,24,400,,,,,,,,,0.289795,-0.031738,0.474854,-6.469727,-120.422363,-36.376953,,,,,,,,,,,0.0,1.0,1.0,8.0,0.0,0.0,0.0,6.0,0.0,,,,,,,12.198849181826132,-1.6467165889478876,6.949819754685905,4.067951332152049,-2.627797395607594,-3.6532920417380397,6.0663077679381034,,5.868755103630389,-1.5919707214232321,,,,,,,,
LBP08_S08,LBP08,36,37,8,36,36,1716495744.44,2024-05-23 20:22:24.440000+00:00,2024-05-24 05:22:24.440000+09:00,2024,5,23,20,22,24,440,,,,,,,,,0.480957,-0.153076,1.148193,19.165039,-24.902344,-13.977051,,,,,,,,,,,0.0,1.0,1.0,8.0,0.0,0.0,0.0,6.0,0.0,,,,,,,7.382628347716094,-0.07508694135087735,5.435018866039587,4.363256466060693,-2.630800873261629,-3.435891287096456,6.145280234466117,,5.8172730012013165,-1.6007313802823675,,,,,,,,
LBP08_S08,LBP08,37,38,8,37,37,1716495744.48,2024-05-23 20:22:24.480000+00:00,2024-05-24 05:22:24.480000+09:00,2024,5,23,20,22,24,480,,,,,,,,,-0.052979,-0.311768,1.601318,-24.291992,64.331055,62.683105,,,,,,,,,,,0.0,1.0,1.0,8.0,0.0,0.0,0.0,6.0,0.0,0.0023763066666666697,-0.22605466666666668,0.95965172,-3.15429688,0.24739580000000028,-3.88102208,2.3938667488872016,2.0556327587333136,3.70388384807244,4.459011136016181,-2.5485755629122964,-3.2877359331735585,6.098132933715912,-1.5599969806962755,5.755658227966204,-1.5939039216086779,-0.055355306666666666,-0.08571333333333331,0.64166628,0.78273492,0.6497280972655487,0.6497280972655487,0.6497280972655487,0.6497280972655487
LBP08_S08,LBP08,38,39,8,38,38,1716495744.52,2024-05-23 20:22:24.520000+00:00,2024-05-24 05:22:24.520000+09:00,2024,5,23,20,22,24,520,,,,,,,,,-0.412598,-0.564209,1.965576,21.118164,-31.25,1.953125,,,,,,,,,,,0.0,1.0,1.0,8.0,0.0,0.0,0.0,6.0,0.0,-0.0052571466666666644,-0.22710936000000004,0.9537890800000001,-3.549804693333333,2.84179684,-3.3422850933333335,-2.2788502036613076,4.149694120920751,1.7914249295549403,4.367857127869729,-2.382587798075466,-3.216078935991361,5.92436192577292,-1.5945867351664376,5.673983768010932,-1.586620587994514,-0.40734085333333336,-0.3370996399999999,1.01178692,1.7562274133333333,1.1416109274028277,0.8956695123341882,0.8956695123341882,0.8956695123341882
LBP08_S08,LBP08,39,40,8,39,39,1716495744.56,2024-05-23 20:22:24.560000+00:00,2024-05-24 05:22:24.560000+09:00,2024,5,23,20,22,24,560,,,,,,,,,0.133545,-0.391113,1.612061,-16.052246,41.503906,19.165039,,,,,,,,,,,0.0,1.0,1.0,8.0,0.0,0.0,0.0,6.0,0.0,-0.01120441333333333,-0.22789711999999998,0.9433268399999999,-3.05745444,2.649739546666667,-3.3943684266666665,-6.223924823027608,5.687530251988057,-0.21133551109954446,4.118900134948625,-2.1550865879959438,-3.2245323564353425,5.657503463643505,-1.621328448406983,5.565211412122195,-1.584633449189713,0.14474941333333333,-0.16321588,0.6687341600000001,0.9766994533333334,0.7034182204744375,0.8315857483809378,0.8315857483809378,0.8315857483809378
LBP08_S08,LBP08,40,41,8,40,40,1716495744.6,2024-05-23 20:22:24.600000+00:00,2024-05-24 05:22:24.600000+09:00,2024,5,23,20,22,24,600,,,,,,,,,-0.561035,-0.151855,-0.021484,-18.310547,146.911621,18.249512,,,,,,,,,,,0.0,1.0,1.0,8.0,0.0,0.0,0.0,6.0,0.0,-0.012167959999999997,-0.22224933333333335,0.9329785333333335,-1.6495768266666664,0.8162434533333336,-4.558919213333334,-9.178991740927534,6.454734133652252,-2.114942042808999,3.7517404653115234,-1.8968972226498537,-3.3091300381477025,5.3501511382132065,-1.627013356859774,5.428953976441407,-1.577007590653888,-0.54886704,0.07039433333333336,-0.9544625333333334,1.5737239066666668,1.1032720051287854,0.8995073125678998,0.8995073125678998,0.8995073125678998
LBP08_S08,LBP08,41,42,8,41,41,1716495744.64,2024-05-23 20:22:24.640000+00:00,2024-05-24 05:22:24.640000+09:00,2024,5,23,20,22,24,640,,,,,,,,,-0.074463,0.165771,0.114014,0.244141,-45.532227,-52.490234,,,,,,,,,,,0.0,1.0,1.0,8.0,0.0,0.0,0.0,6.0,0.0,0.0009082133333333371,-0.22227212,0.9253515733333334,-1.35660808,-0.4671224266666665,-5.3263345866666665,-11.06970862797018,6.61400273090176,-3.6784409453556335,3.3089521201927163,-1.6323371134137834,-3.4562676759619277,5.055637925470453,-1.5665940869139192,5.273259473415855,-1.5744110116053025,-0.07537121333333334,0.38804311999999996,-0.8113375733333335,1.2747519066666668,0.9025114629084195,0.9001081426360038,0.9001081426360038,0.9001081426360038
LBP08_S08,LBP08,42,43,8,42,42,1716495744.68,2024-05-23 20:22:24.680000+00:00,2024-05-24 05:22:24.680000+09:00,2024,5,23,20,22,24,680,,,,,,,,,0.355713,-0.275635,0.641357,-33.02002,-126.159668,-31.555176,,,,,,,,,,,0.0,1.0,1.0,8.0,0.0,0.0,0.0,6.0,0.0,0.004407560000000004,-0.2200358,0.9204069066666667,-0.6656901066666666,1.3240559466666668,-5.03662104,-12.004945335031111,6.567889204527832,-4.71551257705251,2.8287543067914718,-1.36962154523267,-3.644888179044028,4.812787543938723,-1.5502039199236954,5.113493547958667,-1.5750282262449793,0.35130544,-0.055599200000000015,-0.27904990666666674,0.6859545466666668,0.45207923379083564,0.8254366578284756,0.8254366578284756,0.8254366578284756
LBP08_S08,LBP08,43,44,8,43,43,1716495744.72,2024-05-23 20:22:24.720000+00:00,2024-05-24 05:22:24.720000+09:00,2024,5,23,20,22,24,720,,,,,,,,,0.413818,-0.114258,1.136719,-4.882812,-3.723145,-15.625,,,,,,,,,,,0.0,1.0,1.0,8.0,0.0,0.0,0.0,6.0,0.0,-0.00041015999999999644,-0.22020506666666667,0.9285123733333333,0.011393226666666768,-0.35644534666666655,-5.28564448,-12.225867813263529,6.697786892822761,-5.184942388491772,2.339719594260931,-1.1017100695197597,-3.852285874583699,4.639844751343181,-1.5727106163609053,4.9688279230039125,-1.5775591667407363,0.41422816,0.10594706666666667,0.20820662666666678,0.7283818533333335,0.47556256040627237,0.775454643911018,0.775454643911018,0.775454643911018
LBP08_S08,LBP08,44,45,8,44,44,1716495744.76,2024-05-23 20:22:24.760000+00:00,2024-05-24 05:22:24.760000+09:00,2024,5,23,20,22,24,760,,,,,,,,,-0.026123,-0.517334,1.590088,-8.483887,63.354492,35.522461,,,,,,,,,,,0.0,1.0,1.0,8.0,0.0,0.0,0.0,6.0,0.0,0.01027018666666667,-0.22345377333333336,0.9530566400000001,0.41503905333333346,-0.08219405333333327,-4.877115840000001,-12.018288565832494,7.152510938893393,-5.201152847496555,1.8589880516276311,-0.815609631964024,-4.060331988483561,4.539532079911944,-1.5236265809031138,4.857638698830714,-1.5727552751718894,-0.036393186666666674,-0.2938802266666666,0.6370313599999998,0.9673047733333331,0.7024948436001901,0.7663346688721646,0.7663346688721646,0.7663346688721646
LBP08_S08,LBP08,45,46,8,45,45,1716495744.8,2024-05-23 20:22:24.800000+00:00,2024-05-24 05:22:24.800000+09:00,2024,5,23,20,22,24,800,,,,,,,,,-0.245605,-0.511475,1.772217,5.92041,-38.879395,1.220703,,,,,,,,,,,0.0,1.0,1.0,8.0,0.0,0.0,0.0,6.0,0.0,0.003701173333333337,-0.22144205333333333,0.95243816,0.49153645333333335,3.2405598533333335,-4.117024706666667,-11.612000874631486,7.815943277249499,-4.9597675617758545,1.3945080166423718,-0.5029719008740441,-4.258722690954595,4.509362737682592,-1.5536383792166197,4.793480902952395,-1.5668850465545217,-0.24930617333333333,-0.2900329466666667,0.8197788399999999,1.3591179599999998,0.9046048997910662,0.7816980278631536,0.7816980278631536,0.7816980278631536
LBP08_S08,LBP08,46,47,8,46,46,1716495744.84,2024-05-23 20:22:24.840000+00:00,2024-05-24 05:22:24.840000+09:00,2024,5,23,20,22,24,840,,,,,,,,,0.231445,-0.318115,1.369141,-26.123047,70.739746,16.906738,,,,,,,,,,,0.0,1.0,1.0,8.0,0.0,0.0,0.0,6.0,0.0,-0.002122399999999995,-0.22278970666666667,0.9458626400000001,0.0854492133333334,3.977864533333334,-4.3880208000000005,-11.100502879026758,8.444415738533671,-4.634756295794062,0.9504879014813015,-0.16519527133269724,-4.444112942786358,4.547620979894238,-1.5805831580020706,4.782996332955214,-1.5613543681307682,0.2335674,-0.09532529333333331,0.42327835999999985,0.7521710533333332,0.4927526884108655,0.7528034939179248,0.7528034939179248,0.7528034939179248
LBP08_S08,LBP08,47,48,8,47,47,1716495744.88,2024-05-23 20:22:24.880000+00:00,2024-05-24 05:22:24.880000+09:00,2024,5,23,20,22,24,880,,,,,,,,,-0.758301,0.149414,-0.268066,13.977051,120.056152,-2.746582,,,,,,,,,,,0.0,1.0,1.0,8.0,0.0,0.0,0.0,6.0,0.0,-0.0030696533333333287,-0.21707356,0.9426758,1.3387044266666668,3.1656900533333334,-5.005696586666667,-10.411417822904337,8.850928775069782,-4.318645342877783,0.534031188565128,0.18884187967009408,-4.616858756501469,4.6514766841683635,-1.5853063856538436,4.826239735200025,-1.5568524043526062,-0.7552313466666667,0.36648756,-1.2107418,2.3324607066666667,1.4732899323927862,0.8183022610520031,0.8183022610520031,0.8183022610520031
LBP08_S08,LBP08,48,49,8,48,48,1716495744.92,2024-05-23 20:22:24.920000+00:00,2024-05-24 05:22:24.920000+09:00,2024,5,23,20,22,24,920,,,,,,,,,-0.069824,-0.144043,0.180908,-24.963379,-76.11084,-32.409668,,,,,,,,,,,0.0,1.0,1.0,8.0,0.0,0.0,0.0,6.0,0.0,0.005214853333333338,-0.22086913333333333,0.9399837333333335,0.41097005333333336,2.7246093200000003,-5.3865559733333335,-9.34106468352053,8.99991870352015,-4.038032899355968,0.16038860122430676,0.5488386278109001,-4.7783800724757075,4.812469684040928,-1.5465478194779698,4.918921807655504,-1.5568981056828113,-0.07503885333333334,0.07682613333333332,-0.7590757333333336,0.9109407200000001,0.7666348891148059,0.8139966467239034,0.8139966467239034,0.8139966467239034
LBP08_S08,LBP08,49,50,8,49,49,1716495744.96,2024-05-23 20:22:24.960000+00:00,2024-05-24 05:22:24.960000+09:00,2024,5,23,20,22,24,960,,,,,,,,,0.325439,-0.071777,0.763916,-12.695312,-82.336426,-41.748047,,,,,,,,,,,0.0,1.0,1.0,8.0,0.0,0.0,0.0,6.0,0.0,0.0017480533333333384,-0.21974933333333335,0.9375162933333333,0.9554036399999999,3.7402343200000003,-5.447591119999999,-7.644241016796748,8.957558172260944,-3.817291198747182,-0.14538103944756314,0.9071409547013378,-4.931071720425595,5.015925504860329,-1.562626162233305,5.055267462013102,-1.5562987308406795,0.32369094666666665,0.14797233333333337,-0.17360029333333327,0.6452635733333333,0.39599078553862,0.7818423497096508,0.7818423497096508,0.7818423497096508
LBP08_S08,LBP08,50,51,8,50,50,1716495745.0,2024-05-23 20:22:25+00:00,2024-05-24 05:22:25+09:00,2024,5,23,20,22,25,0,20.0,22.0,23.0,40.791832,141.620117,-2.288,3.0,15.0,0.37085,-0.287598,1.276611,25.20752,36.560059,5.737305,-540.0,29.0,593.0,327.0,0.0,1019.599976,23.360001,0.065405,-52.703289,3.817969,0.0,1.0,1.0,8.0,0.0,0.0,0.0,4.0,0.0,-0.00019530666666666197,-0.2202962,0.94679364,2.1712239466666663,1.5673827600000003,-5.85530596,-5.1516719124201025,8.760528219601856,-3.727761801881869,-0.35144791594436725,1.257562083485412,-5.08018219250087,5.245305438241395,-1.5717065726222406,5.229938063583909,-1.558757255953208,0.3710453066666667,-0.06730180000000002,0.32981735999999995,0.7681644666666667,0.5009826771855194,0.7617809445293557,0.7617809445293557,0.7617809445293557
LBP08_S08,LBP08,51,52,8,51,51,1716495745.04,2024-05-23 20:22:25.040000+00:00,2024-05-24 05:22:25.040000+09:00,2024,5,23,20,22,25,40,,,,,,,,,-0.33667,-0.425293,1.589844,-52.490234,33.630371,25.878906,,,,,,,,,,,0.0,1.0,1.0,8.0,0.0,0.0,0.0,4.0,0.0,0.011028653333333338,-0.23017900000000002,0.9623340133333335,2.3014322799999998,1.949869746666667,-5.078124973333334,-1.8768427228721427,8.329092949996014,-3.8737389224093484,-0.42652162485925293,1.5907258014852526,-5.235131749397244,5.488071947918551,-1.5215744491323002,5.4381841494880225,-1.5551687917720802,-0.3476986533333334,-0.19511399999999995,0.6275099866666666,1.1703226399999997,0.7434598912464704,0.7605595409771634,0.7605595409771634,0.7605595409771634
LBP08_S08,LBP08,52,53,8,52,52,1716495745.08,2024-05-23 20:22:25.080000+00:00,2024-05-24 05:22:25.080000+09:00,2024,5,23,20,22,25,80,,,,,,,,,-0.102539,-0.530762,1.775879,-9.94873,-48.76709,-7.141113,,,,,,,,,,,0.0,1.0,1.0,8.0,0.0,0.0,0.0,4.0,0.0,0.004436866666666671,-0.22639644,0.9573340133333332,4.04785156,3.341471306666667,-5.235188786666667,1.928819921327866,7.503254163761876,-4.319959318502719,-0.3493688280061383,1.8908559680357275,-5.407930122137352,5.739608268493524,-1.5506609332257442,5.674726057933794,-1.5509030340870036,-0.10697586666666667,-0.3043655599999999,0.8185449866666668,1.2298864133333334,0.8798284635997698,0.7680138486410762,0.7680138486410762,0.7680138486410762
LBP08_S08,LBP08,53,54,8,53,53,1716495745.12,2024-05-23 20:22:25.120000+00:00,2024-05-24 05:22:25.120000+09:00,2024,5,23,20,22,25,120,,,,,,,,,0.209229,-0.389404,1.119141,3.90625,104.492188,32.409668,,,,,,,,,,,0.0,1.0,1.0,8.0,0.0,0.0,0.0,4.0,0.0,0.0008984533333333376,-0.2263931866666667,0.9508789333333334,5.441894533333334,2.8279621866666664,-5.081380186666667,5.8047250739075125,6.173521188622043,-5.015245096425094,-0.11717982504983776,2.137796815580609,-5.608539925994356,6.0033012949191615,-1.5667168679395873,5.932641518297768,-1.5459274592580226,0.20833054666666667,-0.16301081333333328,0.16826206666666654,0.5396034266666665,0.3135064034704311,0.7412781165722148,0.7412781165722148,0.7412781165722148
LBP08_S08,LBP08,54,55,8,54,54,1716495745.16,2024-05-23 20:22:25.160000+00:00,2024-05-24 05:22:25.160000+09:00,2024,5,23,20,22,25,160,,,,,,,,,-0.595215,0.056641,-0.209717,56.213379,67.382812,-18.798828,,,,,,,,,,,0.0,1.0,1.0,8.0,0.0,0.0,0.0,4.0,0.0,0.004863306666666671,-0.22106441333333332,0.9488899999999999,6.43554688,1.69108068,-5.4370117066666666,9.196880564951217,4.404041722931848,-5.773524699118692,0.2506953975482109,2.313958484497883,-5.839480913959104,6.286238095620007,-1.5482118320283982,6.20313194737895,-1.5427046216424052,-0.6000783066666667,0.2777054133333333,-1.158607,2.03639072,1.3340106638162872,0.7742077025302189,0.7742077025302189,0.7742077025302189
LBP08_S08,LBP08,55,56,8,55,55,1716495745.2,2024-05-23 20:22:25.200000+00:00,2024-05-24 05:22:25.200000+09:00,2024,5,23,20,22,25,200,,,,,,,,,-0.048828,-0.106689,0.277344,9.58252,-78.491211,-34.057617,,,,,,,,,,,0.0,1.0,1.0,8.0,0.0,0.0,0.0,4.0,0.0,0.011341173333333338,-0.21924149333333331,0.9473958666666665,6.30777996,2.421061146666667,-5.195312493333334,11.617792273869926,2.4501197954045884,-6.334110332197675,0.7154070885030079,2.411963276314067,-6.092845327247011,6.591823596723731,-1.5177537374053418,6.4760880143693385,-1.5383587203277789,-0.06016917333333334,0.11255249333333331,-0.6700518666666666,0.8427735333333333,0.6820981580378671,0.7693598317674635,0.7693598317674635,0.7693598317674635
LBP08_S08,LBP08,56,57,8,56,56,1716495745.24,2024-05-23 20:22:25.240000+00:00,2024-05-24 05:22:25.240000+09:00,2024,5,23,20,22,25,240,,,,,,,,,0.392822,-0.006836,0.76709,32.104492,-75.98877,-38.635254,,,,,,,,,,,0.0,1.0,1.0,8.0,0.0,0.0,0.0,4.0,0.0,0.006972680000000004,-0.21754552,0.9486979466666666,6.2272135466666665,2.775065053333334,-5.13102212,12.776323954827465,0.6474308551852174,-6.468733498883737,1.2264600466961064,2.4378605105214755,-6.35159466720236,6.913040064351956,-1.537925581151304,6.740909395290908,-1.532893773732738,0.38584932,0.21070951999999998,-0.18160794666666658,0.7781667866666665,0.4756675791512131,0.7546752191366509,0.7546752191366509,0.7546752191366509
LBP08_S08,LBP08,57,58,8,57,57,1716495745.28,2024-05-23 20:22:25.280000+00:00,2024-05-24 05:22:25.280000+09:00,2024,5,23,20,22,25,280,,,,,,,,,0.390869,-0.334961,1.109863,-9.155273,24.230957,15.686035,,,,,,,,,,,0.0,1.0,1.0,8.0,0.0,0.0,0.0,4.0,0.0,0.0075390800000000036,-0.21932612,0.9589778933333334,6.079915373333333,0.9627278133333338,-5.6282552,12.617156163810895,-0.7507289530240736,-6.072783558704614,1.7311462932485422,2.4078313524005126,-6.594506009550545,7.230631287808092,-1.5355506373640337,6.987292837443528,-1.5317735170083246,0.38332992,-0.11563488,0.15088510666666666,0.6498499066666666,0.4278779831372867,0.7391134459938241,0.7391134459938241,0.7391134459938241
LBP08_S08,LBP08,58,59,8,58,58,1716495745.32,2024-05-23 20:22:25.320000+00:00,2024-05-24 05:22:25.320000+09:00,2024,5,23,20,22,25,320,,,,,,,,,-0.296143,-0.424561,1.622314,3.479004,32.287598,18.798828,,,,,,,,,,,0.0,1.0,1.0,8.0,0.0,0.0,0.0,4.0,0.0,0.012304706666666672,-0.22332026666666668,0.9695768533333332,5.78125,3.0314127200000005,-4.462076813333334,11.260912422919166,-1.6717003023662729,-5.1952418281588555,2.181582790165309,2.3409633403058616,-6.802315682676899,7.517373974852756,-1.5143194433217986,7.206259384959819,-1.527275554575808,-0.30844770666666665,-0.20124073333333334,0.6527371466666668,1.1624255866666668,0.7494688807008637,0.7395841475714168,0.7395841475714168,0.7395841475714168
LBP08_S08,LBP08,59,60,8,59,59,1716495745.36,2024-05-23 20:22:25.360000+00:00,2024-05-24 05:22:25.360000+09:00,2024,5,23,20,22,25,360,,,,,,,,,-0.012939,-0.613037,1.834717,17.456055,-52.978516,-9.82666,,,,,,,,,,,0.0,1.0,1.0,8.0,0.0,0.0,0.0,4.0,0.0,0.011350933333333337,-0.2255207866666667,0.9684928666666667,5.438639333333334,3.382975213333334,-4.711100253333334,8.887219043571811,-2.200870309893666,-4.011305869003493,2.5370715519081815,2.252928527910115,-6.962767917437039,7.745486174764212,-1.5191671490870404,7.392143658656806,-1.5216651379817054,-0.02428993333333334,-0.38751621333333336,0.8662241333333333,1.2780302799999999,0.9492644866561835,0.7487006840533631,0.7487006840533631,0.7487006840533631
LBP08_S08,LBP08,60,61,8,60,60,1716495745.4,2024-05-23 20:22:25.400000+00:00,2024-05-24 05:22:25.400000+09:00,2024,5,23,20,22,25,400,,,,,,,,,0.095703,-0.15918,1.003418,-20.935059,120.300293,31.494141,,,,,,,,,,,0.0,1.0,1.0,8.0,0.0,0.0,0.0,4.0,0.0,0.011813173333333338,-0.22544916,0.9700195599999999,6.389160173333334,3.08024084,-4.373372386666667,5.624368768606634,-2.4826842374732205,-2.7793641129759754,2.762046302652447,2.153621158411186,-7.073942481956077,7.893519247457075,-1.5170571066718326,7.546267656202433,-1.5182349836302411,0.08388982666666665,0.06626916000000002,0.03339844000000003,0.1835574266666667,0.11200250166716179,0.7221715931206049,0.7221715931206049,0.7221715931206049
LBP08_S08,LBP08,61,62,8,61,61,1716495745.44,2024-05-23 20:22:25.440000+00:00,2024-05-24 05:22:25.440000+09:00,2024,5,23,20,22,25,440,,,,,,,,,-0.460205,0.071045,-0.12915,-4.699707,7.8125,-30.456543,,,,,,,,,,,0.0,1.0,1.0,8.0,0.0,0.0,0.0,4.0,0.0,0.01325198666666667,-0.22481440000000003,0.9716081066666667,5.13102216,2.606608026666667,-3.9811197866666665,1.4990785129625837,-2.6413556478521665,-1.8182176250006674,2.82200944317095,2.0479669324970997,-7.146671186956104,7.951906369444762,-1.5103718818881646,7.6819200603137645,-1.517746997135093,-0.47345698666666663,0.2958594,-1.1007581066666667,1.8700744933333333,1.2342458070353024,0.7426545616771927,0.7426545616771927,0.7426545616771927
LBP08_S08,LBP08,62,63,8,62,62,1716495745.48,2024-05-23 20:22:25.480000+00:00,2024-05-24 05:22:25.480000+09:00,2024,5,23,20,22,25,480,,,,,,,,,0.055664,-0.056396,0.272705,-1.831055,-103.45459,-46.020508,,,,,,,,,,,0.0,1.0,1.0,8.0,0.0,0.0,0.0,4.0,0.0,0.014287133333333335,-0.22486648000000004,0.9719694266666666,5.880533880000001,2.9174804266666667,-3.678385413333334,-3.528570632110007,-2.7867154715263838,-1.500348571349417,2.68086661788655,1.9364983136360443,-7.206685129810081,7.929273743656443,-1.5056813089005783,7.827637662251017,-1.516740303273901,0.041376866666666665,0.16847048000000003,-0.6992644266666667,0.9091117733333334,0.7204617173230259,0.7454839064794918,0.7418009907404939,0.7418009907404939
LBP08_S08,LBP08,63,64,8,63,63,1716495745.52,2024-05-23 20:22:25.520000+00:00,2024-05-24 05:22:25.520000+09:00,2024,5,23,20,22,25,520,,,,,,,,,0.452393,-0.241455,0.897705,8.483887,-71.105957,-20.080566,,,,,,,,,,,0.0,1.0,1.0,8.0,0.0,0.0,0.0,4.0,0.0,0.013043640000000002,-0.2220246933333333,0.9719759333333333,6.076660186666667,2.76611324,-3.5546874933333332,-9.456231518135574,-3.082853623910636,-2.2191809570803858,2.302617357161127,1.8131841686796188,-7.295452368093296,7.862144031889023,-1.5106127019985622,8.024038903320015,-1.5155324557067495,0.43934935999999997,-0.019430306666666702,-0.07427093333333334,0.5330506,0.44600624265560984,0.7176597190896031,0.7308456297003131,0.7308456297003131
LBP08_S08,LBP08,64,65,8,64,64,1716495745.56,2024-05-23 20:22:25.560000+00:00,2024-05-24 05:22:25.560000+09:00,2024,5,23,20,22,25,560,,,,,,,,,0.325928,-0.128662,1.297852,2.075195,44.067383,31.616211,,,,,,,,,,,0.0,1.0,1.0,8.0,0.0,0.0,0.0,4.0,0.0,0.012477226666666673,-0.2248599866666667,0.9727246399999999,6.0489909200000005,2.775878866666667,-3.5571288933333336,-16.1033436412251,-3.7798498350533634,-4.289602675725008,1.658483611512123,1.6619901752774844,-7.467036475122296,7.827478071076277,-1.513910288513756,8.31346720370109,-1.516047154811284,0.3134507733333333,0.09619798666666671,0.3251273600000001,0.7347761200000001,0.4617501923795534,0.7079929979658077,0.7212350783674288,0.7212350783674288
LBP08_S08,LBP08,65,66,8,65,65,1716495745.6,2024-05-23 20:22:25.600000+00:00,2024-05-24 05:22:25.600000+09:00,2024,5,23,20,22,25,600,,,,,,,,,-0.306641,-0.492188,1.700684,-23.4375,13.85498,29.907227,,,,,,,,,,,0.0,1.0,1.0,8.0,0.0,0.0,0.0,4.0,0.0,0.012845066666666672,-0.22747392,0.9725358266666666,6.138509146666667,3.2519530800000003,-3.4440104,-23.01437771372403,-5.121314321972027,-7.792066239228624,0.7379085029631618,1.4571376023986033,-7.778719124691442,7.948347637837042,-1.5128738724538577,8.72836241472648,-1.5147077576856112,-0.3194860666666667,-0.26471408,0.7281481733333335,1.3123483200000001,0.8380600535003768,0.6973845199006715,0.7252635257858062,0.7252635257858062
LBP08_S08,LBP08,66,67,8,66,66,1716495745.64,2024-05-23 20:22:25.640000+00:00,2024-05-24 05:22:25.640000+09:00,2024,5,23,20,22,25,640,,,,,,,,,0.03833,-0.249756,1.761719,5.67627,-13.793945,-9.765625,,,,,,,,,,,0.0,1.0,1.0,8.0,0.0,0.0,0.0,4.0,0.0,0.009329440000000005,-0.22280269333333333,0.9688379066666668,5.258789093333334,3.0753580400000007,-3.56770832,-29.455531233962056,-7.148495755955958,-12.436193167527064,-0.4403127463953205,1.171197772160365,-8.276166851392524,8.370216083724484,-1.5278586425393856,9.284135411517514,-1.5140433954467363,0.029000559999999998,-0.026953306666666677,0.7928810933333332,0.8488349599999999,0.7938689699100494,0.6930388201807365,0.727550373923281,0.727550373923281
LBP08_S08,LBP08,67,68,8,67,67,1716495745.68,2024-05-23 20:22:25.680000+00:00,2024-05-24 05:22:25.680000+09:00,2024,5,23,20,22,25,680,,,,,,,,,0.033203,-0.076172,0.794922,-92.590332,141.479492,18.188477,,,,,,,,,,,0.0,1.0,1.0,8.0,0.0,0.0,0.0,4.0,0.0,0.010615240000000003,-0.2303743066666667,0.9690722800000001,4.4401041999999995,2.196451786666667,-3.3618164000000004,-34.51753437591102,-9.532510501368527,-17.54159399743347,-1.8210141214317612,0.7898973521056238,-8.977830611289864,9.194643698498094,-1.5234721616925184,9.9775568123871,-1.5136096278475721,0.02258776,0.15420230666666668,-0.1741502800000001,0.3509403466666668,0.2337025423636139,0.6843037525236475,0.7116197987116789,0.7116197987116789
LBP08_S08,LBP08,68,69,8,68,68,1716495745.72,2024-05-23 20:22:25.720000+00:00,2024-05-24 05:22:25.720000+09:00,2024,5,23,20,22,25,720,,,,,,,,,-0.219238,-0.2146,-0.069336,-96.740723,-35.217285,-41.625977,,,,,,,,,,,0.0,1.0,1.0,8.0,0.0,0.0,0.0,4.0,0.0,0.01123698666666667,-0.22452795999999997,0.9670149866666666,4.921875026666666,1.913248666666667,-3.3447265466666676,-37.286522887010456,-11.585346123865746,-22.185942293473087,-3.3124750369121796,0.326483507150994,-9.865268303028788,10.411656978663505,-1.5194664343671433,10.78906132117817,-1.5143177960920835,-0.23047498666666666,0.009927959999999958,-1.0363509866666667,1.2767539333333333,1.0617158995860123,0.7077498860908372,0.7225603018640018,0.7225603018640018
LBP08_S08,LBP08,69,70,8,69,69,1716495745.76,2024-05-23 20:22:25.760000+00:00,2024-05-24 05:22:25.760000+09:00,2024,5,23,20,22,25,760,,,,,,,,,0.150146,-0.10791,0.168701,49.621582,-98.022461,-77.636719,,,,,,,,,,,0.0,1.0,1.0,8.0,0.0,0.0,0.0,4.0,0.0,0.014322920000000003,-0.22587561333333336,0.9656998933333334,4.746907573333333,2.3697916266666668,-3.144531240000001,-37.0175399442395,-12.507935756150122,-25.4814371270241,-4.7931766346817595,-0.17383392309501083,-10.884525788109752,11.894438285018085,-1.505773177830312,11.68688610205507,-1.516025999617821,0.13582307999999998,0.11796561333333336,-0.7969988933333334,1.0507875866666667,0.8170502010062504,0.7123321003870796,0.7254236321410397,0.7254236321410397
LBP08_S08,LBP08,70,71,8,70,70,1716495745.8,2024-05-23 20:22:25.800000+00:00,2024-05-24 05:22:25.800000+09:00,2024,5,23,20,22,25,800,,,,,,,,,0.244873,0.319092,0.541992,-4.089355,-113.15918,-77.453613,,,,,,,,,,,0.0,1.0,1.0,8.0,0.0,0.0,0.0,4.0,0.0,0.013238933333333338,-0.22484370666666667,0.9636718933333333,4.527994813333333,2.5122069866666665,-3.138020826666667,-33.266094762927885,-11.7768006339673,-26.8632602729345,-6.123820425198875,-0.6449059484537027,-11.959056199027131,13.45124921536744,-1.5104134842830832,12.631056668932562,-1.5172772064967943,0.23163406666666667,0.5439357066666667,-0.4216798933333332,1.1972496666666665,0.7261778888599646,0.7051950199498356,0.7254458161621845,0.7254458161621845
LBP08_S08,LBP08,71,72,8,71,71,1716495745.84,2024-05-23 20:22:25.840000+00:00,2024-05-24 05:22:25.840000+09:00,2024,5,23,20,22,25,840,,,,,,,,,0.478516,-0.479248,0.977539,-57.434082,-23.925781,-8.605957,,,,,,,,,,,0.0,1.0,1.0,8.0,0.0,0.0,0.0,4.0,0.0,0.014143880000000003,-0.22382807999999998,0.9675195599999998,4.4091797066666665,2.1476236533333335,-3.2820638,-25.98321497019373,-9.447963259625277,-26.253999946984006,-7.163149024006624,-1.022824478838714,-13.009216196906491,14.886120378140603,-1.506034205896524,13.576077046664555,-1.517666696448214,0.46437212,-0.25541992,0.010019440000000213,0.7298114800000002,0.5300765893189534,0.7066879759861591,0.7198638382523779,0.7198638382523779
LBP08_S08,LBP08,72,73,8,72,72,1716495745.88,2024-05-23 20:22:25.880000+00:00,2024-05-24 05:22:25.880000+09:00,2024,5,23,20,22,25,880,,,,,,,,,-0.162598,-0.353271,1.423096,-45.776367,50.231934,9.094238,,,,,,,,,,,0.0,1.0,1.0,8.0,0.0,0.0,0.0,4.0,0.0,0.012708333333333339,-0.22454422666666668,0.96645836,2.716471373333334,2.84586584,-3.0875651066666667,-15.598854042192443,-6.173282893533234,-24.0267630124242,-7.787103185694321,-1.2697557945800433,-13.970286717403459,16.044318831567132,-1.5127629913456946,14.473305055806645,-1.5162596779434965,-0.17530633333333334,-0.12872677333333332,0.45663763999999996,0.7606707466666667,0.5057873337128548,0.6679878720389618,0.7139172686818356,0.7139172686818356
LBP08_S08,LBP08,73,74,8,73,73,1716495745.92,2024-05-23 20:22:25.920000+00:00,2024-05-24 05:22:25.920000+09:00,2024,5,23,20,22,25,920,,,,,,,,,-0.078857,-0.330566,1.547119,39.123535,-14.770508,-12.207031,,,,,,,,,,,0.0,1.0,1.0,8.0,0.0,0.0,0.0,4.0,0.0,0.009567053333333337,-0.22792965333333332,0.96425132,3.33658856,3.059895786666667,-3.1844075600000004,-3.0817990657165883,-2.8897929629845405,-20.798211896470924,-7.910375148322985,-1.3853475130994248,-14.802215193262295,16.840391840658036,-1.527694737255936,15.27574546153023,-1.5147060220401776,-0.08842405333333334,-0.10263634666666671,0.5828676799999999,0.7739280799999999,0.5984043492936516,0.6612586504461158,0.7107952978875604,0.7107952978875604
LBP08_S08,LBP08,74,75,8,74,74,1716495745.96,2024-05-23 20:22:25.960000+00:00,2024-05-24 05:22:25.960000+09:00,2024,5,23,20,22,25,960,,,,,,,,,0.170654,-0.206055,1.256592,-58.654785,84.716797,34.667969,,,,,,,,,,,0.0,1.0,1.0,8.0,0.0,0.0,0.0,4.0,0.0,0.009876293333333338,-0.22856116,0.9653157733333332,2.7563476800000006,2.587076773333334,-3.009440106666667,10.082289291633213,-0.34258392201928445,-17.171184886232897,-7.5070835766576565,-1.3990508699801962,-15.489062588711612,17.2691837398512,-1.5264223573034859,15.945592929451587,-1.5147530876398034,0.16077770666666666,0.022506160000000025,0.29127622666666675,0.47456009333333343,0.33346339892124555,0.6587575549814209,0.7008655110726574,0.7008655110726574
LBP08_S08,LBP08,75,76,8,75,75,1716495746.0,2024-05-23 20:22:26+00:00,2024-05-24 05:22:26+09:00,2024,5,23,20,22,26,0,20.0,22.0,24.0,40.791924,141.620117,-1.326,3.0,15.0,-0.601562,-0.037842,-0.13501,-1.77002,142.150879,-16.845703,-542.0,36.0,593.0,465.0,0.0,1020.200012,23.42,0.07135,-57.669693,3.817969,0.0,1.0,1.0,8.0,0.0,0.0,0.0,4.0,0.0,0.011715493333333337,-0.22228837333333332,0.9650228133333333,2.829589866666667,2.5227863999999998,-3.4781901066666667,22.057654966374294,1.2947990874097672,-13.559233337623674,-6.624777378002685,-1.3472589064838056,-16.03143192221656,17.39855141515696,-1.5167687719680567,16.460929696356665,-1.5157039893208903,-0.6132774933333334,0.1844463733333333,-1.1000328133333332,1.8977566799999999,1.2728715327459736,0.6896331092038389,0.7155323321412039,0.7155323321412039
LBP08_S08,LBP08,76,77,8,76,76,1716495746.04,2024-05-23 20:22:26.040000+00:00,2024-05-24 05:22:26.040000+09:00,2024,5,23,20,22,26,40,,,,,,,,,-0.103027,-0.318115,0.154053,33.752441,-73.730469,-36.437988,,,,,,,,,,,0.0,1.0,1.0,8.0,0.0,0.0,0.0,4.0,0.0,0.012509773333333337,-0.22504227999999998,0.9668489866666667,2.468261746666667,2.77099604,-3.369140626666667,30.99196873484426,2.4830131194247116,-10.162446968023858,-5.385098628608914,-1.2479383817068173,-16.437929800937514,17.342496175145385,-1.513788457492211,16.819206926828933,-1.5162442983541604,-0.11553677333333333,-0.09307272,-0.8127959866666667,1.02140548,0.8262255098590922,0.6929437339483439,0.7182996615841512,0.7182996615841512
LBP08_S08,LBP08,77,78,8,77,77,1716495746.08,2024-05-23 20:22:26.080000+00:00,2024-05-24 05:22:26.080000+09:00,2024,5,23,20,22,26,80,,,,,,,,,0.231445,0.160645,0.435791,117.797852,-111.328125,-62.072754,,,,,,,,,,,0.0,1.0,1.0,8.0,0.0,0.0,0.0,4.0,0.0,0.013675133333333337,-0.22291662666666667,0.9686458533333333,2.688802106666667,2.8369140133333333,-3.2006836,35.46848298460117,4.0133223797368505,-7.068761771937405,-3.9663593092248677,-1.0874054865173433,-16.72068027181501,17.21904775573395,-1.5079356026593291,17.03766388649917,-1.5178622960822965,0.21776986666666667,0.3835616266666667,-0.5328548533333333,1.1341863466666666,0.6917207030298321,0.6854194235255462,0.7176513943023384,0.7176513943023384
LBP08_S08,LBP08,78,79,8,78,78,1716495746.12,2024-05-23 20:22:26.120000+00:00,2024-05-24 05:22:26.120000+09:00,2024,5,23,20,22,26,120,,,,,,,,,0.609863,-0.480469,1.040527,12.878418,-65.002441,-6.103516,,,,,,,,,,,0.0,1.0,1.0,8.0,0.0,0.0,0.0,4.0,0.0,0.010641280000000005,-0.21410153333333332,0.9667838666666665,2.7270508,3.4008788533333334,-3.383789066666667,34.95058984117629,6.503962049861694,-4.383809517965009,-2.568335715577816,-0.8272470045228755,-16.89603265253361,17.110131657877055,-1.5199370903634022,17.150267274624834,-1.5202534334913802,0.5992217200000001,-0.26636746666666666,0.07374313333333349,0.9393323200000002,0.65989116279277,0.6992748138984397,0.7162761506949678,0.7162761506949678
LBP08_S08,LBP08,79,80,8,79,79,1716495746.16,2024-05-23 20:22:26.160000+00:00,2024-05-24 05:22:26.160000+09:00,2024,5,23,20,22,26,160,,,,,,,,,0.105469,-0.20459,1.415283,98.388672,56.030273,20.935059,,,,,,,,,,,0.0,1.0,1.0,8.0,0.0,0.0,0.0,4.0,0.0,0.01199218666666667,-0.22134762666666666,0.9683333466666666,2.429199226666667,2.9500325066666666,-2.7954101600000003,30.049929293466732,9.989288951584227,-2.288703029688664,-1.3663385438391467,-0.4276754464595064,-16.987580773721156,17.047805954068856,-1.5152821946411803,17.200662054920578,-1.5201873557056318,0.09347681333333333,0.016757626666666664,0.4469496533333335,0.5571840933333334,0.45692748363087243,0.6641914866910232,0.7102447863446401,0.7102447863446401
LBP08_S08,LBP08,80,81,8,80,80,1716495746.2,2024-05-23 20:22:26.200000+00:00,2024-05-24 05:22:26.200000+09:00,2024,5,23,20,22,26,200,,,,,,,,,-0.266602,-0.259521,1.693115,30.639648,-23.986816,12.878418,,,,,,,,,,,0.0,1.0,1.0,8.0,0.0,0.0,0.0,4.0,0.0,0.011565746666666672,-0.21524736000000005,0.9700976799999999,2.1280924666666667,3.64339188,-2.929687506666667,22.48298334086865,13.833450906297424,-0.9893437081871774,-0.4670192102044006,0.12566258979239053,-17.027154522048644,17.034021520090164,-1.5158165746157843,17.233003544511085,-1.5226592477201444,-0.27816774666666666,-0.04427363999999995,0.7230173200000001,1.0454587066666667,0.7759455493167307,0.6679453823421778,0.7117379855030965,0.7117379855030965
LBP08_S08,LBP08,81,82,8,81,81,1716495746.24,2024-05-23 20:22:26.240000+00:00,2024-05-24 05:22:26.240000+09:00,2024,5,23,20,22,26,240,,,,,,,,,0.141602,-0.162842,1.656982,-8.911133,62.194824,12.268066,,,,,,,,,,,0.0,1.0,1.0,8.0,0.0,0.0,0.0,4.0,0.0,0.010589186666666672,-0.22343746666666667,0.9739681199999999,1.7260742266666667,4.2854817333333335,-2.8898112000000005,14.684252253177492,16.99817733726145,-0.6022920749330514,0.1203508799226991,0.8055896832828485,-17.051246205045967,17.070689974842974,-1.5222141831778846,17.284663681788633,-1.5222571893204446,0.13101281333333334,0.06059546666666668,0.6830138800000001,0.8746221600000001,0.6981003710862217,0.6768426940195781,0.7114349274049439,0.7114349274049439
LBP08_S08,LBP08,82,83,8,82,82,1716495746.28,2024-05-23 20:22:26.280000+00:00,2024-05-24 05:22:26.280000+09:00,2024,5,23,20,22,26,280,,,,,,,,,-0.556885,0.063477,0.179688,-40.283203,175.476074,32.592773,,,,,,,,,,,0.0,1.0,1.0,8.0,0.0,0.0,0.0,4.0,0.0,0.007447906666666671,-0.22385088,0.9756705866666667,1.5112304800000003,3.6328124666666666,-3.01350912,9.170662701715537,18.498833601574955,-1.0616282647340536,0.4871773879913206,1.5455430273458468,-17.09371133563533,17.170352712823785,-1.5366743654365311,17.383909190708344,-1.518637411172821,-0.5643329066666667,0.28732788,-0.7959825866666668,1.6476433733333335,1.0171613532024804,0.700414028822186,0.7180811540527163,0.7180811540527163
LBP08_S08,LBP08,83,84,8,83,83,1716495746.32,2024-05-23 20:22:26.320000+00:00,2024-05-24 05:22:26.320000+09:00,2024,5,23,20,22,26,320,,,,,,,,,-0.069336,-0.397705,0.269043,-44.433594,-40.161133,-35.15625,,,,,,,,,,,0.0,1.0,1.0,8.0,0.0,0.0,0.0,4.0,0.0,0.009482400000000005,-0.22208654666666666,0.9741471466666665,1.7081705866666672,3.625488253333333,-2.9557291733333333,7.850058907838781,17.804792431211897,-2.1095295931712164,0.8011797443048718,2.2577347245943225,-17.178092519362178,17.34433964361544,-1.5270339593984537,17.55213383291054,-1.5140049903293462,-0.0788184,-0.1756184533333333,-0.7051041466666665,0.9595409999999999,0.7309076815688013,0.6996715808569033,0.718354058893484,0.718354058893484
LBP08_S08,LBP08,84,85,8,84,84,1716495746.36,2024-05-23 20:22:26.360000+00:00,2024-05-24 05:22:26.360000+09:00,2024,5,23,20,22,26,360,,,,,,,,,0.282227,0.248779,0.783936,72.20459,-59.997559,-42.96875,,,,,,,,,,,0.0,1.0,1.0,8.0,0.0,0.0,0.0,4.0,0.0,0.0043066266666666716,-0.22499345333333334,0.9618912799999998,3.22753908,4.391276013333333,-2.43733724,11.492649045288255,15.002832549088641,-3.3744412231173047,1.260885706116402,2.857848026557868,-17.31307016828687,17.592598635756293,-1.5511412774486115,17.80676168091916,-1.512872256823569,0.27792037333333336,0.47377245333333334,-0.17795527999999983,0.9296481066666665,0.5773804232316014,0.6847962183199201,0.7154171081505282,0.7154171081505282
LBP08_S08,LBP08,85,86,8,85,85,1716495746.4,2024-05-23 20:22:26.400000+00:00,2024-05-24 05:22:26.400000+09:00,2024,5,23,20,22,26,400,,,,,,,,,0.446533,-0.602539,1.361816,-65.002441,13.000488,7.202148,,,,,,,,,,,0.0,1.0,1.0,8.0,0.0,0.0,0.0,4.0,0.0,0.01236978666666667,-0.21826818666666667,0.9601757733333333,4.388020853333334,2.2875976266666664,-2.445475266666667,19.523691415008052,10.697482065629488,-4.4856917011113335,2.041833362716724,3.285747309183048,-17.492497836331324,17.91515278793242,-1.5127481879710594,18.160529876400542,-1.5104457496170833,0.43416321333333335,-0.38427081333333335,0.40164022666666666,1.2200742533333333,0.7053202290227032,0.7085289274141416,0.7152110493928175,0.7152110493928175
LBP08_S08,LBP08,86,87,8,86,86,1716495746.44,2024-05-23 20:22:26.440000+00:00,2024-05-24 05:22:26.440000+09:00,2024,5,23,20,22,26,440,,,,,,,,,-0.395264,-0.469482,1.60376,57.556152,28.869629,-4.821777,,,,,,,,,,,0.0,1.0,1.0,8.0,0.0,0.0,0.0,4.0,0.0,0.01999022666666667,-0.21927404,0.9634895733333334,4.948730493333334,0.42073565333333324,-2.650553386666667,30.184140039279427,5.762985597337908,-5.158606971269883,3.2491989642879013,3.5162667330765642,-17.69884211518212,18.334951264342507,-1.4775906760159738,18.616555237506493,-1.504479994679772,-0.41525422666666667,-0.25020796,0.6402704266666667,1.3057326133333333,0.8031104004281158,0.6912835111498543,0.7169690364135235,0.7169690364135235
LBP08_S08,LBP08,87,88,8,87,87,1716495746.48,2024-05-23 20:22:26.480000+00:00,2024-05-24 05:22:26.480000+09:00,2024,5,23,20,22,26,480,,,,,,,,,-0.066406,-0.360107,1.870117,75.927734,-78.308105,5.310059,,,,,,,,,,,0.0,1.0,1.0,8.0,0.0,0.0,0.0,4.0,0.0,0.02364257333333334,-0.22111649333333333,0.9723730399999999,6.865234386666668,1.11816404,-1.9661458266666667,40.99889142990337,1.0939092623111262,-5.218379221083509,4.889154621484036,3.560023103569009,-17.90757728402546,18.901294177755886,-1.4616113942245814,19.163162545414643,-1.5029331675246824,-0.09004857333333335,-0.13899050666666668,0.8977439600000001,1.12678304,0.9128917374033502,0.6989807119530673,0.7222323092162795,0.7208106580015593
LBP08_S08,LBP08,88,89,8,88,88,1716495746.52,2024-05-23 20:22:26.520000+00:00,2024-05-24 05:22:26.520000+09:00,2024,5,23,20,22,26,520,,,,,,,,,0.180908,-0.589355,1.103516,23.925781,105.407715,46.936035,,,,,,,,,,,0.0,1.0,1.0,8.0,0.0,0.0,0.0,4.0,0.0,0.01314777333333334,-0.21622390666666672,0.9787369733333332,6.854654946666666,1.8286132533333335,-1.1100260400000004,49.417547254918574,-2.565242179936609,-4.583139434722648,6.8658565116807795,3.4574134163715446,-18.090902861414367,19.656410137963285,-1.5086097553056306,19.773345248852067,-1.4945383353275405,0.16776022666666668,-0.3731310933333333,0.12477902666666674,0.6656703466666667,0.42771498916832545,0.6982490618135759,0.7079543904515895,0.7151742028316893
LBP08_S08,LBP08,89,90,8,89,89,1716495746.56,2024-05-23 20:22:26.560000+00:00,2024-05-24 05:22:26.560000+09:00,2024,5,23,20,22,26,560,,,,,,,,,-0.47998,0.121094,-0.064209,113.15918,25.817871,-36.193848,,,,,,,,,,,0.0,1.0,1.0,8.0,0.0,0.0,0.0,4.0,0.0,0.016998680000000006,-0.21771153333333332,0.9856835866666668,6.94254556,0.80485024,-1.5649414000000001,53.454199979795035,-4.714046753476832,-3.252170261843846,9.004024510872581,3.2688515462324714,-18.22098967188812,20.585487908882662,-1.491017122576325,20.410343415959964,-1.48418552958061,-0.49697868,0.3388055333333333,-1.0498925866666668,1.8856768000000002,1.2099799342672801,0.728178251489085,0.7180856247274463,0.7245101600285873
LBP08_S08,LBP08,90,91,8,90,90,1716495746.6,2024-05-23 20:22:26.600000+00:00,2024-05-24 05:22:26.600000+09:00,2024,5,23,20,22,26,600,,,,,,,,,0.088623,-0.030029,0.318115,87.463379,-91.369629,-29.47998,,,,,,,,,,,0.0,1.0,1.0,8.0,0.0,0.0,0.0,4.0,0.0,0.023658840000000007,-0.21008132000000002,0.98007812,5.957031226666668,3.6230468533333338,-1.306152346666667,52.15595905239012,-5.152844563002235,-1.3248130612471198,11.090262872968186,3.062737763712382,-18.273982194338004,21.594275131149665,-1.4561590252426686,21.036277473200975,-1.4753060437913554,0.06496415999999999,0.18005232000000002,-0.66196312,0.9069796,0.689082253625808,0.7222191394941021,0.7098018296973868,0.7238540876877951
LBP08_S08,LBP08,91,92,8,91,91,1716495746.64,2024-05-23 20:22:26.640000+00:00,2024-05-24 05:22:26.640000+09:00,2024,5,23,20,22,26,640,,,,,,,,,0.541016,-0.152344,1.133301,45.410156,-59.143066,-22.888184,,,,,,,,,,,0.0,1.0,1.0,8.0,0.0,0.0,0.0,4.0,0.0,0.012731093333333337,-0.202845,0.9616373599999999,3.0753580533333333,2.6529947600000003,-2.4047851600000003,45.77849109168487,-4.016562234480598,0.9705926780239524,12.921402516635581,2.902075274333158,-18.235158487217046,22.536763053924492,-1.5067459116269897,21.61874561662315,-1.4742198293069682,0.5282849066666667,0.05050099999999999,0.17166364,0.7504495466666667,0.5577667065277905,0.7127750489588118,0.7029069345697743,0.7208343171212496
LBP08_S08,LBP08,92,93,8,92,92,1716495746.68,2024-05-23 20:22:26.680000+00:00,2024-05-24 05:22:26.680000+09:00,2024,5,23,20,22,26,680,,,,,,,,,0.190186,-0.335449,1.504883,-9.887695,68.725586,37.17041,,,,,,,,,,,0.0,1.0,1.0,8.0,0.0,0.0,0.0,4.0,0.0,0.024433573333333344,-0.21071609333333335,0.9699511599999999,1.813964826666667,0.4980468533333336,-2.791341146666667,35.63384484542611,-1.7505493540212111,3.286148729855855,14.346756310452626,2.8320533001723094,-18.103712538022812,23.272179747198017,-1.4527260434651108,22.13241546993502,-1.4725416009918708,0.16575242666666665,-0.12473290666666664,0.53493184,0.8254171733333333,0.5737457959734343,0.7263767791032046,0.7053402658134261,0.7182077363864672
LBP08_S08,LBP08,93,94,8,93,93,1716495746.72,2024-05-23 20:22:26.720000+00:00,2024-05-24 05:22:26.720000+09:00,2024,5,23,20,22,26,720,,,,,,,,,-0.383545,-0.330322,1.786133,24.291992,-23.010254,3.723145,,,,,,,,,,,0.0,1.0,1.0,8.0,0.0,0.0,0.0,4.0,0.0,0.03049477333333334,-0.21008133333333337,0.9827929599999998,1.5258788800000005,1.595052066666667,-2.432454426666667,23.67910002548429,1.012669406502609,5.2301002005984225,15.293920311471998,2.8725600764324137,-17.894508529998873,23.714321314694452,-1.423505901929148,22.55705539279908,-1.4755202660667919,-0.41403977333333336,-0.12024066666666663,0.8033400400000001,1.33762048,0.9117247236362324,0.7203771320652134,0.7140635090780253,0.7216027712504982
LBP08_S08,LBP08,94,95,8,94,94,1716495746.76,2024-05-23 20:22:26.760000+00:00,2024-05-24 05:22:26.760000+09:00,2024,5,23,20,22,26,760,,,,,,,,,0.194824,-0.44751,1.806152,-7.93457,-15.197754,6.713867,,,,,,,,,,,0.0,1.0,1.0,8.0,0.0,0.0,0.0,4.0,0.0,0.022861306666666675,-0.2147590666666667,0.9942675733333334,0.8870442533333337,3.4301757733333336,-1.682942706666667,11.991775066984731,3.655646031363625,6.485921626615314,15.773591314151387,3.0187859176869587,-17.635071664934262,23.851939208166375,-1.4623464195560667,22.876254216079058,-1.4749237918451819,0.17196269333333333,-0.23275093333333333,0.8118844266666666,1.2165980533333332,0.8619167518559165,0.7221717940992001,0.7172519472431399,0.7240219778126605
LBP08_S08,LBP08,95,96,8,95,95,1716495746.8,2024-05-23 20:22:26.800000+00:00,2024-05-24 05:22:26.800000+09:00,2024,5,23,20,22,26,800,,,,,,,,,-0.148193,-0.032959,0.557861,0.915527,184.204102,53.283691,,,,,,,,,,,0.0,1.0,1.0,8.0,0.0,0.0,0.0,4.0,0.0,0.01449868000000001,-0.21480138666666668,1.00360352,1.7862955466666668,2.294921866666667,-2.2916666666666665,2.2923083835165845,5.766430874698981,6.9170996486459755,15.865283649492051,3.249443152674918,-17.35838767898842,23.73983422215418,-1.5018860431271874,23.07962586551805,-1.4702775700941864,-0.16269168,0.1818423866666667,-0.4457425199999999,0.7902765866666666,0.508155124411633,0.713450883521267,0.7093229517355512,0.7203632175855245
LBP08_S08,LBP08,96,97,8,96,96,1716495746.84,2024-05-23 20:22:26.840000+00:00,2024-05-24 05:22:26.840000+09:00,2024,5,23,20,22,26,840,,,,,,,,,0.013428,-0.307861,0.124512,-38.024902,-69.519043,-14.892578,,,,,,,,,,,0.0,1.0,1.0,8.0,0.0,0.0,0.0,4.0,0.0,0.023427720000000006,-0.21702469333333335,0.9997135466666669,0.8487955466666669,2.640787746666667,-2.3803710933333337,-4.370167778102833,7.212391527513286,6.605720854761037,15.690476938367938,3.5379388137754493,-17.09415884479798,23.471649797461193,-1.4608083928650002,23.166988370087303,-1.4667736225527999,-0.009999720000000005,-0.09083630666666664,-0.8752015466666669,0.9760375733333336,0.8799596446977811,0.7274462057364199,0.7170670908612895,0.7230231580373955
LBP08_S08,LBP08,97,98,8,97,97,1716495746.88,2024-05-23 20:22:26.880000+00:00,2024-05-24 05:22:26.880000+09:00,2024,5,23,20,22,26,880,,,,,,,,,0.312012,-0.063232,0.727539,33.813477,-95.397949,-33.996582,,,,,,,,,,,0.0,1.0,1.0,8.0,0.0,0.0,0.0,4.0,0.0,0.01639646666666667,-0.21082026666666667,0.9736718799999999,1.1002603866666671,4.50276692,-2.23144532,-7.719715995032558,8.054709738845062,5.8100876567436,15.381688298566637,3.860127203329252,-16.861755338528237,23.147693406396453,-1.4913980449737922,23.15053791323727,-1.4622930078719867,0.29561553333333335,0.1475882666666667,-0.2461328799999999,0.6893366799999999,0.41200999335297267,0.7236951121220246,0.6958414920804933,0.717924581567159
LBP08_S08,LBP08,98,99,8,98,98,1716495746.92,2024-05-23 20:22:26.920000+00:00,2024-05-24 05:22:26.920000+09:00,2024,5,23,20,22,26,920,,,,,,,,,0.436768,-0.182129,1.129395,-41.870117,-14.160156,3.662109,,,,,,,,,,,0.0,1.0,1.0,8.0,0.0,0.0,0.0,4.0,0.0,0.013958320000000007,-0.20925125333333333,0.9625130266666666,2.1704101333333337,1.8530273333333336,-3.3536784,-8.156874593817236,8.369910633180503,4.870709846466959,15.055413314813947,4.194923628656472,-16.66692694466956,22.848398370763093,-1.5026450130895317,23.052729365021285,-1.4665072334395148,0.42280967999999997,0.027122253333333318,0.16688197333333332,0.6168139066666666,0.4553605551112297,0.7179733603547278,0.6896160054004217,0.713689677914644
LBP08_S08,LBP08,99,100,8,99,99,1716495746.96,2024-05-23 20:22:26.960000+00:00,2024-05-24 05:22:26.960000+09:00,2024,5,23,20,22,26,960,,,,,,,,,-0.129395,-0.265869,1.551025,30.212402,69.763184,32.714844,,,,,,,,,,,0.0,1.0,1.0,8.0,0.0,0.0,0.0,4.0,0.0,0.025878893333333344,-0.20846024000000002,0.9728222666666666,2.6000976266666673,0.13753254666666692,-3.7858073066666673,-6.524549567276589,8.119546749454276,4.116002122791214,14.794431332122883,4.519705498634643,-16.50228685975791,22.61920440327259,-1.4445549050663675,22.900782025995618,-1.4706814742910832,-0.15527389333333336,-0.05740876,0.5782027333333335,0.7908853866666669,0.6014350742264429,0.7286922273669357,0.6937248911741782,0.7119078588084821
LBP08_S08,LBP08,100,101,8,100,100,1716495747.0,2024-05-23 20:22:27+00:00,2024-05-24 05:22:27+09:00,2024,5,23,20,22,27,0,20.0,22.0,25.0,40.792007,141.620117,-0.692,3.0,15.0,-0.178467,-0.461182,1.858398,10.559082,-43.09082,-4.882812,-542.0,21.0,595.0,185.0,0.0,1019.5,23.48,0.064414,-51.875576,3.817969,0.0,1.0,1.0,8.0,0.0,0.0,0.0,7.0,0.0,0.03127277333333334,-0.21203446666666667,0.9830436266666667,2.16715492,1.4396158800000003,-3.0696614666666666,-3.8230701352330376,7.1712035830096825,3.801583989531758,14.641508526713562,4.8065536419550305,-16.35022350017664,22.467900176842196,-1.4211195498288034,22.72033869629387,-1.4750422349043055,-0.20973977333333332,-0.2491475333333333,0.8753543733333333,1.3342416799999999,0.9339756660629843,0.7151363926996162,0.7023847509517275,0.7153776682968337
LBP08_S08,LBP08,101,102,8,101,101,1716495747.04,2024-05-23 20:22:27.040000+00:00,2024-05-24 05:22:27.040000+09:00,2024,5,23,20,22,27,40,,,,,,,,,0.193359,-0.43042,1.367432,-12.451172,75.134277,26.428223,,,,,,,,,,,0.0,1.0,1.0,8.0,0.0,0.0,0.0,7.0,0.0,0.022666000000000006,-0.21203772,0.9906640666666667,1.6495767866666668,3.3610026,-2.130533866666667,-0.9596466237618078,5.449614543428419,4.079193716436673,14.60312266176309,5.024538223692168,-16.18705575151917,22.372258485424137,-1.4619397648188588,22.530471766841295,-1.4756184340991463,0.17069299999999998,-0.21838228,0.37676793333333325,0.7658432133333333,0.4677403083499106,0.7007969846392489,0.6968703592937964,0.7115678627591887
LBP08_S08,LBP08,102,103,8,102,102,1716495747.08,2024-05-23 20:22:27.080000+00:00,2024-05-24 05:22:27.080000+09:00,2024,5,23,20,22,27,80,,,,,,,,,-0.624023,0.184814,-0.181641,16.113281,121.276855,7.324219,,,,,,,,,,,0.0,1.0,1.0,8.0,0.0,0.0,0.0,7.0,0.0,0.016285786666666673,-0.21917313333333335,0.9956966133333333,1.3264973600000003,2.20458984,-2.503255226666667,1.408508258402432,3.0948722607880383,4.97224536403278,14.659462992099186,5.148333114123689,-15.98816593695786,22.29409426503817,-1.4948682991403937,22.34109336558978,-1.4763936591130669,-0.6403087866666667,0.40398713333333336,-1.1773376133333333,2.2216335333333337,1.399758837068319,0.7291185100007884,0.7072689667631673,0.7219949987335694
LBP08_S08,LBP08,103,104,8,103,103,1716495747.12,2024-05-23 20:22:27.120000+00:00,2024-05-24 05:22:27.120000+09:00,2024,5,23,20,22,27,120,,,,,,,,,-0.02832,-0.14624,0.15332,-20.935059,-94.299316,-30.334473,,,,,,,,,,,0.0,1.0,1.0,8.0,0.0,0.0,0.0,7.0,0.0,0.022382800000000008,-0.21620437333333334,0.9894466133333333,1.3989257466666671,2.976074226666667,-2.595214866666667,2.9188052197861047,0.49921634097309164,6.350462503732549,14.776215200890631,5.168301767762613,-15.734147436808557,22.194847924437752,-1.4652483104448297,22.152803384389706,-1.4718533449761262,-0.050702800000000006,0.06996437333333333,-0.8361266133333333,0.9567937866666666,0.8405792651428153,0.7363460340947902,0.717810423996615,0.7237649131575881
LBP08_S08,LBP08,104,105,8,104,104,1716495747.16,2024-05-23 20:22:27.160000+00:00,2024-05-24 05:22:27.160000+09:00,2024,5,23,20,22,27,160,,,,,,,,,0.382324,-0.218506,0.784424,32.714844,-105.34668,-30.273438,,,,,,,,,,,0.0,1.0,1.0,8.0,0.0,0.0,0.0,7.0,0.0,0.013561186666666671,-0.21390620000000002,0.9640234266666667,0.7975260000000003,4.313964853333333,-2.3640950800000002,3.4553141070311053,-1.8164449854656486,7.926346879915557,14.914427765171876,5.095643968343987,-15.417093561611935,22.047505911148914,-1.5059540256882908,21.95863838487432,-1.4676057863265135,0.36876281333333333,-0.004599799999999987,-0.17959942666666673,0.55296204,0.41019888434337587,0.7344768901232902,0.6993341884071568,0.7191536480279672
LBP08_S08,LBP08,105,106,8,105,105,1716495747.2,2024-05-23 20:22:27.200000+00:00,2024-05-24 05:22:27.200000+09:00,2024,5,23,20,22,27,200,,,,,,,,,0.409912,-0.110596,1.20166,-33.081055,4.333496,36.987305,,,,,,,,,,,0.0,1.0,1.0,8.0,0.0,0.0,0.0,7.0,0.0,0.013180333333333337,-0.21356440000000002,0.9556184799999999,2.259114546666667,1.551106786666667,-3.1315104533333336,3.049686461663055,-3.399542068921155,9.308630526012191,15.036415223638398,4.959662285587141,-15.044748340571447,21.841164927628455,-1.5076480350755956,21.747054842662326,-1.473252587970146,0.39673166666666665,0.10296840000000002,0.24604152,0.7457415866666667,0.47805327767789807,0.7225611992577369,0.6952532907999575,0.7156594397620243
LBP08_S08,LBP08,106,107,8,106,106,1716495747.24,2024-05-23 20:22:27.240000+00:00,2024-05-24 05:22:27.240000+09:00,2024,5,23,20,22,27,240,,,,,,,,,-0.202393,-0.599365,1.686768,-8.972168,40.039062,57.189941,,,,,,,,,,,0.0,1.0,1.0,8.0,0.0,0.0,0.0,7.0,0.0,0.021181626666666672,-0.21131504,0.9638085866666666,3.8118489200000005,0.24739585333333328,-3.3064778933333336,1.7768302297405745,-3.9903990391951756,10.120381697429307,15.10748843282802,4.800046324019334,-14.639933072674275,21.577865784946063,-1.468560643004206,21.50561678049909,-1.478685405333712,-0.22357462666666666,-0.38804996,0.7229594133333335,1.3345840000000002,0.8504344175022661,0.7286545611143788,0.7027486275669784,0.7175847965868848
LBP08_S08,LBP08,107,108,8,107,107,1716495747.28,2024-05-23 20:22:27.280000+00:00,2024-05-24 05:22:27.280000+09:00,2024,5,23,20,22,27,280,,,,,,,,,-0.04126,-0.330078,1.835693,48.156738,-31.616211,5.859375,,,,,,,,,,,0.0,1.0,1.0,8.0,0.0,0.0,0.0,7.0,0.0,0.026442053333333337,-0.21579421333333335,0.9749023333333332,2.5333658533333336,0.8015950666666669,-2.3860677333333333,-0.3168613690038705,-3.497559913807044,10.135733816525951,15.094813978067865,4.660143927467052,-14.234503720013237,21.264793594395684,-1.4459949036043844,21.22499319596544,-1.4809380089915691,-0.06770205333333333,-0.11428378666666664,0.8607906666666668,1.0427765066666668,0.8709792900757551,0.7228072785893096,0.7116106537057477,0.7197452824106718
LBP08_S08,LBP08,108,109,8,108,108,1716495747.32,2024-05-23 20:22:27.320000+00:00,2024-05-24 05:22:27.320000+09:00,2024,5,23,20,22,27,320,,,,,,,,,0.056396,-0.288574,1.143555,-27.770996,130.554199,32.226562,,,,,,,,,,,0.0,1.0,1.0,8.0,0.0,0.0,0.0,7.0,0.0,0.024137360000000007,-0.2226985066666667,0.9864225200000001,2.8442382400000006,3.0729166800000005,-1.0896810133333337,-3.232197407756931,-1.8824579053851034,9.358311408583903,14.965526081757588,4.584845611251648,-13.86017126366988,20.906748375609258,-1.4601694265934047,20.902723334284808,-1.4809366980007796,0.03225863999999999,-0.06587549333333328,0.15713248000000002,0.2552666133333333,0.1734093905978279,0.7005073469504708,0.7000894639036871,0.7121572839132712
LBP08_S08,LBP08,109,110,8,109,109,1716495747.36,2024-05-23 20:22:27.360000+00:00,2024-05-24 05:22:27.360000+09:00,2024,5,23,20,22,27,360,,,,,,,,,-0.408203,0.004639,-0.062012,-61.096191,16.174316,-15.563965,,,,,,,,,,,0.0,1.0,1.0,8.0,0.0,0.0,0.0,7.0,0.0,0.01519529333333334,-0.22277989333333334,0.9954199199999999,3.7377929333333335,3.1445312533333336,-0.9212239866666668,-6.980159357061932,0.9097589225267374,7.992528514978192,14.68631970747511,4.6212359681527175,-13.540470123070753,20.503368981152633,-1.5010229215026931,20.54570765864169,-1.478542485078161,-0.42339829333333334,0.22741889333333334,-1.05743192,1.7082491066666665,1.161528188757132,0.723873257571492,0.704334737945706,0.7183130497330501
LBP08_S08,LBP08,110,111,8,110,110,1716495747.4,2024-05-23 20:22:27.400000+00:00,2024-05-24 05:22:27.400000+09:00,2024,5,23,20,22,27,400,,,,,,,,,0.054199,-0.285645,0.309326,40.039062,-104.370117,-43.640137,,,,,,,,,,,0.0,1.0,1.0,8.0,0.0,0.0,0.0,7.0,0.0,0.02070962666666667,-0.22178706666666664,0.996875,3.9868163733333337,2.93945312,-0.7893880400000003,-11.49570979941692,4.876520991798995,6.327808871746808,14.226491315498434,4.816296807824678,-13.28735776820088,20.053519555209824,-1.4754477234644636,20.169963605814882,-1.4684803674520972,0.03348937333333332,-0.06385793333333334,-0.687549,0.7848963066666667,0.6913197532089357,0.7233132385389414,0.7159210829765414,0.7179482754556972
LBP08_S08,LBP08,111,112,8,111,111,1716495747.44,2024-05-23 20:22:27.440000+00:00,2024-05-24 05:22:27.440000+09:00,2024,5,23,20,22,27,440,,,,,,,,,0.50415,-0.200439,1.228027,-24.353027,-60.36377,-0.854492,,,,,,,,,,,0.0,1.0,1.0,8.0,0.0,0.0,0.0,7.0,0.0,0.018701160000000005,-0.22147782666666666,0.9814485733333334,3.4252929333333335,5.107421866666667,-0.18554689333333357,-16.518348972604265,9.770891842931194,4.612157593577501,13.565757356594263,5.207132481541925,-13.102871464457781,19.566022640087645,-1.4844658013974292,19.796782616959764,-1.4591405051314734,0.48544884,0.02103882666666665,0.24657842666666663,0.7530660933333333,0.5448890978742962,0.7129843864367885,0.7021339487933215,0.7156408197546118
LBP08_S08,LBP08,112,113,8,112,112,1716495747.48,2024-05-23 20:22:27.480000+00:00,2024-05-24 05:22:27.480000+09:00,2024,5,23,20,22,27,480,,,,,,,,,0.084961,0.158691,1.579346,-18.798828,59.509277,27.526855,,,,,,,,,,,0.0,1.0,1.0,8.0,0.0,0.0,0.0,7.0,0.0,0.01624673333333334,-0.21891272,0.96578776,4.6061197599999995,3.2747395733333335,-1.127115906666667,-21.478209839921444,14.947494368697878,2.993875248522387,12.706628962997405,5.80503225628984,-12.983116454516885,19.07139564823186,-1.494855189232498,19.446605414523898,-1.4590068855324356,0.06871426666666666,0.37760372,0.6135582399999999,1.0598762266666666,0.7237126043349484,0.7054172211140525,0.7021989665335598,0.7166272798488704
LBP08_S08,LBP08,113,114,8,113,113,1716495747.52,2024-05-23 20:22:27.520000+00:00,2024-05-24 05:22:27.520000+09:00,2024,5,23,20,22,27,520,,,,,,,,,-0.353027,-0.770752,2.102539,-5.981445,-12.634277,10.131836,,,,,,,,,,,0.0,1.0,1.0,8.0,0.0,0.0,0.0,7.0,0.0,0.027874333333333338,-0.21932938666666663,0.97387044,5.583496066666666,-0.2180989733333333,-1.57063804,-25.449518790425277,19.393094637836725,1.5567491183982434,11.688648211380393,6.580756041803308,-12.920846489780956,18.624691168006564,-1.441306181218644,19.134376185174705,-1.4604731672691706,-0.3809013333333333,-0.5514226133333333,1.1286685600000002,2.0609925066666666,1.312648255460292,0.7408145517657312,0.7195318067896533,0.7189077775563033
LBP08_S08,LBP08,114,115,8,114,114,1716495747.56,2024-05-23 20:22:27.560000+00:00,2024-05-24 05:22:27.560000+09:00,2024,5,23,20,22,27,560,,,,,,,,,0.220947,-0.231689,1.746826,0.488281,46.447754,31.799316,,,,,,,,,,,0.0,1.0,1.0,8.0,0.0,0.0,0.0,7.0,0.0,0.03529294666666667,-0.21624996000000002,0.9841959600000001,5.231933573333334,-0.05777996000000002,-1.4518229333333337,-27.23161277375309,21.976968123535503,0.4044952328294806,10.59938370043027,7.459834766744729,-12.904666680467777,18.290065382880826,-1.4053328494276531,18.870038374904617,-1.460462766729873,0.18565405333333335,-0.015439039999999987,0.7626300399999999,0.9637231333333333,0.7850543735217448,0.7238175293359096,0.7259978904124974,0.7199962595969341
LBP08_S08,LBP08,115,116,8,115,115,1716495747.6,2024-05-23 20:22:27.600000+00:00,2024-05-24 05:22:27.600000+09:00,2024,5,23,20,22,27,600,,,,,,,,,-0.788574,0.509277,-0.161133,-15.441895,189.208984,4.516602,,,,,,,,,,,0.0,1.0,1.0,8.0,0.0,0.0,0.0,7.0,0.0,0.034541,-0.2241536133333333,0.9981705733333333,3.4155273200000003,1.8465169199999998,0.060221333333333196,-25.587455860820132,21.81250508530811,-0.2836188918539432,9.575885465997464,8.332334970157053,-12.916011436141934,18.109355039077258,-1.4142494118693576,18.66416579980235,-1.4569439869983605,-0.823115,0.7334306133333333,-1.1593035733333332,2.7158491866666665,1.5998198470274534,0.7602470330719755,0.7412330862830389,0.7266168974889163
LBP08_S08,LBP08,116,117,8,116,116,1716495747.64,2024-05-23 20:22:27.640000+00:00,2024-05-24 05:22:27.640000+09:00,2024,5,23,20,22,27,640,,,,,,,,,0.026855,-0.377686,0.230225,-22.094727,-79.345703,-8.361816,,,,,,,,,,,0.0,1.0,1.0,8.0,0.0,0.0,0.0,7.0,0.0,0.022698560000000003,-0.22363929333333332,1.0067773466666667,3.367513,2.5594075333333333,0.33365883999999985,-19.618992004849737,18.555790698019795,-0.2806948533440886,8.791125785803475,9.074566598077844,-12.927239230275697,18.076093760587433,-1.4672244470138285,18.533722508244736,-1.4510821232848348,0.004156439999999997,-0.1540467066666667,-0.7765523466666667,0.9347554933333334,0.791695150257867,0.7696041708211786,0.7411896098899952,0.7251393466535757
LBP08_S08,LBP08,117,118,8,117,117,1716495747.68,2024-05-23 20:22:27.680000+00:00,2024-05-24 05:22:27.680000+09:00,2024,5,23,20,22,27,680,,,,,,,,,0.32373,0.181885,0.773682,-55.603027,-74.157715,-41.625977,,,,,,,,,,,0.0,1.0,1.0,8.0,0.0,0.0,0.0,7.0,0.0,0.024225253333333335,-0.22434892,1.0088541733333334,2.250976546666667,2.31770832,0.4207356533333332,-9.194042684726725,12.516354617232555,0.581734383551568,8.423364078414405,9.575220782767147,-12.903969854933635,18.142501300903742,-1.4606577209717355,18.50059021633163,-1.4408922793248617,0.2995047466666667,0.40623392,-0.2351721733333334,0.9409108400000001,0.5568079041687125,0.7689266551489896,0.7476517171260971,0.7265357289252806
LBP08_S08,LBP08,118,119,8,118,118,1716495747.72,2024-05-23 20:22:27.720000+00:00,2024-05-24 05:22:27.720000+09:00,2024,5,23,20,22,27,720,,,,,,,,,0.340576,-0.728516,1.427002,-35.03418,44.433594,-12.634277,,,,,,,,,,,0.0,1.0,1.0,8.0,0.0,0.0,0.0,7.0,0.0,0.02419270666666667,-0.22295894666666669,0.9911718800000002,1.8245442666666671,4.745279933333333,0.6551106533333333,4.720646705112815,4.577603541706905,2.290827894124418,8.612189946618917,9.758324924435422,-12.812336739168659,18.263370272908354,-1.4600654212004291,18.57971699881928,-1.4327814931745873,0.3163832933333333,-0.5055570533333333,0.4358301199999999,1.2577704666666665,0.7386705733781083,0.7620044891386648,0.741190810601939,0.7300438357649051
LBP08_S08,LBP08,119,120,8,119,119,1716495747.76,2024-05-23 20:22:27.760000+00:00,2024-05-24 05:22:27.760000+09:00,2024,5,23,20,22,27,760,,,,,,,,,-0.261719,-0.54834,1.717773,-24.597168,14.404297,26.245117,,,,,,,,,,,0.0,1.0,1.0,8.0,0.0,0.0,0.0,7.0,0.0,0.022620440000000006,-0.22010738666666663,0.9710742266666667,2.1858724000000005,3.282063786666666,0.13997393333333324,19.984882266581778,-3.9828963902974293,4.589049314926155,9.411585237282189,9.599009068823525,-12.628774766571613,18.444643230129994,-1.4658351241875673,18.76335991054956,-1.433895749685392,-0.28433944,-0.3282326133333334,0.7466987733333333,1.3592708266666667,0.8637966332955043,0.7620796843962482,0.7421257392477243,0.732194526294176
LBP08_S08,LBP08,120,121,8,120,120,1716495747.8,2024-05-23 20:22:27.800000+00:00,2024-05-24 05:22:27.800000+09:00,2024,5,23,20,22,27,800,,,,,,,,,-0.093018,-0.37915,1.657959,20.690918,-39.428711,5.554199,,,,,,,,,,,0.0,1.0,1.0,8.0,0.0,0.0,0.0,7.0,0.0,0.03379882666666667,-0.22327145333333334,0.9762467466666666,2.5642903733333338,-0.5509440266666669,-1.0026041866666668,33.58170861521647,-11.69490230124764,7.010035986844664,10.754853581890847,9.13121297677362,-12.348373327097827,18.749086639633685,-1.4168290863292057,19.013517515908816,-1.435132949565307,-0.12681682666666666,-0.15587854666666665,0.6817122533333334,0.9644076266666667,0.710712477153403,0.7701819785059191,0.741816431013593,0.7296092939923405
LBP08_S08,LBP08,121,122,8,121,121,1716495747.84,2024-05-23 20:22:27.840000+00:00,2024-05-24 05:22:27.840000+09:00,2024,5,23,20,22,27,840,,,,,,,,,-0.156738,-0.536133,0.449951,87.82959,128.173828,55.786133,,,,,,,,,,,0.0,1.0,1.0,8.0,0.0,0.0,0.0,7.0,0.0,0.04107421333333334,-0.22076494666666666,0.9872884133333334,3.4391276133333335,-0.3637695466666669,-0.7202148666666667,42.27722990880615,-17.116447239570075,8.9929162981757,12.445942778243094,8.446555087190816,-11.988656675170798,19.2346997209566,-1.3825673617976968,19.269889148968495,-1.4353542840468005,-0.19781221333333332,-0.3153680533333333,-0.5373374133333334,1.05051768,0.6536957828951063,0.7611314240338121,0.7442888148851161,0.7317552019187971
LBP08_S08,LBP08,122,123,8,122,122,1716495747.88,2024-05-23 20:22:27.880000+00:00,2024-05-24 05:22:27.880000+09:00,2024,5,23,20,22,27,880,,,,,,,,,-0.153564,0.653809,-0.396729,101.013184,-37.719727,-3.356934,,,,,,,,,,,0.0,1.0,1.0,8.0,0.0,0.0,0.0,7.0,0.0,0.03549804000000001,-0.22990557333333336,0.9971712133333334,2.111002613333334,1.1604817599999997,0.2539062266666666,43.488586270652135,-19.110584229261043,10.015889439913913,14.185486229069179,7.682131718020375,-11.588021097574241,19.862663473108327,-1.4137473277297554,19.47064192778565,-1.4308498428148995,-0.18906204000000001,0.8837145733333334,-1.3939002133333334,2.4666768266666668,1.6612205473149522,0.8110998461922913,0.767397479157158,0.7342609434510926
LBP08_S08,LBP08,123,124,8,123,123,1716495747.92,2024-05-23 20:22:27.920000+00:00,2024-05-24 05:22:27.920000+09:00,2024,5,23,20,22,27,920,,,,,,,,,0.501709,-0.219482,0.429443,17.089844,-216.125488,-47.790527,,,,,,,,,,,0.0,1.0,1.0,8.0,0.0,0.0,0.0,7.0,0.0,0.026386720000000006,-0.22749021333333336,1.0016438799999998,3.006998706666667,0.6876627466666665,0.18391925333333328,36.0981793195643,-17.164313629407733,9.699375764097777,15.629413401851751,6.995559172844065,-11.20004606701033,20.46112028530939,-1.4524487463266889,19.57548420471418,-1.4232394291321397,0.47532227999999993,0.008008213333333347,-0.5722008799999998,1.0555313733333331,0.743914812608248,0.822642016492172,0.7703076884234499,0.7339580090976718
LBP08_S08,LBP08,124,125,8,124,124,1716495747.96,2024-05-23 20:22:27.960000+00:00,2024-05-24 05:22:27.960000+09:00,2024,5,23,20,22,27,960,,,,,,,,,0.599365,-0.209961,1.430176,131.04248,-30.029297,9.58252,,,,,,,,,,,0.0,1.0,1.0,8.0,0.0,0.0,0.0,7.0,0.0,0.034127613333333334,-0.22663083999999997,1.0023079333333333,2.1093750133333335,0.009765613333333173,0.32958982666666664,20.937769567197854,-11.633752411692608,7.869369556842419,16.466924184539664,6.530209076376361,-10.885271284736634,20.791641436473395,-1.4177048482268038,19.57842848254389,-1.4137144683678549,0.5652373866666667,0.016669839999999964,0.42786806666666655,1.009775293333333,0.7091137210098669,0.8269491623635089,0.7778206948652222,0.7381329815706218
LBP08_S08,LBP08,125,126,8,125,125,1716495748.0,2024-05-23 20:22:28+00:00,2024-05-24 05:22:28+09:00,2024,5,23,20,22,28,0,20.0,22.0,26.0,40.792095,141.620117,0.142,3.0,15.0,-0.41626,0.079346,1.753906,24.414062,89.84375,69.946289,-541.0,24.0,592.0,245.0,0.0,1019.200012,23.530001,0.061441,-49.391544,3.817969,0.0,1.0,1.0,8.0,0.0,0.0,0.0,5.0,0.0,0.033987640000000006,-0.22390623999999998,0.9854199199999999,0.7991536666666671,3.041178373333333,0.7039387733333332,0.7500731043223828,-3.7486527671528522,4.597297992882769,16.49692710871256,6.380262965690247,-10.701379365021323,20.673071369674076,-1.4164627566842942,19.50209009494958,-1.4053250653031306,-0.45024764,0.30325223999999995,0.7684860800000001,1.5219859599999999,0.9408802865106451,0.8272253471814153,0.7711808699405157,0.7439982830282901
LBP08_S08,LBP08,126,127,8,126,126,1716495748.04,2024-05-23 20:22:28.040000+00:00,2024-05-24 05:22:28.040000+09:00,2024,5,23,20,22,28,40,,,,,,,,,-0.047852,-0.536865,2.11084,-45.898438,-43.151855,-8.239746,,,,,,,,,,,0.0,1.0,1.0,8.0,0.0,0.0,0.0,5.0,0.0,0.03132162666666667,-0.21412109333333337,0.9704687466666667,0.6502278933333338,0.8528645733333334,-0.3833008133333334,-20.413367702299333,4.701625761403143,0.216536716256258,15.680392400620585,6.5683279961463725,-10.692717896371072,20.083621548758934,-1.422180034694816,19.376886876584514,-1.404733129560174,-0.07917362666666666,-0.32274390666666664,1.1403712533333334,1.5422887866666668,1.1878041454208907,0.8560279006642546,0.7784124426517518,0.7499228730839491
LBP08_S08,LBP08,127,128,8,127,127,1716495748.08,2024-05-23 20:22:28.080000+00:00,2024-05-24 05:22:28.080000+09:00,2024,5,23,20,22,28,80,,,,,,,,,0.396973,0.041504,1.355469,-83.862305,162.597656,12.268066,,,,,,,,,,,0.0,1.0,1.0,8.0,0.0,0.0,0.0,5.0,0.0,0.039980480000000006,-0.21720377333333338,0.9745930933333333,-1.1857096133333331,-1.13932292,-0.4777018533333334,-38.21799433354504,11.894502614120057,-4.714069988934298,14.151672627278783,7.044108100711175,-10.881280695928444,19.190924070189048,-1.3845535841441405,19.222073555449377,-1.4042871051305952,0.35699252000000004,0.2587077733333334,0.3808759066666667,0.9965762000000001,0.5826146476001073,0.8233421330855261,0.7762303215431572,0.7459600222039536
LBP08_S08,LBP08,128,129,8,128,128,1716495748.12,2024-05-23 20:22:28.120000+00:00,2024-05-24 05:22:28.120000+09:00,2024,5,23,20,22,28,120,,,,,,,,,-0.610352,0.15332,-0.263916,-212.219238,31.738281,-49.987793,,,,,,,,,,,0.0,1.0,1.0,8.0,0.0,0.0,0.0,5.0,0.0,0.04463868000000001,-0.2186425733333333,0.9822493466666666,-2.1818033599999995,-0.8284505199999999,-0.43782556,-49.1915756780458,16.480304855805873,-9.52145867599544,12.184009600156951,7.70332029494341,-11.262139042968261,18.29281305120549,-1.3648158135575807,19.04484039890969,-1.4014671676700339,-0.65499068,0.3719625733333333,-1.2461653466666667,2.2731186,1.456123970711447,0.8479639213082715,0.7921549777015308,0.7611949231005005
LBP08_S08,LBP08,129,130,8,129,129,1716495748.16,2024-05-23 20:22:28.160000+00:00,2024-05-24 05:22:28.160000+09:00,2024,5,23,20,22,28,160,,,,,,,,,0.282471,-0.533691,0.413818,-38.391113,-94.238281,-47.790527,,,,,,,,,,,0.0,1.0,1.0,8.0,0.0,0.0,0.0,5.0,0.0,0.0410612,-0.21993162666666669,0.9847916666666666,-2.859700493333333,0.6103515600000001,0.4191080399999999,-51.613172454855636,17.863790140526213,-13.576193372531323,10.119482701962726,8.417871900564458,-11.805186777869514,17.68125935418687,-1.381941093540323,18.85450356901182,-1.394784299390896,0.24140980000000004,-0.31375937333333337,-0.5709736666666666,1.12614284,0.6947910217593084,0.8593476068049086,0.7969122484640995,0.7526719945397408
LBP08_S08,LBP08,130,131,8,130,130,1716495748.2,2024-05-23 20:22:28.200000+00:00,2024-05-24 05:22:28.200000+09:00,2024,5,23,20,22,28,200,,,,,,,,,0.405762,-0.059082,1.240479,-12.023926,3.78418,-7.141113,,,,,,,,,,,0.0,1.0,1.0,8.0,0.0,0.0,0.0,5.0,0.0,0.03527994666666667,-0.22420246666666666,0.98702148,-2.955729146666666,-0.37272136,0.3002929333333333,-45.85388918216345,16.202590539707554,-16.427264293670998,8.285327134676187,9.06597552215276,-12.462277349616354,17.497054455983022,-1.410909728899641,18.67471875020128,-1.3901474237380143,0.37048205333333334,0.16512046666666666,0.2534575200000001,0.7890600400000001,0.4782911611130307,0.859357122142314,0.7909591607000255,0.7499545679140762
LBP08_S08,LBP08,131,132,8,131,131,1716495748.24,2024-05-23 20:22:28.240000+00:00,2024-05-24 05:22:28.240000+09:00,2024,5,23,20,22,28,240,,,,,,,,,-0.179688,-0.357666,1.627686,-15.808105,61.645508,17.578125,,,,,,,,,,,0.0,1.0,1.0,8.0,0.0,0.0,0.0,5.0,0.0,0.042714840000000004,-0.22431965333333334,0.9851790266666668,-3.07291664,-0.10009766666666667,0.31168615999999993,-34.096073256587275,12.21160526539567,-17.85577539097802,6.921484204412696,9.554439732768587,-13.176508365255474,17.68656650960522,-1.3781071175019088,18.54190920175174,-1.38520707578802,-0.22240284,-0.13334634666666664,0.6425069733333332,0.9982561599999998,0.6928632492717253,0.8530542754130923,0.7908544182637356,0.7528505101823498
LBP08_S08,LBP08,132,133,8,132,132,1716495748.28,2024-05-23 20:22:28.280000+00:00,2024-05-24 05:22:28.280000+09:00,2024,5,23,20,22,28,280,,,,,,,,,-0.236328,-0.338135,1.810059,58.288574,-60.913086,-29.968262,,,,,,,,,,,0.0,1.0,1.0,8.0,0.0,0.0,0.0,5.0,0.0,0.04033202666666667,-0.22051757333333333,0.9705468666666667,-3.5066731599999996,2.1142578,0.4134114266666666,-19.593151341083257,6.911479097641063,-17.845714360035714,6.137758150769366,9.83089889667423,-13.890336939656903,18.090331907711462,-1.385547953124142,18.49102740466801,-1.381059595529531,-0.27666002666666667,-0.11761742666666669,0.8395121333333334,1.2337895866666668,0.8917147814322549,0.8538836950673524,0.788345486828331,0.7590350008262825
LBP08_S08,LBP08,133,134,8,133,133,1716495748.32,2024-05-23 20:22:28.320000+00:00,2024-05-24 05:22:28.320000+09:00,2024,5,23,20,22,28,320,,,,,,,,,0.373535,-0.591309,1.330566,-66.833496,58.227539,12.145996,,,,,,,,,,,0.0,1.0,1.0,8.0,0.0,0.0,0.0,5.0,0.0,0.04053710666666668,-0.22187173333333335,0.9633691333333335,-4.034830706666667,-1.1295573066666669,-0.8430989866666668,-5.7587199190531075,1.40529886449672,-16.521826561202268,5.907409354007242,9.887110851254098,-14.551210002104995,18.55775198633065,-1.3856200635353122,18.537797779437028,-1.3810766312867138,0.33299789333333335,-0.36943726666666665,0.3671968666666664,1.0696320266666666,0.6182273286230506,0.8716764125883613,0.786091879769416,0.7572851134652452
LBP08_S08,LBP08,134,135,8,134,134,1716495748.36,2024-05-23 20:22:28.360000+00:00,2024-05-24 05:22:28.360000+09:00,2024,5,23,20,22,28,360,,,,,,,,,-0.540283,-0.147705,-0.118408,36.315918,86.669922,1.342773,,,,,,,,,,,0.0,1.0,1.0,8.0,0.0,0.0,0.0,5.0,0.0,0.04310872,-0.2184244666666667,0.9655045466666666,-3.71012368,-1.6389974133333336,-1.29882816,4.643510716947121,-3.31070870230893,-14.111828580634569,6.093149782685127,9.75468250316174,-15.115683145330378,18.993793248368018,-1.3713360916979838,18.66801207108803,-1.3809519103287615,-0.58339172,0.0707194666666667,-1.0839125466666666,1.7380237333333333,1.2329694038181138,0.8745340611908006,0.7992036593811462,0.7610678456940708
LBP08_S08,LBP08,135,136,8,135,135,1716495748.4,2024-05-23 20:22:28.400000+00:00,2024-05-24 05:22:28.400000+09:00,2024,5,23,20,22,28,400,,,,,,,,,-0.087158,-0.041504,0.166504,59.326172,-78.430176,-52.67334,,,,,,,,,,,0.0,1.0,1.0,8.0,0.0,0.0,0.0,5.0,0.0,0.044195960000000006,-0.21910806666666663,0.96723632,-4.989420559999999,-1.2931315333333337,-1.3867187866666668,10.034569333559332,-6.528054094309489,-10.953529352108964,6.4945325560275,9.493560339389362,-15.553824319414737,19.34497588517869,-1.3670592771843506,18.841352758205215,-1.380496616925917,-0.13135396,0.17760406666666662,-0.80073232,1.1096903466666665,0.8306439162461866,0.8801070277122904,0.801710133125616,0.7706497312217913
LBP08_S08,LBP08,136,137,8,136,136,1716495748.44,2024-05-23 20:22:28.440000+00:00,2024-05-24 05:22:28.440000+09:00,2024,5,23,20,22,28,440,,,,,,,,,0.433838,0.130371,0.644043,27.526855,-120.849609,-62.866211,,,,,,,,,,,0.0,1.0,1.0,8.0,0.0,0.0,0.0,5.0,0.0,0.04154621333333334,-0.22127604,0.9689485466666667,-4.3448893066666665,-0.531412786666667,-1.3525390933333334,10.204571183054382,-7.989927006670104,-7.515853699892374,6.902715403349675,9.173963259122557,-15.854458467410431,19.57480357792164,-1.3807052321099285,19.009209769983695,-1.3745955444458435,0.39229178666666664,0.35164704,-0.3249055466666667,1.0688443733333335,0.6189605002596309,0.8830698838077039,0.7980271351222463,0.762445927131449
LBP08_S08,LBP08,137,138,8,137,137,1716495748.48,2024-05-23 20:22:28.480000+00:00,2024-05-24 05:22:28.480000+09:00,2024,5,23,20,22,28,480,,,,,,,,,0.460205,-0.324463,1.039307,-34.301758,-5.79834,7.69043,,,,,,,,,,,0.0,1.0,1.0,8.0,0.0,0.0,0.0,5.0,0.0,0.041230466666666674,-0.22460612000000002,0.9705012800000001,-4.996744773333333,-1.5690104533333336,-1.2866211333333335,6.1493380173529015,-7.964021453563958,-4.3720397420173684,7.148688924043792,8.85540240098,-16.029340057091126,19.658627817879225,-1.3847239417159662,19.134995887119935,-1.3708737364635488,0.4189745333333333,-0.09985687999999998,0.06880571999999985,0.5876371333333331,0.43617116269870154,0.871568226142254,0.7884927236281533,0.7586553864031246
LBP08_S08,LBP08,138,139,8,138,138,1716495748.52,2024-05-23 20:22:28.520000+00:00,2024-05-24 05:22:28.520000+09:00,2024,5,23,20,22,28,520,,,,,,,,,-0.193115,-0.241699,1.469238,-30.334473,72.998047,50.354004,,,,,,,,,,,0.0,1.0,1.0,8.0,0.0,0.0,0.0,5.0,0.0,0.04570312000000001,-0.2228287733333333,0.96686848,-4.834798159999999,-1.1857096800000002,-1.1002604666666667,-0.361447666159473,-7.133526066696254,-2.083994066865129,7.134231017397413,8.570061358312149,-16.11269981976573,19.594955967715492,-1.3635686039780583,19.203524287161283,-1.3658809251645243,-0.23881812000000002,-0.018870226666666684,0.50236952,0.7600578666666667,0.5565656425973635,0.8413249216277369,0.7910697366967341,0.7601295117356812
LBP08_S08,LBP08,139,140,8,139,139,1716495748.56,2024-05-23 20:22:28.560000+00:00,2024-05-24 05:22:28.560000+09:00,2024,5,23,20,22,28,560,,,,,,,,,-0.152588,-0.663818,1.675293,-22.155762,-42.663574,3.662109,,,,,,,,,,,0.0,1.0,1.0,8.0,0.0,0.0,0.0,5.0,0.0,0.04176757333333334,-0.21852864000000002,0.9577962133333333,-5.328776026666666,-0.23193363999999975,-0.9033203733333335,-7.334689408701851,-6.301521196426966,-1.0257547010950372,6.840843441049339,8.31800051045507,-16.153730007809532,19.414666225358722,-1.377388159511879,19.21756588337916,-1.3617393155064739,-0.19435557333333334,-0.44528935999999997,0.7174967866666666,1.35714172,0.86652082600012,0.8445835797268719,0.7842005545313908,0.7655264535172889
LBP08_S08,LBP08,140,141,8,140,140,1716495748.6,2024-05-23 20:22:28.600000+00:00,2024-05-24 05:22:28.600000+09:00,2024,5,23,20,22,28,600,,,,,,,,,0.150635,-0.269531,1.231934,-18.005371,71.716309,23.010254,,,,,,,,,,,0.0,1.0,1.0,8.0,0.0,0.0,0.0,5.0,0.0,0.04821288000000001,-0.22218749333333335,0.9587174399999999,-6.153157533333333,-2.2355143600000003,-1.6430664666666666,-13.049999039871109,-6.033755002663054,-1.2373857902029581,6.318843479454494,8.076650310348548,-16.20322543941765,19.175624573767845,-1.3518990040989047,19.189544981956708,-1.3589553371751086,0.10242211999999998,-0.047343506666666674,0.27321656000000016,0.4229821866666668,0.2955993689895579,0.7924147606053562,0.7763308968386657,0.758293644390478
LBP08_S08,LBP08,141,142,8,141,141,1716495748.64,2024-05-23 20:22:28.640000+00:00,2024-05-24 05:22:28.640000+09:00,2024,5,23,20,22,28,640,,,,,,,,,-0.623291,-0.077393,-0.14502,-39.428711,86.547852,7.568359,,,,,,,,,,,0.0,1.0,1.0,8.0,0.0,0.0,0.0,5.0,0.0,0.050716133333333344,-0.22211587999999996,0.9593033866666665,-4.654134093333333,-2.3673503066666663,-2.11914068,-16.37475271163291,-6.425605405330537,-2.4006158066386116,5.663853370989178,7.819626094135327,-16.299250071683193,18.944427680967618,-1.3408890376789626,19.1354341781798,-1.3560476754715833,-0.6740071333333334,0.14472287999999994,-1.1043233866666664,1.9230533999999997,1.3018296624822496,0.8128201410943315,0.7912121559577551,0.765066453624774
LBP08_S08,LBP08,142,143,8,142,142,1716495748.68,2024-05-23 20:22:28.680000+00:00,2024-05-24 05:22:28.680000+09:00,2024,5,23,20,22,28,680,,,,,,,,,0.004639,-0.050537,0.164551,17.028809,-65.734863,-39.367676,,,,,,,,,,,0.0,1.0,1.0,8.0,0.0,0.0,0.0,5.0,0.0,0.050716133333333344,-0.21669596,0.9588411466666665,-4.8339843600000005,-1.9303385866666665,-2.4080404133333335,-16.857684548141666,-7.124052261981619,-3.9621084536413367,4.989545989063511,7.5346640036560615,-16.45773440982885,18.775615908124948,-1.335619840133897,19.07229778391154,-1.3525499534684022,-0.046077133333333346,0.16615896,-0.7942901466666665,1.00652624,0.8127907106360492,0.8230594533530248,0.7959930542510072,0.7727876292017397
LBP08_S08,LBP08,143,144,8,143,143,1716495748.72,2024-05-23 20:22:28.720000+00:00,2024-05-24 05:22:28.720000+09:00,2024,5,23,20,22,28,720,,,,,,,,,0.380859,-0.045898,0.544922,19.714355,-132.995605,-54.748535,,,,,,,,,,,0.0,1.0,1.0,8.0,0.0,0.0,0.0,5.0,0.0,0.04995116000000001,-0.22208006666666666,0.9600390666666667,-5.093587226666667,-1.8986003066666663,-2.6163737466666666,-14.64142703965209,-7.595890848006022,-5.346730963785027,4.403888907477427,7.23082836973582,-16.67160364838025,18.69816794850941,-1.344203966954808,19.017277061266068,-1.3471992370053247,0.33090784,0.17618206666666666,-0.4151170666666667,0.9222069733333333,0.5593409498922292,0.8158862684135897,0.7889453787761272,0.7660892965391559
LBP08_S08,LBP08,144,145,8,144,144,1716495748.76,2024-05-23 20:22:28.760000+00:00,2024-05-24 05:22:28.760000+09:00,2024,5,23,20,22,28,760,,,,,,,,,0.544678,-0.443848,1.000732,-46.264648,-56.45752,-8.605957,,,,,,,,,,,0.0,1.0,1.0,8.0,0.0,0.0,0.0,5.0,0.0,0.049635413333333336,-0.21986653333333336,0.9592513066666667,-4.592285146666667,-2.1036784266666664,-3.15511072,-10.280222690108362,-7.481042297653666,-6.153350218195252,3.992679999873092,6.9315866778296735,-16.91773765710806,18.713584234143507,-1.34349630838433,18.985805102870444,-1.3429763135567503,0.4950425866666667,-0.22398146666666666,0.04148069333333326,0.7605047466666666,0.5449362420900168,0.8031318527653702,0.7826057685808092,0.7624611104202729
LBP08_S08,LBP08,145,146,8,145,145,1716495748.8,2024-05-23 20:22:28.800000+00:00,2024-05-24 05:22:28.800000+09:00,2024,5,23,20,22,28,800,,,,,,,,,0.072021,-0.19873,1.406006,19.226074,57.189941,19.775391,,,,,,,,,,,0.0,1.0,1.0,8.0,0.0,0.0,0.0,5.0,0.0,0.051129560000000004,-0.22099609333333334,0.95673504,-4.556477853333334,-1.598307333333333,-3.06233728,-4.54886140785501,-6.806241788259475,-6.23968345246335,3.810725543558892,6.659337006299294,-17.16732499520659,18.8038678474096,-1.3379826601491005,18.988837763223774,-1.3376561409770802,0.020891439999999997,0.022266093333333348,0.4492709600000001,0.49242849333333344,0.450307258077109,0.7927156440023184,0.7814488112541188,0.7587828353431681
LBP08_S08,LBP08,146,147,8,146,146,1716495748.84,2024-05-23 20:22:28.840000+00:00,2024-05-24 05:22:28.840000+09:00,2024,5,23,20,22,28,840,,,,,,,,,-0.192139,-0.485352,1.652344,9.58252,-18.554688,4.02832,,,,,,,,,,,0.0,1.0,1.0,8.0,0.0,0.0,0.0,5.0,0.0,0.049287120000000004,-0.22068034666666667,0.9528483200000001,-3.950195306666667,-1.1743164399999997,-2.901204466666667,1.7071421402992746,-5.925504935130253,-5.673909028759706,3.879011229170863,6.4223168088940845,-17.39428135635698,18.943439635239034,-1.3457280120781145,19.03048059532797,-1.3354125377191808,-0.24142612000000002,-0.2646716533333333,0.69949568,1.2055934533333335,0.7858955794729455,0.798003635865432,0.779567529949622,0.762193755211888
LBP08_S08,LBP08,147,148,8,147,147,1716495748.88,2024-05-23 20:22:28.880000+00:00,2024-05-24 05:22:28.880000+09:00,2024,5,23,20,22,28,880,,,,,,,,,0.250977,-0.278809,1.532227,-27.099609,34.851074,18.981934,,,,,,,,,,,0.0,1.0,1.0,8.0,0.0,0.0,0.0,5.0,0.0,0.05236654666666667,-0.21965821333333332,0.9539225466666666,-3.06477864,-1.727701853333333,-3.262532586666667,7.6732059690423755,-5.240436377760127,-4.611405664012908,4.185939467932558,6.212699353783679,-17.578737582917498,19.108420591424498,-1.331216777085192,19.10746789826688,-1.334574817987589,0.19861045333333333,-0.05915078666666665,0.5783044533333334,0.8360656933333334,0.6143134122593477,0.7561273504632079,0.7836135983277495,0.7636407695925079
LBP08_S08,LBP08,148,149,8,148,148,1716495748.92,2024-05-23 20:22:28.920000+00:00,2024-05-24 05:22:28.920000+09:00,2024,5,23,20,22,28,920,,,,,,,,,-0.229492,-0.307373,0.390137,-2.990723,147.827148,33.081055,,,,,,,,,,,0.0,1.0,1.0,8.0,0.0,0.0,0.0,5.0,0.0,0.05403646666666667,-0.21717448,0.9547916933333335,-2.90852864,-1.6959635733333331,-3.4000651333333334,12.639115758115071,-4.896358586551444,-3.1903458020380864,4.691504098257161,6.016845010321622,-17.70635141499902,19.28023638375924,-1.321339369492315,19.210907036964514,-1.3350091046305146,-0.28352846666666665,-0.09019852,-0.5646546933333334,0.93838168,0.6382468857142213,0.7519006333874468,0.7872713249398093,0.7641720034114488
LBP08_S08,LBP08,149,150,8,149,149,1716495748.96,2024-05-23 20:22:28.960000+00:00,2024-05-24 05:22:28.960000+09:00,2024,5,23,20,22,28,960,,,,,,,,,-0.013428,-0.013672,0.082031,29.907227,-52.734375,-35.949707,,,,,,,,,,,0.0,1.0,1.0,8.0,0.0,0.0,0.0,5.0,0.0,0.05370118666666668,-0.21851562666666666,0.9528971733333335,-3.0118815066666667,-1.5030924799999996,-3.780110706666667,16.068246565938253,-4.6608349245752905,-1.5117861577594953,5.334233960894691,5.83041161333861,-17.7668228613094,19.44499282889203,-1.324186433715178,19.32946497489744,-1.3324817672691058,-0.06712918666666667,0.20484362666666667,-0.8708661733333335,1.1428389866666668,0.8971483327436576,0.7594220178567984,0.7931855901101537,0.771687802529081
LBP08_S08,LBP08,150,151,8,150,150,1716495749.0,2024-05-23 20:22:29+00:00,2024-05-24 05:22:29+09:00,2024,5,23,20,22,29,0,20.0,22.0,27.0,40.792187,141.620117,1.214,3.0,15.0,0.270508,-0.069092,0.471191,71.533203,-119.812012,-50.109863,-546.0,32.0,593.0,414.0,0.0,1019.5,23.58,0.064414,-51.875576,3.817969,0.0,1.0,1.0,8.0,0.0,0.0,0.0,4.0,0.0,0.05405274666666667,-0.22531249333333336,0.9521419600000002,-2.976074213333333,-1.3574219066666662,-3.86637372,17.667003906548267,-4.072404350720397,0.2989952242347143,6.040914117156622,5.667515439309794,-17.75486305234001,19.59205289480981,-1.3294629715199107,19.452493757196024,-1.3293870364374565,0.21645525333333335,0.15622049333333338,-0.48095096000000015,0.8536267066666668,0.5500650372072645,0.7437894078846632,0.7855073775330392,0.7620503825885648
LBP08_S08,LBP08,151,152,8,151,151,1716495749.04,2024-05-23 20:22:29.040000+00:00,2024-05-24 05:22:29.040000+09:00,2024,5,23,20,22,29,40,,,,,,,,,0.453369,-0.087158,0.928467,7.385254,-61.706543,-27.526855,,,,,,,,,,,0.0,1.0,1.0,8.0,0.0,0.0,0.0,4.0,0.0,0.05290040000000001,-0.22339191999999997,0.9491178666666668,-3.1193033866666666,-1.555175813333333,-4.082031266666666,17.427794536916487,-2.766113031273518,2.019052065576258,6.738025898633282,5.556870918058853,-17.67410096971696,19.71430071035671,-1.3325118403630427,19.571833368381068,-1.3273990172383523,0.4004686,0.13623391999999995,-0.020650866666666712,0.5573533866666667,0.4235106124273757,0.7132176665649226,0.7846227836145886,0.7566808506228088
LBP08_S08,LBP08,152,153,8,152,152,1716495749.08,2024-05-23 20:22:29.080000+00:00,2024-05-24 05:22:29.080000+09:00,2024,5,23,20,22,29,80,,,,,,,,,0.175049,-0.432129,1.483887,-18.432617,31.494141,51.330566,,,,,,,,,,,0.0,1.0,1.0,8.0,0.0,0.0,0.0,4.0,0.0,0.05196941333333334,-0.22703776,0.9479427333333332,-3.2674153599999998,-2.436523466666667,-4.41569012,15.609435460838396,-0.7563923661406409,3.3266337578617393,7.362403317066818,5.526615223413227,-17.54103561940249,19.810007295101286,-1.3399627065631547,19.682000894554065,-1.3231091926639154,0.12307958666666667,-0.20509123999999998,0.5359442666666667,0.8641150933333334,0.5868962926715812,0.7133889323677817,0.7683655327266539,0.7552831918180319
LBP08_S08,LBP08,153,154,8,153,153,1716495749.12,2024-05-23 20:22:29.120000+00:00,2024-05-24 05:22:29.120000+09:00,2024,5,23,20,22,29,120,,,,,,,,,-0.27832,-0.441895,1.686035,9.277344,-11.535645,14.404297,,,,,,,,,,,0.0,1.0,1.0,8.0,0.0,0.0,0.0,4.0,0.0,0.05909180000000001,-0.23611002666666664,0.9540006800000002,-2.9109700399999996,-2.9597981999999994,-4.0128580933333335,12.650379724300974,1.5116848724791052,3.90255799810514,7.868418506038857,5.587082618312391,-17.384933299478284,19.883747327838687,-1.3189305933407205,19.779424085527417,-1.318059608383906,-0.33741180000000004,-0.20578497333333334,0.7320343199999998,1.2752310933333333,0.8319064993657056,0.6884202335139519,0.7681920774111116,0.7575767296390045
LBP08_S08,LBP08,154,155,8,154,154,1716495749.16,2024-05-23 20:22:29.160000+00:00,2024-05-24 05:22:29.160000+09:00,2024,5,23,20,22,29,160,,,,,,,,,0.219971,-0.257812,1.571045,14.648438,37.902832,27.46582,,,,,,,,,,,0.0,1.0,1.0,8.0,0.0,0.0,0.0,4.0,0.0,0.058821626666666675,-0.22858397333333333,0.9516439066666668,-2.110188786666667,-2.730306013333333,-4.468587266666667,9.053592041916136,3.367853136789064,3.580323664088283,8.230562187715503,5.721796743783954,-17.241720352914754,19.943872057129322,-1.3125490000678357,19.86162403639408,-1.3150469965057365,0.16114937333333332,-0.029228026666666657,0.6194010933333333,0.8097784933333332,0.6406879993343734,0.6862561126169544,0.7728018597109316,0.7600268698483845
LBP08_S08,LBP08,155,156,8,155,155,1716495749.2,2024-05-23 20:22:29.200000+00:00,2024-05-24 05:22:29.200000+09:00,2024,5,23,20,22,29,200,,,,,,,,,-0.269043,-0.155273,0.366943,-1.342773,158.081055,30.456543,,,,,,,,,,,0.0,1.0,1.0,8.0,0.0,0.0,0.0,4.0,0.0,0.05829104000000001,-0.23198241333333333,0.9470573200000001,-1.7773437333333333,-3.6515299733333326,-4.49055992,5.292834205314949,4.237293048986055,2.4469945598027767,8.4422755559281,5.891288465743396,-17.14384057052264,19.997263959260035,-1.318102468158058,19.926838292218395,-1.310026721668508,-0.32733404,0.07670941333333334,-0.5801143200000001,0.9841577733333334,0.6704957360831821,0.6939442956157604,0.7766507088790372,0.7586208723386039
LBP08_S08,LBP08,156,157,8,156,156,1716495749.24,2024-05-23 20:22:29.240000+00:00,2024-05-24 05:22:29.240000+09:00,2024,5,23,20,22,29,240,,,,,,,,,0.023682,0.051025,0.149658,18.188477,-47.546387,-26.367188,,,,,,,,,,,0.0,1.0,1.0,8.0,0.0,0.0,0.0,4.0,0.0,0.06065432000000001,-0.22674152000000003,0.94238284,-2.0361327866666667,-4.790852893333333,-4.5361328400000005,1.763472436836383,3.8763948681231355,0.8253817985485798,8.512814453401555,6.046344260468322,-17.1108252985807,20.045114896969036,-1.3028297663337474,19.974032595086335,-1.3057600549545518,-0.03697232000000001,0.27776652,-0.79272484,1.10746368,0.8407935918119965,0.6998615093173715,0.7764578923652319,0.7605234486149474
LBP08_S08,LBP08,157,158,8,157,157,1716495749.28,2024-05-23 20:22:29.280000+00:00,2024-05-24 05:22:29.280000+09:00,2024,5,23,20,22,29,280,,,,,,,,,0.281494,-0.173828,0.567627,-11.901855,-111.999512,-53.100586,,,,,,,,,,,0.0,1.0,1.0,8.0,0.0,0.0,0.0,4.0,0.0,0.06512697333333332,-0.22378578666666665,0.9365983466666665,-1.4884439866666666,-4.027506546666666,-4.5922851866666665,-1.231768357783331,2.3988313580471443,-0.8562014752154259,8.463543719090222,6.142297514790208,-17.145073357589318,20.082652501158023,-1.2807209342850971,20.00295624546387,-1.3031063196387798,0.21636702666666668,0.04995778666666664,-0.36897134666666653,0.6352961599999999,0.430639437741389,0.6814184955697367,0.7676510953185445,0.7527031564087996
LBP08_S08,LBP08,158,159,8,158,158,1716495749.32,2024-05-23 20:22:29.320000+00:00,2024-05-24 05:22:29.320000+09:00,2024,5,23,20,22,29,320,,,,,,,,,0.476318,-0.209717,1.097168,21.179199,-26.123047,-13.977051,,,,,,,,,,,0.0,1.0,1.0,8.0,0.0,0.0,0.0,4.0,0.0,0.06313478666666668,-0.22570635999999997,0.9349219200000001,-1.2752278400000001,-3.615722693333333,-4.751790386666667,-3.4858305789597597,0.1226906845700045,-2.2305534768386632,8.324110495931832,6.147205142173008,-17.234295496662863,20.102235892425863,-1.2912132507106207,20.013936817544735,-1.302070999795323,0.41318321333333335,0.01598935999999998,0.16224607999999985,0.5914186533333332,0.44418444129554424,0.6744567800766365,0.773066596332499,0.7488801798718229
LBP08_S08,LBP08,159,160,8,159,159,1716495749.36,2024-05-23 20:22:29.360000+00:00,2024-05-24 05:22:29.360000+09:00,2024,5,23,20,22,29,360,,,,,,,,,-0.135986,-0.436768,1.525146,-27.404785,54.321289,30.090332,,,,,,,,,,,0.0,1.0,1.0,8.0,0.0,0.0,0.0,4.0,0.0,0.06629558666666668,-0.22208982666666666,0.9477279066666667,-2.202962213333333,-5.198567746666667,-5.257161480000001,-4.8977984209940635,-2.611573125996262,-3.1014999291157213,8.12819855909207,6.042742217133157,-17.358355493827492,20.09713538713517,-1.273983685342892,20.007414052588576,-1.2983684416585894,-0.20228158666666668,-0.21467817333333333,0.5774180933333332,0.9943778533333332,0.6483951055635929,0.6510738081464557,0.7628039346686282,0.7498270423029161
LBP08_S08,LBP08,160,161,8,160,160,1716495749.4,2024-05-23 20:22:29.400000+00:00,2024-05-24 05:22:29.400000+09:00,2024,5,23,20,22,29,400,,,,,,,,,-0.236816,-0.421387,1.697266,2.197266,-22.460938,1.953125,,,,,,,,,,,0.0,1.0,1.0,8.0,0.0,0.0,0.0,4.0,0.0,0.06639649333333333,-0.23356443999999996,0.9587207466666666,-3.3113606533333333,-2.871093786666666,-4.705403666666667,-5.494482830273551,-5.517576412646516,-3.451601684133324,7.908419245881127,5.8220391606272965,-17.496419561192827,20.063995923489212,-1.2867963043803488,19.98355449812201,-1.2922854932298318,-0.30321249333333333,-0.18782256000000006,0.7385452533333333,1.2295803066666666,0.8201610947731962,0.650654495287536,0.7653807614999133,0.751358253846256
LBP08_S08,LBP08,161,162,8,161,161,1716495749.44,2024-05-23 20:22:29.440000+00:00,2024-05-24 05:22:29.440000+09:00,2024,5,23,20,22,29,440,,,,,,,,,0.185303,-0.405029,1.653564,-9.765625,-21.972656,6.103516,,,,,,,,,,,0.0,1.0,1.0,8.0,0.0,0.0,0.0,4.0,0.0,0.05997397333333333,-0.22688476,0.9527832533333332,-3.3935546666666663,-1.236979213333333,-4.447428413333333,-5.450974997184283,-8.318807624439325,-3.3752317047470384,7.690380245993756,5.489286855649723,-17.63142882938271,20.003537214132095,-1.305974487205322,19.942368385130983,-1.2890072731148625,0.12532902666666668,-0.17814423999999998,0.7007807466666668,1.0042540133333335,0.7338503867063658,0.6552500907454055,0.7691599872765547,0.7504347869966326
LBP08_S08,LBP08,162,163,8,162,162,1716495749.48,2024-05-23 20:22:29.480000+00:00,2024-05-24 05:22:29.480000+09:00,2024,5,23,20,22,29,480,,,,,,,,,-0.076904,-0.155762,0.603516,-22.338867,149.047852,33.38623,,,,,,,,,,,0.0,1.0,1.0,8.0,0.0,0.0,0.0,4.0,0.0,0.05387372000000001,-0.2248762933333333,0.9364128133333335,-5.837402320000001,-2.884114626666666,-5.243326853333333,-5.089628236925687,-10.675557309855611,-3.005000610895141,7.486795116516729,5.062264563255499,-17.751628853818517,19.919813015909895,-1.3296095081285875,19.88446613733393,-1.2834706494993653,-0.13077772000000001,0.0691142933333333,-0.33289681333333343,0.5327888266666667,0.36427995541733105,0.6523744424541507,0.7619713342982023,0.7431199632368191
LBP08_S08,LBP08,163,164,8,163,163,1716495749.52,2024-05-23 20:22:29.520000+00:00,2024-05-24 05:22:29.520000+09:00,2024,5,23,20,22,29,520,,,,,,,,,-0.019043,0.144531,-0.017822,12.756348,-58.71582,-34.606934,,,,,,,,,,,0.0,1.0,1.0,8.0,0.0,0.0,0.0,4.0,0.0,0.06657229333333335,-0.23023762666666664,0.9246387333333335,-5.60709632,-5.32470708,-6.66015628,-4.8403035553215545,-12.194476733222924,-2.483638499070116,7.293182974303867,4.574485493926582,-17.85097439378132,19.818519678277106,-1.2819050119733855,19.81216235134203,-1.2814835837909944,-0.08561529333333336,0.37476862666666666,-0.9424607333333335,1.4028446533333334,1.0178475995262635,0.6708257207313066,0.7560753211795217,0.7509883980415916
LBP08_S08,LBP08,164,165,8,164,164,1716495749.56,2024-05-23 20:22:29.560000+00:00,2024-05-24 05:22:29.560000+09:00,2024,5,23,20,22,29,560,,,,,,,,,0.169434,-0.110107,0.245117,-24.536133,-123.596191,-43.273926,,,,,,,,,,,0.0,1.0,1.0,8.0,0.0,0.0,0.0,4.0,0.0,0.07231774666666668,-0.22472981333333336,0.91320644,-5.481770786666667,-4.576822973333333,-5.997721386666667,-5.158001172981382,-12.565684898811242,-1.9821709996066952,7.086862927384612,4.071858097974133,-17.930261233765588,19.705276512463684,-1.2517195157802583,19.7303880121541,-1.2814194307949465,0.09711625333333332,0.11462281333333336,-0.6680894399999999,0.8798285066666667,0.6847725577426901,0.6635557900010095,0.7540696848639407,0.7439856330212636
LBP08_S08,LBP08,165,166,8,165,165,1716495749.6,2024-05-23 20:22:29.600000+00:00,2024-05-24 05:22:29.600000+09:00,2024,5,23,20,22,29,600,,,,,,,,,0.437988,-0.137939,0.892334,12.756348,-68.054199,-26.489258,,,,,,,,,,,0.0,1.0,1.0,8.0,0.0,0.0,0.0,4.0,0.0,0.06533206666666667,-0.22885741333333334,0.9164323466666665,-4.398600213333333,-6.58854172,-5.884602893333334,-6.411451032259008,-11.757838969203073,-1.71739201975567,6.830404886094252,3.6015445392060097,-17.998956914555816,19.585402829349757,-1.2853202670083665,19.64693712406102,-1.2799257381935951,0.3726559333333333,0.09091841333333334,-0.024098346666666548,0.4876726933333332,0.38434272836058114,0.6671055243758504,0.7297601424906033,0.7399224393510606
LBP08_S08,LBP08,166,167,8,166,166,1716495749.64,2024-05-23 20:22:29.640000+00:00,2024-05-24 05:22:29.640000+09:00,2024,5,23,20,22,29,640,,,,,,,,,0.272705,-0.249023,1.323975,-5.432129,48.76709,41.381836,,,,,,,,,,,0.0,1.0,1.0,8.0,0.0,0.0,0.0,4.0,0.0,0.07673832,-0.23526691999999996,0.9415788266666667,-1.6723632400000001,-7.012532599999999,-5.218098986666667,-8.771148392093362,-10.121023212588709,-1.9145837796593743,6.479558950410517,3.1967036107024613,-18.07554026574219,19.46609241899849,-1.2474635301787729,19.57184969898027,-1.2737791737433608,0.19596667999999998,-0.013756080000000032,0.3823961733333332,0.5921189333333332,0.42990580687769897,0.6322285701516683,0.7225243556229999,0.7382176273557262
LBP08_S08,LBP08,167,168,8,167,167,1716495749.68,2024-05-23 20:22:29.680000+00:00,2024-05-24 05:22:29.680000+09:00,2024,5,23,20,22,29,680,,,,,,,,,-0.243408,-0.655762,1.672119,-17.089844,-5.004883,28.259277,,,,,,,,,,,0.0,1.0,1.0,8.0,0.0,0.0,0.0,4.0,0.0,0.07143232,-0.22882812000000002,0.9453353466666666,-1.4477538666666667,-3.346354213333333,-4.458821653333334,-12.131793250291276,-8.28683373331351,-2.7086057303932285,5.994287220398866,2.8652302613699208,-18.18388449495792,19.359614641239066,-1.2608502772013912,19.51608601544504,-1.2666412498475086,-0.31484032,-0.42693387999999993,0.7267836533333333,1.4685578533333332,0.8997841095185576,0.6357083061069687,0.7293838797299967,0.742564804869661
LBP08_S08,LBP08,168,169,8,168,168,1716495749.72,2024-05-23 20:22:29.720000+00:00,2024-05-24 05:22:29.720000+09:00,2024,5,23,20,22,29,720,,,,,,,,,0.174072,-0.339111,1.647949,15.50293,-2.563477,4.577637,,,,,,,,,,,0.0,1.0,1.0,8.0,0.0,0.0,0.0,4.0,0.0,0.06420249333333335,-0.22922199999999998,0.9292936800000001,-1.5909830266666667,-3.713378959999999,-4.87386072,-16.098842312106775,-6.896773831565048,-4.042724887564288,5.350333527914595,2.5893593081073187,-18.34559349046049,19.28449250054653,-1.290571720750141,19.48997851384285,-1.2560556992730696,0.10986950666666666,-0.10988900000000001,0.71865532,0.9384138266666666,0.7352634696355308,0.6427452068967007,0.7293157376551452,0.7402119881496517
LBP08_S08,LBP08,169,170,8,169,169,1716495749.76,2024-05-23 20:22:29.760000+00:00,2024-05-24 05:22:29.760000+09:00,2024,5,23,20,22,29,760,,,,,,,,,0.016113,-0.162354,0.70874,-40.466309,150.878906,14.343262,,,,,,,,,,,0.0,1.0,1.0,8.0,0.0,0.0,0.0,4.0,0.0,0.07104169333333334,-0.22642252,0.9146354666666665,-1.5755208,-5.733235733333332,-5.911458373333333,-20.05211922594454,-6.3150223647315284,-5.648444185044476,4.548248758876813,2.3367584135180577,-18.57153125786227,19.26262650620437,-1.2590467593293773,19.502074909937043,-1.2492469411076257,-0.054928693333333334,0.06406851999999999,-0.20589546666666647,0.3248926799999998,0.22251939196434575,0.6298485328916739,0.7164901928285219,0.7316866900177641
LBP08_S08,LBP08,170,171,8,170,170,1716495749.8,2024-05-23 20:22:29.800000+00:00,2024-05-24 05:22:29.800000+09:00,2024,5,23,20,22,29,800,,,,,,,,,-0.132812,-0.134521,0.019531,-38.696289,-59.082031,-40.95459,,,,,,,,,,,0.0,1.0,1.0,8.0,0.0,0.0,0.0,4.0,0.0,0.07807945333333334,-0.2226009066666667,0.9039486133333332,-2.7099609066666663,-5.2050781866666656,-6.076660186666667,-23.27456316017529,-6.497533806928341,-7.14485173248677,3.6172662324698015,2.076857061240924,-18.85732532716174,19.313121672681717,-1.2253306598780074,19.558708223855255,-1.2497281004359242,-0.21089145333333337,0.08807990666666671,-0.8844176133333332,1.1833889733333334,0.9134701909869218,0.6483750502080664,0.7205453471051925,0.7370908909054347
LBP08_S08,LBP08,171,172,8,171,171,1716495749.84,2024-05-23 20:22:29.840000+00:00,2024-05-24 05:22:29.840000+09:00,2024,5,23,20,22,29,840,,,,,,,,,0.206299,-0.049316,0.284668,-13.671875,-107.727051,-49.072266,,,,,,,,,,,0.0,1.0,1.0,8.0,0.0,0.0,0.0,4.0,0.0,0.07618166666666668,-0.22372394666666665,0.9082129466666665,-2.7335611733333334,-5.579427146666666,-5.823567733333333,-25.109163392383117,-7.092363297081062,-8.215413193279197,2.612899696774477,1.7931625293576814,-19.185941854892906,19.445900378779793,-1.2345952482468001,19.664066272610363,-1.2482338014478498,0.13011733333333333,0.17440794666666665,-0.6235449466666665,0.9280702266666665,0.6604217991615635,0.6433560989956111,0.7206798674305216,0.7341637196316184
LBP08_S08,LBP08,172,173,8,172,172,1716495749.88,2024-05-23 20:22:29.880000+00:00,2024-05-24 05:22:29.880000+09:00,2024,5,23,20,22,29,880,,,,,,,,,0.393555,-0.114502,0.857422,-62.133789,-69.458008,-40.588379,,,,,,,,,,,0.0,1.0,1.0,8.0,0.0,0.0,0.0,4.0,0.0,0.08071942666666668,-0.22894530666666668,0.9329557866666666,-3.4155273200000003,-7.071126373333334,-5.739746106666667,-25.095013526530494,-7.694289408440985,-8.761113500928882,1.609099155713257,1.485390953020042,-19.536386394930062,19.658737999887972,-1.2237540023841964,19.820185719507062,-1.2481631722270792,0.31283557333333334,0.11444330666666667,-0.07553378666666655,0.5028126666666666,0.3415680302835756,0.6324462837165803,0.694286817089894,0.7332244934573597
LBP08_S08,LBP08,173,174,8,173,173,1716495749.92,2024-05-23 20:22:29.920000+00:00,2024-05-24 05:22:29.920000+09:00,2024,5,23,20,22,29,920,,,,,,,,,0.238037,-0.344727,1.257812,6.469727,42.96875,6.225586,,,,,,,,,,,0.0,1.0,1.0,8.0,0.0,0.0,0.0,4.0,0.0,0.08412437333333335,-0.23120442666666666,0.9529818266666669,-3.8102213333333332,-5.661621159999999,-4.6907552133333335,-23.044041327048102,-8.072032564075283,-8.93274372609206,0.6873375026313329,1.1625096504570307,-19.893696143973745,19.939483639219073,-1.2138174303189464,20.026531129505805,-1.242836413333267,0.15391262666666666,-0.11352257333333335,0.30483017333333307,0.572265373333333,0.35985817467175124,0.6213107352748815,0.6866056843311641,0.7319511283848334
LBP08_S08,LBP08,174,175,8,174,174,1716495749.96,2024-05-23 20:22:29.960000+00:00,2024-05-24 05:22:29.960000+09:00,2024,5,23,20,22,29,960,,,,,,,,,-0.153076,-0.515625,1.66748,-18.676758,-8.056641,37.658691,,,,,,,,,,,0.0,1.0,1.0,8.0,0.0,0.0,0.0,4.0,0.0,0.07489910666666667,-0.23669921333333335,0.9533692,-4.155273413333333,-1.7439779333333327,-3.3789062533333336,-19.04894905171851,-8.217115886474463,-9.015501876180219,-0.07462045943740747,0.8338250149980522,-20.254316219020954,20.271609651645782,-1.2565311090632427,20.279426142422693,-1.2360339024615832,-0.22797510666666665,-0.2789257866666667,0.7141108,1.2210116933333333,0.7998290307334043,0.6174179631944713,0.688419990525635,0.7345963811382595
LBP08_S08,LBP08,175,176,8,175,175,1716495750.0,2024-05-23 20:22:30+00:00,2024-05-24 05:22:30+09:00,2024,5,23,20,22,30,0,20.0,22.0,28.0,40.792267,141.620132,1.855,3.0,15.0,0.156982,-0.327881,1.585938,22.705078,-14.343262,9.094238,-540.0,28.0,591.0,425.0,0.0,1019.400024,23.620001,0.063423,-51.047798,3.817969,0.0,1.0,1.0,8.0,0.0,0.0,0.0,5.0,0.0,0.06959312000000001,-0.2306380133333333,0.9428613866666667,-2.6847330400000002,-2.3185221999999994,-4.095052093333334,-13.443032099871843,-8.20666141476702,-9.234642284200447,-0.6123417434322812,0.5055585584073714,-20.62370191038897,20.638983316900816,-1.270377277127621,20.572016785598866,-1.229904563906201,0.08738888,-0.09724298666666667,0.6430766133333333,0.82770848,0.6562320819799786,0.6216646449853799,0.6827270264350216,0.7308931333504861
LBP08_S08,LBP08,176,177,8,176,176,1716495750.04,2024-05-23 20:22:30.040000+00:00,2024-05-24 05:22:30.040000+09:00,2024,5,23,20,22,30,40,,,,,,,,,-0.101807,-0.10791,0.687012,-49.499512,146.66748,41.19873,,,,,,,,,,,0.0,1.0,1.0,8.0,0.0,0.0,0.0,5.0,0.0,0.07484702666666668,-0.22870442666666665,0.9328386000000001,-2.01497392,-4.172363346666666,-5.523274746666668,-6.743991841963811,-8.008424348073117,-9.606452574540628,-0.8821014171108337,0.18522158448444676,-21.007960013370596,21.0272868879655,-1.2467572379710687,20.89526964466749,-1.2266187252946912,-0.17665402666666669,0.12079442666666665,-0.24582660000000012,0.5432750533333335,0.32592737828975976,0.6177613156198752,0.6654894910923989,0.7290022942830174
LBP08_S08,LBP08,177,178,8,177,177,1716495750.08,2024-05-23 20:22:30.080000+00:00,2024-05-24 05:22:30.080000+09:00,2024,5,23,20,22,30,80,,,,,,,,,-0.140625,-0.0896,-0.112549,-45.715332,-28.991699,-48.156738,,,,,,,,,,,0.0,1.0,1.0,8.0,0.0,0.0,0.0,5.0,0.0,0.08277672000000001,-0.223125,0.9267285733333334,-1.7553710533333338,-3.696289133333332,-5.895996093333334,0.40149833005372026,-7.392521969198248,-9.932782947316005,-0.8660414839086849,-0.11047929428348319,-21.405271331263236,21.423068741226498,-1.2075826882632679,21.239792287712756,-1.2275391211395594,-0.22340172000000003,0.133525,-1.0392775733333333,1.3962042933333332,1.0713706774770253,0.637140291012093,0.6752646116899372,0.7246237854884668
LBP08_S08,LBP08,178,179,8,178,178,1716495750.12,2024-05-23 20:22:30.120000+00:00,2024-05-24 05:22:30.120000+09:00,2024,5,23,20,22,30,120,,,,,,,,,0.159424,-0.140869,0.197266,91.491699,-104.187012,-66.040039,,,,,,,,,,,0.0,1.0,1.0,8.0,0.0,0.0,0.0,5.0,0.0,0.08012697333333334,-0.22628256,0.9321745333333334,-1.3028970933333335,-4.060872466666666,-5.802408853333333,7.279517069170195,-6.03878730679684,-9.943835752440092,-0.574860801141877,-0.3520307865553568,-21.80302476136084,21.813442629715425,-1.222546612033305,21.597543103409077,-1.2310859973640387,0.07929702666666667,0.08541356,-0.7349085333333334,0.8996191200000001,0.744092767762326,0.6336277417479578,0.6610239876309548,0.723337298856727
LBP08_S08,LBP08,179,180,8,179,179,1716495750.16,2024-05-23 20:22:30.160000+00:00,2024-05-24 05:22:30.160000+09:00,2024,5,23,20,22,30,160,,,,,,,,,0.382324,0.187988,0.749756,19.226074,-72.570801,-51.940918,,,,,,,,,,,0.0,1.0,1.0,8.0,0.0,0.0,0.0,5.0,0.0,0.08810874666666667,-0.2305761733333333,0.9588802666666665,-0.9261067333333334,-5.8886719466666655,-5.96923828,13.185593532663466,-3.784814530587181,-9.493644323437046,-0.0474370598353383,-0.503423367778844,-22.182770534298324,22.188532937966077,-1.1977533737755535,21.962479980273788,-1.23446682324292,0.2942152533333333,0.4185641733333333,-0.2091242666666665,0.9219036933333331,0.5527128923782086,0.6301087374697112,0.6581824250433328,0.7252374856305248
LBP08_S08,LBP08,180,181,8,180,180,1716495750.2,2024-05-23 20:22:30.200000+00:00,2024-05-24 05:22:30.200000+09:00,2024,5,23,20,22,30,200,,,,,,,,,0.352539,-0.514404,1.291504,-52.55127,6.713867,21.362305,,,,,,,,,,,0.0,1.0,1.0,8.0,0.0,0.0,0.0,5.0,0.0,0.09182293333333334,-0.23664713333333334,0.9777409466666668,-1.60563148,-4.167480546666666,-4.913736973333334,17.506074577168196,-0.8401256540596341,-8.675682652254078,0.6528059232513895,-0.5370283939412294,-22.529797840388486,22.545650263367985,-1.1924722737629105,22.33003779795196,-1.2304359876372515,0.26071606666666663,-0.27775686666666666,0.3137630533333332,0.8522359866666666,0.4935270995960387,0.6230299920102255,0.658487143812993,0.7254438032561
LBP08_S08,LBP08,181,182,8,181,181,1716495750.24,2024-05-23 20:22:30.240000+00:00,2024-05-24 05:22:30.240000+09:00,2024,5,23,20,22,30,240,,,,,,,,,-0.226074,-0.43335,1.627686,28.625488,24.658203,16.784668,,,,,,,,,,,0.0,1.0,1.0,8.0,0.0,0.0,0.0,5.0,0.0,0.07874025333333333,-0.23826172,0.9707259733333334,-1.0205077733333334,-0.40690111999999923,-3.780110666666667,19.789237925469514,2.2022754751033955,-7.7825935063830505,1.44437544027017,-0.4489373749370935,-22.84110158064381,22.89112680923244,-1.2437992066954824,22.69625991631822,-1.227352778055583,-0.30481425333333334,-0.19508828,0.6569600266666665,1.15686256,0.7500450937552909,0.6194000520879572,0.6596307807026642,0.7241052789394736
LBP08_S08,LBP08,182,183,8,182,182,1716495750.28,2024-05-23 20:22:30.280000+00:00,2024-05-24 05:22:30.280000+09:00,2024,5,23,20,22,30,280,,,,,,,,,0.070801,-0.414795,1.646973,50.842285,6.286621,12.817383,,,,,,,,,,,0.0,1.0,1.0,8.0,0.0,0.0,0.0,5.0,0.0,0.07251629333333334,-0.23089192000000003,0.9627735066666667,0.14404299999999998,-0.2058919999999992,-4.097493480000001,19.807907877657584,4.588629053004376,-7.143019459902673,2.2366917553764734,-0.2653922128169185,-23.126822359039917,23.236246156851188,-1.2592227646289897,23.057524730276366,-1.2253742617998857,-0.0017152933333333398,-0.18390308,0.6841994933333333,0.8698178666666666,0.7084858726483513,0.6305139094842357,0.6559662025269862,0.7219387000404416
LBP08_S08,LBP08,183,184,8,183,183,1716495750.32,2024-05-23 20:22:30.320000+00:00,2024-05-24 05:22:30.320000+09:00,2024,5,23,20,22,30,320,,,,,,,,,-0.081787,-0.264893,0.852051,17.700195,162.353516,44.311523,,,,,,,,,,,0.0,1.0,1.0,8.0,0.0,0.0,0.0,5.0,0.0,0.07600588000000001,-0.23280924,0.9585970666666667,-0.12125648000000003,-1.3875326133333326,-4.535319,17.617485367234494,5.733252242300871,-6.947418138462281,2.9413911700658533,-0.03606212312488363,-23.404719084578407,23.588852407866185,-1.2476256891077582,23.411075791128553,-1.2273069870067144,-0.15779288000000002,-0.03208375999999999,-0.10654606666666666,0.2964227066666667,0.1930803588057827,0.6204697461846452,0.6474632631306408,0.7222009796165477
