file_name,test_id,_program_index,program_index,session_id,index,_index,unixtime,datetime_utc,datetime_jst,rtc_year,rtc_month,rtc_day,rtc_hour,rtc_min,rtc_sec,rtc_msec,gps_hour,gps_min,gps_sec,latitude,longitude,altitude,fix_type,SIV,acc_x,acc_y,acc_z,gyro_x,gyro_y,gyro_z,mag_x,mag_y,mag_z,illuminance,atmopress,water_pressure,water_temp,depth,alt_wps,battery_level,behavior_class,camera_command,camera_recording,camera_count,play_audio,speaker_on,audio_file,prev_sd_write_time_ms,delay_occurred_counter,acc_x_ma,acc_y_ma,acc_z_ma,gyro_x_ma,gyro_y_ma,gyro_z_ma,gyro_x_lowpass,gyro_y_lowpass,gyro_z_lowpass,angle_x,angle_y,angle_z,combined_angle_change,gravity_adjusted_angle,smoothed_angle_change,smoothed_gravity_angle,acc_x_dy,acc_y_dy,acc_z_dy,ODBA,VeDBA,smoothed_VeDBA_1s,smoothed_VeDBA_2s,smoothed_VeDBA_3s
LBP08_S09,LBP08,0,1,9,0,0,1716496094.0,2024-05-23 20:28:14+00:00,2024-05-24 05:28:14+09:00,2024,5,23,20,28,14,0,20.0,28.0,12.0,40.794407,141.621109,-13.594,3.0,15.0,0.210205,-0.424805,1.69873,-12.695312,-46.203613,-4.699707,-541.0,42.0,586.0,207.0,0.0,1020.400024,23.809999,0.073332,-59.324638,3.817969,0.0,1.0,1.0,9.0,0.0,0.0,0.0,6.0,0.0,,,,,,,-11.525262834400175,-46.52613731035189,-4.47705310645648,-0.461010513376007,-1.8610454924140758,-0.1790821242582592,1.9256405234380611,,3.8039579040216553,,,,,,,,,
LBP08_S09,LBP08,1,2,9,1,1,1716496094.04,2024-05-23 20:28:14.040000+00:00,2024-05-24 05:28:14.040000+09:00,2024,5,23,20,28,14,40,,,,,,,,,-0.210449,-0.02417,0.33374,0.12207,170.532227,38.818359,,,,,,,,,,,0.0,1.0,1.0,9.0,0.0,0.0,0.0,6.0,0.0,,,,,,,-6.302321803865278,-33.9614230360422,-2.2262375632812064,-0.7131033855306181,-3.2195024138557637,-0.26813162678950747,3.3084145448481976,,3.988197637309476,,,,,,,,,
LBP08_S09,LBP08,2,3,9,2,2,1716496094.08,2024-05-23 20:28:14.080000+00:00,2024-05-24 05:28:14.080000+09:00,2024,5,23,20,28,14,80,,,,,,,,,-0.109131,-0.248535,0.109863,-38.574219,-44.616699,-14.709473,,,,,,,,,,,0.0,1.0,1.0,9.0,0.0,0.0,0.0,6.0,0.0,,,,,,,-1.6814001609950917,-22.447970746138452,-0.20476731148070845,-0.7803593919704218,-4.117421243701302,-0.2763223192487358,4.1998181511625265,,4.106974176230458,,,,,,,,,
LBP08_S09,LBP08,3,4,9,3,3,1716496094.12,2024-05-23 20:28:14.120000+00:00,2024-05-24 05:28:14.120000+09:00,2024,5,23,20,28,14,120,,,,,,,,,0.294189,-0.067383,0.687256,65.856934,-76.782227,-16.296387,,,,,,,,,,,0.0,1.0,1.0,9.0,0.0,0.0,0.0,6.0,0.0,,,,,,,1.7975054263112353,-12.881610303009671,1.3049727315129285,-0.7084591749179724,-4.632685655821689,-0.22412340998821867,4.691899625001182,,4.178709269022493,,,,,,,,,
LBP08_S09,LBP08,4,5,9,4,4,1716496094.16,2024-05-23 20:28:14.160000+00:00,2024-05-24 05:28:14.160000+09:00,2024,5,23,20,28,14,160,,,,,,,,,0.371826,-0.27417,1.17334,-17.028809,19.042969,6.713867,,,,,,,,,,,0.0,1.0,1.0,9.0,0.0,0.0,0.0,6.0,0.0,,,,,,,3.7949666678095673,-5.689051239312658,2.110186879767525,-0.5566605082055897,-4.860247705394195,-0.13971593479751765,4.894016675658307,,4.217723815393787,,,,,,,,,
LBP08_S09,LBP08,5,6,9,5,5,1716496094.2,2024-05-23 20:28:14.200000+00:00,2024-05-24 05:28:14.200000+09:00,2024,5,23,20,28,14,200,,,,,,,,,-0.246826,-0.443604,1.543945,16.052246,20.324707,25.024414,,,,,,,,,,,0.0,1.0,1.0,9.0,0.0,0.0,0.0,6.0,0.0,,,,,,,4.243409647233743,-0.8395393189443858,2.147353142946231,-0.38692412231623996,-4.89382927815197,-0.053821809079668395,4.909396303748581,,4.235499764995491,,,,,,,,,
LBP08_S09,LBP08,6,7,9,6,6,1716496094.24,2024-05-23 20:28:14.240000+00:00,2024-05-24 05:28:14.240000+09:00,2024,5,23,20,28,14,240,,,,,,,,,-0.206787,-0.507324,1.773926,27.34375,-89.050293,-11.230469,,,,,,,,,,,0.0,1.0,1.0,9.0,0.0,0.0,0.0,6.0,0.0,,,,,,,3.3272527878855467,2.0222109236468215,1.4933594067072615,-0.2538340108008181,-4.812940841206097,0.00591256718862207,4.819633409756352,,4.474109571508488,,,,,,,,,
LBP08_S09,LBP08,7,8,9,7,7,1716496094.28,2024-05-23 20:28:14.280000+00:00,2024-05-24 05:28:14.280000+09:00,2024,5,23,20,28,14,280,,,,,,,,,0.311279,-0.148438,1.285156,-27.160645,54.382324,22.277832,,,,,,,,,,,0.0,1.0,1.0,9.0,0.0,0.0,0.0,6.0,0.0,,,,,,,1.3778066655826608,3.40866829315841,0.33950773689115105,-0.19872174417751165,-4.676594109479761,0.019492876664268112,4.680854918566736,,4.576045670598808,,,,,,,,,
LBP08_S09,LBP08,8,9,9,8,8,1716496094.32,2024-05-23 20:28:14.320000+00:00,2024-05-24 05:28:14.320000+09:00,2024,5,23,20,28,14,320,,,,,,,,,-0.627197,0.267578,-0.154297,-41.687012,81.848145,-8.483887,,,,,,,,,,,0.0,1.0,1.0,9.0,0.0,0.0,0.0,6.0,0.0,,,,,,,-1.2693772489674677,3.842272151145043,-1.0735573675079755,-0.24949683413621038,-4.522903223433959,-0.023449418036050905,4.529840186364141,,4.606625634727207,,,,,,,,,
LBP08_S09,LBP08,9,10,9,9,9,1716496094.36,2024-05-23 20:28:14.360000+00:00,2024-05-24 05:28:14.360000+09:00,2024,5,23,20,28,14,360,,,,,,,,,-0.005127,-0.401123,0.292725,-33.508301,-86.242676,-26.367188,,,,,,,,,,,0.0,1.0,1.0,9.0,0.0,0.0,0.0,6.0,0.0,,,,,,,-4.381357555448436,3.744482384817323,-2.540976071550496,-0.42475113635414785,-4.373123928041266,-0.12508846089807074,4.395483311410824,,4.626979160581175,,,,,,,,,
LBP08_S09,LBP08,10,11,9,10,10,1716496094.4,2024-05-23 20:28:14.400000+00:00,2024-05-24 05:28:14.400000+09:00,2024,5,23,20,28,14,400,,,,,,,,,0.472656,-0.028564,0.915283,59.265137,-31.311035,-48.76709,,,,,,,,,,,0.0,1.0,1.0,9.0,0.0,0.0,0.0,6.0,0.0,,,,,,,-7.837982823333881,3.363117822333755,-3.9581207387661377,-0.7382704492875032,-4.238599215147915,-0.2834132904487162,4.311738588568034,,4.687681240457161,,,,,,,,,
LBP08_S09,LBP08,11,12,9,11,11,1716496094.44,2024-05-23 20:28:14.440000+00:00,2024-05-24 05:28:14.440000+09:00,2024,5,23,20,28,14,440,,,,,,,,,0.273926,-0.289795,1.287109,-38.024902,54.199219,24.719238,,,,,,,,,,,0.0,1.0,1.0,9.0,0.0,0.0,0.0,6.0,0.0,,,,,,,-11.541064074791922,2.755447056595837,-5.3222617114688235,-1.1999130122791801,-4.128381332884082,-0.49630375890746914,4.327775535751401,,4.823587120813327,,,,,,,,,
LBP08_S09,LBP08,12,13,9,12,12,1716496094.48,2024-05-23 20:28:14.480000+00:00,2024-05-24 05:28:14.480000+09:00,2024,5,23,20,28,14,480,,,,,,,,,-0.359375,-0.473389,1.581299,17.211914,-7.629395,32.897949,,,,,,,,,,,0.0,1.0,1.0,9.0,0.0,0.0,0.0,6.0,0.0,,,,,,,-15.28644088104957,1.8511225141990135,-6.662739049175463,-1.811370647521163,-4.054336432316122,-0.7628133208744876,4.505617792446516,,5.052240972577015,,,,,,,,,
LBP08_S09,LBP08,13,14,9,13,13,1716496094.52,2024-05-23 20:28:14.520000+00:00,2024-05-24 05:28:14.520000+09:00,2024,5,23,20,28,14,520,,,,,,,,,0.023682,-0.275391,1.830566,44.921875,-59.631348,5.126953,,,,,,,,,,,0.0,1.0,1.0,9.0,0.0,0.0,0.0,6.0,0.0,,,,,,,-18.692260592464415,0.5841389945957235,-7.94543734417449,-2.5590610712197397,-4.030970872532293,-1.0806308146414672,4.895434883540864,,5.375675633560995,,,,,,,,,
LBP08_S09,LBP08,14,15,9,14,14,1716496094.56,2024-05-23 20:28:14.560000+00:00,2024-05-24 05:28:14.560000+09:00,2024,5,23,20,28,14,560,,,,,,,,,0.212646,-0.149414,0.869873,-62.744141,164.306641,11.108398,,,,,,,,,,,0.0,1.0,1.0,9.0,0.0,0.0,0.0,6.0,0.0,,,,,,,-21.246109729988977,-0.967367769561506,-9.02759671498624,-3.408905460419299,-4.069665583314753,-1.4417346832409168,5.501037474418158,,5.783868204108751,,,,,,,,,
LBP08_S09,LBP08,15,16,9,15,15,1716496094.6,2024-05-23 20:28:14.600000+00:00,2024-05-24 05:28:14.600000+09:00,2024,5,23,20,28,14,600,,,,,,,,,-0.264893,-0.212402,-0.109863,-133.422852,-38.513184,-57.617188,,,,,,,,,,,0.0,1.0,1.0,9.0,0.0,0.0,0.0,6.0,0.0,,,,,,,-22.460077576662187,-2.515746260782333,-9.709080712529776,-4.307308563485787,-4.170295433746046,-1.830097911742108,6.268455107310248,,6.258241039344194,,,,,,,,,
LBP08_S09,LBP08,16,17,9,16,16,1716496094.64,2024-05-23 20:28:14.640000+00:00,2024-05-24 05:28:14.640000+09:00,2024,5,23,20,28,14,640,,,,,,,,,0.296143,-0.313232,0.493408,32.531738,-83.007812,-48.583984,,,,,,,,,,,0.0,1.0,1.0,9.0,0.0,0.0,0.0,6.0,0.0,,,,,,,-22.04795205006626,-3.6269488557482203,-9.853075795459288,-5.1892266454884375,-4.315373387975974,-2.2242209435604794,7.106171927393222,,6.774162270279693,,,,,,,,,
LBP08_S09,LBP08,17,18,9,17,17,1716496094.68,2024-05-23 20:28:14.680000+00:00,2024-05-24 05:28:14.680000+09:00,2024,5,23,20,28,14,680,,,,,,,,,0.404785,-0.089355,0.960205,-11.84082,-21.362305,-14.648438,,,,,,,,,,,0.0,1.0,1.0,9.0,0.0,0.0,0.0,6.0,0.0,,,,,,,-20.018859315603432,-3.8921418184273753,-9.491392205612263,-5.989981018112575,-4.47105906071307,-2.6038766317849698,7.9152015284065405,,7.302087575975077,,,,,,,,,
LBP08_S09,LBP08,18,19,9,18,18,1716496094.72,2024-05-23 20:28:14.720000+00:00,2024-05-24 05:28:14.720000+09:00,2024,5,23,20,28,14,720,,,,,,,,,0.013428,-0.270996,1.429199,-5.615234,59.326172,28.991699,,,,,,,,,,,0.0,1.0,1.0,9.0,0.0,0.0,0.0,6.0,0.0,,,,,,,-16.641843283184027,-3.11239026297839,-8.835692436882463,-6.655654749439936,-4.595554671232205,-2.957304329260268,8.611765891841697,,7.808250787969027,,,,,,,,,
LBP08_S09,LBP08,19,20,9,19,19,1716496094.76,2024-05-23 20:28:14.760000+00:00,2024-05-24 05:28:14.760000+09:00,2024,5,23,20,28,14,760,,,,,,,,,-0.289307,-0.449951,1.658203,10.192871,-77.880859,-3.601074,,,,,,,,,,,0.0,1.0,1.0,9.0,0.0,0.0,0.0,6.0,0.0,,,,,,,-12.32428134925954,-1.3913019291954896,-8.18244779548919,-7.1486260034103175,-4.651206748400025,-3.2846022410798357,9.13921166376525,,8.25710343049505,,,,,,,,,
LBP08_S09,LBP08,20,21,9,20,20,1716496094.8,2024-05-23 20:28:14.800000+00:00,2024-05-24 05:28:14.800000+09:00,2024,5,23,20,28,14,800,,,,,,,,,0.293213,-0.36084,1.606445,-17.211914,-12.939453,2.075195,,,,,,,,,,,0.0,1.0,1.0,9.0,0.0,0.0,0.0,6.0,0.0,,,,,,,-7.486256809586953,0.9073120345044997,-7.772502236382007,-7.448076275793795,-4.614914267019845,-3.595502330535116,9.470950897923034,,8.616692335555836,,,,,,,,,
LBP08_S09,LBP08,21,22,9,21,21,1716496094.84,2024-05-23 20:28:14.840000+00:00,2024-05-24 05:28:14.840000+09:00,2024,5,23,20,28,14,840,,,,,,,,,-0.586182,0.226807,-0.171631,-14.953613,157.409668,26.000977,,,,,,,,,,,0.0,1.0,1.0,9.0,0.0,0.0,0.0,6.0,0.0,,,,,,,-2.4863528191079927,3.303849574216275,-7.691395828234994,-7.547530388558115,-4.482760284051194,-3.9031581636645156,9.607028592705234,,8.864949100087369,,,,,,,,,
LBP08_S09,LBP08,22,23,9,22,22,1716496094.88,2024-05-23 20:28:14.880000+00:00,2024-05-24 05:28:14.880000+09:00,2024,5,23,20,28,14,880,,,,,,,,,-0.082764,-0.539307,0.296143,-32.348633,-56.762695,-27.648926,,,,,,,,,,,0.0,1.0,1.0,9.0,0.0,0.0,0.0,6.0,0.0,,,,,,,2.396342262878511,5.370155536504838,-7.8646131419627805,-7.4516766980429745,-4.267954062591,-4.2177426893430265,9.567249912386016,,8.99386103499376,,,,,,,,,
LBP08_S09,LBP08,23,24,9,23,23,1716496094.92,2024-05-23 20:28:14.920000+00:00,2024-05-24 05:28:14.920000+09:00,2024,5,23,20,28,14,920,,,,,,,,,0.327881,0.167969,0.660645,80.383301,-53.894043,-58.59375,,,,,,,,,,,0.0,1.0,1.0,9.0,0.0,0.0,0.0,6.0,0.0,,,,,,,6.950394292880898,6.83965362455442,-8.141047971158647,-7.173660926327739,-3.9943679176088236,-4.543384608189372,9.383961308801103,,9.010362510164713,,,,,,,,,
LBP08_S09,LBP08,24,25,9,24,24,1716496094.96,2024-05-23 20:28:14.960000+00:00,2024-05-24 05:28:14.960000+09:00,2024,5,23,20,28,14,960,,,,,,,,,0.450928,-0.430176,1.106689,-41.870117,20.507812,-13.977051,,,,,,,,,,,0.0,1.0,1.0,9.0,0.0,0.0,0.0,6.0,0.0,,,,,,,11.014314917637648,7.631317327160227,-8.404171696520773,-6.733088329622233,-3.6891152245224146,-4.879551476050203,9.096926525026015,,8.934223662982275,,,,,,,,,
LBP08_S09,LBP08,25,26,9,25,25,1716496095.0,2024-05-23 20:28:15+00:00,2024-05-24 05:28:15+09:00,2024,5,23,20,28,15,0,20.0,28.0,13.0,40.794479,141.621048,-12.581,3.0,15.0,-0.235596,-0.346436,1.425781,40.161133,64.941406,8.666992,-541.0,47.0,586.0,288.0,0.0,1019.799988,23.860001,0.067386,-54.35902,3.817969,0.0,1.0,1.0,9.0,0.0,0.0,0.0,5.0,0.0,,,,,,,14.458491424177616,7.821365939038643,-8.635513198197854,-6.154748672655129,-3.3762605869608686,-5.224972003978118,8.751022752625577,,8.793650970860721,,,,,,,,,
LBP08_S09,LBP08,26,27,9,26,26,1716496095.04,2024-05-23 20:28:15.040000+00:00,2024-05-24 05:28:15.040000+09:00,2024,5,23,20,28,15,40,,,,,,,,,-0.343262,-0.691406,1.656494,7.568359,-51.940918,0.488281,,,,,,,,,,,0.0,1.0,1.0,9.0,0.0,0.0,0.0,5.0,0.0,,,,,,,17.165008904412254,7.609798625901511,-8.892483506292862,-5.468148316478638,-3.0718686419248082,-5.580671344229832,8.395291276457126,,8.619848616635874,,,,,,,,,
LBP08_S09,LBP08,27,28,9,27,27,1716496095.08,2024-05-23 20:28:15.080000+00:00,2024-05-24 05:28:15.080000+09:00,2024,5,23,20,28,15,80,,,,,,,,,0.274658,-0.296875,1.520996,5.065918,-27.832031,-2.197266,,,,,,,,,,,0.0,1.0,1.0,9.0,0.0,0.0,0.0,5.0,0.0,,,,,,,19.012262347583054,7.294992152983447,-9.226009412867795,-4.707657822575316,-2.7800689558054703,-5.949711720744544,8.080216280116076,,8.44232455426204,,,,,,,,,
LBP08_S09,LBP08,28,29,9,28,28,1716496095.12,2024-05-23 20:28:15.120000+00:00,2024-05-24 05:28:15.120000+09:00,2024,5,23,20,28,15,120,,,,,,,,,-0.364746,-0.07251,0.040771,9.216309,162.658691,40.95459,,,,,,,,,,,0.0,1.0,1.0,9.0,0.0,0.0,0.0,5.0,0.0,,,,,,,19.878365798258418,7.239089701576082,-9.604078857319822,-3.912523190644979,-2.490505367742427,-6.333874875037337,7.850377420017323,,8.286269433836228,,,,,,,,,
LBP08_S09,LBP08,29,30,9,29,29,1716496095.16,2024-05-23 20:28:15.160000+00:00,2024-05-24 05:28:15.160000+09:00,2024,5,23,20,28,15,160,,,,,,,,,-0.061768,0.250977,0.074219,61.706543,-51.452637,-46.813965,,,,,,,,,,,0.0,1.0,1.0,9.0,0.0,0.0,0.0,5.0,0.0,,,,,,,19.670418606851598,7.798252060893246,-9.898772942541816,-3.1257064463709154,-2.178575285306697,-6.7298257927390095,7.733484742549706,,8.17183371990408,,,,,,,,,
LBP08_S09,LBP08,30,31,9,30,30,1716496095.2,2024-05-23 20:28:15.200000+00:00,2024-05-24 05:28:15.200000+09:00,2024,5,23,20,28,15,200,,,,,,,,,0.344238,-0.055908,0.740723,-2.380371,-67.443848,-51.513672,,,,,,,,,,,0.0,1.0,1.0,9.0,0.0,0.0,0.0,5.0,0.0,,,,,,,18.369228313354938,9.204623351588937,-9.946791583804979,-2.390937313836718,-1.8103903512431394,-7.127697456091209,7.732927355674569,,8.113894462828263,,,,,,,,,
LBP08_S09,LBP08,31,32,9,31,31,1716496095.24,2024-05-23 20:28:15.240000+00:00,2024-05-24 05:28:15.240000+09:00,2024,5,23,20,28,15,240,,,,,,,,,0.396729,-0.384277,1.152588,31.433105,24.963379,-11.108398,,,,,,,,,,,0.0,1.0,1.0,9.0,0.0,0.0,0.0,5.0,0.0,,,,,,,16.06559817130737,11.430166819010957,-9.63926523517217,-1.7483133869844232,-1.3531836784827012,-7.513268065498096,7.831787968966884,,8.121068079454636,,,,,,,,,
LBP08_S09,LBP08,32,33,9,32,32,1716496095.28,2024-05-23 20:28:15.280000+00:00,2024-05-24 05:28:15.280000+09:00,2024,5,23,20,28,15,280,,,,,,,,,-0.230957,-0.481934,1.543701,-5.981445,58.59375,11.535645,,,,,,,,,,,0.0,1.0,1.0,9.0,0.0,0.0,0.0,5.0,0.0,,,,,,,12.96870156874507,14.10791655293966,-8.975758438804359,-1.2295653242346205,-0.7888670163651148,-7.87229840305027,8.006698708127889,,8.19405911602299,,,,,,,,,
LBP08_S09,LBP08,33,34,9,33,33,1716496095.32,2024-05-23 20:28:15.320000+00:00,2024-05-24 05:28:15.320000+09:00,2024,5,23,20,28,15,320,,,,,,,,,-0.342773,-0.530762,1.827881,11.291504,-61.950684,-4.577637,,,,,,,,,,,0.0,1.0,1.0,9.0,0.0,0.0,0.0,5.0,0.0,,,,,,,9.386377894656391,16.577069704666112,-8.048817209600728,-0.8541102084483648,-0.12578422817847035,-8.1942510914343,8.239604169479646,,8.324677105814013,-1.4957421037315048,,,,,,,,
LBP08_S09,LBP08,34,35,9,34,34,1716496095.36,2024-05-23 20:28:15.360000+00:00,2024-05-24 05:28:15.360000+09:00,2024,5,23,20,28,15,360,,,,,,,,,0.347412,-0.277588,1.562256,-3.540039,25.634766,11.657715,,,,,,,,,,,0.0,1.0,1.0,9.0,0.0,0.0,0.0,5.0,0.0,,,,,,,5.69263100518956,18.05621513878717,-6.9812661943906065,-0.6264049682407824,0.5964643773730165,-8.473501739209924,8.517533954267828,,8.49696790132818,-1.5224366700046597,,,,,,,,
LBP08_S09,LBP08,35,36,9,35,35,1716496095.4,2024-05-23 20:28:15.400000+00:00,2024-05-24 05:28:15.400000+09:00,2024,5,23,20,28,15,400,,,,,,,,,-0.737793,-0.056396,-0.121826,24.841309,157.165527,8.361816,,,,,,,,,,,0.0,1.0,1.0,9.0,0.0,0.0,0.0,5.0,0.0,,,,,,,2.2963334454606796,17.886601276125116,-5.869503508880333,-0.5345516304223552,1.311928428418021,-8.708281879565137,8.822758918889322,,8.69088098829916,-1.5263460975448668,,,,,,,,
LBP08_S09,LBP08,36,37,9,36,36,1716496095.44,2024-05-23 20:28:15.440000+00:00,2024-05-24 05:28:15.440000+09:00,2024,5,23,20,28,15,440,,,,,,,,,-0.017822,-0.100342,0.418701,-5.554199,-65.795898,-27.160645,,,,,,,,,,,0.0,1.0,1.0,9.0,0.0,0.0,0.0,5.0,0.0,,,,,,,-0.3880423447451902,15.754377169674262,-4.77182600214143,-0.5500733242121628,1.9421035152049915,-8.899154919650794,9.125201642140645,,8.887370233133655,-1.521407851798092,,,,,,,,
LBP08_S09,LBP08,37,38,9,37,37,1716496095.48,2024-05-23 20:28:15.480000+00:00,2024-05-24 05:28:15.480000+09:00,2024,5,23,20,28,15,480,,,,,,,,,0.43335,-0.13916,1.117432,-3.967285,-15.258789,-37.231445,,,,,,,,,,,0.0,1.0,1.0,9.0,0.0,0.0,0.0,5.0,0.0,0.017854813333333334,-0.24461915999999997,0.9849055466666666,2.810058586666667,1.1702473733333334,-0.6925456533333331,-1.977244132606934,11.807266333644014,-3.7390637098861914,-0.6291630895164402,2.414394168550752,-9.048717468046242,9.386396178026311,-1.4957421037315048,9.072754529468181,-1.5177175346304366,0.4154951866666667,0.10545915999999997,0.13252645333333335,0.6534808,0.4486882496836595,0.4486882496836595,0.4486882496836595,0.4486882496836595
LBP08_S09,LBP08,38,39,9,38,38,1716496095.52,2024-05-23 20:28:15.520000+00:00,2024-05-24 05:28:15.520000+09:00,2024,5,23,20,28,15,520,,,,,,,,,0.2146,-0.485352,1.45166,-9.643555,57.922363,2.502441,,,,,,,,,,,0.0,1.0,1.0,9.0,0.0,0.0,0.0,5.0,0.0,0.004964186666666667,-0.23592124000000003,0.95923824,2.634277333333334,3.562011693333333,-0.35156258666666634,-2.1708011116669352,6.633283258398083,-2.848395249005137,-0.7159951339831176,2.6797254988866754,-9.162653278006447,9.573285375159003,-1.5491312362778147,9.24053908582223,-1.5219682326551272,0.20963581333333334,-0.24943075999999997,0.49242175999999993,0.9514883333333333,0.5904592009509237,0.5195737253172916,0.5195737253172916,0.5195737253172916
LBP08_S09,LBP08,39,40,9,39,39,1716496095.56,2024-05-23 20:28:15.560000+00:00,2024-05-24 05:28:15.560000+09:00,2024,5,23,20,28,15,560,,,,,,,,,-0.429932,-0.435059,1.683838,15.50293,-29.724121,6.347656,,,,,,,,,,,0.0,1.0,1.0,9.0,0.0,0.0,0.0,5.0,0.0,0.008557933333333333,-0.24074219999999996,0.9598306933333334,2.137858066666667,0.390624973333333,-1.0498047733333329,-0.8133775148587954,1.133307184956696,-2.1982018253631788,-0.7485302345774695,2.7250577862849434,-9.250581351020974,9.67261561225948,-1.534164952625281,9.390641975084966,-1.5233318900894002,-0.4384899333333333,-0.1943168,0.7240073066666666,1.35681404,0.8684578403720192,0.6358684303355342,0.6358684303355342,0.6358684303355342
LBP08_S09,LBP08,40,41,9,40,40,1716496095.6,2024-05-23 20:28:15.600000+00:00,2024-05-24 05:28:15.600000+09:00,2024,5,23,20,28,15,600,,,,,,,,,0.20752,-0.348145,1.84082,7.385254,-78.430176,9.094238,,,,,,,,,,,0.0,1.0,1.0,9.0,0.0,0.0,0.0,5.0,0.0,0.014873039999999999,-0.23820313333333332,0.96852536,3.50260416,0.45084631999999963,-0.9903972133333332,2.0446022038143954,-3.6557726964293016,-1.856693350191631,-0.6667461464248936,2.5788268784277713,-9.32484908502864,9.697819804019533,-1.5065931145577671,9.527605231645886,-1.520474710009629,0.19264696,-0.10994186666666667,0.8722946399999999,1.1748834666666665,0.9000544451399161,0.7019149340366296,0.7019149340366296,0.7019149340366296
LBP08_S09,LBP08,41,42,9,41,41,1716496095.64,2024-05-23 20:28:15.640000+00:00,2024-05-24 05:28:15.640000+09:00,2024,5,23,20,28,15,640,,,,,,,,,0.000488,-0.257812,0.738525,-15.380859,168.395996,52.062988,,,,,,,,,,,0.0,1.0,1.0,9.0,0.0,0.0,0.0,5.0,0.0,0.01579752,-0.23939453333333333,0.9740527066666668,2.6749674400000005,1.7854817466666664,-0.6705729866666664,6.104172035952708,-6.749407945187865,-1.8017421781718037,-0.42257926498678533,2.3088505606202565,-9.396918772155512,9.685630932312149,-1.5029562659598157,9.65937195126637,-1.523808147923667,-0.015309519999999998,-0.01841746666666666,-0.23552770666666678,0.26925469333333346,0.2367422334284857,0.6088803939150009,0.6088803939150009,0.6088803939150009
LBP08_S09,LBP08,42,43,9,42,42,1716496095.68,2024-05-23 20:28:15.680000+00:00,2024-05-24 05:28:15.680000+09:00,2024,5,23,20,28,15,680,,,,,,,,,-0.110107,-0.0896,0.092285,-19.958496,-56.091309,-38.818359,,,,,,,,,,,0.0,1.0,1.0,9.0,0.0,0.0,0.0,5.0,0.0,0.006490879999999999,-0.24242838666666666,0.97956052,2.675781253333333,1.513671853333333,-0.23844407999999978,10.813772121762746,-7.406698738739511,-1.9047760490341168,0.009971619883724525,2.012582611070676,-9.473109814116876,9.68454427166837,-1.5432217227785794,9.796570100650227,-1.5227785442036026,-0.11659788,0.15282838666666665,-0.88727552,1.1567017866666667,0.907859807339713,0.6587102961524529,0.6587102961524529,0.6587102961524529
LBP08_S09,LBP08,43,44,9,43,43,1716496095.72,2024-05-23 20:28:15.720000+00:00,2024-05-24 05:28:15.720000+09:00,2024,5,23,20,28,15,720,,,,,,,,,0.36792,-0.120117,0.628906,43.640137,-99.42627,-35.27832,,,,,,,,,,,0.0,1.0,1.0,9.0,0.0,0.0,0.0,5.0,0.0,0.009179679999999999,-0.24046874666666668,0.9809244533333333,2.7172851600000003,-0.04557293333333367,-0.6453451199999998,15.427241325778212,-5.32227140448177,-1.9815878477490545,0.627061272914853,1.799691754891405,-9.552373328026839,9.740633062107014,-1.5315138346950379,9.950812344908144,-1.522172579402317,0.35874032,0.12035174666666668,-0.35201845333333337,0.8311105200000001,0.516813459196461,0.6384393194444541,0.6384393194444541,0.6384393194444541
LBP08_S09,LBP08,44,45,9,44,44,1716496095.76,2024-05-23 20:28:15.760000+00:00,2024-05-24 05:28:15.760000+09:00,2024,5,23,20,28,15,760,,,,,,,,,0.419434,-0.254395,1.091553,8.361816,0.793457,-10.070801,,,,,,,,,,,0.0,1.0,1.0,9.0,0.0,0.0,0.0,5.0,0.0,0.016276026666666665,-0.23781901333333333,0.97434568,1.8302408933333334,2.526855453333333,0.1432291066666669,19.13220012929227,-0.7810281794764974,-1.87979157563268,1.3923492780865439,1.7684506277123453,-9.627564991052147,9.887166519877029,-1.5004744494512317,10.131090373640657,-1.5181519550163292,0.4031579733333333,-0.016575986666666653,0.11720732,0.53694128,0.42017695160229407,0.611156523464184,0.611156523464184,0.611156523464184
LBP08_S09,LBP08,45,46,9,45,45,1716496095.8,2024-05-23 20:28:15.800000+00:00,2024-05-24 05:28:15.800000+09:00,2024,5,23,20,28,15,800,,,,,,,,,0.029297,-0.399902,1.526855,48.461914,54.077148,23.376465,,,,,,,,,,,0.0,1.0,1.0,9.0,0.0,0.0,0.0,5.0,0.0,0.004648426666666667,-0.23555664,0.9562434666666665,2.4047851733333334,2.92561848,-0.4272461466666664,21.22313435825159,5.3052210827925315,-1.5425796256509279,2.2412746524166076,1.9806594710240466,-9.689268176078183,10.140426115094172,-1.5504756512359708,10.33932025131745,-1.519628120083215,0.024648573333333333,-0.16434535999999997,0.5706115333333336,0.759605466666667,0.594318493313069,0.6092856312251712,0.6092856312251712,0.6092856312251712
LBP08_S09,LBP08,46,47,9,46,46,1716496095.84,2024-05-23 20:28:15.840000+00:00,2024-05-24 05:28:15.840000+09:00,2024,5,23,20,28,15,840,,,,,,,,,-0.279053,-0.469238,1.768799,48.583984,-59.509277,-14.587402,,,,,,,,,,,0.0,1.0,1.0,9.0,0.0,0.0,0.0,5.0,0.0,0.013421213333333333,-0.24125976,0.9619824,2.83528648,0.9863281066666665,-0.5867513466666664,21.264006392247758,11.545207844086017,-1.0091250906180151,3.091834908106518,2.442467784787487,-9.729633179702905,10.497183135979213,-1.513512110723024,10.567327418748022,-1.5216576432039444,-0.29247421333333334,-0.22797824,0.8068166,1.3272690533333333,0.8879573578804388,0.6371528038906981,0.6371528038906981,0.6371528038906981
LBP08_S09,LBP08,47,48,9,47,47,1716496095.88,2024-05-23 20:28:15.880000+00:00,2024-05-24 05:28:15.880000+09:00,2024,5,23,20,28,15,880,,,,,,,,,0.357666,-0.158447,1.616699,-24.841309,19.53125,16.601562,,,,,,,,,,,0.0,1.0,1.0,9.0,0.0,0.0,0.0,5.0,0.0,0.018704413333333336,-0.23679036,0.9707812266666668,3.69222008,1.6845702933333333,-0.6306966533333331,19.186036301475546,16.387312770205273,-0.3619522352752055,3.85927636016554,3.097960295595698,-9.744111269113914,10.928818620605464,-1.4896824557186474,10.79704167263632,-1.5239393508478705,0.33896158666666665,0.07834336,0.6459177733333333,1.06322272,0.7336500590878223,0.6459252816358911,0.6459252816358911,0.6459252816358911
LBP08_S09,LBP08,48,49,9,48,48,1716496095.92,2024-05-23 20:28:15.920000+00:00,2024-05-24 05:28:15.920000+09:00,2024,5,23,20,28,15,920,,,,,,,,,-0.731934,0.035645,-0.153809,6.652832,172.485352,42.907715,,,,,,,,,,,0.0,1.0,1.0,9.0,0.0,0.0,0.0,5.0,0.0,0.014570306666666666,-0.24228841333333334,0.9771419066666666,2.2355143466666667,2.7360025866666664,0.3824869466666669,15.298919346146203,18.517156992303445,0.3337219805942806,4.471233134011388,3.838646575287836,-9.730762389890142,11.376065662484146,-1.5089249924179347,11.004165621668694,-1.5240963275206456,-0.7465043066666667,0.2779334133333333,-1.1309509066666665,2.1553886266666664,1.3833168890059693,0.7073745822500643,0.7073745822500643,0.7073745822500643
LBP08_S09,LBP08,49,50,9,49,49,1716496095.96,2024-05-23 20:28:15.960000+00:00,2024-05-24 05:28:15.960000+09:00,2024,5,23,20,28,15,960,,,,,,,,,-0.030273,-0.082764,0.245361,10.925293,-50.415039,-36.743164,,,,,,,,,,,0.0,1.0,1.0,9.0,0.0,0.0,0.0,5.0,0.0,0.005179026666666668,-0.24397786666666665,0.98144204,3.24137372,1.6805012799999997,0.20589189333333355,10.232551121721512,17.201330252330962,1.0561140335349823,4.880535178880249,4.526699785381075,-9.688517828548743,11.754914389027407,-1.5489266032941382,11.164112732610434,-1.522021220995023,-0.03545202666666667,0.16121386666666665,-0.73608104,0.9327469333333333,0.7543620181636091,0.7109890003972601,0.7109890003972601,0.7109890003972601
LBP08_S09,LBP08,50,51,9,50,50,1716496096.0,2024-05-23 20:28:16+00:00,2024-05-24 05:28:16+09:00,2024,5,23,20,28,16,0,20.0,28.0,14.0,40.794556,141.621002,-11.837,3.0,15.0,0.289062,-0.012939,0.881592,46.386719,-30.761719,-34.790039,-545.0,39.0,591.0,322.0,0.0,1020.299988,23.93,0.072341,-58.496948,3.817969,0.0,1.0,1.0,9.0,0.0,0.0,0.0,5.0,0.0,0.010397120000000001,-0.24376628,0.9850195066666667,3.4334310133333332,0.9374999866666666,-0.20507815999999973,4.83899741536506,12.461964635738465,1.8083053507037279,5.074095075494852,5.025178370810613,-9.616185614520594,11.977891478325253,-1.5268883457650644,11.258056300099355,-1.5224951924721268,0.27866488,0.23082728,-0.10342750666666667,0.6129196666666666,0.37634106562119446,0.6870855764846839,0.6870855764846839,0.6870855764846839
LBP08_S09,LBP08,51,52,9,51,51,1716496096.04,2024-05-23 20:28:16.040000+00:00,2024-05-24 05:28:16.040000+09:00,2024,5,23,20,28,16,40,,,,,,,,,0.319824,-0.375977,1.242432,-16.418457,35.705566,5.615234,,,,,,,,,,,0.0,1.0,1.0,9.0,0.0,0.0,0.0,5.0,0.0,0.01062824,-0.24314778666666664,0.9726562266666665,2.4934896133333333,3.9379882666666663,0.27994788000000026,0.06563133509815755,5.0412589886301244,2.5837621431210276,5.076720328898778,5.226828730355818,-9.512835128795754,11.982773471195124,-1.5257733423990758,11.276836424092206,-1.52079695549639,0.30919576,-0.13282921333333336,0.26977577333333347,0.7118007466666668,0.43130567558789196,0.6700335830915645,0.6700335830915645,0.6700335830915645
LBP08_S09,LBP08,52,53,9,52,52,1716496096.08,2024-05-23 20:28:16.080000+00:00,2024-05-24 05:28:16.080000+09:00,2024,5,23,20,28,16,80,,,,,,,,,-0.369141,-0.42334,1.51416,17.944336,2.380371,29.663086,,,,,,,,,,,0.0,1.0,1.0,9.0,0.0,0.0,0.0,5.0,0.0,0.006087226666666667,-0.24128906666666666,0.9608593466666665,2.9654948266666663,1.4119465999999998,-0.09358726666666639,-3.2086639170080655,-3.7978559008483725,3.357006076897508,4.9483737722184555,5.074914494321883,-9.378554885719852,11.755783761992117,-1.54479148950633,11.22155551832108,-1.52497475223186,-0.37522822666666666,-0.18205093333333333,0.5533006533333334,1.1105798133333336,0.692878327986987,0.6714613796475284,0.6714613796475284,0.6714613796475284
LBP08_S09,LBP08,53,54,9,53,53,1716496096.12,2024-05-23 20:28:16.120000+00:00,2024-05-24 05:28:16.120000+09:00,2024,5,23,20,28,16,120,,,,,,,,,-0.070312,-0.50708,1.795654,15.74707,-68.54248,12.390137,,,,,,,,,,,0.0,1.0,1.0,9.0,0.0,0.0,0.0,5.0,0.0,0.013929026666666667,-0.23862956000000002,0.9698079066666666,4.6427409200000005,0.8601887866666665,0.441080706666667,-4.370395201736554,-12.553044126544913,4.1099682809697855,4.773557964148994,4.572792729260086,-9.214156154481062,11.340104171524414,-1.5107627694388126,11.10159981355931,-1.5282034447779624,-0.08424102666666666,-0.26845043999999996,0.8258460933333335,1.17853756,0.872458571614708,0.6832847438808919,0.6832847438808919,0.6832847438808919
LBP08_S09,LBP08,54,55,9,54,54,1716496096.16,2024-05-23 20:28:16.160000+00:00,2024-05-24 05:28:16.160000+09:00,2024,5,23,20,28,16,160,,,,,,,,,0.148193,-0.019775,0.897461,-85.205078,89.050293,48.095703,,,,,,,,,,,0.0,1.0,1.0,9.0,0.0,0.0,0.0,5.0,0.0,0.015338520000000001,-0.2404882933333333,0.9770279599999999,3.8411458666666665,1.86848956,1.2027994533333337,-3.257433055331574,-19.782825340540533,4.860199882593406,4.643260641935731,3.7814797156384645,-9.019748159177325,10.826602194766247,-1.5052141642222683,10.932239351195737,-1.53369802533943,0.13285448,0.22071329333333328,-0.07956695999999996,0.43313473333333324,0.2696211635494477,0.6603034338624784,0.6603034338624784,0.6603034338624784
LBP08_S09,LBP08,55,56,9,55,55,1716496096.2,2024-05-23 20:28:16.200000+00:00,2024-05-24 05:28:16.200000+09:00,2024,5,23,20,28,16,200,,,,,,,,,-0.153564,-0.202637,-0.148682,-96.862793,-62.561035,-34.118652,,,,,,,,,,,0.0,1.0,1.0,9.0,0.0,0.0,0.0,5.0,0.0,0.00884764,-0.24426108,0.9837760133333332,4.337565133333333,2.77506508,1.7561848800000004,-0.2508447474757892,-24.387673055512813,5.647158183844661,4.6332268520366995,2.805972793417952,-8.79386183182354,10.328227355022667,-1.5334932814786044,10.733444487906999,-1.5326305207167603,-0.16241164,0.04162407999999998,-1.1324580133333333,1.3364937333333333,1.1448018417203112,0.6858033500655222,0.6858033500655222,0.6858033500655222
LBP08_S09,LBP08,56,57,9,56,56,1716496096.24,2024-05-23 20:28:16.240000+00:00,2024-05-24 05:28:16.240000+09:00,2024,5,23,20,28,16,240,,,,,,,,,0.199463,-0.033936,0.29541,135.009766,-115.661621,-38.818359,,,,,,,,,,,0.0,1.0,1.0,9.0,0.0,0.0,0.0,5.0,0.0,0.0037239333333333336,-0.24757813333333337,0.9868196399999999,4.651692733333333,0.9879557066666664,1.341959626666667,3.808893039517337,-25.832548213277967,6.47127010098197,4.785582573617393,1.7726708648868332,-8.535011027784261,9.944374078267975,-1.5552900780777235,10.529499155805881,-1.5313517487854476,0.19573906666666666,0.21364213333333337,-0.6914096399999998,1.1007908399999997,0.7496692828438984,0.6889966467044409,0.6889966467044409,0.6889966467044409
LBP08_S09,LBP08,57,58,9,57,57,1716496096.28,2024-05-23 20:28:16.280000+00:00,2024-05-24 05:28:16.280000+09:00,2024,5,23,20,28,16,280,,,,,,,,,0.511475,-0.291992,0.893555,-16.479492,-63.842773,4.760742,,,,,,,,,,,0.0,1.0,1.0,9.0,0.0,0.0,0.0,5.0,0.0,0.011624333333333334,-0.24511394666666667,0.9854589599999999,4.528808613333334,1.5861002266666664,1.5869140533333337,7.890922096539363,-24.249943778985326,7.232414620736324,5.101219457478968,0.8026731137274201,-8.245714442954808,9.729261572987769,-1.5219693811796728,10.347680693531673,-1.5291255442774623,0.49985066666666667,-0.04687805333333331,-0.0919039599999999,0.6386326799999998,0.5103866952763517,0.680491410922151,0.680491410922151,0.680491410922151
LBP08_S09,LBP08,58,59,9,58,58,1716496096.32,2024-05-23 20:28:16.320000+00:00,2024-05-24 05:28:16.320000+09:00,2024,5,23,20,28,16,320,,,,,,,,,0.15918,-0.375244,1.299805,81.542969,88.378906,44.494629,,,,,,,,,,,0.0,1.0,1.0,9.0,0.0,0.0,0.0,5.0,0.0,0.0016048000000000002,-0.23871746666666666,0.9639908666666668,4.699707053333333,3.9208984,1.9783528533333337,11.125153303238033,-20.362571506713753,7.7283745578177685,5.54622558960849,-0.011829746541130004,-7.936579460642098,9.682461038848402,-1.5638707980326092,10.214870521478296,-1.5297446648185722,0.1575752,-0.13652653333333337,0.3358141333333333,0.6299158666666667,0.3952727793631577,0.6675269276694695,0.6675269276694695,0.6675269276694695
LBP08_S09,LBP08,59,60,9,59,59,1716496096.36,2024-05-23 20:28:16.360000+00:00,2024-05-24 05:28:16.360000+09:00,2024,5,23,20,28,16,360,,,,,,,,,-0.427979,-0.533936,1.530029,22.827148,-22.033691,11.413574,,,,,,,,,,,0.0,1.0,1.0,9.0,0.0,0.0,0.0,5.0,0.0,0.007799466666666667,-0.24724937333333336,0.96818032,4.418945333333333,0.88785804,1.5299478933333335,13.068245069480193,-15.227924388588947,7.731789190180115,6.068955392387697,-0.6209467220846879,-7.627307893034893,9.76696575614002,-1.538251557067444,10.152464292582493,-1.5339463359595717,-0.43577846666666664,-0.2866866266666666,0.5618486800000001,1.2843137733333334,0.7666590070804661,0.6718370180786433,0.6718370180786433,0.6718370180786433
LBP08_S09,LBP08,60,61,9,60,60,1716496096.4,2024-05-23 20:28:16.400000+00:00,2024-05-24 05:28:16.400000+09:00,2024,5,23,20,28,16,400,,,,,,,,,0.074463,-0.169922,1.622803,-9.70459,-53.405762,4.577637,,,,,,,,,,,0.0,1.0,1.0,9.0,0.0,0.0,0.0,5.0,0.0,0.013248693333333334,-0.24043295999999997,0.9727310933333333,5.16438804,0.4736327733333333,1.6780598800000004,13.760988214592231,-9.903094797491242,7.104152391152573,6.619394920971387,-1.0170705139843377,-7.343141797388791,9.938438157314078,-1.5141006264519365,10.171148243939854,-1.5345694817790956,0.06121430666666667,0.07051095999999998,0.6500719066666667,0.7817971733333333,0.6567438394519112,0.6712081356358627,0.6712081356358627,0.6712081356358627
LBP08_S09,LBP08,61,62,9,61,61,1716496096.44,2024-05-23 20:28:16.440000+00:00,2024-05-24 05:28:16.440000+09:00,2024,5,23,20,28,16,440,,,,,,,,,-0.159668,-0.161865,0.541016,-30.456543,141.540527,35.095215,,,,,,,,,,,0.0,1.0,1.0,9.0,0.0,0.0,0.0,5.0,0.0,0.016132800000000003,-0.24685874666666663,0.9794986666666667,3.7630208533333334,1.48356116,2.7148437333333337,13.572394140757657,-5.172773094822406,5.880894382772138,7.162290686601693,-1.223981437777234,-7.107906022077906,10.164588848453041,-1.5035112973192208,10.26757396977119,-1.5388160362577585,-0.1758008,0.08499374666666662,-0.4384826666666667,0.6992772133333334,0.47999677834355164,0.6635596813441702,0.6635596813441702,0.6635596813441702
LBP08_S09,LBP08,62,63,9,62,62,1716496096.48,2024-05-23 20:28:16.480000+00:00,2024-05-24 05:28:16.480000+09:00,2024,5,23,20,28,16,480,,,,,,,,,-0.090576,-0.152832,0.020264,-29.785156,-64.086914,-20.935059,,,,,,,,,,,0.0,1.0,1.0,9.0,0.0,0.0,0.0,5.0,0.0,0.004739573333333335,-0.24654949333333329,0.9851822666666668,4.40022788,2.0817056933333333,3.260091133333334,12.936798767151258,-1.4418976292721362,4.284932866761553,7.679762637287744,-1.2816573429481195,-6.936508707407444,10.427682041458347,-1.55098269491743,10.424587077851678,-1.5388735119438945,-0.09531557333333333,0.09371749333333329,-0.9649182666666668,1.1539513333333336,0.9741330958465327,0.6845774751906852,0.6755048126711842,0.6755048126711842
LBP08_S09,LBP08,63,64,9,63,63,1716496096.52,2024-05-23 20:28:16.520000+00:00,2024-05-24 05:28:16.520000+09:00,2024,5,23,20,28,16,520,,,,,,,,,0.269287,-0.133301,0.615234,64.086914,-96.069336,-20.141602,,,,,,,,,,,0.0,1.0,1.0,9.0,0.0,0.0,0.0,5.0,0.0,0.004342440000000002,-0.24847006666666663,0.9897916400000001,3.9746093866666667,0.11393225333333325,3.3007812400000005,12.129210893744071,1.1966306741749657,2.6694688874545833,8.164931073037506,-1.233792115981121,-6.82972995190926,10.71604188256639,-1.5527794808488073,10.615242386994446,-1.5395714310158257,0.26494456,0.11516906666666663,-0.37455764000000014,0.7546712666666667,0.4730253264602588,0.6798801202110586,0.66800557244115,0.66800557244115
LBP08_S09,LBP08,64,65,9,64,64,1716496096.56,2024-05-23 20:28:16.560000+00:00,2024-05-24 05:28:16.560000+09:00,2024,5,23,20,28,16,560,,,,,,,,,0.417725,-0.364014,1.056396,-24.108887,-5.004883,8.972168,,,,,,,,,,,0.0,1.0,1.0,9.0,0.0,0.0,0.0,5.0,0.0,0.014046213333333337,-0.2434310133333333,0.9880370799999999,3.782552093333334,1.3842773066666667,3.5001627600000007,11.177489316020717,2.8010738193203735,1.423829437941279,8.612030645678335,-1.121749163208306,-6.772776774391609,11.013441708339847,-1.5114456224175068,10.808793185275862,-1.5360782463690774,0.4036787866666667,-0.1205829866666667,0.06835891999999999,0.5926206933333333,0.4268134972346729,0.6622143464855647,0.6593915697552043,0.6593915697552043
LBP08_S09,LBP08,65,66,9,65,65,1716496096.6,2024-05-23 20:28:16.600000+00:00,2024-05-24 05:28:16.600000+09:00,2024,5,23,20,28,16,600,,,,,,,,,-0.091309,-0.200928,1.399658,45.715332,84.594727,26.733398,,,,,,,,,,,0.0,1.0,1.0,9.0,0.0,0.0,0.0,5.0,0.0,-0.0011914133333333333,-0.23765953333333334,0.9661588266666666,3.81103516,3.925781213333333,3.8037109466666665,9.919878671258365,3.4514252737236784,0.8824572421246046,9.00882579252867,-0.9836921522593589,-6.7374784847066245,11.292484613336038,-1.5759588262652344,10.975922753733318,-1.5391484932591084,-0.09011758666666667,0.036731533333333344,0.43349917333333343,0.5603482933333335,0.44428810275352343,0.643983692790109,0.651974208824112,0.651974208824112
LBP08_S09,LBP08,66,67,9,66,66,1716496096.64,2024-05-23 20:28:16.640000+00:00,2024-05-24 05:28:16.640000+09:00,2024,5,23,20,28,16,640,,,,,,,,,-0.415771,-0.429688,1.670166,18.432617,-53.100586,-7.69043,,,,,,,,,,,0.0,1.0,1.0,9.0,0.0,0.0,0.0,5.0,0.0,0.003489573333333334,-0.24077801333333332,0.9700325333333334,3.052571613333334,0.7983398133333335,3.094889333333334,8.145673872213534,3.2305886082747164,1.2582206807006167,9.334652747417211,-0.8544686079283703,-6.6871496574786,11.514505159072833,-1.5558648349390851,11.091749593640246,-1.5436721001459095,-0.41926057333333333,-0.1889099866666667,0.7001334666666666,1.3083040266666668,0.8376474691425265,0.6680199022186707,0.6581633175013925,0.6581633175013925
LBP08_S09,LBP08,67,68,9,67,67,1716496096.68,2024-05-23 20:28:16.680000+00:00,2024-05-24 05:28:16.680000+09:00,2024,5,23,20,28,16,680,,,,,,,,,0.197998,-0.233643,1.554688,11.657715,-10.681152,-10.681152,,,,,,,,,,,0.0,1.0,1.0,9.0,0.0,0.0,0.0,5.0,0.0,0.010058586666666668,-0.2477376533333333,0.9817968533333334,2.4845377600000003,0.80566404,3.498535173333334,5.736918950287397,2.2972640341328625,2.599572738975529,9.564129505428706,-0.7625780465630558,-6.583166747919579,11.635814664415461,-1.5289485718989846,11.13704638554891,-1.5462527966284216,0.18793941333333333,0.014094653333333318,0.5728911466666666,0.7749252133333333,0.6030954719326886,0.6558293288023898,0.6563869353862729,0.6563869353862729
LBP08_S09,LBP08,68,69,9,68,68,1716496096.72,2024-05-23 20:28:16.720000+00:00,2024-05-24 05:28:16.720000+09:00,2024,5,23,20,28,16,720,,,,,,,,,-0.468262,0.059814,-0.045654,-10.009766,164.001465,17.39502,,,,,,,,,,,0.0,1.0,1.0,9.0,0.0,0.0,0.0,5.0,0.0,0.010146480000000001,-0.24985679999999996,0.98940752,2.553710933333334,2.5366210799999998,4.4132487199999995,2.751613761840823,0.9638124841673709,4.768811234718053,9.674194055902339,-0.724025547196361,-6.3924142985308565,11.617969021662558,-1.5289389515651233,11.09884200894465,-1.5482863936428752,-0.47840848,0.30967079999999997,-1.03506152,1.8231408,1.1815765012445283,0.6824198504843124,0.6727991093193434,0.6727991093193434
LBP08_S09,LBP08,69,70,9,69,69,1716496096.76,2024-05-23 20:28:16.760000+00:00,2024-05-24 05:28:16.760000+09:00,2024,5,23,20,28,16,760,,,,,,,,,-0.131104,-0.30249,0.176514,-31.188965,-67.138672,-16.418457,,,,,,,,,,,0.0,1.0,1.0,9.0,0.0,0.0,0.0,5.0,0.0,0.0004524666666666673,-0.25342450666666666,0.9959569999999999,2.04752604,2.074381493333333,4.770507826666667,-0.5693986966520128,-0.30981394309792737,7.450500412699175,9.651418108036259,-0.7364181049202781,-6.09439428202289,11.438261440714575,-1.5689540259677544,10.971132573190328,-1.5466215573196975,-0.13155646666666668,-0.04906549333333332,-0.8194429999999999,1.00006496,0.8313852036251674,0.6988681805652274,0.677604748540732,0.677604748540732
LBP08_S09,LBP08,70,71,9,70,70,1716496096.8,2024-05-23 20:28:16.800000+00:00,2024-05-24 05:28:16.800000+09:00,2024,5,23,20,28,16,800,,,,,,,,,0.354736,-0.027832,0.696533,50.415039,-88.989258,3.90625,,,,,,,,,,,0.0,1.0,1.0,9.0,0.0,0.0,0.0,5.0,0.0,0.00276692,-0.24882814666666667,0.9980598666666667,2.32991536,0.2530924266666665,4.587402346666667,-3.853935880741256,-1.042910528331606,10.20359889909728,9.497260672806608,-0.7781345260535424,-5.686250326058999,11.096706556383369,-1.5593366953199477,10.755664870647767,-1.5471947417400913,0.35196908,0.22099614666666667,-0.3015268666666667,0.8744920933333334,0.5134588410373114,0.695633794474197,0.6727769277318079,0.6727769277318079
LBP08_S09,LBP08,71,72,9,71,71,1716496096.84,2024-05-23 20:28:16.840000+00:00,2024-05-24 05:28:16.840000+09:00,2024,5,23,20,28,16,840,,,,,,,,,0.461914,-0.191406,1.05957,-34.484863,6.774902,28.320312,,,,,,,,,,,0.0,1.0,1.0,9.0,0.0,0.0,0.0,5.0,0.0,0.00989256,-0.24562501333333334,0.9868000933333334,1.8025716133333336,2.7945963333333332,5.091145840000001,-6.679169307501001,-0.9313489628170291,12.55827418037858,9.230093900506567,-0.8153884845662236,-5.1839193588438555,10.61755676753969,-1.5293182621443424,10.4622608195498,-1.5415874999497154,0.45202144,0.054219013333333343,0.0727699066666665,0.5790103599999998,0.46104071722873796,0.678557128848129,0.6667273217174344,0.6667273217174344
LBP08_S09,LBP08,72,73,9,72,72,1716496096.88,2024-05-23 20:28:16.880000+00:00,2024-05-24 05:28:16.880000+09:00,2024,5,23,20,28,16,880,,,,,,,,,-0.354736,-0.439697,1.512939,-23.803711,28.625488,40.710449,,,,,,,,,,,0.0,1.0,1.0,9.0,0.0,0.0,0.0,5.0,0.0,-0.00012371999999999974,-0.24430990666666663,0.96637692,2.1476236933333337,2.6220702799999995,4.694824226666667,-8.660908057290671,0.0035420426401957215,14.134653634286055,8.88365757821494,-0.8152468028606158,-4.618533213472413,10.045638275415754,-1.571318665061967,10.108141820069987,-1.5410954257431961,-0.35461228,-0.19538709333333337,0.5465620800000001,1.0965614533333334,0.6801882773629472,0.6764186575791339,0.6671012371520321,0.6671012371520321
LBP08_S09,LBP08,73,74,9,73,73,1716496096.92,2024-05-23 20:28:16.920000+00:00,2024-05-24 05:28:16.920000+09:00,2024,5,23,20,28,16,920,,,,,,,,,-0.187012,-0.521484,1.741455,29.724121,-82.641602,7.873535,,,,,,,,,,,0.0,1.0,1.0,9.0,0.0,0.0,0.0,5.0,0.0,0.008196586666666667,-0.24366538666666665,0.9716373333333334,2.0589192666666674,0.05289710666666631,3.8810221466666666,-9.538342163142882,1.4175215043687743,14.740232925694066,8.502123891689225,-0.7585459426858648,-4.028923896444651,9.438947525023151,-1.5361311176170291,9.71610562054374,-1.5415664180903859,-0.19520858666666668,-0.2778186133333333,0.7698176666666666,1.2428448666666667,0.8413731717466185,0.6547409088887599,0.6718112894383722,0.6718112894383722
LBP08_S09,LBP08,74,75,9,74,74,1716496096.96,2024-05-23 20:28:16.960000+00:00,2024-05-24 05:28:16.960000+09:00,2024,5,23,20,28,16,960,,,,,,,,,0.40918,-0.29248,1.395752,-34.973145,63.293457,14.648438,,,,,,,,,,,0.0,1.0,1.0,9.0,0.0,0.0,0.0,5.0,0.0,0.012594373333333334,-0.24172202666666665,0.9766666266666666,2.5366210933333337,0.2742512666666663,3.668619813333333,-9.239383619673392,2.8083494341407484,14.403285318950209,8.132548546902289,-0.646211965320235,-3.4527924836866424,8.858764682914234,-1.517177466621447,9.311870079523594,-1.541007777923992,0.39658562666666664,-0.05075797333333337,0.4190853733333335,0.8664289733333335,0.5792141929178183,0.6477349958789282,0.6693745237404629,0.6693745237404629
LBP08_S09,LBP08,75,76,9,75,75,1716496097.0,2024-05-23 20:28:17+00:00,2024-05-24 05:28:17+09:00,2024,5,23,20,28,17,0,20.0,28.0,15.0,40.794628,141.620956,-10.867,3.0,15.0,-0.756592,0.227539,-0.226318,-25.878906,133.178711,20.874023,-541.0,39.0,587.0,160.0,0.0,1020.700012,24.0,0.076305,-61.806309,3.817969,0.0,1.0,1.0,9.0,0.0,0.0,0.0,6.0,0.0,0.012067026666666668,-0.24409182666666662,0.9763866800000002,2.3665364533333335,0.707193973333333,4.079589866666667,-7.908595033885896,3.757630556958555,13.32748505486601,7.816204745546853,-0.49590674304189275,-2.919693081492002,8.35844410235636,-1.5198864083614734,8.921116948216653,-1.540536708189466,-0.7686590266666667,0.4716308266666666,-1.20270468,2.4429945333333336,1.5032534328024445,0.6928114905661783,0.6907560342292316,0.6907560342292316
LBP08_S09,LBP08,76,77,9,76,76,1716496097.04,2024-05-23 20:28:17.040000+00:00,2024-05-24 05:28:17.040000+09:00,2024,5,23,20,28,17,40,,,,,,,,,0.059082,-0.385742,0.378174,-37.109375,-67.321777,-13.549805,,,,,,,,,,,0.0,1.0,1.0,9.0,0.0,0.0,0.0,6.0,0.0,0.004658173333333334,-0.24167970666666666,0.97703772,2.597656253333333,0.16357418666666637,4.245605493333334,-5.8806807279702165,4.1178991382888155,11.791595458962863,7.580977516428044,-0.3311907775103401,-2.4480292631334875,7.973315164274727,-1.5509440928738902,8.566720540111865,-1.539873756573105,0.05442382666666667,-0.1440622933333333,-0.59886372,0.79734984,0.6183475175026913,0.7002931642427703,0.6889458213110682,0.6889458213110682
LBP08_S09,LBP08,77,78,9,77,77,1716496097.08,2024-05-23 20:28:17.080000+00:00,2024-05-24 05:28:17.080000+09:00,2024,5,23,20,28,17,80,,,,,,,,,0.364502,-0.058105,0.761963,63.781738,-40.100098,-10.253906,,,,,,,,,,,0.0,1.0,1.0,9.0,0.0,0.0,0.0,6.0,0.0,0.008779266666666667,-0.2434896,0.9781217066666666,3.130696613333334,-0.7104492533333336,4.086100293333333,-3.5938732607212915,4.042707701372067,10.044073966703323,7.4372225859991925,-0.16948246945545742,-2.0462663044653544,7.715452669152961,-1.5336584953708843,8.266469884896406,-1.542459152538007,0.3557227333333333,0.1853846,-0.2161587066666667,0.7572660400000001,0.4556651175974565,0.6908046358271891,0.6832560480497605,0.6832560480497605
LBP08_S09,LBP08,78,79,9,78,78,1716496097.12,2024-05-23 20:28:17.120000+00:00,2024-05-24 05:28:17.120000+09:00,2024,5,23,20,28,17,120,,,,,,,,,0.363525,-0.156738,1.101807,3.78418,23.31543,7.69043,,,,,,,,,,,0.0,1.0,1.0,9.0,0.0,0.0,0.0,6.0,0.0,0.011132773333333335,-0.24158529333333334,0.9725878533333334,2.855631506666667,1.3240559599999997,4.266764360000001,-1.4664709298245135,3.8559862767513975,8.243327475852178,7.378563748806212,-0.015243018385401513,-1.7165332054312672,7.575613611461109,-1.5233525499011853,8.031412198226272,-1.5420616602982657,0.35239222666666664,0.08484729333333335,0.12921914666666656,0.5664586666666666,0.3848076564549432,0.6712985992207986,0.6761501339641697,0.6761501339641697
LBP08_S09,LBP08,79,80,9,79,79,1716496097.16,2024-05-23 20:28:17.160000+00:00,2024-05-24 05:28:17.160000+09:00,2024,5,23,20,28,17,160,,,,,,,,,-0.326172,-0.501709,1.586426,-16.967773,-1.342773,39.123535,,,,,,,,,,,0.0,1.0,1.0,9.0,0.0,0.0,0.0,6.0,0.0,0.0014941066666666666,-0.23470053333333335,0.9610448933333333,3.2153320266666667,1.0351562266666665,3.6596680133333335,0.21026153784177049,3.8559748005212033,6.468265390977923,7.386974210319883,0.13899597363544663,-1.4578025897921503,7.530730127645169,-1.5642433286224944,7.864883267530392,-1.5474613909117465,-0.3276661066666667,-0.2670084666666666,0.6253811066666666,1.2200556799999998,0.7548245672375803,0.6907067353683238,0.6779797719472722,0.6779797719472722
LBP08_S09,LBP08,80,81,9,80,80,1716496097.2,2024-05-23 20:28:17.200000+00:00,2024-05-24 05:28:17.200000+09:00,2024,5,23,20,28,17,200,,,,,,,,,-0.045166,-0.296631,1.64624,19.165039,-96.618652,-5.493164,,,,,,,,,,,0.0,1.0,1.0,9.0,0.0,0.0,0.0,6.0,0.0,0.004179653333333333,-0.23795573333333334,0.9647004933333333,2.8955078133333334,1.2589518,3.9689127999999996,1.3131402428218677,4.172206392755647,4.780848301917584,7.439499820032758,0.3058842293456725,-1.266568657715447,7.552742475335496,-1.552707179156336,7.762386747947234,-1.5513720507448006,-0.04934565333333333,-0.05867526666666664,0.6815395066666666,0.7895604266666666,0.6858380855338534,0.6723481851208655,0.6781583699833309,0.6781583699833309
LBP08_S09,LBP08,81,82,9,81,81,1716496097.24,2024-05-23 20:28:17.240000+00:00,2024-05-24 05:28:17.240000+09:00,2024,5,23,20,28,17,240,,,,,,,,,0.325439,-0.308594,1.280518,-39.18457,103.881836,47.912598,,,,,,,,,,,0.0,1.0,1.0,9.0,0.0,0.0,0.0,6.0,0.0,0.0035937200000000003,-0.23674154666666666,0.9700195066666667,3.3504231733333336,2.636718733333333,4.31315108,1.8541572929540469,4.740567684153891,3.288564251783877,7.513666111750919,0.49550693671182816,-1.1350260876440919,7.615050215385081,-1.5551722217933626,7.712561243804875,-1.5585575640460956,0.32184527999999996,-0.07185245333333332,0.31049849333333335,0.7041962266666666,0.4529420202085111,0.6604790946154501,0.6731535622105571,0.6731535622105571
LBP08_S09,LBP08,82,83,9,82,82,1716496097.28,2024-05-23 20:28:17.280000+00:00,2024-05-24 05:28:17.280000+09:00,2024,5,23,20,28,17,280,,,,,,,,,-0.560791,0.02124,-0.07251,15.930176,84.289551,-20.507812,,,,,,,,,,,0.0,1.0,1.0,9.0,0.0,0.0,0.0,6.0,0.0,0.0007844666666666673,-0.2336393333333333,0.9752766666666666,3.3976236933333333,3.199869773333333,4.8811849333333335,1.9095475773161228,5.381086950381553,2.155728180192008,7.590048014843564,0.7107504147270902,-1.0487969604364116,7.69506140871443,-1.5673437426645536,7.699282997075288,-1.5588434203775945,-0.5615754666666667,0.2548793333333333,-1.0477866666666666,1.8642414666666667,1.2158072948320278,0.6886959185976771,0.6849503824849369,0.6849503824849369
LBP08_S09,LBP08,83,84,9,83,83,1716496097.32,2024-05-23 20:28:17.320000+00:00,2024-05-24 05:28:17.320000+09:00,2024,5,23,20,28,17,320,,,,,,,,,0.030762,-0.160156,0.276123,-9.399414,-63.598633,-20.446777,,,,,,,,,,,0.0,1.0,1.0,9.0,0.0,0.0,0.0,6.0,0.0,-0.004427119999999999,-0.23549806666666664,0.9794693866666665,2.7579752533333335,1.5942382666666666,4.650065133333333,1.5592564511840235,5.901550087679859,1.5495608107824757,7.652418272890925,0.9468124182342845,-0.9868145280051126,7.773658218064359,-1.590128423751839,7.704521597357193,-1.5589606963382374,0.03518912,0.07534206666666665,-0.7033463866666665,0.8138775733333331,0.7082449017204676,0.7012148034919694,0.685446010553778,0.685446010553778
LBP08_S09,LBP08,84,85,9,84,84,1716496097.36,2024-05-23 20:28:17.360000+00:00,2024-05-24 05:28:17.360000+09:00,2024,5,23,20,28,17,360,,,,,,,,,0.391113,-0.065918,0.952637,30.761719,-33.874512,-29.663086,,,,,,,,,,,0.0,1.0,1.0,9.0,0.0,0.0,0.0,6.0,0.0,0.0033007466666666674,-0.23378907999999995,0.9816438666666666,1.77978516,1.2508137866666666,4.751790386666666,0.865955474443939,6.148894519743446,1.5554205488769823,7.687056491868683,1.1927681990240224,-0.9245977060500333,7.833799487082654,-1.5562840649519871,7.711258628875818,-1.5600966184362264,0.3878122533333333,0.16787107999999995,-0.02900686666666663,0.5846901999999999,0.4235805019705955,0.6874916632875747,0.6799904791249617,0.6799904791249617
LBP08_S09,LBP08,85,86,9,85,85,1716496097.4,2024-05-23 20:28:17.400000+00:00,2024-05-24 05:28:17.400000+09:00,2024,5,23,20,28,17,400,,,,,,,,,0.162598,-0.440918,1.392334,-49.987793,47.546387,27.22168,,,,,,,,,,,0.0,1.0,1.0,9.0,0.0,0.0,0.0,6.0,0.0,-0.004726599999999998,-0.23206382666666664,0.9648372266666666,1.6381835999999999,3.8907877466666667,5.0691732,-0.1070321200353311,5.995601845466895,2.12064921424025,7.6827752070672695,1.4325922728426983,-0.8397717374804233,7.86018906093276,-1.591741541374423,7.705851555760165,-1.5617109235299385,0.1673246,-0.20885417333333334,0.42749677333333336,0.8036755466666667,0.5043521375926957,0.681395995213206,0.6764060231753237,0.6764060231753237
LBP08_S09,LBP08,86,87,9,86,86,1716496097.44,2024-05-23 20:28:17.440000+00:00,2024-05-24 05:28:17.440000+09:00,2024,5,23,20,28,17,440,,,,,,,,,-0.43042,-0.416504,1.609619,37.414551,-24.963379,11.474609,,,,,,,,,,,0.0,1.0,1.0,9.0,0.0,0.0,0.0,6.0,0.0,0.003961560000000001,-0.24011395999999996,0.9711783733333332,0.7381184933333333,1.156412746666667,4.11621096,-1.2600465441609687,5.3148063622691035,3.0673939323789132,7.632373345300831,1.6451845273334624,-0.7170759801852669,7.840532696978865,-1.5538026561888802,7.679510764855712,-1.562765588245669,-0.43438156,-0.17639004000000003,0.6384406266666667,1.2492122266666668,0.7920904112901261,0.693879740531069,0.6787197109376197,0.6787197109376197
LBP08_S09,LBP08,87,88,9,87,87,1716496097.48,2024-05-23 20:28:17.480000+00:00,2024-05-24 05:28:17.480000+09:00,2024,5,23,20,28,17,480,,,,,,,,,0.031982,-0.45752,1.849609,31.616211,-63.354492,2.075195,,,,,,,,,,,0.0,1.0,1.0,9.0,0.0,0.0,0.0,6.0,0.0,0.008365853333333334,-0.23933596,0.9799251200000001,1.4021809866666666,1.374511706666667,4.330240906666666,-2.432058740054125,4.000307473071116,4.165864414589036,7.535090995698666,1.805196826256307,-0.5504414036017053,7.767838671972016,-1.5348312549773129,7.62878289665088,-1.5627444952806033,0.023616146666666664,-0.21818404,0.86968388,1.1114840666666665,0.8969459564689266,0.6907922549559649,0.6876848650733249,0.6829986569284296
LBP08_S09,LBP08,88,89,9,88,88,1716496097.52,2024-05-23 20:28:17.520000+00:00,2024-05-24 05:28:17.520000+09:00,2024,5,23,20,28,17,520,,,,,,,,,0.041016,-0.229004,0.90332,-25.57373,165.405273,41.503906,,,,,,,,,,,0.0,1.0,1.0,9.0,0.0,0.0,0.0,6.0,0.0,0.008512346666666669,-0.24283532000000002,0.9859407466666666,0.6974283733333333,2.686360666666667,5.02441408,-3.412795140717811,2.0368995117837856,5.220872927939401,7.398579190069953,1.8866728067276584,-0.3416064864841293,7.6429839266473545,-1.5347117708810738,7.555079582310247,-1.563990884895567,0.03250365333333333,0.013831320000000008,-0.08262074666666663,0.12895571999999997,0.08985533191031803,0.6754654551739673,0.6776727876925129,0.6715920545242351
LBP08_S09,LBP08,89,90,9,89,89,1716496097.56,2024-05-23 20:28:17.560000+00:00,2024-05-24 05:28:17.560000+09:00,2024,5,23,20,28,17,560,,,,,,,,,-0.12793,-0.01001,-0.014893,-27.34375,-25.146484,-16.906738,,,,,,,,,,,0.0,1.0,1.0,9.0,0.0,0.0,0.0,6.0,0.0,-0.0022754133333333323,-0.24436526666666666,0.99111652,0.4589843599999999,2.2371419200000005,5.0325521066666665,-4.002182172410045,-0.4273516256503136,6.123290815466077,7.238491903173552,1.8695787417016458,-0.09667485386548622,7.476659396488627,-1.5803863795596176,7.463464409349029,-1.5605699009695289,-0.12565458666666665,0.23435526666666667,-1.0060095199999999,1.3660193733333332,1.0405607240788042,0.7000153442477324,0.6811148453666486,0.6785537275346988
LBP08_S09,LBP08,90,91,9,90,90,1716496097.6,2024-05-23 20:28:17.600000+00:00,2024-05-24 05:28:17.600000+09:00,2024,5,23,20,28,17,600,,,,,,,,,0.323242,-0.012939,0.561279,-7.629395,-79.89502,-17.51709,,,,,,,,,,,0.0,1.0,1.0,9.0,0.0,0.0,0.0,6.0,0.0,0.001783840000000001,-0.24348310666666667,0.9946516799999998,-0.05045574666666667,0.6526692666666668,4.346516946666667,-4.093780674464889,-3.071546102189801,6.84849516771574,7.074740676194956,1.7467168976140537,0.1772649528431434,7.289334566290973,-1.5632538263136404,7.36110404259731,-1.5584478531231556,0.32145816,0.23054410666666666,-0.43337267999999984,0.9853749466666665,0.5867689609375221,0.7057145785750923,0.6748491356826007,0.676854009634751
LBP08_S09,LBP08,91,92,9,91,91,1716496097.64,2024-05-23 20:28:17.640000+00:00,2024-05-24 05:28:17.640000+09:00,2024,5,23,20,28,17,640,,,,,,,,,0.401855,-0.452637,1.034912,-27.587891,-7.385254,8.544922,,,,,,,,,,,0.0,1.0,1.0,9.0,0.0,0.0,0.0,6.0,0.0,0.0036653466666666675,-0.23818037333333336,0.9805208266666667,-0.34667970666666664,3.683268213333334,4.466959653333333,-3.7317963153310116,-5.478148350748975,7.420685861171435,6.925468823581716,1.5275909635840947,0.4740923872900008,7.107771533336763,-1.5549612921427067,7.255869681868401,-1.5574490390672506,0.39818965333333334,-0.21445662666666665,0.05439117333333332,0.6670374533333333,0.45552721595920365,0.6904297684477594,0.679224835333215,0.6728298861133774
LBP08_S09,LBP08,92,93,9,92,92,1716496097.68,2024-05-23 20:28:17.680000+00:00,2024-05-24 05:28:17.680000+09:00,2024,5,23,20,28,17,680,,,,,,,,,-0.082031,-0.372314,1.466309,25.390625,46.630859,26.855469,,,,,,,,,,,0.0,1.0,1.0,9.0,0.0,0.0,0.0,6.0,0.0,-0.0021419466666666655,-0.24519534666666662,0.9679752533333335,-0.3702799733333334,1.5722656133333335,3.5253906400000004,-3.1006826287356763,-7.249774977197529,7.8786453765363005,6.801441518432289,1.2375999644961935,0.7892382023514528,6.9580282653081005,-1.5798076388141897,7.155449326831302,-1.5630626770278078,-0.07988905333333333,-0.12711865333333336,0.49833374666666663,0.7053414533333333,0.5204593508955467,0.6871243236062737,0.6714768262043317,0.6701089836987733
LBP08_S09,LBP08,93,94,9,93,93,1716496097.72,2024-05-23 20:28:17.720000+00:00,2024-05-24 05:28:17.720000+09:00,2024,5,23,20,28,17,720,,,,,,,,,-0.37085,-0.519775,1.657471,17.944336,-74.707031,-2.075195,,,,,,,,,,,0.0,1.0,1.0,9.0,0.0,0.0,0.0,6.0,0.0,0.003515600000000001,-0.24350914666666662,0.9769759066666666,1.1564127333333332,0.9749348800000003,3.3862304800000005,-2.449410565216108,-8.096081131472522,8.264575904727986,6.703465095823645,0.9137567192372926,1.1198212385405721,6.85750648845218,-1.5559185844914578,7.0670836023880454,-1.565358835202471,-0.3743656,-0.27626585333333337,0.6804950933333334,1.3311265466666669,0.8243457989412555,0.6728350955141429,0.6776274729992277,0.6728148927381151
LBP08_S09,LBP08,94,95,9,94,94,1716496097.76,2024-05-23 20:28:17.760000+00:00,2024-05-24 05:28:17.760000+09:00,2024,5,23,20,28,17,760,,,,,,,,,0.303223,-0.265137,1.556152,0.976562,-33.02002,14.770508,,,,,,,,,,,0.0,1.0,1.0,9.0,0.0,0.0,0.0,6.0,0.0,0.008522106666666668,-0.24563478666666663,0.9885221333333332,-1.3232422133333335,2.7856445200000004,3.7809244799999995,-1.9947128873132445,-7.856383776280976,8.629885156502874,6.623676580331114,0.5995013681860536,1.4650166448006872,6.810195819565462,-1.5350635864882531,6.997792691275777,-1.5729468300532052,0.2947008933333334,-0.01950221333333338,0.5676298666666668,0.8818329733333335,0.6398692197538349,0.6651744561592895,0.6820213183622584,0.6722468638935586
LBP08_S09,LBP08,95,96,9,95,95,1716496097.8,2024-05-23 20:28:17.800000+00:00,2024-05-24 05:28:17.800000+09:00,2024,5,23,20,28,17,800,,,,,,,,,-0.458252,0.118896,-0.003662,-4.394531,162.17041,31.433105,,,,,,,,,,,0.0,1.0,1.0,9.0,0.0,0.0,0.0,6.0,0.0,-0.0026400133333333315,-0.24829754666666667,0.9964973866666668,-0.8512370133333335,5.05533852,3.99983724,-1.8566201007086605,-6.475951813607396,9.03672526540869,6.549411776302768,0.34046329564175776,1.8264856554170348,6.807845453643672,-1.581753400815375,6.954706180906639,-1.5756400181311512,-0.45561198666666664,0.3671935466666667,-1.0001593866666667,1.82296492,1.158763212155717,0.6909866310040258,0.6933102127391113,0.680492903694612
LBP08_S09,LBP08,96,97,9,96,96,1716496097.84,2024-05-23 20:28:17.840000+00:00,2024-05-24 05:28:17.840000+09:00,2024,5,23,20,28,17,840,,,,,,,,,-0.121582,-0.413086,0.142578,-36.010742,-70.068359,-7.629395,,,,,,,,,,,0.0,1.0,1.0,9.0,0.0,0.0,0.0,6.0,0.0,-0.009492226666666666,-0.2498014533333333,1.0009830533333333,-1.2036133200000003,2.6456705599999997,3.18766276,-2.0508668080943995,-3.985478293969815,9.540058561748872,6.467377103978992,0.18104416388296515,2.20808799788699,6.8363291466078735,-1.6099390357944499,6.944888638742377,-1.5769543622058058,-0.11208977333333334,-0.1632845466666667,-0.8584050533333333,1.1337793733333332,0.8809569774139141,0.7077832814114328,0.6931702051297809,0.6838339715899338
LBP08_S09,LBP08,97,98,9,97,97,1716496097.88,2024-05-23 20:28:17.880000+00:00,2024-05-24 05:28:17.880000+09:00,2024,5,23,20,28,17,880,,,,,,,,,0.325928,-0.028076,0.637451,23.55957,-87.82959,-16.540527,,,,,,,,,,,0.0,1.0,1.0,9.0,0.0,0.0,0.0,6.0,0.0,0.0031184533333333347,-0.2470377733333333,0.9981119599999999,-1.37613936,3.142903626666667,3.32763672,-2.5220790505752944,-0.5264729565011007,10.15314382582865,6.36649394195598,0.15998524562292113,2.6142137509201357,6.8841814275394535,-1.5577928367239462,6.974187449794758,-1.5780869794049643,0.32280954666666667,0.2189617733333333,-0.3606609599999999,0.9024322799999999,0.5312500255703885,0.7018257513397305,0.6891222044594322,0.6813325954256789
LBP08_S09,LBP08,98,99,9,98,98,1716496097.92,2024-05-23 20:28:17.920000+00:00,2024-05-24 05:28:17.920000+09:00,2024,5,23,20,28,17,920,,,,,,,,,0.544189,-0.313965,1.168213,-24.719238,21.850586,19.165039,,,,,,,,,,,0.0,1.0,1.0,9.0,0.0,0.0,0.0,6.0,0.0,-0.009466186666666664,-0.24517253333333333,0.9725357866666667,-0.12532556000000036,5.327962226666667,3.5628255199999996,-3.1818682421677202,3.5883005459580355,10.816997134773548,6.239219212269271,0.3035172674612425,3.0468936363110775,6.950074815524654,-1.6105917193884158,7.045338039753941,-1.5818115748708443,0.5536551866666667,-0.06879246666666666,0.1956772133333332,0.8181248666666666,0.5912326454204679,0.6918201302866843,0.6732805195877222,0.6798793704255949
LBP08_S09,LBP08,99,100,9,99,99,1716496097.96,2024-05-23 20:28:17.960000+00:00,2024-05-24 05:28:17.960000+09:00,2024,5,23,20,28,17,960,,,,,,,,,-0.403564,-0.406982,1.532959,5.92041,65.368652,26.916504,,,,,,,,,,,0.0,1.0,1.0,9.0,0.0,0.0,0.0,6.0,0.0,-0.008567746666666664,-0.24168294666666668,0.9675325199999999,0.5940754799999997,2.0532226533333335,2.29736328,-3.92672460340653,7.847231639925307,11.397185012249487,6.08215022813301,0.6174065330582548,3.502781036801057,7.045794292797266,-1.6073182603390783,7.156350905504541,-1.5868310974261806,-0.3949962533333333,-0.16529905333333333,0.5654264800000001,1.125721786666667,0.7092622374449787,0.6970220520677709,0.6723785239733496,0.6803457651401883
LBP08_S09,LBP08,100,101,9,100,100,1716496098.0,2024-05-23 20:28:18+00:00,2024-05-24 05:28:18+09:00,2024,5,23,20,28,18,0,20.0,28.0,16.0,40.794701,141.620895,-10.071,3.0,15.0,-0.265381,-0.490479,1.771484,8.239746,-82.641602,11.71875,-543.0,43.0,589.0,121.0,0.0,1019.700012,24.07,0.066396,-53.531441,3.817969,0.0,1.0,1.0,9.0,0.0,0.0,0.0,5.0,0.0,-0.0013151466666666651,-0.24185221333333337,0.9798567333333333,1.6569009999999995,2.4584960933333337,1.9750976666666669,-4.635067697817991,11.60588430936401,11.71286588123615,5.89674752022029,1.0816419054328152,3.971295672050503,7.191159144648346,-1.5763972670601847,7.300171355131877,-1.5904178977570451,-0.2640658533333333,-0.24862678666666663,0.7916272666666667,1.3043199066666666,0.870758165781402,0.6717222413869292,0.6822668659765538,0.6833209589002073
LBP08_S09,LBP08,101,102,9,101,101,1716496098.04,2024-05-23 20:28:18.040000+00:00,2024-05-24 05:28:18.040000+09:00,2024,5,23,20,28,18,40,,,,,,,,,0.384521,-0.313477,1.524902,-6.835938,43.334961,15.441895,,,,,,,,,,,0.0,1.0,1.0,9.0,0.0,0.0,0.0,5.0,0.0,0.0010676666666666682,-0.24389648,0.9882063466666667,0.8089192266666663,4.674479173333333,2.5968424666666667,-5.1604143491682395,14.242255752326695,11.579231423604293,5.690330946253561,1.651332135525883,4.434464928994674,7.400759643860566,-1.5662874641342932,7.465751265549237,-1.5910841281315267,0.3834533333333333,-0.06958052,0.5366956533333332,0.9897295066666666,0.6632647525044643,0.673518930787,0.6869060475148853,0.6830124018787342
LBP08_S09,LBP08,102,103,9,102,102,1716496098.08,2024-05-23 20:28:18.080000+00:00,2024-05-24 05:28:18.080000+09:00,2024,5,23,20,28,18,80,,,,,,,,,-0.868164,0.135986,-0.119873,7.202148,162.780762,20.568848,,,,,,,,,,,0.0,1.0,1.0,9.0,0.0,0.0,0.0,5.0,0.0,-0.011031946666666665,-0.24544596,0.9952734133333333,0.9431965733333331,4.51009116,3.1119791866666664,-5.339591898873173,15.336937720240613,10.838908097845282,5.476747270298635,2.2648096443355072,4.868021252908486,7.669534164899938,-1.6170535934729895,7.639992777721005,-1.5849630183725163,-0.8571320533333334,0.38143196,-1.1151464133333333,2.353710426666667,1.457297917424936,0.7135842427800994,0.7021944393036442,0.6947440005991313
LBP08_S09,LBP08,103,104,9,103,103,1716496098.12,2024-05-23 20:28:18.120000+00:00,2024-05-24 05:28:18.120000+09:00,2024,5,23,20,28,18,120,,,,,,,,,-0.013672,-0.306396,0.331299,-47.668457,-71.899414,-12.207031,,,,,,,,,,,0.0,1.0,1.0,9.0,0.0,0.0,0.0,5.0,0.0,-0.008525426666666665,-0.24860350666666667,1.0017805733333334,0.41259761333333306,1.9376627733333336,2.75472008,-5.0222506613312925,14.792584214781659,9.374050425267075,5.275857243845383,2.8565130129267735,5.2429832699191685,7.967635145958185,-1.6061138100448191,7.810006750007917,-1.5805967066212796,-0.005146573333333335,-0.057792493333333333,-0.6704815733333334,0.7334206400000001,0.6729873696305904,0.7251114313071251,0.6982050152639618,0.69441927476378
LBP08_S09,LBP08,104,105,9,104,104,1716496098.16,2024-05-23 20:28:18.160000+00:00,2024-05-24 05:28:18.160000+09:00,2024,5,23,20,28,18,160,,,,,,,,,0.430908,-0.270996,0.956543,19.104004,-50.90332,-16.540527,,,,,,,,,,,0.0,1.0,1.0,9.0,0.0,0.0,0.0,5.0,0.0,-3.259999999999893e-05,-0.24847003999999998,0.9911295333333334,0.12044266666666639,5.208333346666667,3.59700524,-4.109727621034398,12.83298478875647,7.112860698895713,5.111468139004008,3.369832404477032,5.527497697874997,8.24840031583882,-1.5709315897968996,7.9653657881937505,-1.575179890784454,0.4309406,-0.02252596000000004,-0.03458653333333339,0.48805309333333347,0.4329127485883263,0.7122349585611549,0.7014708469647395,0.6905735905553174
LBP08_S09,LBP08,105,106,9,105,105,1716496098.2,2024-05-23 20:28:18.200000+00:00,2024-05-24 05:28:18.200000+09:00,2024,5,23,20,28,18,200,,,,,,,,,0.35083,-0.214844,1.311523,2.807617,62.37793,17.089844,,,,,,,,,,,0.0,1.0,1.0,9.0,0.0,0.0,0.0,5.0,0.0,-0.004196013333333332,-0.24563149333333334,0.9703515333333335,0.8414713066666665,4.785156253333333,3.6360677333333333,-2.5831437240820736,9.893816236812068,4.05389780715188,5.0081423900407245,3.765585053949515,5.689653610161073,8.46364455781726,-1.5884157045601914,8.100106328249876,-1.5749101431498838,0.3550260133333333,0.030787493333333332,0.34117146666666653,0.7269849733333331,0.49334502080855597,0.704535235972143,0.6884417105465043,0.6877152054865238
LBP08_S09,LBP08,106,107,9,106,106,1716496098.24,2024-05-23 20:28:18.240000+00:00,2024-05-24 05:28:18.240000+09:00,2024,5,23,20,28,18,240,,,,,,,,,-0.330322,-0.651855,1.643799,-6.530762,-9.70459,15.686035,,,,,,,,,,,0.0,1.0,1.0,9.0,0.0,0.0,0.0,5.0,0.0,0.005237586666666668,-0.24461911999999997,0.9768684533333334,1.5738931866666666,1.5128580800000002,2.7205403866666664,-0.5100469887857605,6.484272385270839,0.3179180981178477,4.987740510489294,4.024955949360349,5.702370334085787,8.578744268325575,-1.5487279382043455,8.214115753612758,-1.573352044739357,-0.3355595866666667,-0.40723588,0.6669305466666666,1.4097260133333334,0.8504338023858043,0.7204349072592348,0.6904570009373424,0.6900397568707991
LBP08_S09,LBP08,107,108,9,107,107,1716496098.28,2024-05-23 20:28:18.280000+00:00,2024-05-24 05:28:18.280000+09:00,2024,5,23,20,28,18,280,,,,,,,,,-0.057373,-0.137207,1.701416,15.197754,-78.00293,-2.197266,,,,,,,,,,,0.0,1.0,1.0,9.0,0.0,0.0,0.0,5.0,0.0,0.013486293333333335,-0.24487302666666666,0.9905370666666666,1.5063476133333331,2.626139333333333,3.229166693333333,1.9659578142737635,3.0987010736099774,-3.7946850246110877,5.066378823060244,4.1489039923047475,5.550582933101343,8.584321150408545,-1.5141297192115792,8.31345342858058,-1.5759264325129954,-0.07085929333333334,0.10766602666666666,0.7108789333333334,0.8894042533333334,0.722469286964522,0.7007013869445344,0.6946986527711059,0.6904965108157812
LBP08_S09,LBP08,108,109,9,108,108,1716496098.32,2024-05-23 20:28:18.320000+00:00,2024-05-24 05:28:18.320000+09:00,2024,5,23,20,28,18,320,,,,,,,,,0.19165,-0.290527,0.983398,-28.259277,128.662109,33.203125,,,,,,,,,,,0.0,1.0,1.0,9.0,0.0,0.0,0.0,5.0,0.0,0.003502573333333335,-0.25124998666666665,1.0000292533333335,1.5380858933333332,4.983723973333333,3.94449872,4.6442550798331315,0.19913090437162545,-7.788214266714059,5.252149026253569,4.1568692284796125,5.239054362432781,8.503665197383006,-1.55642356102016,8.409475201396619,-1.5765038839766232,0.18814742666666665,-0.03927701333333333,-0.016631253333333484,0.24405569333333346,0.19292158128398457,0.6800884541270753,0.6906516288095225,0.6835857479056173
LBP08_S09,LBP08,109,110,9,109,109,1716496098.36,2024-05-23 20:28:18.360000+00:00,2024-05-24 05:28:18.360000+09:00,2024,5,23,20,28,18,360,,,,,,,,,-0.403809,-0.178955,0.030518,22.338867,12.695312,-18.066406,,,,,,,,,,,0.0,1.0,1.0,9.0,0.0,0.0,0.0,5.0,0.0,-0.008417999999999998,-0.2567089733333333,1.0080761333333335,2.6692707866666665,3.078613306666667,3.469238306666666,7.293534331643972,-1.7718006819847347,-11.039638238715785,5.543890399519328,4.0859972012002235,4.7974688328841495,8.393199693358513,-1.6046207839933742,8.517307775086943,-1.571737952012292,-0.395391,0.07775397333333331,-0.9775581333333334,1.4507031066666667,1.0573550147874988,0.7054394346397512,0.696465548963663,0.6887058748492048
LBP08_S09,LBP08,110,111,9,110,110,1716496098.4,2024-05-23 20:28:18.400000+00:00,2024-05-24 05:28:18.400000+09:00,2024,5,23,20,28,18,400,,,,,,,,,-0.11377,-0.008057,0.272705,18.188477,-35.522461,-52.67334,,,,,,,,,,,0.0,1.0,1.0,9.0,0.0,0.0,0.0,5.0,0.0,0.002451133333333335,-0.25324869333333333,1.0065527066666666,2.850748653333333,2.574869826666667,3.4212239866666674,9.68681010439247,-2.4142015755591375,-12.951985845842621,5.931362803695027,3.989429138177858,4.279389399050444,8.331253398277163,-1.5608162829549181,8.654349515114045,-1.567994581432117,-0.11622113333333334,0.24519169333333332,-0.7338477066666667,1.0952605333333332,0.7824057610299645,0.7165615795772422,0.698978787395224,0.689972089527323
LBP08_S09,LBP08,111,112,9,111,111,1716496098.44,2024-05-23 20:28:18.440000+00:00,2024-05-24 05:28:18.440000+09:00,2024,5,23,20,28,18,440,,,,,,,,,0.312012,0.04541,0.795898,30.273438,-49.194336,-43.09082,,,,,,,,,,,0.0,1.0,1.0,9.0,0.0,0.0,0.0,5.0,0.0,-0.005078159999999997,-0.24655923999999999,0.9795800533333334,2.6334634933333327,5.067545613333333,3.6482747733333336,11.638049942816991,-1.4674843607973675,-13.140601717792451,6.396884801407706,3.9307297637459633,3.753765330338746,8.394136393538792,-1.5920313418706762,8.838727757036576,-1.5674466697826526,0.31709016,0.29196923999999996,-0.18368205333333343,0.7927414533333335,0.4685416773263108,0.7036196302186896,0.6987496853748794,0.6870196840313096
LBP08_S09,LBP08,112,113,9,112,112,1716496098.48,2024-05-23 20:28:18.480000+00:00,2024-05-24 05:28:18.480000+09:00,2024,5,23,20,28,18,480,,,,,,,,,0.393799,-0.316895,1.096436,-16.723633,17.211914,-6.408691,,,,,,,,,,,0.0,1.0,1.0,9.0,0.0,0.0,0.0,5.0,0.0,-0.012275426666666665,-0.2430892,0.9625748400000002,2.7091470933333333,3.1095378000000005,3.032226586666667,13.024539933871559,1.056059514293678,-11.567030713449832,6.917866398762569,3.97297214431771,3.291084101800753,8.629751893060329,-1.622828108109269,9.087126189101108,-1.5721908336987824,0.40607442666666665,-0.07380579999999998,0.1338611599999998,0.6137413866666664,0.43389232104618725,0.6850974848017799,0.6879448698788724,0.68682240498281
LBP08_S09,LBP08,113,114,9,113,113,1716496098.52,2024-05-23 20:28:18.520000+00:00,2024-05-24 05:28:18.520000+09:00,2024,5,23,20,28,18,520,,,,,,,,,-0.341064,-0.304443,1.500488,7.69043,17.150879,14.953613,,,,,,,,,,,0.0,1.0,1.0,9.0,0.0,0.0,0.0,5.0,0.0,0.002988253333333336,-0.24987955999999997,0.9785448933333334,3.663736933333333,0.5948893600000008,3.1599935199999996,13.784634079697753,4.7899334156291316,-8.554448931721298,7.469251761950479,4.164569480942875,2.948906144531901,9.04596088286143,-1.5584544904015076,9.411791493976176,-1.5785884611538215,-0.34405225333333334,-0.054563440000000046,0.5219431066666667,0.9205588,0.62751392702093,0.7066038286062043,0.6910346418900858,0.6873164679970768
LBP08_S09,LBP08,114,115,9,114,114,1716496098.56,2024-05-23 20:28:18.560000+00:00,2024-05-24 05:28:18.560000+09:00,2024,5,23,20,28,18,560,,,,,,,,,-0.12085,-0.570801,1.765137,55.480957,-95.275879,-5.615234,,,,,,,,,,,0.0,1.0,1.0,9.0,0.0,0.0,0.0,5.0,0.0,0.009026666666666669,-0.24944010666666666,0.9906249733333332,4.434407506666666,2.502441440000001,4.23421228,13.896014868336762,9.058486352499157,-4.681712787080113,8.025092356683949,4.526908935042841,2.7616376330486965,9.618817716109849,-1.5334978839951487,9.817227085135972,-1.5813192477913767,-0.12987666666666667,-0.32136089333333334,0.7745120266666667,1.2257495866666668,0.8485338247587717,0.6989227526334032,0.6994690484405678,0.6870508144555668
LBP08_S09,LBP08,115,116,9,115,115,1716496098.6,2024-05-23 20:28:18.600000+00:00,2024-05-24 05:28:18.600000+09:00,2024,5,23,20,28,18,600,,,,,,,,,0.384033,-0.205322,1.425781,-13.244629,74.157715,22.644043,,,,,,,,,,,0.0,1.0,1.0,9.0,0.0,0.0,0.0,5.0,0.0,-0.0030469066666666653,-0.2592057333333333,1.0030696266666665,3.40576168,2.8304036800000008,5.418294306666667,13.347551415458502,13.058895592127683,-0.6140139425299828,8.558994413302289,5.049264758727949,2.7370770753474973,10.307426977042553,-1.5829365880655468,10.297477725773494,-1.5786467454217106,0.3870799066666667,0.053883733333333295,0.4227113733333334,0.8636750133333334,0.5756902083658936,0.698479602530538,0.7020970905528152,0.6827259579652465
LBP08_S09,LBP08,116,117,9,116,116,1716496098.64,2024-05-23 20:28:18.640000+00:00,2024-05-24 05:28:18.640000+09:00,2024,5,23,20,28,18,640,,,,,,,,,-0.722412,0.258545,-0.127197,11.59668,146.728516,6.530762,,,,,,,,,,,0.0,1.0,1.0,9.0,0.0,0.0,0.0,5.0,0.0,-0.006386746666666665,-0.25981446666666663,1.0119661066666668,3.4350585466666668,0.8723958666666677,5.480957066666667,12.115887881580091,16.11821475853457,3.053670523679302,9.043629928565492,5.6939933490693315,2.859223896294669,11.062728588970884,-1.5961695773656424,10.83503393771168,-1.574288104954594,-0.7160252533333333,0.5183594666666667,-1.1391631066666668,2.373547826666667,1.4419019674320674,0.7379345925894525,0.7141821805186059,0.6987947544186275
LBP08_S09,LBP08,117,118,9,117,117,1716496098.68,2024-05-23 20:28:18.680000+00:00,2024-05-24 05:28:18.680000+09:00,2024,5,23,20,28,18,680,,,,,,,,,0.091309,-0.33374,0.366455,-43.945312,-39.306641,-15.625,,,,,,,,,,,0.0,1.0,1.0,9.0,0.0,0.0,0.0,5.0,0.0,-0.0017936399999999983,-0.25316082666666667,0.9970312133333334,3.5148111466666667,3.6279297200000014,5.5338541999999995,10.15861779314698,17.907694971642798,5.890137498525608,9.449974640291371,6.410301147935043,3.0948293962356934,11.830974199159254,-1.5781059937619715,11.402192030438277,-1.5699620927330362,0.09310264,-0.08057917333333331,-0.6305762133333335,0.8042580266666668,0.6424853816016818,0.742815633817698,0.7149699787119858,0.6952564287421205
LBP08_S09,LBP08,118,119,9,118,118,1716496098.72,2024-05-23 20:28:18.720000+00:00,2024-05-24 05:28:18.720000+09:00,2024,5,23,20,28,18,720,,,,,,,,,0.323975,-0.029053,1.027832,77.758789,3.90625,-9.460449,,,,,,,,,,,0.0,1.0,1.0,9.0,0.0,0.0,0.0,5.0,0.0,-0.0031217599999999977,-0.24908530666666664,0.9744205333333333,2.7490233866666665,4.266764346666668,5.4516601866666665,7.4364305805081266,18.497201645586316,7.652278328981043,9.747431863511697,7.150189213758496,3.400920529394935,12.55802110898096,-1.5837314273957117,11.964758651347989,-1.565976124875718,0.32709676,0.22003230666666665,0.05341146666666674,0.6005405333333333,0.39781816342524645,0.7257545283970576,0.6992948119556002,0.6936698247985043
LBP08_S09,LBP08,119,120,9,119,119,1716496098.76,2024-05-23 20:28:18.760000+00:00,2024-05-24 05:28:18.760000+09:00,2024,5,23,20,28,18,760,,,,,,,,,0.20874,-0.021729,1.48584,11.901855,43.029785,32.531738,,,,,,,,,,,0.0,1.0,1.0,9.0,0.0,0.0,0.0,5.0,0.0,-0.0016992266666666644,-0.24703451999999998,0.9666470933333333,2.3266601066666666,1.613769560000001,4.540201853333333,3.9596908329835214,18.217203913239235,8.26649230672833,9.905819496831038,7.878877370288066,3.7315802216640686,13.195706099733721,-1.577895760296714,12.486648053182064,-1.5667904996614865,0.21043922666666667,0.22530551999999998,0.5191929066666667,0.9549376533333334,0.6038282204365056,0.7243128884243645,0.6947436722918269,0.6961185083829604
LBP08_S09,LBP08,120,121,9,120,120,1716496098.8,2024-05-23 20:28:18.800000+00:00,2024-05-24 05:28:18.800000+09:00,2024,5,23,20,28,18,800,,,,,,,,,-0.361572,-0.539307,1.841309,0.488281,-66.345215,6.04248,,,,,,,,,,,0.0,1.0,1.0,9.0,0.0,0.0,0.0,5.0,0.0,0.01319334666666667,-0.25410807999999996,0.9842773066666668,2.0320637466666667,1.2687174800000012,5.3466797066666665,-0.17221565380919113,17.414050508739763,7.79770467241137,9.89893087067867,8.575439390637657,4.043488408560523,13.706815517659031,-1.5172298782837517,12.93378915912175,-1.5705907078622432,-0.37476534666666667,-0.28519892,0.8570316933333333,1.51699596,0.9779012283503656,0.7170784090721503,0.7040325200380881,0.7012329448501244
LBP08_S09,LBP08,121,122,9,121,121,1716496098.84,2024-05-23 20:28:18.840000+00:00,2024-05-24 05:28:18.840000+09:00,2024,5,23,20,28,18,840,,,,,,,,,0.300537,-0.341064,1.931885,-24.780273,-85.266113,-6.958008,,,,,,,,,,,0.0,1.0,1.0,9.0,0.0,0.0,0.0,5.0,0.0,0.005494773333333336,-0.2575520933333333,1.0013476133333332,1.5934244266666664,2.517089880000001,6.146647146666667,-4.772109094353859,16.24664385518178,6.41855054170132,9.708046506904516,9.225305144844928,4.300230430228576,14.065717320804762,-1.5487712196550998,13.277143934620819,-1.567958725976513,0.2950422266666667,-0.08351190666666669,0.9305373866666669,1.3090915200000002,0.9797571036006612,0.7210304141196202,0.7144068477655265,0.7024569414597274
LBP08_S09,LBP08,122,123,9,122,122,1716496098.88,2024-05-23 20:28:18.880000+00:00,2024-05-24 05:28:18.880000+09:00,2024,5,23,20,28,18,880,,,,,,,,,-0.244385,-0.029053,0.356201,-35.461426,217.529297,40.405273,,,,,,,,,,,0.0,1.0,1.0,9.0,0.0,0.0,0.0,5.0,0.0,-0.003076186666666664,-0.26094401333333334,1.0140233866666668,1.3460285866666664,0.8699544666666675,6.33870444,-9.602676577218146,14.639594159204572,4.374636564397796,9.32393944381579,9.81088891121311,4.4752158928044885,14.255418102157444,-1.5829684295360853,13.495538642185675,-1.5609935262507233,-0.24130881333333332,0.23189101333333334,-0.6578223866666668,1.1310222133333334,0.7380607548548638,0.7293028432909991,0.715564297315365,0.7025157507366213
LBP08_S09,LBP08,123,124,9,123,123,1716496098.92,2024-05-23 20:28:18.920000+00:00,2024-05-24 05:28:18.920000+09:00,2024,5,23,20,28,18,920,,,,,,,,,-0.080322,-0.568115,0.321777,-60.852051,-32.592773,-28.564453,,,,,,,,,,,0.0,1.0,1.0,9.0,0.0,0.0,0.0,5.0,0.0,0.001048160000000003,-0.2576399733333333,1.0118749466666668,1.9002277999999997,1.8326823333333342,6.415201826666666,-14.40540772430095,12.403469940815167,1.9412974417985351,8.747723134843753,10.307027708845718,4.55286779047643,14.264854901202176,-1.5665982382591932,13.578336647480608,-1.557712324179824,-0.08137016000000001,-0.3104750266666667,-0.6900979466666668,1.0819431333333336,0.7610854230082473,0.7360969543945104,0.7139585423405974,0.694219331189985
LBP08_S09,LBP08,124,125,9,124,124,1716496098.96,2024-05-23 20:28:18.960000+00:00,2024-05-24 05:28:18.960000+09:00,2024,5,23,20,28,18,960,,,,,,,,,0.300049,-0.024414,0.901367,60.72998,-34.057617,-20.690918,,,,,,,,,,,0.0,1.0,1.0,9.0,0.0,0.0,0.0,5.0,0.0,-0.00017254666666666345,-0.25317708,0.9858821066666666,0.5419921199999999,2.154947960000001,5.979003919999999,-18.877720047009948,9.42667997081836,-0.6217083596769349,7.992614332963354,10.684094907678451,4.527999456089352,14.090228775506711,-1.5714999660027158,13.526972780703307,-1.558494564488153,0.30022154666666667,0.22876308,-0.08451510666666662,0.6134997333333333,0.3867923565802328,0.7231981591599205,0.7101101056138457,0.6893184023688732
LBP08_S09,LBP08,125,126,9,125,125,1716496099.0,2024-05-23 20:28:19+00:00,2024-05-24 05:28:19+09:00,2024,5,23,20,28,19,0,20.0,28.0,17.0,40.794765,141.620834,-8.685,3.0,15.0,0.300049,-0.275391,1.332764,-6.469727,67.626953,17.272949,-547.0,47.0,589.0,289.0,0.0,1020.099976,24.129999,0.070359,-56.841873,3.817969,0.0,1.0,1.0,9.0,0.0,0.0,0.0,4.0,0.0,0.0033951733333333367,-0.2470996,0.9681184399999999,-0.02929694666666677,1.7903646266666677,5.573730493333334,-22.60671958064057,5.815951122203739,-3.101491872800714,7.088345549737731,10.916732952566601,4.403939781177324,13.740974732033255,-1.5566167692082444,13.35447870286514,-1.5581763115666707,0.2966538266666667,-0.028291399999999994,0.36464556000000015,0.6895907866666668,0.4709249203616755,0.7072048293431316,0.6894635353650302,0.6905795204320797
LBP08_S09,LBP08,126,127,9,126,126,1716496099.04,2024-05-23 20:28:19.040000+00:00,2024-05-24 05:28:19.040000+09:00,2024,5,23,20,28,19,40,,,,,,,,,-0.489258,-0.490723,1.630615,-34.301758,2.01416,6.225586,,,,,,,,,,,0.0,1.0,1.0,9.0,0.0,0.0,0.0,4.0,0.0,0.010608706666666669,-0.24702798666666667,0.9720800266666667,-0.09358732000000008,0.25146489333333427,5.047200546666667,-25.025278294955896,1.921171207447969,-5.336922943600425,6.087334417939495,10.99357980086452,4.190462863433307,13.246675664619438,-1.5265175801077444,13.083397502687841,-1.5680870334523276,-0.4998667066666667,-0.24369501333333335,0.6585349733333332,1.4020966933333332,0.8619294025965507,0.715151415346815,0.6943351730669075,0.6963211701255285
LBP08_S09,LBP08,127,128,9,127,127,1716496099.08,2024-05-23 20:28:19.080000+00:00,2024-05-24 05:28:19.080000+09:00,2024,5,23,20,28,19,80,,,,,,,,,-0.064697,-0.357178,1.779297,-20.263672,-116.455078,-21.789551,,,,,,,,,,,0.0,1.0,1.0,9.0,0.0,0.0,0.0,4.0,0.0,0.006240226666666669,-0.2524120933333333,0.99311844,0.5126952266666666,1.6943359866666678,5.8439127866666665,-25.46376861717898,-1.745858670444373,-7.202806968226334,5.0687836732523355,10.923745454046745,3.9023505847042537,12.658954252108582,-1.5452939730529816,12.743667383795103,-1.5716147356546308,-0.07093722666666667,-0.10476590666666669,0.7861785599999999,0.9618816933333332,0.796294363618455,0.6887112731945557,0.7011477579873275,0.6977000506006147
LBP08_S09,LBP08,128,129,9,128,128,1716496099.12,2024-05-23 20:28:19.120000+00:00,2024-05-24 05:28:19.120000+09:00,2024,5,23,20,28,19,120,,,,,,,,,0.070801,-0.109375,0.73584,-6.469727,158.752441,21.42334,,,,,,,,,,,0.0,1.0,1.0,9.0,0.0,0.0,0.0,4.0,0.0,-0.005208333333333331,-0.25900064,1.0094075066666668,0.7999673733333332,0.8382162000000013,5.804036493333333,-23.318091238472917,-4.652744265163954,-8.594811945645736,4.136060023713418,10.737635683440187,3.558558106878424,12.04438244120795,-1.5915538304789991,12.371638714260358,-1.5698364075462519,0.07600933333333333,0.14962564,-0.27356750666666674,0.49920248000000006,0.3209430348255031,0.6746294998023522,0.6998704655547386,0.690346510110092
LBP08_S09,LBP08,129,130,9,129,129,1716496099.16,2024-05-23 20:28:19.160000+00:00,2024-05-24 05:28:19.160000+09:00,2024,5,23,20,28,19,160,,,,,,,,,-0.287354,-0.545898,-0.043457,-86.975098,-69.274902,-22.521973,,,,,,,,,,,0.0,1.0,1.0,9.0,0.0,0.0,0.0,4.0,0.0,-0.000970039999999998,-0.2553417866666667,1.0168717066666666,1.02701816,1.442871146666668,6.006673213333333,-18.2837587211052,-6.398263981028703,-9.433035819123816,3.4047096748692103,10.481705124199038,3.1812366741134714,11.470765321352054,-1.5747132310818903,12.009270359446273,-1.5700906980398064,-0.28638396,-0.2905562133333333,-1.0603287066666667,1.63726888,1.1361054756638105,0.7027572088853716,0.7074960837232632,0.7018996342716168
LBP08_S09,LBP08,130,131,9,130,130,1716496099.2,2024-05-23 20:28:19.200000+00:00,2024-05-24 05:28:19.200000+09:00,2024,5,23,20,28,19,200,,,,,,,,,0.270752,-0.076172,0.526367,17.63916,-107.36084,-44.555664,,,,,,,,,,,0.0,1.0,1.0,9.0,0.0,0.0,0.0,4.0,0.0,-0.01102864,-0.24946614666666667,0.9958170133333334,0.5379231066666667,2.1777344266666674,5.450846386666666,-10.561836655354469,-6.831726984029291,-9.68199937902904,2.9822362086550314,10.208436044837867,2.79395669895231,10.996003515886061,-1.6163370971403217,11.701040279362392,-1.5715121983536895,0.28178063999999997,0.17329414666666665,-0.46945001333333336,0.9245247999999999,0.5742947896040889,0.705995199637193,0.7052652178046679,0.6942928735767337
LBP08_S09,LBP08,131,132,9,131,131,1716496099.24,2024-05-23 20:28:19.240000+00:00,2024-05-24 05:28:19.240000+09:00,2024,5,23,20,28,19,240,,,,,,,,,0.574951,-0.193359,1.161377,-50.964355,20.141602,-9.216309,,,,,,,,,,,0.0,1.0,1.0,9.0,0.0,0.0,0.0,4.0,0.0,-0.0031607999999999983,-0.24589518666666663,0.9799478666666668,-0.24251309333333348,1.6170247866666676,5.547688826666667,-0.9409857219416125,-6.09847643776378,-9.365178145733294,2.944596779777367,9.964496987327315,2.419349573122978,10.668416131877343,-1.584048241678132,11.48771843706936,-1.5729222860847412,0.5781118,0.05253618666666662,0.18142913333333333,0.8120771199999999,0.6081856909125692,0.6963052751782635,0.7083700912187492,0.6924064256843161
LBP08_S09,LBP08,132,133,9,132,132,1716496099.28,2024-05-23 20:28:19.280000+00:00,2024-05-24 05:28:19.280000+09:00,2024,5,23,20,28,19,280,,,,,,,,,-0.325684,-0.491699,1.491699,18.920898,106.384277,21.179199,,,,,,,,,,,0.0,1.0,1.0,9.0,0.0,0.0,0.0,4.0,0.0,0.0013444000000000025,-0.24714844,0.9762825066666668,0.1131184266666665,2.5016276533333346,5.7722982,9.301846632585425,-4.580417628901358,-8.550816049449809,3.3166706450807837,9.781280282171261,2.0773169311449857,10.535131406810002,-1.5651851484522972,11.399496274481573,-1.5842578852506435,-0.3270284,-0.24455056,0.5154164933333333,1.0869954533333333,0.657576392826646,0.6937095594127486,0.6972054731786416,0.6943689549849867
LBP08_S09,LBP08,133,134,9,133,133,1716496099.32,2024-05-23 20:28:19.320000+00:00,2024-05-24 05:28:19.320000+09:00,2024,5,23,20,28,19,320,,,,,,,,,-0.354736,-0.488037,1.63623,55.114746,-92.346191,-16.418457,,,,,,,,,,,0.0,1.0,1.0,9.0,0.0,0.0,0.0,4.0,0.0,0.00040690666666666725,-0.25367186666666663,0.9968912266666666,-0.20182298666666681,1.2190755733333345,6.123046906666666,18.673707140826735,-2.747607907105103,-7.309387745094908,4.0636189307138535,9.671375965887057,1.7849414213411894,10.64117135306134,-1.5691411431947375,11.451930550000453,-1.5906490991576518,-0.35514290666666665,-0.23436513333333336,0.6393387733333334,1.2288468133333335,0.7679893013352278,0.7167122682147982,0.6984003611709367,0.699338508611281
LBP08_S09,LBP08,134,135,9,134,134,1716496099.36,2024-05-23 20:28:19.360000+00:00,2024-05-24 05:28:19.360000+09:00,2024,5,23,20,28,19,360,,,,,,,,,0.517822,-0.32666,1.314697,9.887695,15.258789,21.911621,,,,,,,,,,,0.0,1.0,1.0,9.0,0.0,0.0,0.0,4.0,0.0,-0.0036523333333333317,-0.2521712133333333,1.0197167466666666,0.7177733599999999,0.03906254666666768,5.800781293333333,25.834046836082322,-0.9940689425181626,-5.674113318465451,5.0969808041571465,9.63161320818633,1.5579768886025713,11.007927974667874,-1.5857149691415457,11.64608918802223,-1.5881745105059963,0.5214743333333334,-0.0744887866666667,0.29498025333333344,0.8909433733333335,0.6037362085556193,0.6985675159655231,0.7020034753026372,0.6971662046309497
LBP08_S09,LBP08,135,136,9,135,135,1716496099.4,2024-05-23 20:28:19.400000+00:00,2024-05-24 05:28:19.400000+09:00,2024,5,23,20,28,19,400,,,,,,,,,-0.869385,-0.030029,-0.29541,84.106445,110.473633,22.216797,,,,,,,,,,,0.0,1.0,1.0,9.0,0.0,0.0,0.0,4.0,0.0,1.9533333333335476e-05,-0.25583984,1.0276627066666666,-0.25390632000000013,2.431640680000001,6.336263053333334,29.940484486111615,0.4611697607108682,-3.6439951954707355,6.294600183601611,9.650059998614765,1.412217080783742,11.607756309102959,-1.5707176465187611,11.971898418213613,-1.5901561488141212,-0.8694045333333333,0.22581083999999998,-1.3230727066666665,2.41828808,1.5991798414088128,0.731238479180677,0.7239000293789595,0.709732017990375
LBP08_S09,LBP08,136,137,9,136,136,1716496099.44,2024-05-23 20:28:19.440000+00:00,2024-05-24 05:28:19.440000+09:00,2024,5,23,20,28,19,440,,,,,,,,,-0.092285,0.099854,0.165771,23.498535,-104.064941,-59.814453,,,,,,,,,,,0.0,1.0,1.0,9.0,0.0,0.0,0.0,4.0,0.0,-0.01664061333333333,-0.24764322666666666,1.0073176533333335,0.2734374266666666,2.423502653333335,5.967610706666666,30.85596434527305,1.570125443578209,-1.2414814993827301,7.528838757412533,9.712865016357894,1.3625578208084328,12.364454038741554,-1.639873571766768,12.4124695380155,-1.5859600587449711,-0.07564438666666667,0.34749722666666666,-0.8415466533333334,1.2646882666666668,0.9136066798747339,0.7490410792826139,0.7263303547506517,0.7155134833441242
LBP08_S09,LBP08,137,138,9,137,137,1716496099.48,2024-05-23 20:28:19.480000+00:00,2024-05-24 05:28:19.480000+09:00,2024,5,23,20,28,19,480,,,,,,,,,0.453369,-0.165527,0.94458,49.926758,-33.691406,-45.10498,,,,,,,,,,,0.0,1.0,1.0,9.0,0.0,0.0,0.0,4.0,0.0,-0.009147133333333331,-0.24519532000000002,0.9910416133333333,-0.9114584,-0.48746739999999894,5.089518253333333,29.14727128465036,2.366478106537332,1.4102285687156895,8.694729608798548,9.807524140619387,1.4189669635570603,13.1832970072974,-1.6092061121230654,12.947200363569547,-1.5823605809390249,0.46251613333333336,0.07966832000000001,-0.04646161333333332,0.5886460666666666,0.4716215604897388,0.7505502488603559,0.7178238668310679,0.7088133295393669
LBP08_S09,LBP08,138,139,9,138,138,1716496099.52,2024-05-23 20:28:19.520000+00:00,2024-05-24 05:28:19.520000+09:00,2024,5,23,20,28,19,520,,,,,,,,,0.447998,-0.286621,1.241455,0.488281,70.129395,26.489258,,,,,,,,,,,0.0,1.0,1.0,9.0,0.0,0.0,0.0,4.0,0.0,0.0009440133333333341,-0.24386393333333337,0.9830110133333333,-0.6673177733333333,0.8813477066666678,5.074056013333333,25.876447958324757,2.8519979508591726,4.056916950857729,9.729787527131538,9.921604058653754,1.5812436415913695,13.985968821425717,-1.5668079439624445,13.552841135050125,-1.587789773251156,0.4470539866666667,-0.04275706666666665,0.2584439866666667,0.74825504,0.5181493298158921,0.7461756649721545,0.7263897467891794,0.709414982917442
LBP08_S09,LBP08,139,140,9,139,139,1716496099.56,2024-05-23 20:28:19.560000+00:00,2024-05-24 05:28:19.560000+09:00,2024,5,23,20,28,19,560,,,,,,,,,-0.489746,-0.480225,1.586426,-14.038086,-17.333984,47.607422,,,,,,,,,,,0.0,1.0,1.0,9.0,0.0,0.0,0.0,4.0,0.0,-0.005537093333333332,-0.24016276,0.97977208,-0.18636073333333333,2.1826172400000012,5.4728190266666665,22.25987158493157,2.9315365798886996,6.377458766901,10.620182390528802,10.038865521849303,1.8363419922674096,14.728857623265878,-1.5945296141631389,14.203967645406937,-1.5946742095093636,-0.48420890666666666,-0.24006224,0.6066539199999998,1.3309250666666665,0.8124759215019929,0.7447333488418831,0.7218280507376431,0.7145571485743396
LBP08_S09,LBP08,140,141,9,140,140,1716496099.6,2024-05-23 20:28:19.600000+00:00,2024-05-24 05:28:19.600000+09:00,2024,5,23,20,28,19,600,,,,,,,,,0.09668,-0.437744,1.887695,5.92041,-108.337402,-0.061035,,,,,,,,,,,0.0,1.0,1.0,9.0,0.0,0.0,0.0,4.0,0.0,-0.0008723866666666646,-0.25123697333333334,1.0018423866666666,0.3344726,-0.8821614133333323,5.007324226666667,19.317380260262876,2.4354717950700513,8.122082648060589,11.392877600939316,10.136284393652105,2.161225298189833,15.401714713904934,-1.57437619644882,14.875314812973262,-1.5956440206284166,0.09755238666666667,-0.1865070266666667,0.8858526133333333,1.1699120266666667,0.9105142457369351,0.7581263103367251,0.7283029564336314,0.7207734971474518
LBP08_S09,LBP08,141,142,9,141,141,1716496099.64,2024-05-23 20:28:19.640000+00:00,2024-05-24 05:28:19.640000+09:00,2024,5,23,20,28,19,640,,,,,,,,,0.221191,-0.419678,0.871338,-3.479004,192.199707,55.480957,,,,,,,,,,,0.0,1.0,1.0,9.0,0.0,0.0,0.0,4.0,0.0,0.005504573333333335,-0.24913737333333336,1.0175682933333334,1.1564127066666667,-0.5615233866666658,5.1595052133333335,17.631982062577283,1.2153480911009649,9.243937593590658,12.098156883442408,10.184898317296144,2.5309828019334595,16.015724387417816,-1.548053463618671,15.546405502828549,-1.595827930353718,0.21568642666666665,-0.17054062666666664,-0.14623029333333348,0.5324573466666668,0.3114290267146714,0.7129073927080292,0.7254209926487408,0.7137572512484136
LBP08_S09,LBP08,142,143,9,142,142,1716496099.68,2024-05-23 20:28:19.680000+00:00,2024-05-24 05:28:19.680000+09:00,2024,5,23,20,28,19,680,,,,,,,,,-0.114258,-0.020752,-0.003662,65.734863,-42.419434,-7.751465,,,,,,,,,,,0.0,1.0,1.0,9.0,0.0,0.0,0.0,4.0,0.0,-0.011748026666666665,-0.2484212266666667,1.00196608,0.9708658266666664,2.2347005733333343,5.865071613333333,17.285333152207258,-0.7416156732084969,9.94296957507725,12.789570209530698,10.155233690367803,2.9287015849365496,16.59153912161576,-1.6194770715736064,16.205770285687485,-1.5924419628552218,-0.10250997333333334,0.2276692266666667,-1.0056280800000001,1.33580728,1.0361608980695447,0.7286544133667435,0.7357350235922208,0.7195314569302383
LBP08_S09,LBP08,143,144,9,143,143,1716496099.72,2024-05-23 20:28:19.720000+00:00,2024-05-24 05:28:19.720000+09:00,2024,5,23,20,28,19,720,,,,,,,,,0.239258,0.135742,0.443115,44.921875,-81.420898,-51.269531,,,,,,,,,,,0.0,1.0,1.0,9.0,0.0,0.0,0.0,4.0,0.0,-0.015800759999999997,-0.24172525333333336,0.9868261066666668,0.571289,0.29215500000000116,4.75341796,17.95272463117972,-3.2460033093964986,10.598341840996758,13.507679194777888,10.025393557991944,3.35263525857642,17.152436456629466,-1.6379855057768156,16.85176341981445,-1.5899475872222466,0.25505876,0.37746725333333336,-0.5437111066666669,1.1762371200000001,0.7093364969493957,0.7411151467077096,0.7334348375523835,0.7132349235396366
LBP08_S09,LBP08,144,145,9,144,144,1716496099.76,2024-05-23 20:28:19.760000+00:00,2024-05-24 05:28:19.760000+09:00,2024,5,23,20,28,19,760,,,,,,,,,0.487549,-0.321533,1.20166,-36.254883,16.357422,21.728516,,,,,,,,,,,0.0,1.0,1.0,9.0,0.0,0.0,0.0,4.0,0.0,-0.005738919999999997,-0.24000325333333336,0.9774250666666667,-0.3816732400000001,-0.10416661333333228,4.256184893333333,19.081111382589192,-5.925698054101455,11.632540208127772,14.270923650081455,9.788365635827885,3.817936866901531,17.72139965033113,-1.5954130803320736,17.48958621906923,-1.5907328655640747,0.49328792,-0.08152974666666665,0.22423493333333322,0.7990525999999999,0.547961108963457,0.7388804622487877,0.731596675336576,0.7094559356108138
LBP08_S09,LBP08,145,146,9,145,145,1716496099.8,2024-05-23 20:28:19.800000+00:00,2024-05-24 05:28:19.800000+09:00,2024,5,23,20,28,19,800,,,,,,,,,-0.394043,-0.506104,1.408447,52.79541,87.82959,57.556152,,,,,,,,,,,0.0,1.0,1.0,9.0,0.0,0.0,0.0,4.0,0.0,-0.00041014666666666346,-0.24001628000000003,0.9694758533333334,-0.2986654266666667,2.2867839066666678,3.9876302133333335,20.06675959050442,-8.315569275955852,13.378021281532616,15.073594033701632,9.45574286478965,4.353057718162836,18.318663207655817,-1.5725567437717736,18.126350902038688,-1.5911181198912803,-0.3936328533333333,-0.26608771999999997,0.4389711466666666,1.09869172,0.6468733767623985,0.725639348185269,0.7213588786287097,0.7112347960871485
LBP08_S09,LBP08,146,147,9,146,146,1716496099.84,2024-05-23 20:28:19.840000+00:00,2024-05-24 05:28:19.840000+09:00,2024,5,23,20,28,19,840,,,,,,,,,-0.432129,-0.60083,1.663086,50.354004,-136.108398,-7.324219,,,,,,,,,,,0.0,1.0,1.0,9.0,0.0,0.0,0.0,4.0,0.0,-0.008408186666666664,-0.24611979999999997,0.9755468266666668,-0.3377279333333334,0.7250977200000013,4.39046224,20.382539603549095,-9.973748447326354,15.991234922208388,15.888895617843595,9.056792926896597,4.9927071150511715,18.95810186733092,-1.6060138967818072,18.76634228899274,-1.5938662071374365,-0.42372081333333333,-0.3547102,0.6875391733333333,1.4659701866666666,0.8820820644950133,0.721732346621043,0.7213813803703316,0.7168486807173653
LBP08_S09,LBP08,147,148,9,147,147,1716496099.88,2024-05-23 20:28:19.880000+00:00,2024-05-24 05:28:19.880000+09:00,2024,5,23,20,28,19,880,,,,,,,,,0.460449,-0.180176,1.398682,-10.192871,-9.155273,37.109375,,,,,,,,,,,0.0,1.0,1.0,9.0,0.0,0.0,0.0,4.0,0.0,-0.0032454266666666633,-0.24836264,0.9966503333333333,0.14322910666666663,-0.6591796133333321,4.541829426666666,19.640662534348348,-10.589068323719237,19.413188419699868,16.674522119217528,8.633230193947828,5.769234651839167,19.643228348567067,-1.5842623557933144,19.407800356889727,-1.5948374011311344,0.46369442666666666,0.06818663999999999,0.4020316666666667,0.9339127333333334,0.6174879757525616,0.716909435456951,0.7231061393739752,0.7160126766958936
LBP08_S09,LBP08,148,149,9,148,148,1716496099.92,2024-05-23 20:28:19.920000+00:00,2024-05-24 05:28:19.920000+09:00,2024,5,23,20,28,19,920,,,,,,,,,-0.751709,-0.019775,-0.281494,13.427734,104.309082,24.902344,,,,,,,,,,,0.0,1.0,1.0,9.0,0.0,0.0,0.0,4.0,0.0,-0.0009407333333333303,-0.25092448,1.0038345733333334,-0.27750657333333334,1.4436849733333346,5.801595053333333,17.600083376280086,-10.055376336325839,23.358204556149396,17.378525454268733,8.231015140494794,6.703562834085142,20.3641968139735,-1.5746607273807256,20.041587901916294,-1.5873624541074054,-0.7507682666666666,0.23114948000000002,-1.2853285733333335,2.26724632,1.50637067608376,0.7467208455799715,0.7414088999872409,0.7248793100870554
LBP08_S09,LBP08,149,150,9,149,149,1716496099.96,2024-05-23 20:28:19.960000+00:00,2024-05-24 05:28:19.960000+09:00,2024,5,23,20,28,19,960,,,,,,,,,-0.130615,-0.032227,0.120361,-29.296875,-83.557129,-31.555176,,,,,,,,,,,0.0,1.0,1.0,9.0,0.0,0.0,0.0,4.0,0.0,-0.006718733333333331,-0.25115560000000003,0.9931282,0.029296799999999904,1.3663737733333343,6.47054036,14.148192647936456,-8.498572965850043,27.330912899284105,17.944453160186193,7.891072221860792,7.7967993500565065,21.096504452960467,-1.5983821574351975,20.651562569608355,-1.5811820367590816,-0.12389626666666667,0.21892860000000003,-0.8727672,1.2155920666666666,0.9082965386853226,0.7675810128641751,0.7453895860120479,0.7292670746972888
LBP08_S09,LBP08,150,151,9,150,150,1716496100.0,2024-05-23 20:28:20+00:00,2024-05-24 05:28:20+09:00,2024,5,23,20,28,20,0,20.0,28.0,18.0,40.79483,141.620758,-7.265,3.0,15.0,0.388184,-0.281738,0.971436,45.715332,-55.419922,30.456543,-543.0,38.0,592.0,0.0,0.0,1020.299988,24.18,0.072341,-58.496948,3.817969,0.0,1.0,1.0,9.0,0.0,0.0,0.0,3.0,0.0,-0.007467439999999996,-0.24779296000000003,0.98667312,0.43375643999999997,0.06835945333333446,6.58203124,9.296749096993667,-6.258385431625031,30.693703206248255,18.31632312406594,7.640736804595791,9.024547478306436,21.80162858344542,-1.6018570689103788,21.216335568095314,-1.5756177673480694,0.39565143999999997,-0.033945039999999954,-0.015237119999999993,0.44483359999999994,0.39739715341276616,0.7646399021862187,0.735922365764675,0.7145223243054264
LBP08_S09,LBP08,151,152,9,151,151,1716496100.04,2024-05-23 20:28:20.040000+00:00,2024-05-24 05:28:20.040000+09:00,2024,5,23,20,28,20,40,,,,,,,,,0.511963,-0.352783,1.28418,20.690918,75.744629,67.016602,,,,,,,,,,,0.0,1.0,1.0,9.0,0.0,0.0,0.0,3.0,0.0,0.003157560000000003,-0.25008462666666664,0.9786034666666668,0.24169914666666661,-0.4093423733333322,6.7203776,3.212163989193848,-3.8303239017272634,32.80042803450588,18.444809683633693,7.487523848526701,10.336564599686671,22.430305066387728,-1.557765403555652,21.712047640458174,-1.5712011004302897,0.5088054399999999,-0.10269837333333337,0.30557653333333334,0.9170803466666666,0.6023345825892151,0.7542561093859252,0.7347037623663701,0.71430881850658
LBP08_S09,LBP08,152,153,9,152,152,1716496100.08,2024-05-23 20:28:20.080000+00:00,2024-05-24 05:28:20.080000+09:00,2024,5,23,20,28,20,80,,,,,,,,,-0.541016,-0.790527,1.695312,-13.366699,-15.50293,78.552246,,,,,,,,,,,0.0,1.0,1.0,9.0,0.0,0.0,0.0,3.0,0.0,0.006139333333333337,-0.24269856,0.9704752133333333,-0.4467774133333333,1.371256586666668,7.272135413333333,-3.741305420200805,-1.7659289749406994,33.1710544994717,18.29515746682566,7.416886689529073,11.66340677966554,22.929414571881427,-1.5447276013363151,22.1156417702367,-1.5685518349249317,-0.5471553333333334,-0.54782844,0.7248367866666666,1.8198205600000001,1.0606051695957377,0.7648285416250167,0.7267699074097861,0.7223746858665572
LBP08_S09,LBP08,153,154,9,153,153,1716496100.12,2024-05-23 20:28:20.120000+00:00,2024-05-24 05:28:20.120000+09:00,2024,5,23,20,28,20,120,,,,,,,,,0.113037,-0.202393,1.769043,5.981445,-123.535156,12.390137,,,,,,,,,,,0.0,1.0,1.0,9.0,0.0,0.0,0.0,3.0,0.0,-0.001295559999999997,-0.24831705333333332,0.97160152,-0.5932617866666667,-0.3238931599999987,7.100423173333334,-10.99274909012698,-0.538491036097321,31.636752117825154,17.85544750322058,7.39534704808518,12.928876864378546,23.252183133550087,-1.576181332293579,22.40801273810957,-1.5683182684021657,0.11433256,0.045924053333333326,0.7974414799999999,0.9576980933333332,0.8069038771596693,0.7842669753183832,0.7294482375603677,0.7280026354759536
LBP08_S09,LBP08,154,155,9,154,154,1716496100.16,2024-05-23 20:28:20.160000+00:00,2024-05-24 05:28:20.160000+09:00,2024,5,23,20,28,20,160,,,,,,,,,0.018311,-0.002686,0.466309,-10.986328,205.322266,43.09082,,,,,,,,,,,0.0,1.0,1.0,9.0,0.0,0.0,0.0,3.0,0.0,0.007656266666666671,-0.25466795999999997,0.9929231333333333,-0.9008789733333333,-3.3317056666666653,7.1874999866666665,-17.825339439902898,-0.4052905343292553,28.382916389335477,17.142433925624466,7.37913542671201,14.064193519951965,23.369129635200704,-1.5397703862219525,22.57656494643131,-1.565729089996859,0.01065473333333333,0.25198195999999995,-0.5266141333333333,0.7892508266666666,0.5838928642604426,0.7621784708622485,0.7324678398738099,0.725723546102925
LBP08_S09,LBP08,155,156,9,155,155,1716496100.2,2024-05-23 20:28:20.200000+00:00,2024-05-24 05:28:20.200000+09:00,2024,5,23,20,28,20,200,,,,,,,,,-0.144775,0.009033,-0.049561,-38.269043,-48.706055,-11.657715,,,,,,,,,,,0.0,1.0,1.0,9.0,0.0,0.0,0.0,3.0,0.0,0.010498053333333339,-0.25524413333333335,1.0054752133333333,-0.42561856,-2.0043944666666653,7.794596346666667,-23.504754689685917,-1.315971377147542,23.87141246105734,16.20224373803703,7.326496571626109,15.019050018394259,23.275783931284415,-1.5283900745939758,22.617035406241495,-1.561579358774745,-0.15527305333333333,0.26427713333333336,-1.0550362133333333,1.4745864,1.0986598817373279,0.783153074547578,0.7445741370923855,0.7312278367189714
LBP08_S09,LBP08,156,157,9,156,156,1716496100.24,2024-05-23 20:28:20.240000+00:00,2024-05-24 05:28:20.240000+09:00,2024,5,23,20,28,20,240,,,,,,,,,0.432129,-0.154785,0.69751,-70.861816,-95.092773,-20.446777,,,,,,,,,,,0.0,1.0,1.0,9.0,0.0,0.0,0.0,3.0,0.0,-0.0021419199999999955,-0.2533528533333333,0.99294592,-0.6152344399999998,-0.9138996799999985,8.22021484,-27.43653949944256,-2.91603179680354,18.6918320200415,15.104782158059328,7.2098552997539676,15.766723299195919,22.99404316511616,-1.5795212417282274,22.534639164511596,-1.5563348188815627,0.43427092,0.09856785333333329,-0.2954359200000001,0.8282746933333334,0.534405498189001,0.7802018668386355,0.7382535710084493,0.7323140164253779
LBP08_S09,LBP08,157,158,9,157,157,1716496100.28,2024-05-23 20:28:20.280000+00:00,2024-05-24 05:28:20.280000+09:00,2024,5,23,20,28,20,280,,,,,,,,,0.556152,-0.509277,1.249756,-6.164551,58.410645,39.978027,,,,,,,,,,,0.0,1.0,1.0,9.0,0.0,0.0,0.0,3.0,0.0,-0.0027408799999999963,-0.25439452,0.9804947466666668,-1.6137695866666666,-2.0198567066666655,7.443847653333334,-29.29416435005819,-4.658527691578083,13.422411349181662,13.933015584057,7.023514192090844,16.303619753163186,22.566938027295805,-1.5819266905656528,22.344481732506157,-1.5548897764529483,0.5588928799999999,-0.25488247999999997,0.2692612533333333,1.0830366133333333,0.6706921443347031,0.7807264968989576,0.737218028155853,0.7250458144187469
LBP08_S09,LBP08,158,159,9,158,158,1716496100.32,2024-05-23 20:28:20.320000+00:00,2024-05-24 05:28:20.320000+09:00,2024,5,23,20,28,20,320,,,,,,,,,-0.546631,-0.418457,1.556396,-42.297363,30.029297,39.550781,,,,,,,,,,,0.0,1.0,1.0,9.0,0.0,0.0,0.0,3.0,0.0,0.005387373333333337,-0.25273761333333333,0.9675585466666669,-1.08805344,-1.3110350933333321,7.332356773333332,-29.069647458470847,-5.980011960489935,8.555833090334735,12.770229685718165,6.784313713671247,16.645853076776575,22.0497188971909,-1.548768943327659,22.07091081341524,-1.5545229285086708,-0.5520183733333334,-0.1657193866666667,0.588837453333333,1.3065752133333333,0.8239640441565644,0.7829654866118111,0.7498388774133047,0.7265887363178949
LBP08_S09,LBP08,159,160,9,159,159,1716496100.36,2024-05-23 20:28:20.360000+00:00,2024-05-24 05:28:20.360000+09:00,2024,5,23,20,28,20,360,,,,,,,,,-0.251709,-0.320312,1.90332,12.207031,-157.409668,-15.258789,,,,,,,,,,,0.0,1.0,1.0,9.0,0.0,0.0,0.0,3.0,0.0,0.003336600000000004,-0.24776040000000005,0.9554459200000001,-0.15950526666666642,-0.09602858666666549,7.39095052,-27.03799294724273,-6.468961802467645,4.487999674553399,11.688709967828457,6.52555524157254,16.82537306375871,21.501209051062325,-1.5568848452140576,21.74541607546913,-1.5577353069982205,-0.25504560000000004,-0.07255159999999994,0.9478740799999998,1.2754712799999999,0.9842648344209836,0.7981866316464256,0.7483770738059744,0.7340645274172334
LBP08_S09,LBP08,160,161,9,160,160,1716496100.4,2024-05-23 20:28:20.400000+00:00,2024-05-24 05:28:20.400000+09:00,2024,5,23,20,28,20,400,,,,,,,,,0.471924,-0.193115,1.231201,-8.422852,119.750977,32.958984,,,,,,,,,,,0.0,1.0,1.0,9.0,0.0,0.0,0.0,3.0,0.0,0.005348320000000004,-0.25874672,0.9731640266666667,-0.16113286666666635,-3.424479106666666,6.7260742266666655,-23.67004191083439,-5.971665434687361,1.526358291008017,10.741908291395081,6.286688624185046,16.886427395399032,20.97766616614639,-1.5494116699785554,21.403051048906857,-1.5615644279902363,0.46657568,0.06563171999999998,0.2580369733333333,0.7902443733333333,0.5371996532432315,0.7557074241198023,0.7434729516502397,0.7345024942925739
LBP08_S09,LBP08,161,162,9,161,161,1716496100.44,2024-05-23 20:28:20.440000+00:00,2024-05-24 05:28:20.440000+09:00,2024,5,23,20,28,20,440,,,,,,,,,-0.521973,-0.081787,-0.339844,-64.453125,-0.793457,-21.240234,,,,,,,,,,,0.0,1.0,1.0,9.0,0.0,0.0,0.0,3.0,0.0,0.006787120000000002,-0.25496742666666666,0.98958656,0.7397460400000003,-3.89811192,7.159830733333333,-19.541918298857635,-4.613618342316422,-0.1221697013065827,9.960231559440775,6.102143890492389,16.881540607346768,20.52873074633333,-1.5433149792695078,21.07798030061826,-1.563737953349688,-0.5287601200000001,0.17318042666666666,-1.32943056,2.0313711066666666,1.4411676996605138,0.7768098649112336,0.7629254720969237,0.7431568581375123
LBP08_S09,LBP08,162,163,9,162,162,1716496100.48,2024-05-23 20:28:20.480000+00:00,2024-05-24 05:28:20.480000+09:00,2024,5,23,20,28,20,480,,,,,,,,,0.299561,-0.001709,0.517334,-11.230469,-90.698242,-28.320312,,,,,,,,,,,0.0,1.0,1.0,9.0,0.0,0.0,0.0,3.0,0.0,0.007490240000000004,-0.26029620000000003,0.9936360399999999,0.007324173333333721,-2.2094725999999993,8.0436198,-15.264480433584884,-2.7464299087981434,-0.3883059827781162,9.349652342097379,5.992286694140463,16.866008368035644,20.193705380972265,-1.5410591218935399,20.79921927125066,-1.5612886674043378,0.29207076000000004,0.2585872,-0.47630204,1.02696,0.6156592419179454,0.7825713721683618,0.7665608105143589,0.739406368610166
LBP08_S09,LBP08,163,164,9,163,163,1716496100.52,2024-05-23 20:28:20.520000+00:00,2024-05-24 05:28:20.520000+09:00,2024,5,23,20,28,20,520,,,,,,,,,0.582031,-0.223633,1.200439,-30.395508,49.987793,2.01416,,,,,,,,,,,0.0,1.0,1.0,9.0,0.0,0.0,0.0,3.0,0.0,-0.00942057333333333,-0.25977210666666667,0.9756705466666666,1.056315066666667,-1.3785806666666656,8.142089853333333,-11.420275020895765,-0.8505175200165942,0.6247878658715937,8.892841341261548,5.9582659933398,16.890999882670506,19.99723575408899,-1.6083051171890774,20.587595596156014,-1.5591386175522588,0.5914515733333333,0.03613910666666667,0.2247684533333334,0.8523591333333334,0.6337522041326554,0.7871954871410324,0.7666855760565935,0.7466583269064638
LBP08_S09,LBP08,164,165,9,164,164,1716496100.56,2024-05-23 20:28:20.560000+00:00,2024-05-24 05:28:20.560000+09:00,2024,5,23,20,28,20,560,,,,,,,,,-0.455566,-0.413818,1.562988,18.127441,83.068848,42.84668,,,,,,,,,,,0.0,1.0,1.0,9.0,0.0,0.0,0.0,3.0,0.0,-0.0017545599999999953,-0.24950192000000002,0.9609700266666668,1.1523437200000002,-2.4731444666666658,7.836914066666666,-8.485876949853687,0.5763051284125092,2.640598365388522,8.5534062632674,5.9813181984763,16.996623817286046,19.94547936957799,-1.5780615961421078,20.454440617513363,-1.5599660801435848,-0.45381144,-0.16431608,0.6020179733333333,1.2201454933333333,0.7716023829912749,0.7855605456006037,0.7651469472212434,0.7430722156919634
LBP08_S09,LBP08,165,166,9,165,165,1716496100.6,2024-05-23 20:28:20.600000+00:00,2024-05-24 05:28:20.600000+09:00,2024,5,23,20,28,20,600,,,,,,,,,-0.5354,-0.50708,1.782959,13.916016,-144.104004,-20.507812,,,,,,,,,,,0.0,1.0,1.0,9.0,0.0,0.0,0.0,3.0,0.0,0.0050813733333333385,-0.25439123999999996,0.9528678133333334,0.7942708000000003,-1.1027017599999989,8.18603516,-6.742913098635744,1.1226543650486485,5.250644869325279,8.28368973932197,6.0262243730782465,17.206649612059056,20.025076448398455,-1.5501253281884955,20.40186993660998,-1.5663228110076044,-0.5404813733333333,-0.25268876,0.8300911866666666,1.6232613200000001,1.0222637147685025,0.7900305243618664,0.7740784173492956,0.7488788124097098
LBP08_S09,LBP08,166,167,9,166,166,1716496100.64,2024-05-23 20:28:20.640000+00:00,2024-05-24 05:28:20.640000+09:00,2024,5,23,20,28,20,640,,,,,,,,,0.719727,-0.178223,1.594727,-10.559082,37.963867,23.742676,,,,,,,,,,,0.0,1.0,1.0,9.0,0.0,0.0,0.0,3.0,0.0,0.0039160000000000045,-0.25703771999999997,0.9621712,1.4127603866666671,-2.550455666666666,8.1241862,-6.2124497568089065,0.5464058069235094,7.980669946065592,8.035191749049613,6.048080605355187,17.52587640990168,20.206432871440143,-1.5550283822747228,20.424111360723746,-1.5716441703386121,0.715811,0.07881471999999998,0.6325558,1.42718152,0.9585009065845053,0.8159133995566598,0.7644103961323444,0.7555851282847138
LBP08_S09,LBP08,167,168,9,167,167,1716496100.68,2024-05-23 20:28:20.680000+00:00,2024-05-24 05:28:20.680000+09:00,2024,5,23,20,28,20,680,,,,,,,,,-0.836426,0.068359,-0.112793,-11.291504,101.745605,-14.831543,,,,,,,,,,,0.0,1.0,1.0,9.0,0.0,0.0,0.0,3.0,0.0,0.0025748666666666723,-0.25657548,0.9847688533333333,3.1795247200000003,-2.410481706666666,8.46598308,-6.650620345333578,-1.1664844358757045,10.360455266098018,7.76916693523627,6.001421227920159,17.9402946205456,20.450701276349342,-1.5604261920448663,20.50930537772973,-1.5732901635451257,-0.8390008666666666,0.32493448,-1.0975618533333333,2.2614972,1.4192064305282688,0.8312352208550088,0.7799448171108762,0.7675684226798167
LBP08_S09,LBP08,168,169,9,168,168,1716496100.72,2024-05-23 20:28:20.720000+00:00,2024-05-24 05:28:20.720000+09:00,2024,5,23,20,28,20,720,,,,,,,,,0.219238,-0.251953,0.467285,-40.588379,-116.760254,5.187988,,,,,,,,,,,0.0,1.0,1.0,9.0,0.0,0.0,0.0,3.0,0.0,0.003463533333333338,-0.26020178666666666,1.0005436,2.8214518,-1.3883462933333326,9.2960612,-7.614390922281323,-3.7713040360479253,11.990496621239409,7.464591298345017,5.850569066478242,18.419914485395175,20.71816911076438,-1.5570435692409175,20.641402987815393,-1.5762410506425368,0.21577446666666666,0.008248786666666674,-0.5332586000000001,0.7572818533333334,0.5753185182320457,0.8258745017063147,0.7834948242070121,0.7642480589370272
LBP08_S09,LBP08,169,170,9,169,169,1716496100.76,2024-05-23 20:28:20.760000+00:00,2024-05-24 05:28:20.760000+09:00,2024,5,23,20,28,20,760,,,,,,,,,0.641113,-0.359131,1.28125,27.648926,33.325195,31.616211,,,,,,,,,,,0.0,1.0,1.0,9.0,0.0,0.0,0.0,3.0,0.0,-0.012737639999999995,-0.26541011999999997,0.9859277200000001,3.738606746666667,1.227213600000001,10.035807293333335,-8.572522517035326,-6.7795920802717555,12.606036952144628,7.1216903976636035,5.579385383267372,18.92415596348096,20.975502242028522,-1.6204521538542531,20.80202067399157,-1.5691132088104047,0.65385064,-0.09372088,0.29532227999999994,1.0428937999999999,0.7235464821563176,0.8328979166340291,0.7858891894414084,0.7653637557690603
LBP08_S09,LBP08,170,171,9,170,170,1716496100.8,2024-05-23 20:28:20.800000+00:00,2024-05-24 05:28:20.800000+09:00,2024,5,23,20,28,20,800,,,,,,,,,-0.528564,-0.370361,1.541992,-28.015137,65.979004,57.739258,,,,,,,,,,,0.0,1.0,1.0,9.0,0.0,0.0,0.0,3.0,0.0,-0.007796226666666661,-0.25306312000000003,0.9689941333333333,3.7036132666666672,-1.0546874399999993,9.225260426666667,-9.02663434244945,-9.535274949196044,12.126987225363365,6.760625023965625,5.19797438529953,19.409235452495494,21.20008040728403,-1.6026252632886335,20.97224197756243,-1.5645485965766341,-0.5207677733333334,-0.11729787999999997,0.5729978666666667,1.2110635200000002,0.7831247803508733,0.838347972777568,0.7819936604814185,0.7603552433449959
LBP08_S09,LBP08,171,172,9,171,171,1716496100.84,2024-05-23 20:28:20.840000+00:00,2024-05-24 05:28:20.840000+09:00,2024,5,23,20,28,20,840,,,,,,,,,-0.426025,-0.300537,1.854492,32.958984,-158.569336,-31.799316,,,,,,,,,,,0.0,1.0,1.0,9.0,0.0,0.0,0.0,3.0,0.0,0.0027538933333333387,-0.25870114666666666,0.9637727866666665,2.1736653466666667,-0.3092447333333324,10.24576824,-8.621221380248773,-11.34478427232229,10.667057140537377,6.4157761687556745,4.744183014406639,19.83591773811699,21.380670916393196,-1.559774911334644,21.134352542833717,-1.5633462289749676,-0.4287788933333333,-0.04183585333333334,0.8907192133333335,1.36133396,0.9894353414920242,0.8426421038574486,0.7821872252392457,0.7618016215327039
LBP08_S09,LBP08,172,173,9,172,172,1716496100.88,2024-05-23 20:28:20.880000+00:00,2024-05-24 05:28:20.880000+09:00,2024,5,23,20,28,20,880,,,,,,,,,0.601318,-0.303223,1.233398,-49.316406,91.61377,23.620605,,,,,,,,,,,0.0,1.0,1.0,9.0,0.0,0.0,0.0,3.0,0.0,5.533333333333834e-05,-0.2504133866666667,0.9618392,2.968749986666667,-0.007324159999999153,10.560709653333333,-7.234901265663185,-11.633084854118419,8.483079598477518,6.126380118129147,4.278859620241902,20.17524092205609,21.5146814818289,-1.5705679928676501,21.27344977501775,-1.5681882370946072,0.6012626666666667,-0.05280961333333334,0.2715588,0.92563108,0.6618533307651835,0.8444167180579535,0.7806630767574521,0.7635429989353012
LBP08_S09,LBP08,173,174,9,173,173,1716496100.92,2024-05-23 20:28:20.920000+00:00,2024-05-24 05:28:20.920000+09:00,2024,5,23,20,28,20,920,,,,,,,,,-0.705322,0.300781,-0.357666,14.831543,21.240234,-8.483887,,,,,,,,,,,0.0,1.0,1.0,9.0,0.0,0.0,0.0,3.0,0.0,0.008522133333333338,-0.26093422666666666,0.98629232,0.2832031200000004,-1.9466145333333322,10.8536784,-5.03895134139076,-10.088485500366184,5.87982537610741,5.924822064473516,3.8753202002272547,20.410433937100386,21.603412615850782,-1.5370266988677572,21.378868544594177,-1.5683081141002446,-0.7138441333333333,0.5617152266666667,-1.34395832,2.61951768,1.6221348305430177,0.8490472842363236,0.7978840649081476,0.7772883614036019
LBP08_S09,LBP08,174,175,9,174,174,1716496100.96,2024-05-23 20:28:20.960000+00:00,2024-05-24 05:28:20.960000+09:00,2024,5,23,20,28,20,960,,,,,,,,,0.158447,-0.223389,0.312256,-82.946777,-152.954102,-38.94043,,,,,,,,,,,0.0,1.0,1.0,9.0,0.0,0.0,0.0,3.0,0.0,0.009837240000000004,-0.26496092,1.0026757866666667,-0.24983723999999963,-1.8147785999999988,11.424153653333333,-2.4910049250511936,-6.759489777727237,3.1190339996707714,5.825181867471469,3.6049406091181653,20.535195297087217,21.64769240528654,-1.5324154738044022,21.445370798056782,-1.5678081680833194,0.14860976,0.041571919999999984,-0.6904197866666667,0.8806014666666667,0.7074549929999714,0.8410136224089096,0.8042973176365423,0.7772642648110017
LBP08_S09,LBP08,175,176,9,175,175,1716496101.0,2024-05-23 20:28:21+00:00,2024-05-24 05:28:21+09:00,2024,5,23,20,28,21,0,20.0,28.0,19.0,40.794884,141.620697,-7.005,3.0,15.0,0.491455,-0.390625,1.169189,26.550293,20.019531,10.559082,-547.0,50.0,585.0,409.0,0.0,1020.0,24.24,0.069368,-56.014488,3.817969,0.0,1.0,1.0,9.0,0.0,0.0,0.0,6.0,0.0,0.008359373333333338,-0.26426430666666667,1.00522136,-1.0620117199999997,-0.20914709333333234,12.003580733333333,-0.22845227265436743,-2.0715413270919023,0.3842865812076585,5.8160437765652935,3.5220789560344894,20.550566760335524,21.64618210111132,-1.5381016521718287,21.473942911186715,-1.5608962747685529,0.4830956266666666,-0.12636069333333333,0.16396764000000008,0.77342396,0.5255794861781704,0.8461409157195259,0.8053904089528723,0.772661882416292
LBP08_S09,LBP08,176,177,9,176,176,1716496101.04,2024-05-23 20:28:21.040000+00:00,2024-05-24 05:28:21.040000+09:00,2024,5,23,20,28,21,40,,,,,,,,,-0.101562,-0.035889,1.281982,29.23584,140.930176,45.349121,,,,,,,,,,,0.0,1.0,1.0,9.0,0.0,0.0,0.0,6.0,0.0,-0.008177079999999998,-0.2587923066666667,0.9871386799999999,-4.213053386666666,-0.7071939733333323,11.101074226666666,1.1401041345896785,3.254888788217568,-2.1796907640872165,5.86164794194888,3.652274507563192,20.463379129772036,21.597405193280494,-1.6034484634711206,21.471869975349552,-1.5564661572717384,-0.09338492,0.2229033066666667,0.29484332,0.6111315466666667,0.3812338006459591,0.8372968844417956,0.7957764969138604,0.7689014697248453
LBP08_S09,LBP08,177,178,9,177,177,1716496101.08,2024-05-23 20:28:21.080000+00:00,2024-05-24 05:28:21.080000+09:00,2024,5,23,20,28,21,80,,,,,,,,,-0.518311,-0.69458,1.5354,46.264648,-67.077637,-14.343262,,,,,,,,,,,0.0,1.0,1.0,9.0,0.0,0.0,0.0,6.0,0.0,0.0023502666666666686,-0.2656152133333333,0.9737858133333335,-3.648274746666666,-0.997721319999999,10.746256520000001,1.2827161243960474,8.364788948091077,-4.3850025200387215,5.9129565869247225,3.986866065486835,20.287979028970486,21.5048889721136,-1.5616249621012386,21.451800381676392,-1.556695962343576,-0.5206612666666667,-0.42896478666666665,0.5616141866666666,1.51124024,0.8777866696824338,0.8299841444452635,0.79740634303514,0.7611746530882786
LBP08_S09,LBP08,178,179,9,178,178,1716496101.12,2024-05-23 20:28:21.120000+00:00,2024-05-24 05:28:21.120000+09:00,2024,5,23,20,28,21,120,,,,,,,,,0.4646,-0.148926,1.510742,13.977051,-47.851562,-0.793457,,,,,,,,,,,0.0,1.0,1.0,9.0,0.0,0.0,0.0,6.0,0.0,0.0045670533333333355,-0.2517936,0.9575976666666666,-2.183430999999999,0.5102539333333344,10.222981773333332,0.3172057334985993,12.444853459291458,-5.941407640254192,5.925644816264667,4.4846602038584935,20.05032272336032,21.383191645390443,-1.5520441090716655,21.42997214274943,-1.5576280826720539,0.46003294666666666,0.1028676,0.5531443333333335,1.11604488,0.7267604203913103,0.8267784061745291,0.8055226907464562,0.7618916270984215
LBP08_S09,LBP08,179,180,9,179,179,1716496101.16,2024-05-23 20:28:21.160000+00:00,2024-05-24 05:28:21.160000+09:00,2024,5,23,20,28,21,160,,,,,,,,,-0.863037,-0.217285,-0.213623,5.187988,158.813477,36.376953,,,,,,,,,,,0.0,1.0,1.0,9.0,0.0,0.0,0.0,6.0,0.0,0.004746093333333335,-0.2520409866666667,0.9623112133333335,-3.1079101599999994,-1.979166639999999,9.933268226666666,-1.1936098921516964,14.855968865339577,-6.4761139959383875,5.877900420578599,5.0788989584720765,19.791278163522787,21.26122337332781,-1.5513332207065875,21.424307998871654,-1.5606294389601176,-0.8677830933333334,0.03475598666666668,-1.1759342133333335,2.0784732933333334,1.4618743960314196,0.8618976674453681,0.8120380691538084,0.7756111157309961
LBP08_S09,LBP08,180,181,9,180,180,1716496101.2,2024-05-23 20:28:21.200000+00:00,2024-05-24 05:28:21.200000+09:00,2024,5,23,20,28,21,200,,,,,,,,,0.046875,0.287354,0.176025,-27.160645,-83.312988,-66.28418,,,,,,,,,,,0.0,1.0,1.0,9.0,0.0,0.0,0.0,6.0,0.0,0.0030664133333333354,-0.2539485333333333,0.9810221466666667,-3.683268226666666,-1.9620767866666657,10.157063800000001,-2.4472984297747957,15.205386307364645,-5.641673555042554,5.780008483387607,5.687114410766663,19.565611221321085,21.17935104891243,-1.55832408832049,21.453061326599375,-1.560449468077897,0.04380858666666666,0.5413025333333332,-0.8049971466666667,1.3901082666666666,0.9710551122363189,0.8567934766653278,0.8199732756064531,0.7819805836166996
LBP08_S09,LBP08,181,182,9,181,181,1716496101.24,2024-05-23 20:28:21.240000+00:00,2024-05-24 05:28:21.240000+09:00,2024,5,23,20,28,21,240,,,,,,,,,0.424316,-0.522705,0.938721,-78.00293,-39.428711,-21.606445,,,,,,,,,,,0.0,1.0,1.0,9.0,0.0,0.0,0.0,6.0,0.0,0.0022298266666666683,-0.2644888933333333,0.9947623866666667,-4.9023437466666655,-1.8497721066666661,10.948893226666666,-2.7262762027504293,13.374558175947824,-3.266651070230441,5.6709574352775896,6.222096737804575,19.434945178511867,21.179974979661573,-1.5620729620530203,21.533999876045332,-1.5604817864155103,0.42208617333333337,-0.25821610666666667,-0.05604138666666669,0.7363436666666667,0.49796880673471006,0.8553360090071561,0.8177689379228958,0.7772810503413518
LBP08_S09,LBP08,182,183,9,182,182,1716496101.28,2024-05-23 20:28:21.280000+00:00,2024-05-24 05:28:21.280000+09:00,2024,5,23,20,28,21,280,,,,,,,,,0.342285,-0.138184,1.105225,21.42334,101.318359,-22.338867,,,,,,,,,,,0.0,1.0,1.0,9.0,0.0,0.0,0.0,6.0,0.0,-0.0023827999999999983,-0.2717415066666667,0.9897037999999999,-4.322102853333333,-0.5664062266666656,11.396484373333335,-1.6940706851183587,9.526406202410099,0.528464450159605,5.603194607872855,6.603152985900979,19.45608375651825,21.296399092559327,-1.5798891961524293,21.683430742608635,-1.5494271502094907,0.3446678,0.1335575066666667,0.11552119999999999,0.5937465066666667,0.3872707678011558,0.8439991539458143,0.812362825422386,0.7728117367525068
LBP08_S09,LBP08,183,184,9,183,183,1716496101.32,2024-05-23 20:28:21.320000+00:00,2024-05-24 05:28:21.320000+09:00,2024,5,23,20,28,21,320,,,,,,,,,-0.408203,-0.748291,1.438721,-31.188965,11.535645,63.415527,,,,,,,,,,,0.0,1.0,1.0,9.0,0.0,0.0,0.0,6.0,0.0,0.0009049600000000013,-0.24871416000000002,0.9707259333333333,-0.16601561333333242,-2.4536132666666655,10.629882813333333,0.4722743562326632,4.105547013492025,5.315647327829441,5.622085582122162,6.76737486644066,19.668709649631428,21.546771177072984,-1.5670402617483947,21.914393376015205,-1.5415860005832105,-0.40910796,-0.49957684,0.46799506666666657,1.3766798666666666,0.7974745917106607,0.8429395758479781,0.8129525312298946,0.7808724435581959
