file_name,test_id,_program_index,program_index,session_id,index,_index,unixtime,datetime_utc,datetime_jst,rtc_year,rtc_month,rtc_day,rtc_hour,rtc_min,rtc_sec,rtc_msec,gps_hour,gps_min,gps_sec,latitude,longitude,altitude,fix_type,SIV,acc_x,acc_y,acc_z,gyro_x,gyro_y,gyro_z,mag_x,mag_y,mag_z,illuminance,atmopress,water_pressure,water_temp,depth,alt_wps,battery_level,behavior_class,camera_command,camera_recording,camera_count,play_audio,speaker_on,audio_file,prev_sd_write_time_ms,delay_occurred_counter,acc_x_ma,acc_y_ma,acc_z_ma,gyro_x_ma,gyro_y_ma,gyro_z_ma,gyro_x_lowpass,gyro_y_lowpass,gyro_z_lowpass,angle_x,angle_y,angle_z,combined_angle_change,gravity_adjusted_angle,smoothed_angle_change,smoothed_gravity_angle,acc_x_dy,acc_y_dy,acc_z_dy,ODBA,VeDBA,smoothed_VeDBA_1s,smoothed_VeDBA_2s,smoothed_VeDBA_3s
LBP08_S10,LBP08,0,1,10,0,0,1716497011.0,2024-05-23 20:43:31+00:00,2024-05-24 05:43:31+09:00,2024,5,23,20,43,31,0,20.0,43.0,29.0,40.795208,141.621948,-0.14,3.0,15.0,-0.058105,-0.080811,0.095947,10.375977,-126.220703,-37.04834,-589.0,29.0,592.0,110.0,0.0,1021.099976,25.67,0.080269,-65.114113,3.796875,0.0,1.0,1.0,10.0,0.0,0.0,0.0,6.0,0.0,,,,,,,10.587970851659723,-125.92199171351845,-36.7059702636651,0.4235188340663889,-5.036879668540738,-1.468238810546604,5.26357769990748,,9.393486040760965,,,,,,,,,
LBP08_S10,LBP08,1,2,10,1,1,1716497011.04,2024-05-23 20:43:31.040000+00:00,2024-05-24 05:43:31.040000+09:00,2024,5,23,20,43,31,40,,,,,,,,,0.54834,-0.051025,0.803223,-1.220703,-74.401855,-29.23584,,,,,,,,,,,0.0,1.0,1.0,10.0,0.0,0.0,0.0,6.0,0.0,,,,,,,6.444007525370323,-84.70769329781075,-19.741898414357753,0.6812791350812019,-8.425187400453169,-2.257914747120914,8.749062978280469,,9.552625243565062,,,,,,,,,
LBP08_S10,LBP08,2,3,10,2,2,1716497011.08,2024-05-23 20:43:31.080000+00:00,2024-05-24 05:43:31.080000+09:00,2024,5,23,20,43,31,80,,,,,,,,,0.487305,-0.370117,1.104248,-10.437012,39.855957,27.832031,,,,,,,,,,,0.0,1.0,1.0,10.0,0.0,0.0,0.0,6.0,0.0,,,,,,,2.4014933236181175,-47.50577532938477,-5.060624150277004,0.7773388680259266,-10.32541841362856,-2.460339713131994,10.642922185013756,,9.55156898379426,,,,,,,,,
LBP08_S10,LBP08,3,4,10,3,3,1716497011.12,2024-05-23 20:43:31.120000+00:00,2024-05-24 05:43:31.120000+09:00,2024,5,23,20,43,31,120,,,,,,,,,-0.47876,-0.55127,1.592529,-4.516602,25.878906,83.251953,,,,,,,,,,,0.0,1.0,1.0,10.0,0.0,0.0,0.0,6.0,0.0,,,,,,,-1.394137646189338,-17.510471041704545,5.734989177305865,0.721573362178353,-11.025837255296741,-2.2309401460397598,11.272393234469194,,9.467963231206284,,,,,,,,,
LBP08_S10,LBP08,4,5,10,4,4,1716497011.16,2024-05-23 20:43:31.160000+00:00,2024-05-24 05:43:31.160000+09:00,2024,5,23,20,43,31,160,,,,,,,,,-0.199707,-0.52417,1.747314,68.115234,-83.374023,8.911133,,,,,,,,,,,0.0,1.0,1.0,10.0,0.0,0.0,0.0,6.0,0.0,,,,,,,-4.78171281839615,3.4716825782979384,12.022428183358242,0.530304849442507,-10.886969952164824,-1.75004301870543,11.039474106133934,,9.361441903277848,,,,,,,,,
LBP08_S10,LBP08,5,6,10,5,5,1716497011.2,2024-05-23 20:43:31.200000+00:00,2024-05-24 05:43:31.200000+09:00,2024,5,23,20,43,31,200,,,,,,,,,0.273193,0.154541,0.985596,-40.527344,120.788574,33.203125,,,,,,,,,,,0.0,1.0,1.0,10.0,0.0,0.0,0.0,6.0,0.0,,,,,,,-7.59991582516129,15.218174939404687,14.231387039621069,0.22630821643605542,-10.278242954588636,-1.1807875371205874,10.348321257585537,,9.273266688539268,,,,,,,,,
LBP08_S10,LBP08,6,7,10,6,6,1716497011.24,2024-05-23 20:43:31.240000+00:00,2024-05-24 05:43:31.240000+09:00,2024,5,23,20,43,31,240,,,,,,,,,-0.458008,-0.251709,-0.134033,-68.481445,16.723633,-34.729004,,,,,,,,,,,0.0,1.0,1.0,10.0,0.0,0.0,0.0,6.0,0.0,,,,,,,-9.735977656963646,18.89287217587925,13.584458678373887,-0.1631308898424904,-9.522528067553466,-0.6374091899856319,9.545231425169455,,9.624787324270764,,,,,,,,,
LBP08_S10,LBP08,7,8,10,7,7,1716497011.28,2024-05-23 20:43:31.280000+00:00,2024-05-24 05:43:31.280000+09:00,2024,5,23,20,43,31,280,,,,,,,,,0.118896,-0.157715,0.138184,31.25,-97.473145,-46.813965,,,,,,,,,,,0.0,1.0,1.0,10.0,0.0,0.0,0.0,6.0,0.0,,,,,,,-11.188995835830728,16.562510310365546,11.624340217432184,-0.6106907232757195,-8.860027655138845,-0.17243558128834452,8.882722963090453,,9.684734082414035,,,,,,,,,
LBP08_S10,LBP08,8,9,10,8,8,1716497011.32,2024-05-23 20:43:31.320000+00:00,2024-05-24 05:43:31.320000+09:00,2024,5,23,20,43,31,320,,,,,,,,,0.520752,-0.093262,0.934814,-26.306152,-40.283203,-13.671875,,,,,,,,,,,0.0,1.0,1.0,10.0,0.0,0.0,0.0,6.0,0.0,,,,,,,-12.10403952089383,10.606600645799752,9.724306702276884,-1.0948523041114726,-8.435763629306855,0.21653668680273086,8.509271279850354,,9.631369704459162,,,,,,,,,
LBP08_S10,LBP08,9,10,10,9,9,1716497011.36,2024-05-23 20:43:31.360000+00:00,2024-05-24 05:43:31.360000+09:00,2024,5,23,20,43,31,360,,,,,,,,,0.096924,-0.276855,1.367676,-15.319824,87.097168,38.391113,,,,,,,,,,,0.0,1.0,1.0,10.0,0.0,0.0,0.0,6.0,0.0,,,,,,,-12.74525117317374,3.215371362723383,8.761303477833298,-1.6046623510384221,-8.30714877479792,0.5669888259160628,8.479689755892041,,9.601421345563729,,,,,,,,,
LBP08_S10,LBP08,10,11,10,10,10,1716497011.4,2024-05-23 20:43:31.400000+00:00,2024-05-24 05:43:31.400000+09:00,2024,5,23,20,43,31,400,,,,,,,,,-0.454102,-0.76123,1.634766,-30.273438,-28.808594,42.175293,,,,,,,,,,,0.0,1.0,1.0,10.0,0.0,0.0,0.0,6.0,0.0,,,,,,,-13.414144429631419,-3.893882981217264,9.028807117504678,-2.1412281282236787,-8.46290409404661,0.9281411106162499,8.778784057222454,,9.68276997122948,,,,,,,,,
LBP08_S10,LBP08,11,12,10,11,11,1716497011.44,2024-05-23 20:43:31.440000+00:00,2024-05-24 05:43:31.440000+09:00,2024,5,23,20,43,31,440,,,,,,,,,0.064697,-0.071777,1.63916,59.326172,-52.490234,5.249023,,,,,,,,,,,0.0,1.0,1.0,10.0,0.0,0.0,0.0,6.0,0.0,,,,,,,-14.349319876620356,-9.535247930496638,10.34510523748331,-2.715200923288493,-8.844314011266476,1.3419453201155824,9.348530559713184,,9.915525905363992,,,,,,,,,
LBP08_S10,LBP08,12,13,10,12,12,1716497011.48,2024-05-23 20:43:31.480000+00:00,2024-05-24 05:43:31.480000+09:00,2024,5,23,20,43,31,480,,,,,,,,,-0.107666,0.134521,0.443604,-22.277832,160.827637,44.311523,,,,,,,,,,,0.0,1.0,1.0,10.0,0.0,0.0,0.0,6.0,0.0,,,,,,,-15.653007509937297,-12.98303036628974,12.245865269919369,-3.341321223685985,-9.363635225918067,1.8317799309123572,10.109278405465021,,10.30020286274502,,,,,,,,,
LBP08_S10,LBP08,13,14,10,13,13,1716497011.52,2024-05-23 20:43:31.520000+00:00,2024-05-24 05:43:31.520000+09:00,2024,5,23,20,43,31,520,,,,,,,,,-0.104736,-0.510742,-0.036377,-89.172363,-65.917969,-16.113281,,,,,,,,,,,0.0,1.0,1.0,10.0,0.0,0.0,0.0,6.0,0.0,,,,,,,-17.2765525247821,-13.891947369559611,14.16308061112788,-4.032383324677269,-9.919313120700451,2.3983031553574725,10.97290964551486,,10.810030090763592,,,,,,,,,
LBP08_S10,LBP08,14,15,10,14,14,1716497011.56,2024-05-23 20:43:31.560000+00:00,2024-05-24 05:43:31.560000+09:00,2024,5,23,20,43,31,560,,,,,,,,,0.389404,-0.057129,0.514893,13.305664,-122.314453,-13.549805,,,,,,,,,,,0.0,1.0,1.0,10.0,0.0,0.0,0.0,6.0,0.0,,,,,,,-19.060011636644727,-12.281472631747532,15.551972911556856,-4.794783790143058,-10.410572025970353,3.0203820718197467,11.85296036279145,,11.403882539221538,,,,,,,,,
LBP08_S10,LBP08,15,16,10,15,15,1716497011.6,2024-05-23 20:43:31.600000+00:00,2024-05-24 05:43:31.600000+09:00,2024,5,23,20,43,31,600,,,,,,,,,0.517822,-0.350098,1.019287,-33.935547,-5.249023,16.418457,,,,,,,,,,,0.0,1.0,1.0,10.0,0.0,0.0,0.0,6.0,0.0,,,,,,,-20.784544449456295,-8.566015650339896,15.98029606905438,-5.62616556812131,-10.753212651983949,3.659593914581922,12.675880598930652,,12.036908688152575,,,,,,,,,
LBP08_S10,LBP08,16,17,10,16,16,1716497011.64,2024-05-23 20:43:31.640000+00:00,2024-05-24 05:43:31.640000+09:00,2024,5,23,20,43,31,640,,,,,,,,,-0.016113,-0.310791,1.464844,-22.399902,60.302734,57.434082,,,,,,,,,,,0.0,1.0,1.0,10.0,0.0,0.0,0.0,6.0,0.0,,,,,,,-22.197608497295146,-3.541218395509809,15.20650672032804,-6.514069908013116,-10.894861387804342,4.267854183395043,13.392000998979746,,12.667336182035836,,,,,,,,,
LBP08_S10,LBP08,17,18,10,17,17,1716497011.68,2024-05-23 20:43:31.680000+00:00,2024-05-24 05:43:31.680000+09:00,2024,5,23,20,43,31,680,,,,,,,,,-0.392822,-0.646973,1.626953,-0.244141,-49.133301,4.882812,,,,,,,,,,,0.0,1.0,1.0,10.0,0.0,0.0,0.0,6.0,0.0,,,,,,,-23.008983602583314,1.7475617564899002,13.245699448660956,-7.434429252116449,-10.824958917544746,4.7976821613414815,13.980995243276158,,13.259782314522951,,,,,,,,,
LBP08_S10,LBP08,18,19,10,18,18,1716497011.72,2024-05-23 20:43:31.720000+00:00,2024-05-24 05:43:31.720000+09:00,2024,5,23,20,43,31,720,,,,,,,,,0.273438,-0.181152,1.598633,7.446289,-13.244629,16.296387,,,,,,,,,,,0.0,1.0,1.0,10.0,0.0,0.0,0.0,6.0,0.0,,,,,,,-22.891597152258957,6.242184500936728,10.390163160486082,-8.350093138206807,-10.575271537507277,5.213288687760925,14.44779576442981,,13.786799470076796,,,,,,,,,
LBP08_S10,LBP08,19,20,10,19,19,1716497011.76,2024-05-23 20:43:31.760000+00:00,2024-05-24 05:43:31.760000+09:00,2024,5,23,20,43,31,760,,,,,,,,,-0.349121,-0.029053,0.25415,-41.564941,167.236328,25.634766,,,,,,,,,,,0.0,1.0,1.0,10.0,0.0,0.0,0.0,6.0,0.0,,,,,,,-21.52587671163236,9.128279306770805,7.151433578741304,-9.211128206672102,-10.210140365236445,5.499346030910577,14.809951245202427,,14.230250573129974,,,,,,,,,
LBP08_S10,LBP08,20,21,10,20,20,1716497011.8,2024-05-23 20:43:31.800000+00:00,2024-05-24 05:43:31.800000+09:00,2024,5,23,20,43,31,800,,,,,,,,,-0.147461,-0.394775,0.111328,-57.067871,-48.706055,-12.634277,,,,,,,,,,,0.0,1.0,1.0,10.0,0.0,0.0,0.0,6.0,0.0,,,,,,,-18.698036024311538,10.009431027099438,4.1244047940150175,-9.959049647644564,-9.809763124152466,5.664322222671178,15.083058996055058,,14.582712616336611,,,,,,,,,
LBP08_S10,LBP08,21,22,10,21,21,1716497011.84,2024-05-23 20:43:31.840000+00:00,2024-05-24 05:43:31.840000+09:00,2024,5,23,20,43,31,840,,,,,,,,,0.387695,0.046387,0.673584,26.489258,-62.927246,-40.588379,,,,,,,,,,,0.0,1.0,1.0,10.0,0.0,0.0,0.0,6.0,0.0,,,,,,,-14.419773594419265,8.934188192419088,1.8156210587212978,-10.535840591421335,-9.452395596455704,5.73694706502003,15.272991884584322,,14.847844945000725,,,,,,,,,
LBP08_S10,LBP08,22,23,10,22,22,1716497011.88,2024-05-23 20:43:31.880000+00:00,2024-05-24 05:43:31.880000+09:00,2024,5,23,20,43,31,880,,,,,,,,,0.410889,-0.338379,0.99292,-51.696777,5.737305,1.403809,,,,,,,,,,,0.0,1.0,1.0,10.0,0.0,0.0,0.0,6.0,0.0,,,,,,,-9.010269373941634,6.288999548821812,0.5029784340071239,-10.896251366379001,-9.20083561450283,5.757066202380315,15.37944996100347,,15.03855945614011,,,,,,,,,
LBP08_S10,LBP08,23,24,10,23,23,1716497011.92,2024-05-23 20:43:31.920000+00:00,2024-05-24 05:43:31.920000+09:00,2024,5,23,20,43,31,920,,,,,,,,,-0.022217,-0.420654,1.432861,-13.366699,42.907715,13.183594,,,,,,,,,,,0.0,1.0,1.0,10.0,0.0,0.0,0.0,6.0,0.0,,,,,,,-3.089603594979865,2.641982008152571,0.18694699233356288,-11.019835510178195,-9.095156334176728,5.764544082073658,15.407420676046652,,15.172953263818844,,,,,,,,,
LBP08_S10,LBP08,24,25,10,24,24,1716497011.96,2024-05-23 20:43:31.960000+00:00,2024-05-24 05:43:31.960000+09:00,2024,5,23,20,43,31,960,,,,,,,,,-0.28418,-0.645264,1.606445,0.854492,-44.86084,0.0,,,,,,,,,,,0.0,1.0,1.0,10.0,0.0,0.0,0.0,6.0,0.0,,,,,,,2.5339438161124836,-1.3757997924633043,0.6510521321956336,-10.918477757533696,-9.150188325875261,5.790586167361483,15.377580794857822,,15.269534246072089,,,,,,,,,
LBP08_S10,LBP08,25,26,10,25,25,1716497012.0,2024-05-23 20:43:32+00:00,2024-05-24 05:43:32+09:00,2024,5,23,20,43,32,0,20.0,43.0,30.0,40.795135,141.621964,-0.332,3.0,15.0,0.166016,-0.225098,1.394043,47.424316,-12.512207,17.822266,-588.0,35.0,592.0,90.0,0.0,1021.299988,25.709999,0.082251,-66.767876,3.796875,0.0,1.0,1.0,10.0,0.0,0.0,0.0,4.0,0.0,,,,,,,7.058098806910541,-5.1282636695687485,1.5941087319708647,-10.636153805257274,-9.35531887265801,5.854350516640317,15.32720388557178,,15.344032054439452,,,,,,,,,
LBP08_S10,LBP08,26,27,10,26,26,1716497012.04,2024-05-23 20:43:32.040000+00:00,2024-05-24 05:43:32.040000+09:00,2024,5,23,20,43,32,40,,,,,,,,,-0.229736,-0.253662,0.285889,31.799316,150.695801,41.259766,,,,,,,,,,,0.0,1.0,1.0,10.0,0.0,0.0,0.0,4.0,0.0,,,,,,,9.896530330899349,-8.010963467350345,2.763665504861359,-10.2402925920213,-9.675757411352023,5.964897136834772,15.299146110373597,,15.409167054857306,,,,,,,,,
LBP08_S10,LBP08,27,28,10,27,27,1716497012.08,2024-05-23 20:43:32.080000+00:00,2024-05-24 05:43:32.080000+09:00,2024,5,23,20,43,32,80,,,,,,,,,-0.014648,0.057617,0.033203,16.235352,-75.256348,-15.74707,,,,,,,,,,,0.0,1.0,1.0,10.0,0.0,0.0,0.0,4.0,0.0,,,,,,,10.818450436655281,-9.52437628492443,4.02698127479007,-9.807554574555088,-10.056732462749,6.125976387826374,15.324933320063494,,15.47667662791024,,,,,,,,,
LBP08_S10,LBP08,28,29,10,28,28,1716497012.12,2024-05-23 20:43:32.120000+00:00,2024-05-24 05:43:32.120000+09:00,2024,5,23,20,43,32,120,,,,,,,,,0.4021,-0.107178,0.577881,-0.854492,-119.995117,-32.958984,,,,,,,,,,,0.0,1.0,1.0,10.0,0.0,0.0,0.0,4.0,0.0,,,,,,,9.956492728591273,-9.404795430950763,5.356304503848724,-9.409294865411436,-10.43292427998703,6.340228567980323,15.413605586962277,,15.559349701252478,,,,,,,,,
LBP08_S10,LBP08,29,30,10,29,29,1716497012.16,2024-05-23 20:43:32.160000+00:00,2024-05-24 05:43:32.160000+09:00,2024,5,23,20,43,32,160,,,,,,,,,0.449951,-0.12085,1.052246,-8.850098,-23.193359,-0.244141,,,,,,,,,,,0.0,1.0,1.0,10.0,0.0,0.0,0.0,4.0,0.0,,,,,,,7.686049864659595,-7.753604822875007,6.75654051009229,-9.101852870825052,-10.743068472902031,6.610490188384015,15.554929328876076,,15.67101432154092,,,,,,,,,
LBP08_S10,LBP08,30,31,10,30,30,1716497012.2,2024-05-23 20:43:32.200000+00:00,2024-05-24 05:43:32.200000+09:00,2024,5,23,20,43,32,200,,,,,,,,,-0.040527,-0.414551,1.476562,-40.710449,47.973633,43.029785,,,,,,,,,,,0.0,1.0,1.0,10.0,0.0,0.0,0.0,4.0,0.0,,,,,,,4.444316913286184,-5.0499561723591855,8.191510332509575,-8.924080194293605,-10.9450667197964,6.938150601684398,15.734409000233585,,15.824104188238362,,,,,,,,,
LBP08_S10,LBP08,31,32,10,31,31,1716497012.24,2024-05-23 20:43:32.240000+00:00,2024-05-24 05:43:32.240000+09:00,2024,5,23,20,43,32,240,,,,,,,,,-0.210449,-0.291748,1.60498,14.038086,-30.517578,2.197266,,,,,,,,,,,0.0,1.0,1.0,10.0,0.0,0.0,0.0,4.0,0.0,,,,,,,0.5817666700307281,-1.9782904622116744,9.54920510591816,-8.900809527492376,-11.024198338284867,7.320118805921124,15.948087615113668,,16.026317129869508,,,,,,,,,
LBP08_S10,LBP08,32,33,10,32,32,1716497012.28,2024-05-23 20:43:32.280000+00:00,2024-05-24 05:43:32.280000+09:00,2024,5,23,20,43,32,280,,,,,,,,,0.167236,-0.567383,1.674072,28.564453,27.526855,10.498047,,,,,,,,,,,0.0,1.0,1.0,10.0,0.0,0.0,0.0,4.0,0.0,,,,,,,-3.6908576614645705,0.8720143217898682,10.647571961636919,-9.048443833950959,-10.989317765413272,7.746021684386601,16.206180694425825,,16.27864886699929,,,,,,,,,
LBP08_S10,LBP08,33,34,10,33,33,1716497012.32,2024-05-23 20:43:32.320000+00:00,2024-05-24 05:43:32.320000+09:00,2024,5,23,20,43,32,320,,,,,,,,,-0.375488,-0.245361,0.320557,10.620117,173.706055,15.258789,,,,,,,,,,,0.0,1.0,1.0,10.0,0.0,0.0,0.0,4.0,0.0,,,,,,,-8.258720784894571,3.277519014785415,11.26126488913785,-9.378792665346742,-10.858217004821855,8.196472279952115,16.524066878931098,,16.576151227969966,-1.522049979430458,,,,,,,,
LBP08_S10,LBP08,34,35,10,34,34,1716497012.36,2024-05-23 20:43:32.360000+00:00,2024-05-24 05:43:32.360000+09:00,2024,5,23,20,43,32,360,,,,,,,,,-0.026367,-0.270264,0.221436,-84.960938,-82.092285,-9.033203,,,,,,,,,,,0.0,1.0,1.0,10.0,0.0,0.0,0.0,4.0,0.0,,,,,,,-13.0098235936911,5.461133964192302,11.158293465529415,-9.899185609094387,-10.639771646254163,8.642804018573292,16.908479461832222,,16.910696864458608,-1.5091834943534819,,,,,,,,
LBP08_S10,LBP08,35,36,10,35,35,1716497012.4,2024-05-23 20:43:32.400000+00:00,2024-05-24 05:43:32.400000+09:00,2024,5,23,20,43,32,400,,,,,,,,,0.418945,-0.314209,0.868164,55.053711,-67.382812,-10.009766,,,,,,,,,,,0.0,1.0,1.0,10.0,0.0,0.0,0.0,4.0,0.0,,,,,,,-17.745902253587523,7.916980772545381,10.15128942429649,-10.609021699237887,-10.323092415352347,9.048855595545152,17.349333301883227,,17.27341128355628,-1.5117417345796824,,,,,,,,
LBP08_S10,LBP08,36,37,10,36,36,1716497012.44,2024-05-23 20:43:32.440000+00:00,2024-05-24 05:43:32.440000+09:00,2024,5,23,20,43,32,440,,,,,,,,,0.35498,-0.045654,1.210693,-56.762695,-6.835938,33.691406,,,,,,,,,,,0.0,1.0,1.0,10.0,0.0,0.0,0.0,4.0,0.0,,,,,,,-22.127961110313244,11.065538165266592,8.167765591051063,-11.494140143650418,-9.880470888741684,9.375566219187196,17.822463481671438,,17.65474194710843,-1.5218497384447989,,,,,,,,
LBP08_S10,LBP08,37,38,10,37,37,1716497012.48,2024-05-23 20:43:32.480000+00:00,2024-05-24 05:43:32.480000+09:00,2024,5,23,20,43,32,480,,,,,,,,,-0.261963,-0.736572,1.76416,-25.878906,15.258789,47.729492,,,,,,,,,,,0.0,1.0,1.0,10.0,0.0,0.0,0.0,4.0,0.0,0.0128418,-0.27344078666666666,0.9713053333333332,0.15625005333333344,-0.9057617066666677,4.75423176,-25.670884693491598,14.935925367233711,5.322751643972678,-12.520975531390082,-9.283033874052336,9.588476284946102,18.299956929770246,-1.522049979430458,18.042246897673735,-1.5222477811655635,-0.2748048,-0.46313121333333335,0.7928546666666667,1.53079068,0.9584501663215238,0.9584501663215238,0.9584501663215238,0.9584501663215238
LBP08_S10,LBP08,38,39,10,38,38,1716497012.52,2024-05-23 20:43:32.520000+00:00,2024-05-24 05:43:32.520000+09:00,2024,5,23,20,43,32,520,,,,,,,,,-0.071777,-0.75708,2.075928,35.400391,-54.931641,-18.188477,,,,,,,,,,,0.0,1.0,1.0,10.0,0.0,0.0,0.0,4.0,0.0,0.019505200000000004,-0.27114911999999997,0.9810937466666667,-0.6738280799999999,-0.08463540000000098,5.017903639999999,-27.79864991844561,19.05700738463495,1.9523930595244954,-13.632921528127907,-8.520753578666937,9.666572007327082,18.75906195184872,-1.4963170092765055,18.418246700544394,-1.5209142385900243,-0.0912822,-0.48593088,1.0948342533333335,1.6720473333333334,1.2013006711254148,1.0798754187234694,1.0798754187234694,1.0798754187234694
LBP08_S10,LBP08,39,40,10,39,39,1716497012.56,2024-05-23 20:43:32.560000+00:00,2024-05-24 05:43:32.560000+09:00,2024,5,23,20,43,32,560,,,,,,,,,0.377686,0.001953,1.581055,-58.410645,123.901367,7.751465,,,,,,,,,,,0.0,1.0,1.0,10.0,0.0,0.0,0.0,4.0,0.0,0.014430333333333335,-0.2776009466666666,0.98774088,-1.2166340666666666,1.3452148533333323,6.005859373333333,-27.964169021092154,22.61243640213025,-1.4324064109759507,-14.751488288971593,-7.616256122581728,9.609275750888044,19.182073519852715,-1.5168582150320844,18.759720967029203,-1.5246091718146124,0.3632556666666667,0.2795539466666666,0.5933141200000001,1.2361237333333333,0.749751114339771,0.9698339839289032,0.9698339839289032,0.9698339839289032
LBP08_S10,LBP08,40,41,10,40,40,1716497012.6,2024-05-23 20:43:32.600000+00:00,2024-05-24 05:43:32.600000+09:00,2024,5,23,20,43,32,600,,,,,,,,,-0.768555,0.157227,-0.164551,-75.500488,106.018066,-16.723633,,,,,,,,,,,0.0,1.0,1.0,10.0,0.0,0.0,0.0,4.0,0.0,0.0050358,-0.28096684,0.9942871066666666,-1.2719726,0.7682291733333324,6.129557293333333,-25.813510994543112,24.769437034996205,-4.27552010129496,-15.784028728753318,-6.625478641181879,9.438254946836246,19.547715635755146,-1.5521737500401473,19.04120120314467,-1.5232426010886433,-0.7735908,0.43819384,-1.1588381066666666,2.3706227466666667,1.4606034111699762,1.0925263407391714,1.0925263407391714,1.0925263407391714
LBP08_S10,LBP08,41,42,10,41,41,1716497012.64,2024-05-23 20:43:32.640000+00:00,2024-05-24 05:43:32.640000+09:00,2024,5,23,20,43,32,640,,,,,,,,,0.225342,-0.706543,0.667969,-22.766113,-51.330566,-38.146973,,,,,,,,,,,0.0,1.0,1.0,10.0,0.0,0.0,0.0,4.0,0.0,0.012626946666666666,-0.27907556,0.9941048133333333,-0.7373046266666665,0.2897135466666657,5.408528653333333,-21.33996365823091,25.00894757229212,-6.141039320957049,-16.637627275082554,-5.625120738290194,9.192613373997963,19.823137120766724,-1.5238399520486219,19.239342568297822,-1.5212884034651697,0.21271505333333332,-0.42746744000000003,-0.3261358133333333,0.9663183066666666,0.5782219944911741,0.989665471489572,0.989665471489572,0.989665471489572
LBP08_S10,LBP08,42,43,10,42,42,1716497012.68,2024-05-23 20:43:32.680000+00:00,2024-05-24 05:43:32.680000+09:00,2024,5,23,20,43,32,680,,,,,,,,,0.19751,0.094971,1.397949,19.958496,39.306641,-19.958496,,,,,,,,,,,0.0,1.0,1.0,10.0,0.0,0.0,0.0,4.0,0.0,0.015042306666666668,-0.2759310266666667,0.9841829466666667,-1.3557941999999998,3.2999674533333323,6.300455733333333,-14.956773424530846,23.303618726148912,-6.841005682081643,-17.235898212063788,-4.692975989244237,8.918973146714697,19.966178723132387,-1.5142465257123274,19.336851508053446,-1.5223952909427003,0.18246769333333332,0.3709020266666667,0.4137660533333334,0.9671357733333334,0.5848633339395375,0.9221984485645662,0.9221984485645662,0.9221984485645662
LBP08_S10,LBP08,43,44,10,43,43,1716497012.72,2024-05-23 20:43:32.720000+00:00,2024-05-24 05:43:32.720000+09:00,2024,5,23,20,43,32,720,,,,,,,,,-0.394043,-0.515137,1.805908,-32.836914,51.940918,14.892578,,,,,,,,,,,0.0,1.0,1.0,10.0,0.0,0.0,0.0,4.0,0.0,0.006445306666666666,-0.27916670666666665,0.97111328,0.22949226666666675,1.6308593866666654,6.093749999999999,-7.443288340923748,20.09045689373863,-6.46675007611942,-17.533629745700736,-3.889357713494692,8.66030314366992,19.93880954377922,-1.5467787711621417,19.32407319549481,-1.5248976794520703,-0.4004883066666666,-0.2359702933333333,0.8347947200000001,1.47125332,0.9554868327990877,0.9269539320266408,0.9269539320266408,0.9269539320266408
LBP08_S10,LBP08,44,45,10,44,44,1716497012.76,2024-05-23 20:43:32.760000+00:00,2024-05-24 05:43:32.760000+09:00,2024,5,23,20,43,32,760,,,,,,,,,-0.297119,-0.628174,2.072998,-32.043457,-82.15332,-11.108398,,,,,,,,,,,0.0,1.0,1.0,10.0,0.0,0.0,0.0,4.0,0.0,0.015091146666666664,-0.2739714,0.9814843733333334,1.0717774133333333,0.6469726666666656,6.630045573333334,0.22812217600820303,16.09070960582707,-5.313330846747065,-17.524504858660407,-3.2457293292616094,8.447769909800037,19.723281822986866,-1.5136766060068607,19.19825774506897,-1.527144944272362,-0.3122101466666667,-0.35420260000000003,1.0915136266666667,1.7579263733333335,1.1892588678363516,0.9597420490028545,0.9597420490028545,0.9597420490028545
LBP08_S10,LBP08,45,46,10,45,45,1716497012.8,2024-05-23 20:43:32.800000+00:00,2024-05-24 05:43:32.800000+09:00,2024,5,23,20,43,32,800,,,,,,,,,0.51123,-0.600586,1.759277,8.422852,51.940918,39.855957,,,,,,,,,,,0.0,1.0,1.0,10.0,0.0,0.0,0.0,4.0,0.0,0.017519533333333333,-0.2788737466666667,0.9948697866666667,0.3206380933333333,1.7903645999999989,7.618815106666666,7.134650886462514,12.076668452313326,-3.7420614106626844,-17.239118823201906,-2.7626625911690765,8.29808745337353,19.33074695341477,-1.505654822477379,18.962063606766243,-1.5273407463045912,0.4937104666666666,-0.32171225333333325,0.7644072133333333,1.5798299333333332,0.9651772824911808,0.9603459638348908,0.9603459638348908,0.9603459638348908
LBP08_S10,LBP08,46,47,10,46,46,1716497012.84,2024-05-23 20:43:32.840000+00:00,2024-05-24 05:43:32.840000+09:00,2024,5,23,20,43,32,840,,,,,,,,,-0.886963,-0.523682,0.016602,140.197754,74.645996,24.047852,,,,,,,,,,,0.0,1.0,1.0,10.0,0.0,0.0,0.0,4.0,0.0,0.010439453333333333,-0.2819727066666667,1.0023079466666667,0.4443360000000001,2.814127613333332,8.32845052,12.639068228972736,8.671355714750867,-2.0562810529624054,-16.733556094042996,-2.4158083625790416,8.215836211255034,18.797552879227652,-1.532357278240478,18.623042751634138,-1.5245117430861352,-0.8974024533333332,-0.2417092933333333,-0.9857059466666667,2.124817693333333,1.3547585611563466,0.9997872235670364,0.9997872235670364,0.9997872235670364
LBP08_S10,LBP08,47,48,10,47,47,1716497012.88,2024-05-23 20:43:32.880000+00:00,2024-05-24 05:43:32.880000+09:00,2024,5,23,20,43,32,880,,,,,,,,,0.039307,0.356445,0.414551,41.809082,-80.444336,-62.133789,,,,,,,,,,,0.0,1.0,1.0,10.0,0.0,0.0,0.0,4.0,0.0,0.006484373333333332,-0.28396164,1.00614584,1.08479824,1.3598632933333321,8.1233724,16.523917325915328,6.22541698504458,-0.45008459644569976,-16.072599401006382,-2.1667916831772582,8.197832827397207,18.172173804183917,-1.5470738645241582,18.19455922638044,-1.5231218777972095,0.03282262666666667,0.64040664,-0.5915948400000001,1.2648241066666668,0.8724577033255049,0.9882118126359881,0.9882118126359881,0.9882118126359881
LBP08_S10,LBP08,48,49,10,48,48,1716497012.92,2024-05-23 20:43:32.920000+00:00,2024-05-24 05:43:32.920000+09:00,2024,5,23,20,43,32,920,,,,,,,,,0.605469,-0.774902,1.483154,-106.811523,-27.46582,-3.967285,,,,,,,,,,,0.0,1.0,1.0,10.0,0.0,0.0,0.0,4.0,0.0,0.014046226666666667,-0.28006516,1.0065429733333333,1.6707357466666668,1.5283203333333322,7.82796224,18.946688200348767,4.781152896184609,0.9636995825814363,-15.314731872992432,-1.9755455673298739,8.236380810700464,17.500907447590304,-1.5187896574794215,17.69699549664048,-1.5232430133502652,0.5914227733333334,-0.49483684,0.47661102666666677,1.56287064,0.9065332127278797,0.9814052626436457,0.9814052626436457,0.9814052626436457
LBP08_S10,LBP08,49,50,10,49,49,1716497012.96,2024-05-23 20:43:32.960000+00:00,2024-05-24 05:43:32.960000+09:00,2024,5,23,20,43,32,960,,,,,,,,,-0.141846,-0.294922,1.649658,34.240723,95.76416,5.126953,,,,,,,,,,,0.0,1.0,1.0,10.0,0.0,0.0,0.0,4.0,0.0,0.014020186666666665,-0.27989264,0.9958626399999999,0.7812500666666667,4.210611999999999,8.484700533333333,20.227712272100362,4.121040820944228,2.0945161391032547,-14.505623382108418,-1.8107039344921048,8.320161456264595,16.8201321368254,-1.5188162353543762,17.157593153940418,-1.5230427491765854,-0.15586618666666666,-0.015029359999999992,0.6537953600000002,0.8246909066666668,0.6722860422212762,0.9576268610726942,0.9576268610726942,0.9576268610726942
LBP08_S10,LBP08,50,51,10,50,50,1716497013.0,2024-05-23 20:43:33+00:00,2024-05-24 05:43:33+09:00,2024,5,23,20,43,33,0,20.0,43.0,31.0,40.795059,141.621979,-1.197,3.0,15.0,-0.432129,-0.68457,1.945312,-2.319336,-36.132812,-10.375977,-591.0,34.0,589.0,100.0,0.0,1021.200012,25.780001,0.08126,-65.941277,3.796875,0.0,1.0,1.0,10.0,0.0,0.0,0.0,4.0,0.0,0.012708333333333332,-0.28138352,0.9904687466666666,-0.83658848,1.4420573066666658,7.304687519999999,20.59420516231701,3.885014212811201,2.8452060979416087,-13.681855175615738,-1.6553033659796568,8.433969700182258,16.15750708443413,-1.5238837178555882,16.608135784097783,-1.527083055804735,-0.4448373333333333,-0.40318648,0.9548432533333333,1.8028670666666666,1.127903022966995,0.9697894440651442,0.9697894440651442,0.9697894440651442
LBP08_S10,LBP08,51,52,10,51,51,1716497013.04,2024-05-23 20:43:33.040000+00:00,2024-05-24 05:43:33.040000+09:00,2024,5,23,20,43,33,40,,,,,,,,,0.27002,-0.35498,1.770508,-26.428223,11.352539,28.503418,,,,,,,,,,,0.0,1.0,1.0,10.0,0.0,0.0,0.0,4.0,0.0,0.016718746666666666,-0.28529953333333335,1.0000390533333334,0.2775065733333334,1.0791015866666658,7.849121106666667,20.037616302412466,3.711255301516333,3.137890449791801,-12.880350523519239,-1.5068531539190033,8.55948531817393,15.538301868229778,-1.509941299159365,16.081036685147684,-1.5291739127852266,0.2533012533333333,-0.06968046666666666,0.7704689466666665,1.0934506666666666,0.8140265905686157,0.9594052538320423,0.9594052538320423,0.9594052538320423
LBP08_S10,LBP08,52,53,10,52,52,1716497013.08,2024-05-23 20:43:33.080000+00:00,2024-05-24 05:43:33.080000+09:00,2024,5,23,20,43,33,80,,,,,,,,,-0.813965,-0.671143,-0.084961,74.829102,91.430664,53.649902,,,,,,,,,,,0.0,1.0,1.0,10.0,0.0,0.0,0.0,4.0,0.0,0.01503581333333333,-0.28186202666666665,1.0054134000000001,0.4817708933333334,2.5301106933333326,8.236490906666667,18.365714450355988,3.338596441727115,2.9687845668173183,-12.145721945504999,-1.3733092962499187,8.678236700846623,14.990541425732742,-1.5154578812428836,15.605200287474243,-1.531412416732099,-0.8290008133333334,-0.3892809733333334,-1.0903744000000002,2.308656186666667,1.423972737408282,0.9884407215555574,0.9884407215555574,0.9884407215555574
LBP08_S10,LBP08,53,54,10,53,53,1716497013.12,2024-05-23 20:43:33.120000+00:00,2024-05-24 05:43:33.120000+09:00,2024,5,23,20,43,33,120,,,,,,,,,-0.043945,0.282959,0.250977,63.293457,-91.85791,-51.696777,,,,,,,,,,,0.0,1.0,1.0,10.0,0.0,0.0,0.0,4.0,0.0,0.0070833466666666645,-0.28258468000000003,1.0111718666666667,0.2539063066666667,2.880859386666666,8.736979186666668,15.409649465430414,2.633807813838705,2.443120240168244,-11.529335966887782,-1.2679569836963704,8.775961510453353,14.544786116778594,-1.5447761294253433,15.202868976056987,-1.5307718578443439,-0.05102834666666666,0.56554368,-0.7601948666666667,1.3767668933333335,0.9488623617036493,0.9861125827407392,0.9861125827407392,0.9861125827407392
LBP08_S10,LBP08,54,55,10,54,54,1716497013.16,2024-05-23 20:43:33.160000+00:00,2024-05-24 05:43:33.160000+09:00,2024,5,23,20,43,33,160,,,,,,,,,0.547607,-0.385254,1.26709,9.94873,-65.551758,-15.50293,,,,,,,,,,,0.0,1.0,1.0,10.0,0.0,0.0,0.0,4.0,0.0,0.004570319999999999,-0.2838835066666667,1.0139387866666667,1.0766602133333334,1.1759440266666656,8.073730493333334,11.258405531533798,1.5612918001609823,1.7607693830593,-11.07899974562643,-1.2055053116899312,8.846392285775725,14.22870812456055,-1.554079672288358,14.88788497392469,-1.530762440710442,0.5430366799999999,-0.10137049333333331,0.25315121333333335,0.8975583866666665,0.6076597317217955,0.965087424350798,0.965087424350798,0.965087424350798
LBP08_S10,LBP08,55,56,10,55,55,1716497013.2,2024-05-23 20:43:33.200000+00:00,2024-05-24 05:43:33.200000+09:00,2024,5,23,20,43,33,200,,,,,,,,,0.292969,-0.181885,1.415527,33.447266,66.162109,15.808105,,,,,,,,,,,0.0,1.0,1.0,10.0,0.0,0.0,0.0,4.0,0.0,0.011855466666666667,-0.2777213866666667,1.01258136,1.0799154266666666,1.6707356933333326,8.227539093333332,6.381636120166915,0.15674465174220018,1.1650504741336853,-10.823734300819753,-1.1992355256202432,8.892994304741071,14.059755963913771,-1.5265633922822945,14.665082976143614,-1.5305509115487894,0.28111353333333333,0.09583638666666669,0.40294564,0.77989556,0.5005742906177699,0.9406393646806386,0.9406393646806386,0.9406393646806386
LBP08_S10,LBP08,56,57,10,56,56,1716497013.24,2024-05-23 20:43:33.240000+00:00,2024-05-24 05:43:33.240000+09:00,2024,5,23,20,43,33,240,,,,,,,,,-0.352295,-0.265625,1.561035,-24.719238,-7.568359,1.708984,,,,,,,,,,,0.0,1.0,1.0,10.0,0.0,0.0,0.0,4.0,0.0,0.004205719999999998,-0.27153323999999995,0.9946842266666666,-0.4646809333333332,4.072265639999999,8.030598986666668,1.5685464556091122,-1.4426070622556135,0.8902418498478326,-10.760992442595388,-1.2569398081104677,8.928603978734985,14.039188902493265,-1.554742317709202,14.530367930445525,-1.5310821445217684,-0.35650072000000005,0.0059082399999999535,0.5663507733333334,0.9287597333333334,0.669239022409543,0.9270693475670837,0.9270693475670837,0.9270693475670837
LBP08_S10,LBP08,57,58,10,57,57,1716497013.28,2024-05-23 20:43:33.280000+00:00,2024-05-24 05:43:33.280000+09:00,2024,5,23,20,43,33,280,,,,,,,,,0.105957,-0.260986,1.594971,-48.278809,2.685547,18.859863,,,,,,,,,,,0.0,1.0,1.0,10.0,0.0,0.0,0.0,4.0,0.0,0.008186839999999999,-0.28242516,0.9926008933333332,-3.3292642666666663,0.6917317866666658,7.704264346666665,-2.2861655715151885,-2.927514664322536,1.126768767487145,-10.852439065455995,-1.374040394683369,8.973674729434471,14.148860690011329,-1.540668275646606,14.471358487584144,-1.5340095006252663,0.09777016,0.021439160000000013,0.6023701066666667,0.7215794266666666,0.6106295007396405,0.9120007834324436,0.9120007834324436,0.9120007834324436
LBP08_S10,LBP08,58,59,10,58,58,1716497013.32,2024-05-23 20:43:33.320000+00:00,2024-05-24 05:43:33.320000+09:00,2024,5,23,20,43,33,320,,,,,,,,,-0.518555,-0.410645,0.200195,-36.071777,145.324707,26.611328,,,,,,,,,,,0.0,1.0,1.0,10.0,0.0,0.0,0.0,4.0,0.0,0.014251293333333331,-0.28410810666666664,0.9982942533333333,-2.406412706666666,-0.10009764000000075,7.567545586666667,-4.439799834462938,-3.7937294925705247,1.9923940968555105,-11.030031058834512,-1.52578957438619,9.053370493308691,14.35106742626736,-1.5186954861404052,14.468794758408984,-1.5341226695280308,-0.5328062933333333,-0.12653689333333334,-0.7980992533333333,1.45744244,0.9679135032435913,0.9145422706965867,0.9145422706965867,0.9145422706965867
LBP08_S10,LBP08,59,60,10,59,59,1716497013.36,2024-05-23 20:43:33.360000+00:00,2024-05-24 05:43:33.360000+09:00,2024,5,23,20,43,33,360,,,,,,,,,-0.039795,0.063232,0.07959,24.658203,-72.814941,-30.395508,,,,,,,,,,,0.0,1.0,1.0,10.0,0.0,0.0,0.0,4.0,0.0,0.014876293333333332,-0.2856445733333334,1.0021028533333334,-3.8053384933333327,0.10335287999999916,7.82389324,-4.482046414501615,-3.4568321510606146,3.491671830135629,-11.209312915414577,-1.6640628604286145,9.193037366514115,14.592112159014633,-1.5167009437378474,14.498834460882284,-1.532618442150698,-0.05467129333333333,0.3488765733333334,-0.9225128533333333,1.32606072,0.9877923761098565,0.9177270578884681,0.9177270578884681,0.9177270578884681
LBP08_S10,LBP08,60,61,10,60,60,1716497013.4,2024-05-23 20:43:33.400000+00:00,2024-05-24 05:43:33.400000+09:00,2024,5,23,20,43,33,400,,,,,,,,,0.320068,-0.102295,0.496582,43.701172,-136.169434,-36.437988,,,,,,,,,,,0.0,1.0,1.0,10.0,0.0,0.0,0.0,4.0,0.0,0.011526679999999997,-0.28798181333333334,1.0080533733333332,-3.319498653333333,0.6616211066666658,8.085937506666665,-2.3763710377643994,-1.50977994656643,5.472003632750346,-11.304367756925153,-1.7244540582912717,9.411917511824129,14.810356627453235,-1.5291960475853794,14.536017224867155,-1.529718380210098,0.30854132,0.18568681333333334,-0.5114713733333331,1.0056995066666665,0.6255240239452969,0.9055519314741692,0.9055519314741692,0.9055519314741692
LBP08_S10,LBP08,61,62,10,61,61,1716497013.44,2024-05-23 20:43:33.440000+00:00,2024-05-24 05:43:33.440000+09:00,2024,5,23,20,43,33,440,,,,,,,,,0.460693,-0.184082,0.935059,-48.950195,-28.015137,19.165039,,,,,,,,,,,0.0,1.0,1.0,10.0,0.0,0.0,0.0,4.0,0.0,0.008841133333333332,-0.29123052,1.0106315066666667,-2.8523762666666665,-0.2539062400000009,8.24788412,1.6138849859168956,1.9959670896154351,7.615066301951799,-11.239812357488477,-1.6446153747066543,9.716520163902201,14.94820743961597,-1.539214860194343,14.556448531191998,-1.5281119017683085,0.4518518666666667,0.10714852,-0.0755725066666667,0.6345728933333334,0.4704913585946345,0.8881495085589879,0.8881495085589879,0.8881495085589879
LBP08_S10,LBP08,62,63,10,62,62,1716497013.48,2024-05-23 20:43:33.480000+00:00,2024-05-24 05:43:33.480000+09:00,2024,5,23,20,43,33,480,,,,,,,,,-0.005371,-0.267334,1.307617,59.326172,95.64209,33.26416,,,,,,,,,,,0.0,1.0,1.0,10.0,0.0,0.0,0.0,4.0,0.0,0.01489257333333333,-0.28521814666666667,1.0077083333333334,-0.8154296533333332,0.34749350666666584,8.526204426666666,7.039201210804197,6.426012439901762,9.500190588623044,-10.958244309056308,-1.3875748771105838,10.096527787447123,14.964904133981124,-1.5165895702705292,14.540777313194535,-1.5234600728940193,-0.02026357333333333,0.017884146666666656,0.2999086666666666,0.3380563866666666,0.3011240001195653,0.8618564619109095,0.8655716043882408,0.8655716043882408
LBP08_S10,LBP08,63,64,10,63,63,1716497013.52,2024-05-23 20:43:33.520000+00:00,2024-05-24 05:43:33.520000+09:00,2024,5,23,20,43,33,520,,,,,,,,,-0.306152,-0.60376,1.552979,26.550293,-21.789551,11.291504,,,,,,,,,,,0.0,1.0,1.0,10.0,0.0,0.0,0.0,4.0,0.0,0.011341133333333331,-0.28725915999999996,0.9964746133333333,-1.3680012666666665,2.658691426666666,8.596191399999999,13.349312813045017,10.699431332271493,10.73266840280781,-10.424271796534507,-0.9595976238197241,10.525834523559435,14.845183141511624,-1.5297338556520161,14.476605445318867,-1.522174944769766,-0.3174931333333333,-0.31650084,0.5565043866666668,1.19049836,0.7146130448108027,0.8423889568583249,0.8599805466261136,0.8599805466261136
LBP08_S10,LBP08,64,65,10,64,64,1716497013.56,2024-05-23 20:43:33.560000+00:00,2024-05-24 05:43:33.560000+09:00,2024,5,23,20,43,33,560,,,,,,,,,0.155029,-0.233887,1.455322,-41.931152,31.555176,31.921387,,,,,,,,,,,0.0,1.0,1.0,10.0,0.0,0.0,0.0,4.0,0.0,0.012685533333333332,-0.28872726666666665,0.99375976,-2.9679361600000003,-0.34016925333333387,7.785644519999999,19.924889154798034,13.629237895328258,11.079689987044349,-9.627276230342586,-0.4144281080065938,10.96902212304121,14.600535764409221,-1.5250790528823566,14.359965335911799,-1.5239848870142334,0.14234346666666667,0.05484026666666664,0.46156224,0.6587459733333333,0.4861160548105495,0.8318435544771562,0.8466282433469862,0.8466282433469862
LBP08_S10,LBP08,65,66,10,65,65,1716497013.6,2024-05-23 20:43:33.600000+00:00,2024-05-24 05:43:33.600000+09:00,2024,5,23,20,43,33,600,,,,,,,,,-0.480713,-0.187988,-0.148193,38.574219,155.517578,44.98291,,,,,,,,,,,0.0,1.0,1.0,10.0,0.0,0.0,0.0,4.0,0.0,0.016982399999999998,-0.2930990133333333,0.9997298133333333,-3.5522460666666666,-0.8089192533333338,7.733561186666666,26.074782785309228,14.296537217476583,10.542919078235208,-8.584284918930218,0.1574333806924696,11.390738886170618,14.264069027162218,-1.510498607864399,14.195718332108253,-1.5245731337877557,-0.4976954,0.10511101333333334,-1.1479228133333332,1.7507292266666665,1.255577883556506,0.8236425333726173,0.8607299550783489,0.8607299550783489
LBP08_S10,LBP08,66,67,10,66,66,1716497013.64,2024-05-23 20:43:33.640000+00:00,2024-05-24 05:43:33.640000+09:00,2024,5,23,20,43,33,640,,,,,,,,,-0.140137,0.095703,0.095459,38.208008,-63.903809,-25.085449,,,,,,,,,,,0.0,1.0,1.0,10.0,0.0,0.0,0.0,4.0,0.0,0.017692026666666662,-0.2941569466666667,1.00590168,-3.583984346666667,0.3100586133333328,8.299153626666666,31.045271306204118,12.290337951178806,9.329696675687513,-7.342474066682053,0.6490468987396218,11.763926753198119,13.88247672251866,-1.5082240289663114,13.99726490398017,-1.5266369601603462,-0.15782902666666668,0.3898599466666667,-0.9104426800000001,1.4581316533333335,1.002899124159088,0.8406296185593339,0.8654689273810402,0.8654689273810402
LBP08_S10,LBP08,67,68,10,67,67,1716497013.68,2024-05-23 20:43:33.680000+00:00,2024-05-24 05:43:33.680000+09:00,2024,5,23,20,43,33,680,,,,,,,,,0.298584,-0.065918,0.758545,29.785156,-81.604004,-44.616699,,,,,,,,,,,0.0,1.0,1.0,10.0,0.0,0.0,0.0,4.0,0.0,0.01224281333333333,-0.29661787999999994,1.0126334533333332,-4.191080693333333,1.006673186666666,8.703613266666666,34.08343003795385,7.739325569083156,7.743941703368445,-5.979136865163898,0.9586199215029481,12.073684421332857,13.50714201125464,-1.5278169944040718,13.786130390509342,-1.5263455435766429,0.2863411866666667,0.23069987999999994,-0.2540884533333332,0.7711295199999998,0.4469615776898666,0.835113548309347,0.8519686902942282,0.8519686902942282
LBP08_S10,LBP08,68,69,10,68,68,1716497013.72,2024-05-23 20:43:33.720000+00:00,2024-05-24 05:43:33.720000+09:00,2024,5,23,20,43,33,720,,,,,,,,,0.337891,-0.303467,0.990234,-2.441406,-2.868652,-13.061523,,,,,,,,,,,0.0,1.0,1.0,10.0,0.0,0.0,0.0,4.0,0.0,0.009775359999999997,-0.2995931333333333,1.0166276,-3.3365885066666667,0.007324226666666126,8.124999986666667,34.56549727936596,1.186833440445088,6.069437594890992,-4.59651697398926,1.0060932591207516,12.316461925128497,13.184666332196638,-1.5367949085850803,13.591148689916068,-1.5266762706026697,0.32811564,-0.00387386666666667,-0.026393600000000128,0.3583831066666668,0.32919827183100564,0.8100620058706238,0.8356321147172525,0.8356321147172525
LBP08_S10,LBP08,69,70,10,69,69,1716497013.76,2024-05-23 20:43:33.760000+00:00,2024-05-24 05:43:33.760000+09:00,2024,5,23,20,43,33,760,,,,,,,,,0.012695,-0.463379,1.342773,59.387207,52.490234,49.377441,,,,,,,,,,,0.0,1.0,1.0,10.0,0.0,0.0,0.0,4.0,0.0,0.013935506666666665,-0.3012044666666667,1.01637044,-1.822916626666666,1.1824544399999994,8.498535133333332,32.166347163553645,-6.565685005572199,4.523741092259002,-3.3098630874471144,0.7434658588978638,12.497411568818857,12.949642120979217,-1.5225834114730699,13.445902111735109,-1.5263346488230352,-0.0012405066666666652,-0.16217453333333326,0.32640256,0.48981759999999996,0.3644732490776628,0.7770705811202763,0.8213545733342347,0.8213545733342347
LBP08_S10,LBP08,70,71,10,70,70,1716497013.8,2024-05-23 20:43:33.800000+00:00,2024-05-24 05:43:33.800000+09:00,2024,5,23,20,43,33,800,,,,,,,,,-0.209473,-0.598633,1.503662,73.730469,-51.452637,13.671875,,,,,,,,,,,0.0,1.0,1.0,10.0,0.0,0.0,0.0,4.0,0.0,0.005924439999999998,-0.2946517333333333,0.9974934933333333,-1.7781575066666664,3.128255226666666,8.55875648,27.020023690513515,-14.55490870876151,3.30490557714057,-2.2290621398265738,0.16126951054740335,12.62960779190448,12.82582234617238,-1.549834311311285,13.383604779229074,-1.5290353428757566,-0.21539744,-0.3039812666666667,0.5061685066666668,1.0255472133333334,0.6284960022020731,0.7636033299087118,0.8156822624185828,0.8156822624185828
LBP08_S10,LBP08,71,72,10,71,71,1716497013.84,2024-05-23 20:43:33.840000+00:00,2024-05-24 05:43:33.840000+09:00,2024,5,23,20,43,33,840,,,,,,,,,0.270752,-0.219238,1.171387,22.521973,-3.295898,33.691406,,,,,,,,,,,0.0,1.0,1.0,10.0,0.0,0.0,0.0,4.0,0.0,0.009684199999999999,-0.29246424,0.9958170533333334,-2.70507808,0.23030599999999984,8.474934866666667,19.803058953049543,-21.70006985222903,2.6745955749940062,-1.436939781704592,-0.7067332835417579,12.73659161490424,12.836862304907688,-1.5363006943573103,13.431017315905262,-1.5325393420178721,0.2610678,0.07322624,0.1755699466666666,0.5098639866666665,0.3230221116176318,0.7223338719271634,0.8016062581099842,0.8016062581099842
LBP08_S10,LBP08,72,73,10,72,72,1716497013.88,2024-05-23 20:43:33.880000+00:00,2024-05-24 05:43:33.880000+09:00,2024,5,23,20,43,33,880,,,,,,,,,-0.447754,0.229004,-0.084717,-6.408691,102.844238,20.935059,,,,,,,,,,,0.0,1.0,1.0,10.0,0.0,0.0,0.0,4.0,0.0,0.014433546666666665,-0.29527022666666664,1.0049609333333334,-1.8383788533333332,0.39713542666666646,8.141276013333332,11.676896416573127,-26.874283746713733,2.985841157651721,-0.9698639250416667,-1.7817046334103073,12.85602526121031,13.015087128048378,-1.5198968405307949,13.60460548044692,-1.5349500194220784,-0.46218754666666667,0.5242742266666667,-1.0896779333333333,2.076139706666667,1.294557372785883,0.7392178587055784,0.8152993446287592,0.8152993446287592
LBP08_S10,LBP08,73,74,10,73,73,1716497013.92,2024-05-23 20:43:33.920000+00:00,2024-05-24 05:43:33.920000+09:00,2024,5,23,20,43,33,920,,,,,,,,,0.058838,-0.031982,0.035645,12.268066,-95.153809,-25.085449,,,,,,,,,,,0.0,1.0,1.0,10.0,0.0,0.0,0.0,4.0,0.0,0.01261389333333333,-0.29524093333333334,1.0101497333333334,-2.5024413599999997,1.5372721333333332,8.35042316,4.069897680580416,-29.074774666976445,4.6000272080581155,-0.8070680178184501,-2.944695620089365,13.040026349532633,13.392717359702036,-1.5263176378556735,13.910762906447129,-1.539749310905125,0.04622410666666667,0.26325893333333333,-0.9745047333333333,1.2839877733333334,1.0104956255748991,0.7433763552194591,0.8205749197894657,0.8205749197894657
LBP08_S10,LBP08,74,75,10,74,74,1716497013.96,2024-05-23 20:43:33.960000+00:00,2024-05-24 05:43:33.960000+09:00,2024,5,23,20,43,33,960,,,,,,,,,0.409668,-0.237061,0.578369,13.305664,-121.276855,-33.752441,,,,,,,,,,,0.0,1.0,1.0,10.0,0.0,0.0,0.0,4.0,0.0,0.005367799999999996,-0.2990527866666667,1.0146126266666669,-1.62679032,1.6097005199999996,7.938639306666666,-1.6552937528286007,-27.691073398522494,7.717210894972338,-0.8732797679315941,-4.052338556030265,13.348714785331527,13.97756243934888,-1.5520859934095697,14.348996415145786,-1.5391812929145559,0.4043002,0.06199178666666669,-0.43624362666666683,0.9025356133333335,0.5980051296949314,0.7404051187184053,0.8147178200501358,0.8147178200501358
LBP08_S10,LBP08,75,76,10,75,75,1716497014.0,2024-05-23 20:43:34+00:00,2024-05-24 05:43:34+09:00,2024,5,23,20,43,34,0,20.0,43.0,32.0,40.794983,141.621994,-0.115,3.0,15.0,0.44165,0.091064,0.830078,-51.879883,-64.63623,-17.272949,-587.0,22.0,595.0,111.0,0.0,1020.700012,25.84,0.076305,-61.806309,3.796875,0.0,1.0,1.0,10.0,0.0,0.0,0.0,6.0,0.0,0.007242799999999996,-0.2988021333333333,1.0171354133333332,-1.13932288,0.4939778666666662,7.036946599999999,-4.554962276848925,-22.768700219569624,12.21213718531934,-1.0554782590055511,-4.96308656481305,13.837200272744301,14.738194393924113,-1.5455385992855537,14.91525042176601,-1.5389312754410271,0.4344072,0.3898661333333333,-0.18705741333333326,1.0113307466666666,0.6129402036211052,0.7198066059445698,0.8095440350134939,0.8095440350134939
LBP08_S10,LBP08,76,77,10,76,76,1716497014.04,2024-05-23 20:43:34.040000+00:00,2024-05-24 05:43:34.040000+09:00,2024,5,23,20,43,34,40,,,,,,,,,0.167725,-0.534912,1.301758,-41.931152,32.836914,44.86084,,,,,,,,,,,0.0,1.0,1.0,10.0,0.0,0.0,0.0,6.0,0.0,0.010878866666666664,-0.2944954933333333,1.0074088533333332,-1.3761392933333332,2.74576824,7.72379556,-4.368229941019805,-15.110349289582592,17.579488844925965,-1.2302074566463435,-5.567500536396354,14.54037982654134,15.618358367935226,-1.5323308030083767,15.60293626994881,-1.5362193266572193,0.15684613333333336,-0.24041650666666675,0.2943491466666668,0.6916117866666669,0.4111474508771958,0.7036914403569131,0.7995841204100865,0.7995841204100865
LBP08_S10,LBP08,77,78,10,77,77,1716497014.08,2024-05-23 20:43:34.080000+00:00,2024-05-24 05:43:34.080000+09:00,2024,5,23,20,43,34,80,,,,,,,,,-0.217285,-0.622559,1.595215,-14.587402,-3.417969,37.109375,,,,,,,,,,,0.0,1.0,1.0,10.0,0.0,0.0,0.0,6.0,0.0,-0.001403040000000002,-0.29190760000000004,0.9836523333333335,-0.5517577733333332,1.484375013333333,7.315266906666666,-1.5961972639978166,-6.1153095592959525,23.035394238711888,-1.2940553472062561,-5.812112918768192,15.461795596089816,16.568716271256733,-1.5758099092345368,16.40119973624555,-1.534924668405504,-0.21588196,-0.33065139999999993,0.6115626666666666,1.1580960266666667,0.7279727084416323,0.675851439198247,0.7978375006059779,0.7978375006059779
LBP08_S10,LBP08,78,79,10,78,78,1716497014.12,2024-05-23 20:43:34.120000+00:00,2024-05-24 05:43:34.120000+09:00,2024,5,23,20,43,34,120,,,,,,,,,0.090576,-0.409424,1.578857,35.583496,-10.009766,29.174805,,,,,,,,,,,0.0,1.0,1.0,10.0,0.0,0.0,0.0,6.0,0.0,0.011324826666666662,-0.2977930266666667,0.9922232933333334,1.1100260800000004,-1.2255859200000003,7.307942693333333,2.6480727211681003,2.600448971412155,27.73576081892739,-1.1881324383595322,-5.708094959911706,16.57122602884691,17.56700141918321,-1.5311147286793887,17.292336203105585,-1.5325923214417567,0.07925117333333334,-0.11163097333333333,0.5866337066666666,0.7775158533333333,0.6023963217679289,0.6619927976008182,0.7931841392050719,0.7931841392050719
LBP08_S10,LBP08,79,80,10,79,79,1716497014.16,2024-05-23 20:43:34.160000+00:00,2024-05-24 05:43:34.160000+09:00,2024,5,23,20,43,34,160,,,,,,,,,-0.018555,-0.28833,1.003174,21.728516,142.39502,75.805664,,,,,,,,,,,0.0,1.0,1.0,10.0,0.0,0.0,0.0,6.0,0.0,0.014091746666666663,-0.28903,0.9972656133333332,1.995442746666667,-0.9464518133333337,7.734374986666666,6.976679395330892,9.644500729775249,31.014118150732962,-0.9090652625462965,-5.322314930720696,17.81179075487623,18.61218218718147,-1.5200832367377826,18.251441540932966,-1.533417488546541,-0.032646746666666664,0.0007000000000000339,0.0059083866666668206,0.03925513333333352,0.033184470779573344,0.6390137871631293,0.7755097283114556,0.7755097283114556
LBP08_S10,LBP08,80,81,10,80,80,1716497014.2,2024-05-23 20:43:34.200000+00:00,2024-05-24 05:43:34.200000+09:00,2024,5,23,20,43,34,200,,,,,,,,,-0.371582,-0.088135,0.005371,78.369141,-4.394531,17.700195,,,,,,,,,,,0.0,1.0,1.0,10.0,0.0,0.0,0.0,6.0,0.0,0.013736919999999998,-0.29784836000000003,0.9999186133333332,1.4542643600000005,-0.9651692666666671,8.464355453333335,10.12535745031579,14.167452849541805,32.542594364500935,-0.5040509645336649,-4.755616816739023,19.11349452945627,19.70268082800036,-1.5227148234732055,19.250030790503438,-1.527421925322314,-0.38531892,0.20971336000000002,-0.9945476133333332,1.5895798933333332,1.0870029064632187,0.6624709317969473,0.7825891187239957,0.7825891187239957
LBP08_S10,LBP08,81,82,10,81,81,1716497014.24,2024-05-23 20:43:34.240000+00:00,2024-05-24 05:43:34.240000+09:00,2024,5,23,20,43,34,240,,,,,,,,,0.19043,0.137939,0.643799,-5.310059,-57.067871,5.493164,,,,,,,,,,,0.0,1.0,1.0,10.0,0.0,0.0,0.0,6.0,0.0,0.0136588,-0.30036789333333336,0.9995768133333333,2.53417972,-2.1972656266666672,8.39599608,11.26065436896653,15.95007952124785,32.36715232746421,-0.05362478977500368,-4.117613635889109,20.408180622554838,20.819496967875114,-1.523354111840157,20.262014019612263,-1.5213494042766433,0.1767712,0.4383068933333334,-0.35577781333333325,0.9708559066666667,0.5915562884064425,0.6593636224368232,0.778343944716939,0.778343944716939
LBP08_S10,LBP08,82,83,10,82,82,1716497014.28,2024-05-23 20:43:34.280000+00:00,2024-05-24 05:43:34.280000+09:00,2024,5,23,20,43,34,280,,,,,,,,,0.301025,-0.525391,1.14209,-25.085449,-11.71875,27.34375,,,,,,,,,,,0.0,1.0,1.0,10.0,0.0,0.0,0.0,6.0,0.0,0.020693306666666668,-0.28979172000000003,0.9947981733333332,3.5327148800000003,-1.5397135466666672,8.877766906666666,10.09476455205645,15.268979127299197,30.829589200623264,0.3501657923072543,-3.506854470797141,21.64136419057977,21.92645179664873,-1.4965733708933218,21.268250444493678,-1.5176149718917613,0.2803316933333333,-0.23559928000000002,0.14729182666666685,0.6632228000000001,0.3946995835144191,0.6507264257478144,0.7700038499081885,0.7700038499081885
LBP08_S10,LBP08,83,84,10,83,83,1716497014.32,2024-05-23 20:43:34.320000+00:00,2024-05-24 05:43:34.320000+09:00,2024,5,23,20,43,34,320,,,,,,,,,-0.010254,-0.325684,1.492676,-17.028809,36.499023,39.550781,,,,,,,,,,,0.0,1.0,1.0,10.0,0.0,0.0,0.0,6.0,0.0,0.009635373333333332,-0.27632817333333337,0.9742871066666667,1.9889323199999998,-0.017089853333333925,8.9119466,6.8055227591502945,12.659809049126773,28.43032523839884,0.6223867026732661,-3.00046210883207,22.778577200115723,22.983770737975817,-1.5345693089035188,22.257331962468324,-1.5095233568366913,-0.01988937333333333,-0.0493558266666666,0.5183888933333332,0.587634093333333,0.5211128759960749,0.6328544006579137,0.7647082972717607,0.7647082972717607
LBP08_S10,LBP08,84,85,10,84,84,1716497014.36,2024-05-23 20:43:34.360000+00:00,2024-05-24 05:43:34.360000+09:00,2024,5,23,20,43,34,360,,,,,,,,,-0.199707,-0.426025,1.655518,32.714844,-21.972656,23.010254,,,,,,,,,,,0.0,1.0,1.0,10.0,0.0,0.0,0.0,6.0,0.0,0.021487586666666666,-0.28377282666666664,0.9774414000000001,-2.452799453333333,-1.8863932400000005,8.55550128,1.8404837924365511,8.719184878118275,25.68852467657487,0.6960060543707282,-2.651694713707339,23.80611818717872,23.963454935053615,-1.492130361167299,23.223556730212703,-1.5047706390579119,-0.22119458666666666,-0.14225217333333334,0.6780765999999999,1.0415233599999998,0.7272899019347472,0.6224343016909094,0.7639287473689063,0.7639287473689063
LBP08_S10,LBP08,85,86,10,85,85,1716497014.4,2024-05-23 20:43:34.400000+00:00,2024-05-24 05:43:34.400000+09:00,2024,5,23,20,43,34,400,,,,,,,,,0.113037,-0.468994,1.664551,13.671875,-16.174316,20.019531,,,,,,,,,,,0.0,1.0,1.0,10.0,0.0,0.0,0.0,6.0,0.0,0.02425450666666667,-0.29355472,0.98402668,0.03092450666666726,-1.5991211066666673,9.11621092,-4.297989647247637,4.017553843425955,23.030766046273847,0.5240864684808226,-2.4909925599703007,24.727348829029673,24.858026685012373,-1.4848133888288457,24.16489210340794,-1.5011137657019575,0.08878249333333332,-0.17543928000000003,0.6805243199999998,0.9447460933333331,0.7083605171103652,0.6257477614175121,0.7627947018534258,0.7627947018534258
LBP08_S10,LBP08,86,87,10,86,86,1716497014.44,2024-05-23 20:43:34.440000+00:00,2024-05-24 05:43:34.440000+09:00,2024,5,23,20,43,34,440,,,,,,,,,0.062744,-0.058838,0.838135,-7.385254,148.681641,54.504395,,,,,,,,,,,0.0,1.0,1.0,10.0,0.0,0.0,0.0,6.0,0.0,0.020566346666666666,-0.28172529333333335,0.9776106666666667,0.7047526266666672,-1.3631185066666671,9.756673159999998,-11.220900321966042,-0.8987974407542796,20.715920843434596,0.07525045560218097,-2.526944457600472,25.555985662767057,25.68072261674935,-1.4949864791595577,25.082836743062188,-1.496743554160679,0.04217765333333333,0.22288729333333335,-0.13947566666666678,0.40454061333333347,0.2662914973525767,0.6175797669678298,0.7528646377634088,0.7528646377634088
LBP08_S10,LBP08,87,88,10,87,87,1716497014.48,2024-05-23 20:43:34.480000+00:00,2024-05-24 05:43:34.480000+09:00,2024,5,23,20,43,34,480,,,,,,,,,-0.206055,0.022705,0.039062,-143.615723,-46.813965,-44.189453,,,,,,,,,,,0.0,1.0,1.0,10.0,0.0,0.0,0.0,6.0,0.0,0.020621693333333333,-0.28222008,0.9755631466666667,-0.7153320133333329,-2.2762044400000008,10.020345039999999,-18.734835319449452,-5.495699632885946,18.798796654393445,-0.6741429571757971,-2.7467724429159097,26.307937528942794,26.459531451003222,-1.4948937586838371,25.983637241902404,-1.4917771778515028,-0.22667669333333332,0.30492507999999996,-0.9365011466666666,1.4681029199999998,1.0106413930873412,0.6459604626865407,0.7539084622987251,0.757919083946231
LBP08_S10,LBP08,88,89,10,88,88,1716497014.52,2024-05-23 20:43:34.520000+00:00,2024-05-24 05:43:34.520000+09:00,2024,5,23,20,43,34,520,,,,,,,,,0.196045,-0.804443,0.681396,-5.615234,-93.139648,24.719238,,,,,,,,,,,0.0,1.0,1.0,10.0,0.0,0.0,0.0,6.0,0.0,0.02364904,-0.28156578666666665,0.9702311200000001,-0.37679034666666616,-2.1638997600000005,10.038248693333333,-26.800658583088406,-9.299218377187508,17.14244700641372,-1.7461693004993333,-3.11874117800341,26.993635409199342,27.229249096626976,-1.4835875508915932,26.878515858605283,-1.490098125332359,0.17239596,-0.5228772133333334,-0.2888351200000001,0.9841082933333335,0.621728778321358,0.6422450920269631,0.7423170244426441,0.7553000396072912
LBP08_S10,LBP08,89,90,10,89,89,1716497014.56,2024-05-23 20:43:34.560000+00:00,2024-05-24 05:43:34.560000+09:00,2024,5,23,20,43,34,560,,,,,,,,,0.263184,0.200684,0.917969,28.625488,-13.48877,15.50293,,,,,,,,,,,0.0,1.0,1.0,10.0,0.0,0.0,0.0,6.0,0.0,0.023365826666666666,-0.27783857333333334,0.9628418,-0.2970377333333329,-1.6967773600000007,10.026855466666666,-35.35050116923862,-12.002475349402607,15.490654736801712,-3.160189347268878,-3.5988401919795145,27.61326159867141,28.025535919133823,-1.483514503178239,27.78096562143399,-1.484784455957818,0.2398181733333333,0.47852257333333337,-0.044872799999999935,0.7632135466666666,0.5371314342228838,0.6442857072034565,0.7380646308403063,0.7511836508264532
LBP08_S10,LBP08,90,91,10,90,90,1716497014.6,2024-05-23 20:43:34.600000+00:00,2024-05-24 05:43:34.600000+09:00,2024,5,23,20,43,34,600,,,,,,,,,-0.078613,-0.404297,1.451172,-51.025391,21.057129,53.955078,,,,,,,,,,,0.0,1.0,1.0,10.0,0.0,0.0,0.0,6.0,0.0,0.024205666666666664,-0.27328128,0.9630501333333334,-1.7244465866666663,-2.0239258,9.803873706666666,-44.020080604820215,-13.55405985709457,13.59193008644947,-4.920992571461687,-4.141002586263298,28.15693880212939,28.882127224542863,-1.4790127080604205,28.701442980515907,-1.482817756096567,-0.10281866666666667,-0.13101572,0.48812186666666646,0.7219562533333331,0.5157516396681453,0.614692657447922,0.7191675954102696,0.746823798767966
LBP08_S10,LBP08,91,92,10,91,91,1716497014.64,2024-05-23 20:43:34.640000+00:00,2024-05-24 05:43:34.640000+09:00,2024,5,23,20,43,34,640,,,,,,,,,-0.20459,-0.408203,1.672363,39.306641,-67.565918,7.69043,,,,,,,,,,,0.0,1.0,1.0,10.0,0.0,0.0,0.0,6.0,0.0,0.025943946666666665,-0.2769792,0.9652506533333334,-2.1232096133333327,-1.6365560133333337,9.752604173333333,-51.94380607739279,-14.147443921005886,11.33108827395692,-6.998744814557399,-4.706900343103533,28.610182333087664,29.82750195627726,-1.4736903487483939,29.64206218296734,-1.4819939527544197,-0.23053394666666666,-0.1312238,0.7071123466666667,1.0688700933333333,0.7552307310091332,0.6047859217219238,0.7227077701406288,0.7469766520814418
LBP08_S10,LBP08,92,93,10,92,92,1716497014.68,2024-05-23 20:43:34.680000+00:00,2024-05-24 05:43:34.680000+09:00,2024,5,23,20,43,34,680,,,,,,,,,0.153564,-0.184814,1.525146,0.0,-12.023926,16.418457,,,,,,,,,,,0.0,1.0,1.0,10.0,0.0,0.0,0.0,6.0,0.0,0.023886666666666664,-0.27193688,0.9601822933333334,-2.141927053333333,-1.4070638266666669,9.724934906666668,-57.780033929805974,-14.10118813747926,8.806182460188156,-9.309946171749637,-5.270947868602704,28.96242963149519,30.875237963677524,-1.4797828457018847,30.594280645315884,-1.4763669411188614,0.12967733333333334,0.08712287999999999,0.5649637066666665,0.7817639199999998,0.5861660147522014,0.6103540992044172,0.7227338237568821,0.7441050335577054
LBP08_S10,LBP08,93,94,10,93,93,1716497014.72,2024-05-23 20:43:34.720000+00:00,2024-05-24 05:43:34.720000+09:00,2024,5,23,20,43,34,720,,,,,,,,,-0.300293,0.282959,0.256348,-108.398438,166.870117,1.525879,,,,,,,,,,,0.0,1.0,1.0,10.0,0.0,0.0,0.0,6.0,0.0,0.023541613333333336,-0.27316734666666664,0.9559765733333334,-2.502441386666666,-1.77408856,9.08691408,-60.04330559985175,-13.697916535863182,6.310161795021369,-11.711678395743707,-5.8188645300372315,29.214836103296044,32.00826836626289,-1.4814326151581092,31.540780991297048,-1.4729802863018442,-0.3238346133333333,0.5561263466666666,-0.6996285733333334,1.5795895333333334,0.9505921895713211,0.6352098559140298,0.7226359308923267,0.7477276152421548
LBP08_S10,LBP08,94,95,10,94,94,1716497014.76,2024-05-23 20:43:34.760000+00:00,2024-05-24 05:43:34.760000+09:00,2024,5,23,20,43,34,760,,,,,,,,,-0.050537,-0.845947,0.0979,-256.408691,-86.303711,1.159668,,,,,,,,,,,0.0,1.0,1.0,10.0,0.0,0.0,0.0,6.0,0.0,0.026175080000000003,-0.27610029333333336,0.95463868,-1.6023762799999997,-1.2508138266666669,9.284667986666667,-57.6535775015656,-13.083108300553299,4.22452369581642,-14.01782149580633,-6.342188862059364,29.383817051128702,33.16822852587279,-1.4724633625547887,32.460258124909124,-1.4714370473305654,-0.07671208,-0.5698467066666666,-0.85673868,1.5032974666666665,1.0317999700159497,0.6619029247515613,0.7194867529359188,0.7526254144623926
LBP08_S10,LBP08,95,96,10,95,95,1716497014.8,2024-05-23 20:43:34.800000+00:00,2024-05-24 05:43:34.800000+09:00,2024,5,23,20,43,34,800,,,,,,,,,0.307373,-0.520996,0.53833,12.145996,-108.093262,-22.888184,,,,,,,,,,,0.0,1.0,1.0,10.0,0.0,0.0,0.0,6.0,0.0,0.02499994666666667,-0.27522790666666663,0.9546582133333333,-0.9448241866666662,-1.7268880533333337,8.979492213333334,-50.457851075558025,-12.288189617566475,2.874641029537916,-16.036135538828653,-6.833716446762023,29.498802692310218,34.26421870952667,-1.4765753554073726,33.3323543464294,-1.4696558200553838,0.28237305333333335,-0.24576809333333338,-0.41632821333333336,0.9444693600000001,0.5598800569468582,0.6591582869413527,0.7113808084250323,0.7493585439960276
LBP08_S10,LBP08,96,97,10,96,96,1716497014.84,2024-05-23 20:43:34.840000+00:00,2024-05-24 05:43:34.840000+09:00,2024,5,23,20,43,34,840,,,,,,,,,0.43457,-0.068848,0.959229,-78.430176,-47.668457,-21.362305,,,,,,,,,,,0.0,1.0,1.0,10.0,0.0,0.0,0.0,6.0,0.0,0.03464188,-0.2705729466666667,0.96806316,-1.1694335599999997,-2.4487305066666667,8.815104199999999,-39.44787510961939,-11.34256647327143,2.4131263466880464,-17.614050543213427,-7.28741910569288,29.59532774617774,35.20290724023476,-1.4387163628039754,34.14037183390879,-1.4677865922936264,0.39992812,0.20172494666666668,-0.008834160000000035,0.6104872266666667,0.4480105999385612,0.6641578264741897,0.6932458492006767,0.7443360782617366
LBP08_S10,LBP08,97,98,10,97,97,1716497014.88,2024-05-23 20:43:34.880000+00:00,2024-05-24 05:43:34.880000+09:00,2024,5,23,20,43,34,880,,,,,,,,,0.159668,-0.513672,1.439209,-15.258789,47.607422,21.057129,,,,,,,,,,,0.0,1.0,1.0,10.0,0.0,0.0,0.0,6.0,0.0,0.029081986666666667,-0.27414390666666666,0.9671940133333332,-2.4780273066666663,-1.5413411866666666,8.98356124,-26.534793350809466,-10.35386426735044,2.783381606120447,-18.675442277245807,-7.701573676386897,29.70666301042256,35.92453491081497,-1.4610272105136632,34.87127702949973,-1.4662311005505133,0.13058601333333333,-0.23952809333333336,0.47201498666666675,0.8421290933333334,0.5451830536729193,0.6341828537096713,0.6867003562076249,0.7410712745799526
LBP08_S10,LBP08,98,99,10,98,98,1716497014.92,2024-05-23 20:43:34.920000+00:00,2024-05-24 05:43:34.920000+09:00,2024,5,23,20,43,34,920,,,,,,,,,-0.223633,-0.664307,1.626221,21.66748,-25.756836,25.32959,,,,,,,,,,,0.0,1.0,1.0,10.0,0.0,0.0,0.0,6.0,0.0,0.027073533333333337,-0.27300784,0.9670670666666669,-3.374837199999999,-0.8789062800000002,8.942871133333334,-13.963342630579426,-9.459872898309523,3.773953155030791,-19.233975982468984,-8.079968592319279,29.85762113662379,36.42402043274772,-1.4681551611788064,35.514584098773895,-1.463739125417799,-0.2507065333333333,-0.39129916,0.659153933333333,1.3011596266666663,0.8065064824919435,0.6260232879863531,0.6846998216029063,0.7421266811591783
LBP08_S10,LBP08,99,100,10,99,99,1716497014.96,2024-05-23 20:43:34.960000+00:00,2024-05-24 05:43:34.960000+09:00,2024,5,23,20,43,34,960,,,,,,,,,0.169678,-0.194336,1.387207,153.625488,0.244141,20.874023,,,,,,,,,,,0.0,1.0,1.0,10.0,0.0,0.0,0.0,6.0,0.0,0.028470026666666672,-0.28087568,0.9696875066666667,-4.695637986666665,-1.56575524,8.350423213333334,-3.61769109957383,-8.675071115886993,5.123631538258766,-19.378683626451938,-8.426971436954759,30.062566398154143,36.74649813433648,-1.465702230426422,36.06236345560339,-1.4593570894625882,0.14120797333333332,0.08653968000000001,0.4175194933333334,0.6452671466666667,0.4491673800051972,0.6200697779987637,0.6802374483585845,0.7374765335218135
LBP08_S10,LBP08,100,101,10,100,100,1716497015.0,2024-05-23 20:43:35+00:00,2024-05-24 05:43:35+09:00,2024,5,23,20,43,35,0,20.0,43.0,33.0,40.79491,141.622025,-0.485,3.0,15.0,-0.100342,-0.378174,0.551514,5.981445,160.827637,23.071289,-585.0,23.0,593.0,0.0,0.0,1021.299988,25.91,0.082251,-66.767876,3.796875,0.0,1.0,1.0,10.0,0.0,0.0,0.0,5.0,0.0,0.030970026666666664,-0.29126956,0.97363608,-4.925130173333333,-1.8806966533333336,7.856445346666666,3.48692067805713,-7.758143976604444,6.6097712468397525,-19.239206799329654,-8.737297196018936,30.326957248027732,36.96230209933676,-1.4603204304428496,36.511199955973076,-1.454505624107305,-0.13131202666666666,-0.08690444000000003,-0.42212208000000007,0.6403385466666668,0.4505355485003902,0.6135735917939351,0.6666900988692523,0.7329930806308538
LBP08_S10,LBP08,101,102,10,101,101,1716497015.04,2024-05-23 20:43:35.040000+00:00,2024-05-24 05:43:35.040000+09:00,2024,5,23,20,43,35,40,,,,,,,,,-0.128906,-0.36377,0.082275,-88.195801,-74.21875,-19.53125,,,,,,,,,,,0.0,1.0,1.0,10.0,0.0,0.0,0.0,5.0,0.0,0.03137041333333333,-0.28901044000000004,0.9765104266666667,-5.094401013333333,-2.2086588933333333,7.732747426666666,7.327829013418417,-6.235347738800745,8.070235093515892,-18.946093638792917,-8.986711105570965,30.649766651768367,37.13655391218677,-1.4581354313172614,36.86459187304361,-1.4491687878157817,-0.1602764133333333,-0.07475955999999995,-0.8942354266666667,1.1292714,0.911556097444423,0.6335899376566243,0.6686406890067685,0.7357402039664471
LBP08_S10,LBP08,102,103,10,102,102,1716497015.08,2024-05-23 20:43:35.080000+00:00,2024-05-24 05:43:35.080000+09:00,2024,5,23,20,43,35,80,,,,,,,,,0.307617,-0.270264,0.480957,-27.587891,-110.412598,-19.65332,,,,,,,,,,,0.0,1.0,1.0,10.0,0.0,0.0,0.0,5.0,0.0,0.03230466666666667,-0.28911785333333334,0.97762696,-5.052083306666666,-2.6676432666666665,7.323404973333333,8.611620534205759,-3.6235873835680903,9.361316695938324,-18.601628817424686,-9.131654600913688,31.0242193196059,37.30830865641916,-1.4548630943747412,37.13323250894372,-1.4472082160465707,0.2753123333333333,0.018853853333333337,-0.49666996,0.7908361466666667,0.56818429918237,0.6271984012862537,0.6515249202422504,0.7332014781363854
LBP08_S10,LBP08,103,104,10,103,103,1716497015.12,2024-05-23 20:43:35.120000+00:00,2024-05-24 05:43:35.120000+09:00,2024,5,23,20,43,35,120,,,,,,,,,0.455322,-0.186523,1.040771,-3.234863,-36.071777,9.460449,,,,,,,,,,,0.0,1.0,1.0,10.0,0.0,0.0,0.0,5.0,0.0,0.03746417333333334,-0.29135744,0.9866927066666666,-4.609374973333334,-2.6774088933333333,7.547200546666667,8.314831690110058,0.24637433038867995,10.301616717346514,-18.269035549820284,-9.12179962769814,31.436283988299763,37.486061934557796,-1.4376122556060025,37.331889304887234,-1.443234091436419,0.41785782666666665,0.10483444000000003,0.05407829333333325,0.5767705599999999,0.4341887664674775,0.6204700990742357,0.6412314483375269,0.7287386018428196
LBP08_S10,LBP08,104,105,10,104,104,1716497015.16,2024-05-23 20:43:35.160000+00:00,2024-05-24 05:43:35.160000+09:00,2024,5,23,20,43,35,160,,,,,,,,,0.04126,-0.30542,1.557129,-54.382324,29.052734,30.090332,,,,,,,,,,,0.0,1.0,1.0,10.0,0.0,0.0,0.0,5.0,0.0,0.04078449333333333,-0.28693361333333334,0.9856998666666665,-2.7034504933333325,-2.5463867466666668,7.494303413333333,7.286011197345416,5.004519932379113,10.659685019081444,-17.977595101926468,-8.921618830402975,31.86267138906302,37.65659352956965,-1.4239487090019551,37.47405691960812,-1.438525749018514,0.00047550666666666686,-0.018486386666666688,0.5714291333333334,0.5903910266666668,0.5717282807598939,0.6420118514734484,0.640512819318289,0.7264296265327765
LBP08_S10,LBP08,105,106,10,105,105,1716497015.2,2024-05-23 20:43:35.200000+00:00,2024-05-24 05:43:35.200000+09:00,2024,5,23,20,43,35,200,,,,,,,,,-0.225586,-0.637695,1.776123,23.376465,-26.977539,-0.366211,,,,,,,,,,,0.0,1.0,1.0,10.0,0.0,0.0,0.0,5.0,0.0,0.04055012,-0.2835514533333333,0.9867024666666666,-3.4472655999999993,-2.4308268533333335,7.92561852,6.07819475478817,9.774498256292187,10.20769442530466,-17.734467311734942,-8.530638900151288,32.27097916607521,37.798137880232005,-1.4232069924921398,37.56719779167281,-1.4349130485273216,-0.26613612000000003,-0.3541435466666667,0.7894205333333333,1.4097002,0.9052242067369742,0.6347407034843987,0.6486058176406729,0.7290208523328374
LBP08_S10,LBP08,106,107,10,106,106,1716497015.24,2024-05-23 20:43:35.240000+00:00,2024-05-24 05:43:35.240000+09:00,2024,5,23,20,43,35,240,,,,,,,,,0.101562,-0.412598,1.585693,127.563477,57.617188,30.212402,,,,,,,,,,,0.0,1.0,1.0,10.0,0.0,0.0,0.0,5.0,0.0,0.04206704,-0.2862011866666667,0.99044596,-3.4586588266666656,-2.31282556,8.16162112,5.0177981300745085,13.472057686747942,8.815542561633547,-17.53375538653196,-7.99175659268137,32.62360086854055,37.889313599235926,-1.4191106451118658,37.61110832450222,-1.43229228747592,0.05949496,-0.1263968133333333,0.5952470400000001,0.7811388133333333,0.6114203491175157,0.6355352659128417,0.6474494441748324,0.7273408451440471
LBP08_S10,LBP08,107,108,10,107,107,1716497015.28,2024-05-23 20:43:35.280000+00:00,2024-05-24 05:43:35.280000+09:00,2024,5,23,20,43,35,280,,,,,,,,,-0.433594,-0.075928,0.258301,31.921387,173.461914,15.014648,,,,,,,,,,,0.0,1.0,1.0,10.0,0.0,0.0,0.0,5.0,0.0,0.04195310666666666,-0.28982749333333335,0.9949609333333335,-4.488118466666666,-2.645670613333334,7.980143266666666,4.378165518713961,15.22056710260091,6.534518392780806,-17.358628765783404,-7.382933908577334,32.884981604251784,37.91110287025006,-1.421285964412144,37.60019970127191,-1.4294289066113806,-0.47554710666666666,0.21389949333333336,-0.7366599333333335,1.4261065333333334,0.9025330471988081,0.6558486044602172,0.6532875151040157,0.7298083409476354
LBP08_S10,LBP08,108,109,10,108,108,1716497015.32,2024-05-23 20:43:35.320000+00:00,2024-05-24 05:43:35.320000+09:00,2024,5,23,20,43,35,320,,,,,,,,,-0.093506,-0.081299,0.194824,-58.898926,-43.640137,8.972168,,,,,,,,,,,0.0,1.0,1.0,10.0,0.0,0.0,0.0,5.0,0.0,0.041949853333333335,-0.2892545733333334,0.9988151066666667,-4.627278626666667,-2.28190108,7.860514360000001,4.484799840698736,14.672300633172012,3.6267800067371123,-17.179236772155456,-6.796041883250453,33.03005280452127,37.84569657995656,-1.4210717369997583,37.528539080963824,-1.4279995071600224,-0.13545585333333335,0.20795557333333337,-0.8039911066666667,1.1474025333333335,0.8414246896078985,0.6686610770046901,0.650757738831302,0.7313585680123612
LBP08_S10,LBP08,109,110,10,109,109,1716497015.36,2024-05-23 20:43:35.360000+00:00,2024-05-24 05:43:35.360000+09:00,2024,5,23,20,43,35,360,,,,,,,,,0.329834,-0.480713,0.907227,-19.958496,-69.580078,-34.057617,,,,,,,,,,,0.0,1.0,1.0,10.0,0.0,0.0,0.0,5.0,0.0,0.040026026666666666,-0.2930566666666667,1.00401692,-5.703938786666666,-1.8709310400000003,7.940266973333334,5.657684337578343,12.084404769762402,0.5253820395968937,-16.952929398652323,-6.312665692459957,33.05106808610515,37.677906854983455,-1.429575225514498,37.395402875522365,-1.4297435631780349,0.28980797333333336,-0.18765633333333331,-0.09678991999999997,0.5742542266666666,0.35856916970271097,0.6539122477154087,0.638173274703159,0.7262518639259277
LBP08_S10,LBP08,110,111,10,110,110,1716497015.4,2024-05-23 20:43:35.400000+00:00,2024-05-24 05:43:35.400000+09:00,2024,5,23,20,43,35,400,,,,,,,,,0.282471,-0.312012,1.257324,5.249023,18.127441,5.67627,,,,,,,,,,,0.0,1.0,1.0,10.0,0.0,0.0,0.0,5.0,0.0,0.04014321333333333,-0.30457685333333334,1.0111458266666666,-4.51741536,-1.7480469200000002,8.40820316,8.033067025285046,8.147553060454001,-2.2569824576983333,-16.63160671764092,-5.986763570041797,32.96078878779721,37.4014074276308,-1.4341128199288338,37.209159799357174,-1.4340459218563297,0.2423277866666667,-0.00743514666666667,0.24617817333333347,0.49594110666666685,0.3455166141048172,0.6393984915951868,0.6325731265063494,0.7211067929823991
LBP08_S10,LBP08,111,112,10,111,111,1716497015.44,2024-05-23 20:43:35.440000+00:00,2024-05-24 05:43:35.440000+09:00,2024,5,23,20,43,35,440,,,,,,,,,-0.188477,-0.331543,1.54541,8.911133,-1.403809,2.807617,,,,,,,,,,,0.0,1.0,1.0,10.0,0.0,0.0,0.0,5.0,0.0,0.03997394666666667,-0.2922461333333334,1.0136555866666668,-3.684082026666666,-0.90657556,8.388671906666668,11.39166712699062,3.701256884562459,-4.232493523338121,-16.175940032561297,-5.838713294659298,32.79148904686369,37.0274676798837,-1.4295016226718658,36.988289559743514,-1.4383136734748951,-0.22845094666666668,-0.0392968666666666,0.5317544133333332,0.7995022266666665,0.5800834723228988,0.6519501705939996,0.6347649687809147,0.7192264820402724
LBP08_S10,LBP08,112,113,10,112,112,1716497015.48,2024-05-23 20:43:35.480000+00:00,2024-05-24 05:43:35.480000+09:00,2024,5,23,20,43,35,480,,,,,,,,,-0.121338,-0.717773,1.953369,10.681152,-68.42041,-19.897461,,,,,,,,,,,0.0,1.0,1.0,10.0,0.0,0.0,0.0,5.0,0.0,0.03747394666666667,-0.29794600000000004,1.01734048,-6.289876293333332,-0.20426437333333353,8.701171906666668,15.10282645099034,-0.504829596466985,-5.023415309365784,-15.571826974521683,-5.858906478517977,32.590552434489055,36.591702453338264,-1.440569099861161,36.75970751458301,-1.4422279140833758,-0.15881194666666668,-0.41982699999999995,0.9360285199999998,1.5146674666666664,1.0380873443918128,0.6530480086461786,0.6495042356663596,0.7202883110812095
LBP08_S10,LBP08,113,114,10,113,113,1716497015.52,2024-05-23 20:43:35.520000+00:00,2024-05-24 05:43:35.520000+09:00,2024,5,23,20,43,35,520,,,,,,,,,0.200928,-0.434082,1.346436,17.63916,113.952637,33.325195,,,,,,,,,,,0.0,1.0,1.0,10.0,0.0,0.0,0.0,5.0,0.0,0.03371093333333333,-0.3022591466666667,1.0196842266666668,-4.837239573333333,0.7063801466666665,8.789062533333333,18.221694692863505,-3.9244366662662724,-4.417424139135886,-14.842959186807143,-6.015883945168628,32.41385546892362,36.15469988014325,-1.455052815786128,36.55556241115766,-1.4473469373125198,0.16721706666666666,-0.13182285333333332,0.32675177333333316,0.6257916933333332,0.3900070940662796,0.6437791412759754,0.6430121166514692,0.7094710633870879
LBP08_S10,LBP08,114,115,10,114,114,1716497015.56,2024-05-23 20:43:35.560000+00:00,2024-05-24 05:43:35.560000+09:00,2024,5,23,20,43,35,560,,,,,,,,,-0.543457,0.196045,-0.200684,3.417969,29.296875,-22.888184,,,,,,,,,,,0.0,1.0,1.0,10.0,0.0,0.0,0.0,5.0,0.0,0.030390613333333334,-0.3041569333333334,1.0224674266666667,-3.8256835866666665,0.5175780666666664,8.588053413333334,19.713361265184503,-6.225974644146705,-2.3991521139338303,-14.054424736199763,-6.264922930934497,32.31788938436627,35.79416276791771,-1.4669722957849023,36.40972578232727,-1.4513301501942804,-0.5738476133333333,0.5002019333333334,-1.2231514266666668,2.297200973333333,1.4406951342999217,0.6799216892790569,0.6621036982412566,0.7186836503198899
LBP08_S10,LBP08,115,116,10,115,115,1716497015.6,2024-05-23 20:43:35.600000+00:00,2024-05-24 05:43:35.600000+09:00,2024,5,23,20,43,35,600,,,,,,,,,0.186035,-0.28418,0.478271,49.133301,-97.229004,-17.272949,,,,,,,,,,,0.0,1.0,1.0,10.0,0.0,0.0,0.0,5.0,0.0,0.03048501333333333,-0.3017448133333333,1.0214290133333332,-2.036132813333332,0.1057942133333331,8.481445346666668,18.742145117684593,-7.275564268744948,0.8371227060238923,-13.30473893149238,-6.5559455016842945,32.351374292607225,35.58943548409543,-1.4658845086777952,36.354439895105486,-1.454891870917436,0.15554998666666667,0.017564813333333318,-0.5431580133333332,0.7162728133333333,0.5652653787980018,0.681902238844251,0.6482974481460866,0.7067458098882634
LBP08_S10,LBP08,116,117,10,116,116,1716497015.64,2024-05-23 20:43:35.640000+00:00,2024-05-24 05:43:35.640000+09:00,2024,5,23,20,43,35,640,,,,,,,,,0.432861,-0.049316,1.046143,43.640137,-30.395508,-6.164551,,,,,,,,,,,0.0,1.0,1.0,10.0,0.0,0.0,0.0,5.0,0.0,0.03209309333333333,-0.2956087466666667,1.0149316266666666,-2.6790364533333326,0.6355793733333331,8.522949253333334,14.945144562838687,-7.139690491916849,4.901699623435821,-12.706933148978834,-6.8415331213609685,32.54744227754466,35.603493147630864,-1.4582530511966705,36.416865734613815,-1.4574798985870692,0.4007679066666667,0.2462927466666667,0.03121137333333346,0.6782720266666669,0.47143311498021184,0.6705503342030944,0.637668127962509,0.7053219581614507
LBP08_S10,LBP08,117,118,10,117,117,1716497015.68,2024-05-23 20:43:35.680000+00:00,2024-05-24 05:43:35.680000+09:00,2024,5,23,20,43,35,680,,,,,,,,,0.170898,-0.566406,1.596924,-20.629883,37.902832,34.790039,,,,,,,,,,,0.0,1.0,1.0,10.0,0.0,0.0,0.0,5.0,0.0,0.026975906666666667,-0.2841764533333333,1.0015234266666666,-3.0183919333333322,-0.38411464000000006,7.467447946666668,8.604106246383465,-6.0867718901143,9.26465025222847,-12.362768899123495,-7.085003996965541,32.9180282876338,35.86965183599657,-1.4724761967035866,36.61526194317448,-1.459598732471004,0.14392209333333333,-0.28222954666666666,0.5954005733333334,1.0215522133333335,0.674439714642297,0.6740812821986982,0.6422176907015578,0.7065163099041541
LBP08_S10,LBP08,118,119,10,118,118,1716497015.72,2024-05-23 20:43:35.720000+00:00,2024-05-24 05:43:35.720000+09:00,2024,5,23,20,43,35,720,,,,,,,,,-0.399902,-0.704102,1.780273,48.156738,-40.466309,9.765625,,,,,,,,,,,0.0,1.0,1.0,10.0,0.0,0.0,0.0,5.0,0.0,0.030852853333333333,-0.29099937333333337,1.0037988133333335,-6.714680999999999,-1.4038086533333334,7.201334666666667,0.6485458342660142,-4.5332685270055055,13.351003907713526,-12.336827065752853,-7.266334738045761,33.452068443942345,36.387330291652695,-1.4609038658173616,36.95514181349762,-1.4600957005002866,-0.4307548533333333,-0.41310262666666664,0.7764741866666665,1.6203316666666665,0.9793445187413784,0.6752313753655004,0.6552206156397651,0.7068344123833846
LBP08_S10,LBP08,119,120,10,119,119,1716497015.76,2024-05-23 20:43:35.760000+00:00,2024-05-24 05:43:35.760000+09:00,2024,5,23,20,43,35,760,,,,,,,,,0.230469,0.165039,1.7146,42.84668,-32.836914,25.024414,,,,,,,,,,,0.0,1.0,1.0,10.0,0.0,0.0,0.0,5.0,0.0,0.030488266666666666,-0.30013348,1.00133136,-5.989583333333332,-2.2770182933333336,6.999511746666667,-7.532004963769926,-2.916655422771815,16.648583979395006,-12.63810726430365,-7.383000954956634,34.118011803118144,37.125047982765544,-1.4651924327460566,37.42640948834995,-1.4596376990013598,0.19998073333333333,0.46517248,0.7132686399999999,1.3784218533333332,0.8747170300510546,0.6689480577669046,0.6654254912592329,0.702640521212914
LBP08_S10,LBP08,120,121,10,120,120,1716497015.8,2024-05-23 20:43:35.800000+00:00,2024-05-24 05:43:35.800000+09:00,2024,5,23,20,43,35,800,,,,,,,,,-0.318115,0.40918,0.220947,-107.36084,166.137695,42.419434,,,,,,,,,,,0.0,1.0,1.0,10.0,0.0,0.0,0.0,5.0,0.0,0.030986319999999998,-0.28993816,0.995485,-6.335449226666666,-3.142903706666667,6.5690104400000005,-14.427396495879762,-1.5419934819201178,18.788770314248897,-13.215203124138842,-7.444680694233439,34.869562615688096,38.02566582271419,-1.4599930966251637,38.00270128064624,-1.4574480817429183,-0.34910132,0.69911816,-0.774538,1.82275748,1.1002486294976823,0.6905628006689375,0.6748605438051452,0.704441472506334
LBP08_S10,LBP08,121,122,10,121,121,1716497015.84,2024-05-23 20:43:35.840000+00:00,2024-05-24 05:43:35.840000+09:00,2024,5,23,20,43,35,840,,,,,,,,,0.001953,-1.082031,0.253174,-192.932129,-65.551758,-2.685547,,,,,,,,,,,0.0,1.0,1.0,10.0,0.0,0.0,0.0,5.0,0.0,0.03383137333333333,-0.2920898533333333,0.9903710666666667,-6.891276039999999,-3.5750326133333337,6.608886746666667,-18.793816839008763,-0.4849674804145297,19.574332388417268,-13.966955797699192,-7.46407939345002,35.65253591122479,39.011429765490284,-1.4506899615112143,38.64379054273896,-1.4574406173932262,-0.03187837333333333,-0.7899411466666666,-0.7371970666666667,1.5590165866666665,1.080963811135861,0.7158809291168297,0.6900193777955097,0.7007908758393943
LBP08_S10,LBP08,122,123,10,122,122,1716497015.88,2024-05-23 20:43:35.880000+00:00,2024-05-24 05:43:35.880000+09:00,2024,5,23,20,43,35,880,,,,,,,,,0.246826,-0.377197,0.908447,228.088379,-58.898926,-20.080566,,,,,,,,,,,0.0,1.0,1.0,10.0,0.0,0.0,0.0,5.0,0.0,0.03522785333333334,-0.29155274666666664,0.9862857733333334,-6.065266933333333,-3.0639649066666665,6.38102216,-19.95035699099021,0.3856184515139639,18.959015151915384,-14.7649700773388,-7.448654655389461,36.4108965173014,39.99050115656963,-1.4455387801539872,39.30099555985623,-1.4590428835827587,0.21159814666666665,-0.08564425333333336,-0.07783877333333344,0.37508117333333346,0.24117957715327062,0.7037207900560436,0.6689518218828576,0.6923738341570979
LBP08_S10,LBP08,123,124,10,123,123,1716497015.92,2024-05-23 20:43:35.920000+00:00,2024-05-24 05:43:35.920000+09:00,2024,5,23,20,43,35,920,,,,,,,,,0.328857,0.112305,1.001953,-56.274414,-9.765625,44.067383,,,,,,,,,,,0.0,1.0,1.0,10.0,0.0,0.0,0.0,5.0,0.0,0.03376952,-0.2911784,0.9807063466666667,-5.422363293333333,-2.84912116,6.5527344,-17.89456624483656,1.2771606178812411,17.010159892217867,-15.480752727132263,-7.397568230674212,37.091302912990116,40.86737662866657,-1.4504728007968593,39.924410265359576,-1.4595169794627474,0.29508748,0.4034834,0.02124665333333342,0.7198175333333334,0.5003267884155087,0.6914736022929863,0.6587484451396697,0.6869577484995995
LBP08_S10,LBP08,124,125,10,124,124,1716497015.96,2024-05-23 20:43:35.960000+00:00,2024-05-24 05:43:35.960000+09:00,2024,5,23,20,43,35,960,,,,,,,,,-0.137695,-0.332031,1.496094,-72.265625,27.282715,24.902344,,,,,,,,,,,0.0,1.0,1.0,10.0,0.0,0.0,0.0,5.0,0.0,0.03523762666666666,-0.2905403733333334,0.9831737866666667,-4.41731772,-3.701171946666667,5.9920247600000005,-13.254636449706908,2.3215431072749135,13.887602022834303,-16.01093818512054,-7.304706506383216,37.64680699390349,41.557080690880696,-1.4450761232004878,40.470132084446895,-1.4584263918882137,-0.17293262666666667,-0.04149062666666664,0.5129202133333334,0.7273434666666667,0.542875962548479,0.6952219455947176,0.6576458617967406,0.6852322807706289
LBP08_S10,LBP08,125,126,10,125,125,1716497016.0,2024-05-23 20:43:36+00:00,2024-05-24 05:43:36+09:00,2024,5,23,20,43,36,0,20.0,43.0,34.0,40.794842,141.622086,-0.968,3.0,15.0,-0.205078,-0.635498,1.54541,23.071289,-27.709961,-9.033203,-586.0,18.0,593.0,0.0,0.0,1020.599976,25.959999,0.075314,-60.978813,3.796875,0.0,1.0,1.0,10.0,0.0,0.0,0.0,5.0,0.0,0.029231773333333332,-0.289056,0.9817577733333334,-2.378743493333333,-1.52018236,6.486816426666667,-7.157404632064928,3.4950883607539316,9.8463465021336,-16.29723437040314,-7.164902971953058,38.04066085398883,42.000328105022575,-1.4658098651808746,40.90595091284094,-1.4547791066798699,-0.23430977333333333,-0.346442,0.5636522266666666,1.144404,0.7018738931387956,0.7052754793802538,0.6594245355870945,0.6795518923729195
LBP08_S10,LBP08,126,127,10,126,126,1716497016.04,2024-05-23 20:43:36.040000+00:00,2024-05-24 05:43:36.040000+09:00,2024,5,23,20,43,36,40,,,,,,,,,0.248779,-0.075439,1.216309,-20.446777,46.386719,27.648926,,,,,,,,,,,0.0,1.0,1.0,10.0,0.0,0.0,0.0,5.0,0.0,0.025986333333333334,-0.27906902666666666,0.975179,-3.2096354266666665,-1.1067709066666669,5.901692733333333,-1.0558510593790438,4.6367366181323595,5.241071477090112,-16.339468412778302,-6.979433507227764,38.250303713072434,42.17554331880357,-1.474275713091996,41.21487681267227,-1.4530056765727661,0.22279266666666667,0.20363002666666666,0.24113000000000007,0.6675526933333333,0.3863229697813888,0.6842661542737324,0.6589280459651783,0.6738491774290898
LBP08_S10,LBP08,127,128,10,127,127,1716497016.08,2024-05-23 20:43:36.080000+00:00,2024-05-24 05:43:36.080000+09:00,2024,5,23,20,43,36,80,,,,,,,,,-0.750977,-0.329346,-0.069336,-32.226562,66.894531,36.92627,,,,,,,,,,,0.0,1.0,1.0,10.0,0.0,0.0,0.0,5.0,0.0,0.026009119999999997,-0.28910484000000003,0.9684862933333332,-4.892578133333332,-3.0013021466666667,5.59977216,3.4966192332617814,5.521442423063999,0.5026879736643494,-16.19960364344783,-6.758575810305204,38.27041123201901,42.10379889102998,-1.4772171555034708,41.396581677972165,-1.450043375985648,-0.77698612,-0.04024116,-1.0378222933333332,1.8550495733333332,1.2970743595378251,0.7134217566879505,0.6703100789871022,0.6721571990574837
LBP08_S10,LBP08,128,129,10,128,128,1716497016.12,2024-05-23 20:43:36.120000+00:00,2024-05-24 05:43:36.120000+09:00,2024,5,23,20,43,36,120,,,,,,,,,0.086426,0.005615,0.416016,33.38623,-62.805176,-55.541992,,,,,,,,,,,0.0,1.0,1.0,10.0,0.0,0.0,0.0,5.0,0.0,0.032978520000000004,-0.28307945333333334,0.9597493066666668,-4.2480468799999995,-4.167480533333333,4.578450546666667,5.139170598040854,5.926130454474364,-3.926788441348183,-15.994036819526196,-6.521530592126229,38.11333969436508,41.84454848252593,-1.4499979900720272,41.46679109372552,-1.4476440412910356,0.05344748,0.2886944533333333,-0.5437333066666667,0.8858752400000001,0.6179377228187725,0.7207717149420023,0.670620907008119,0.6677448705390187
LBP08_S10,LBP08,129,130,10,129,129,1716497016.16,2024-05-23 20:43:36.160000+00:00,2024-05-24 05:43:36.160000+09:00,2024,5,23,20,43,36,160,,,,,,,,,0.393311,-0.00708,0.886963,8.544922,-48.339844,-17.578125,,,,,,,,,,,0.0,1.0,1.0,10.0,0.0,0.0,0.0,5.0,0.0,0.03846354666666667,-0.2800130533333333,0.9541243066666666,-5.856933599999999,-3.1909180266666666,5.066731786666668,3.0342790844278253,5.659881101980221,-7.685141874786047,-15.872665656149083,-6.295135348047021,37.80593401937364,41.48323626670608,-1.4287195806626174,41.45422060392184,-1.4470726368351916,0.35484745333333334,0.27293305333333334,-0.06716130666666664,0.6949418133333333,0.4526806908320504,0.7160098113448886,0.6790108314091686,0.6656784833271555
LBP08_S10,LBP08,130,131,10,130,130,1716497016.2,2024-05-23 20:43:36.200000+00:00,2024-05-24 05:43:36.200000+09:00,2024,5,23,20,43,36,200,,,,,,,,,0.26709,-0.27417,1.100098,6.408691,38.635254,-32.043457,,,,,,,,,,,0.0,1.0,1.0,10.0,0.0,0.0,0.0,5.0,0.0,0.03532878666666667,-0.28507816,0.9542480133333333,-6.608886719999999,-3.142089893333333,5.157877626666667,-2.841129345108262,4.583670694934624,-10.562563166439515,-15.986310829953414,-6.111788520249636,37.383431492716056,41.11492482102741,-1.4422587955541266,41.39470031424495,-1.4480999800462266,0.23176121333333333,0.01090816,0.1458499866666667,0.38851936000000004,0.2740519413742426,0.6907629207303794,0.6627518121073891,0.6626581853372419
LBP08_S10,LBP08,131,132,10,131,131,1716497016.24,2024-05-23 20:43:36.240000+00:00,2024-05-24 05:43:36.240000+09:00,2024,5,23,20,43,36,240,,,,,,,,,-0.154785,-0.485596,1.460693,42.785645,31.677246,16.540527,,,,,,,,,,,0.0,1.0,1.0,10.0,0.0,0.0,0.0,5.0,0.0,0.041972666666666665,-0.29008141333333337,0.97198564,-4.905598946666666,-4.852701866666666,5.25797528,-11.547676876041196,2.6617915987640237,-12.510360910748767,-16.44821790499506,-6.005316856299075,36.88301705628611,40.82847841848924,-1.4210669556400322,41.32321638096484,-1.4461934474419864,-0.19675766666666666,-0.19551458666666666,0.48870736000000004,0.8809796133333334,0.5619380897480774,0.6887836303556019,0.6621594481342217,0.6612275062350889
LBP08_S10,LBP08,132,133,10,132,132,1716497016.28,2024-05-23 20:43:36.280000+00:00,2024-05-24 05:43:36.280000+09:00,2024,5,23,20,43,36,280,,,,,,,,,0.017822,-0.195557,1.596436,1.037598,-33.02002,-4.02832,,,,,,,,,,,0.0,1.0,1.0,10.0,0.0,0.0,0.0,5.0,0.0,0.04092449333333333,-0.2829948266666667,0.9818033600000001,-2.1484374933333332,-1.1474609866666667,5.49397788,-21.270089190479826,0.043609074891424765,-13.577941956502412,-17.299021472614253,-6.003572493303418,36.33989937802601,40.6925953141032,-1.4215454332078639,41.266124235742076,-1.4421046881693012,-0.02310249333333333,0.08743782666666669,0.6146326399999998,0.7251729599999999,0.6212506586586256,0.6775323348139944,0.666690469637106,0.6613691216740087
LBP08_S10,LBP08,133,134,10,133,133,1716497016.32,2024-05-23 20:43:36.320000+00:00,2024-05-24 05:43:36.320000+09:00,2024,5,23,20,43,36,320,,,,,,,,,0.20459,-0.061523,1.205566,-52.91748,91.186523,14.282227,,,,,,,,,,,0.0,1.0,1.0,10.0,0.0,0.0,0.0,5.0,0.0,0.03379558666666667,-0.2770833733333334,0.97639972,-3.6051432266666668,-0.20996098666666654,4.77376304,-29.67236894114717,-2.883460841411737,-13.82099068246805,-18.48591623026014,-6.118910926959887,35.78705975072729,40.74167173062968,-1.4447587562384203,41.23636210769405,-1.4399854096762015,0.17079441333333334,0.2155603733333334,0.22916627999999994,0.6155210666666666,0.3579862987134032,0.6581947991782147,0.6634279380914524,0.6532367589469396
LBP08_S10,LBP08,134,135,10,134,134,1716497016.36,2024-05-23 20:43:36.360000+00:00,2024-05-24 05:43:36.360000+09:00,2024,5,23,20,43,36,360,,,,,,,,,-0.456787,-0.20459,0.014404,-73.486328,-4.760742,-17.76123,,,,,,,,,,,0.0,1.0,1.0,10.0,0.0,0.0,0.0,5.0,0.0,0.03157228,-0.28341474666666666,0.97361976,-2.228190093333333,-0.4207357199999999,4.344075546666667,-34.463400348527585,-5.539817019491275,-13.244071706712095,-19.864452244201246,-6.340503607739538,35.2572968824588,40.9618777941118,-1.4553495553108364,41.23334326442732,-1.438325228315906,-0.48835928,0.07882474666666667,-0.95921576,1.5263997866666665,1.0792603954938587,0.6870224482098606,0.6704673479626346,0.6544563325387263
LBP08_S10,LBP08,135,136,10,135,135,1716497016.4,2024-05-23 20:43:36.400000+00:00,2024-05-24 05:43:36.400000+09:00,2024,5,23,20,43,36,400,,,,,,,,,0.169434,-0.01709,0.487061,-23.55957,-86.486816,-39.489746,,,,,,,,,,,0.0,1.0,1.0,10.0,0.0,0.0,0.0,5.0,0.0,0.032958999999999995,-0.2745963866666667,0.9678580400000001,-2.2281900933333336,-1.04654952,3.525390653333333,-34.02106937141839,-7.318453111145086,-11.813777684245862,-21.22529501905798,-6.633241732185342,34.78474577508897,41.28548877222144,-1.4467445391384741,41.24700405283758,-1.4404179471139942,0.136475,0.2575063866666667,-0.48079704000000006,0.8747784266666667,0.5622283863981652,0.6956909191015945,0.6675447053483906,0.6536123907047644
LBP08_S10,LBP08,136,137,10,136,136,1716497016.44,2024-05-23 20:43:36.440000+00:00,2024-05-24 05:43:36.440000+09:00,2024,5,23,20,43,36,440,,,,,,,,,0.56543,-0.77417,1.131592,-148.010254,-79.528809,-25.268555,,,,,,,,,,,0.0,1.0,1.0,10.0,0.0,0.0,0.0,5.0,0.0,0.036549493333333335,-0.2745508133333333,0.9677668933333333,-3.7353515466666667,-0.42236331999999993,3.4318034133333337,-27.875676514137446,-7.8066042795523565,-9.526164689085041,-22.34032207962348,-6.945505903367436,34.40369918752557,41.604621866575975,-1.4333881203651446,41.26363501973542,-1.4415884539681065,0.5288805066666666,-0.4996191866666667,0.1638251066666666,1.1923248000000002,0.7457697953066993,0.7023183720209467,0.6771342713074731,0.6572827698609253
LBP08_S10,LBP08,137,138,10,137,137,1716497016.48,2024-05-23 20:43:36.480000+00:00,2024-05-24 05:43:36.480000+09:00,2024,5,23,20,43,36,480,,,,,,,,,0.182129,-1.046875,1.60376,42.114258,72.021484,-3.78418,,,,,,,,,,,0.0,1.0,1.0,10.0,0.0,0.0,0.0,5.0,0.0,0.031233733333333333,-0.28195316,0.9725162399999999,-5.607910133333333,-1.1010742666666666,2.8849284133333333,-16.883101209159822,-6.943733032475135,-6.474772633589808,-23.01564612798987,-7.223255224666441,34.14470828218197,41.80617761054976,-1.4560243705724731,41.270699278771374,-1.4454802892121132,0.1508952666666667,-0.76492184,0.6312437600000002,1.547060866666667,1.0031667295870252,0.7009215474287549,0.6769847780374668,0.6666433395871582
LBP08_S10,LBP08,138,139,10,138,138,1716497016.52,2024-05-23 20:43:36.520000+00:00,2024-05-24 05:43:36.520000+09:00,2024,5,23,20,43,36,520,,,,,,,,,-0.276123,-0.434326,1.768555,13.85498,-46.386719,2.01416,,,,,,,,,,,0.0,1.0,1.0,10.0,0.0,0.0,0.0,5.0,0.0,0.03763998666666667,-0.28299157333333336,0.9864941066666667,-4.816080706666667,-3.16569016,2.8743489866666674,-3.017408135281778,-5.017773001660078,-2.8698408582758335,-23.13634245340114,-7.423966144732844,34.02991464785094,41.8143600498586,-1.4333961764690712,41.25910517275249,-1.4489295853785251,-0.3137629866666667,-0.15133442666666663,0.7820608933333334,1.2471583066666667,0.8561358311493843,0.7195666969120793,0.6816729190940272,0.6685303100716725
LBP08_S10,LBP08,139,140,10,139,139,1716497016.56,2024-05-23 20:43:36.560000+00:00,2024-05-24 05:43:36.560000+09:00,2024,5,23,20,43,36,560,,,,,,,,,0.225098,-0.241943,1.539062,-38.757324,-2.868652,1.220703,,,,,,,,,,,0.0,1.0,1.0,10.0,0.0,0.0,0.0,5.0,0.0,0.033108733333333334,-0.28271488,0.9875748400000002,-2.55940752,0.04069005333333356,3.56933596,11.157817249263204,-2.5004514603903396,1.001670853428302,-22.690029763430612,-7.523984203148458,34.069981481988066,41.61984415080869,-1.4496467686434995,41.22353010607631,-1.4492244506268026,0.19198926666666666,0.04077188000000001,0.5514871599999998,0.7842483066666665,0.585371943604068,0.6853537692842451,0.682637729281651,0.6698537219222528
LBP08_S10,LBP08,140,141,10,140,140,1716497016.6,2024-05-23 20:43:36.600000+00:00,2024-05-24 05:43:36.600000+09:00,2024,5,23,20,43,36,600,,,,,,,,,-0.09375,-0.355957,0.531738,71.777344,154.785156,61.767578,,,,,,,,,,,0.0,1.0,1.0,10.0,0.0,0.0,0.0,5.0,0.0,0.030986346666666668,-0.27383792,0.9876431999999999,-1.6861978799999997,0.8325194800000003,3.513183613333334,23.173322081960304,0.1774371955915002,4.844134605990637,-21.7630968801522,-7.516886715324798,34.26374686622769,41.28123449000581,-1.4539638640952501,41.162697234916784,-1.4493608148651573,-0.12473634666666666,-0.08211908000000001,-0.4559051999999999,0.6627606266666666,0.47974185857274654,0.681932828475235,0.6819175336597431,0.659509241589136
LBP08_S10,LBP08,141,142,10,141,141,1716497016.64,2024-05-23 20:43:36.640000+00:00,2024-05-24 05:43:36.640000+09:00,2024,5,23,20,43,36,640,,,,,,,,,0.108887,0.42749,0.020996,181.152344,-54.077148,-29.052734,,,,,,,,,,,0.0,1.0,1.0,10.0,0.0,0.0,0.0,5.0,0.0,0.03008790666666666,-0.2809733466666667,0.98947264,-1.8465168933333334,1.188150986666667,3.4179687733333335,31.278902838210733,2.7768394712605553,8.403552715069162,-20.511940766623773,-7.405813136474376,34.599888974830456,40.899121008848745,-1.4599853080801006,41.08079472559584,-1.4473888886387516,0.07879909333333333,0.7084633466666667,-0.96847664,1.7557390800000001,1.2025292565696597,0.7111766741388128,0.6908635041709537,0.6621709766879437
LBP08_S10,LBP08,142,143,10,142,142,1716497016.68,2024-05-23 20:43:36.680000+00:00,2024-05-24 05:43:36.680000+09:00,2024,5,23,20,43,36,680,,,,,,,,,0.281006,0.187744,0.83374,-26.000977,-72.937012,-12.268066,,,,,,,,,,,0.0,1.0,1.0,10.0,0.0,0.0,0.0,5.0,0.0,0.030960293333333333,-0.27896813333333337,0.9879654800000001,-0.009765600000000063,1.4501952666666669,3.3544922133333337,34.81108542804982,5.243620464288239,11.475212556156945,-19.11949734950178,-7.196068317902847,35.058897477076734,40.576654253914384,-1.4560383948719817,40.98924872062156,-1.4478092911067677,0.25004570666666665,0.4667121333333334,-0.15422548000000003,0.8709833200000001,0.5514785304109439,0.7062582267695586,0.6901697544841283,0.6635645360575579
LBP08_S10,LBP08,143,144,10,143,143,1716497016.72,2024-05-23 20:43:36.720000+00:00,2024-05-24 05:43:36.720000+09:00,2024,5,23,20,43,36,720,,,,,,,,,0.45166,-0.502197,1.270996,-3.295898,5.981445,4.638672,,,,,,,,,,,0.0,1.0,1.0,10.0,0.0,0.0,0.0,5.0,0.0,0.033222666666666664,-0.27889001333333335,0.9874902266666665,-0.23925778666666664,1.7439778133333335,3.5050456,34.191737859621014,7.567202016680994,13.88442186420295,-17.75182783511694,-6.893380237235607,35.61427435164485,40.385921063867926,-1.4477074087211947,40.906878982602514,-1.446535287036443,0.41843733333333333,-0.22330698666666665,0.2835057733333335,0.9252500933333334,0.5525679467129716,0.6891871638884224,0.6822092696269614,0.6665427983893175
LBP08_S10,LBP08,144,145,10,144,144,1716497016.76,2024-05-23 20:43:36.760000+00:00,2024-05-24 05:43:36.760000+09:00,2024,5,23,20,43,36,760,,,,,,,,,0.00415,-0.735352,1.681396,-17.822266,27.526855,35.766602,,,,,,,,,,,0.0,1.0,1.0,10.0,0.0,0.0,0.0,5.0,0.0,0.03040692,-0.27534509333333335,0.9886621066666667,-1.83349608,0.7617186933333335,3.138020866666667,30.592398696825217,9.619089752819258,15.481043793322854,-16.528131887243934,-6.508616647122836,36.23351610337777,40.35354908251652,-1.456713197694383,40.85720651481056,-1.4476465690188483,-0.02625692,-0.46000690666666666,0.6927338933333332,1.17899772,0.8319711695736095,0.6874773294693246,0.6782126936181146,0.6727761039959301
LBP08_S10,LBP08,145,146,10,145,145,1716497016.8,2024-05-23 20:43:36.800000+00:00,2024-05-24 05:43:36.800000+09:00,2024,5,23,20,43,36,800,,,,,,,,,-0.209717,-0.555664,1.792725,63.293457,-24.169922,4.699707,,,,,,,,,,,0.0,1.0,1.0,10.0,0.0,0.0,0.0,5.0,0.0,0.03877931999999999,-0.27778324000000004,1.0009993466666667,-2.30143228,-0.18229171999999985,3.15755212,25.43518238033527,11.08763345412737,16.17298744239158,-15.510724592030522,-6.065111308957741,36.88043560107343,40.46646367901193,-1.4270252768744176,40.863541547262756,-1.4459216295123511,-0.24849632,-0.27788076,0.7917256533333332,1.3181027333333333,0.8750986504262325,0.6784713303064666,0.6845170654877021,0.6760641393055856
LBP08_S10,LBP08,146,147,10,146,146,1716497016.84,2024-05-23 20:43:36.840000+00:00,2024-05-24 05:43:36.840000+09:00,2024,5,23,20,43,36,840,,,,,,,,,0.126465,-0.504395,1.561523,-58.227539,27.526855,39.672852,,,,,,,,,,,0.0,1.0,1.0,10.0,0.0,0.0,0.0,5.0,0.0,0.03584311999999999,-0.27743167999999996,0.9991894533333334,-0.6787109199999999,0.33284500000000017,2.8043620133333333,19.936712105704437,11.54556206731676,15.982692837711232,-14.713256107802344,-5.603288826265071,37.51974331458188,40.68916181683326,-1.437592145045304,40.943909576164934,-1.4436758351830925,0.09062188,-0.22696332000000008,0.5623335466666666,0.8799187466666667,0.6131424724049614,0.6597584767572306,0.68781970293703,0.67993241078275
LBP08_S10,LBP08,147,148,10,147,147,1716497016.88,2024-05-23 20:43:36.880000+00:00,2024-05-24 05:43:36.880000+09:00,2024,5,23,20,43,36,880,,,,,,,,,-0.438965,-0.63501,0.449951,82.580566,112.060547,56.030273,,,,,,,,,,,0.0,1.0,1.0,10.0,0.0,0.0,0.0,5.0,0.0,0.033261733333333335,-0.26858077333333336,0.9945084533333333,-1.1905924266666665,0.2766926533333335,2.950032586666667,14.831591477861704,10.59996061357975,15.081850277884467,-14.119992448687876,-5.179290401721881,38.12301732569726,40.98248023035923,-1.4432843298692275,41.10797628886794,-1.4414553704286024,-0.4722267333333333,-0.3664292266666666,-0.5445574533333333,1.3832134133333331,0.8085859792323188,0.6824547328403925,0.693087761448218,0.6734527922020358
LBP08_S10,LBP08,148,149,10,148,148,1716497016.92,2024-05-23 20:43:36.920000+00:00,2024-05-24 05:43:36.920000+09:00,2024,5,23,20,43,36,920,,,,,,,,,0.046143,0.892822,0.223877,74.768066,-32.043457,-26.550293,,,,,,,,,,,0.0,1.0,1.0,10.0,0.0,0.0,0.0,5.0,0.0,0.03333985333333333,-0.27216149333333334,0.9911295466666666,-1.5706379999999998,-0.39469405333333324,2.6456706000000003,10.309829660736728,8.03507293847725,13.765312658314011,-13.707599262258407,-4.857887484182791,38.673629832029825,41.31763537193911,-1.4445089962931232,41.356950923906645,-1.4373187816000015,0.012803146666666675,1.1649834933333334,-0.7672525466666666,1.9450391866666668,1.3950006919963125,0.7182416889836246,0.7048576456383054,0.678579526420988
LBP08_S10,LBP08,149,150,10,149,149,1716497016.96,2024-05-23 20:43:36.960000+00:00,2024-05-24 05:43:36.960000+09:00,2024,5,23,20,43,36,960,,,,,,,,,0.222168,-0.664551,0.854736,-182.128906,-68.603516,-10.314941,,,,,,,,,,,0.0,1.0,1.0,10.0,0.0,0.0,0.0,5.0,0.0,0.036624359999999995,-0.27257490666666667,0.9878938666666667,-2.004394506666667,-0.11311853333333323,2.530924506666667,6.134635895854209,3.8800505448081903,12.362453872873193,-13.46221382642424,-4.702685462390463,39.168127986944754,41.6831944753306,-1.432397373578529,41.6857233829936,-1.434775171279409,0.18554364,-0.39197609333333333,-0.13315786666666662,0.7106775999999999,0.4536548440659809,0.7146728442443248,0.7049473949195212,0.6766548559459353
LBP08_S10,LBP08,150,151,10,150,150,1716497017.0,2024-05-23 20:43:37+00:00,2024-05-24 05:43:37+09:00,2024,5,23,20,43,37,0,20.0,43.0,35.0,40.794777,141.622147,-0.892,3.0,15.0,0.159424,-0.232422,1.005859,57.067871,3.662109,-10.681152,-590.0,15.0,593.0,0.0,0.0,1020.799988,26.02,0.077296,-62.633232,3.796875,0.0,1.0,1.0,10.0,0.0,0.0,0.0,5.0,0.0,0.03647788,-0.2696191866666667,0.9826074133333332,-1.861165333333333,0.5818684400000003,2.638346386666667,1.8896245635553637,-1.599374918244868,11.130446194537775,-13.386628843882026,-4.766660459120257,39.61334583472627,42.08491477902765,-1.431505920802664,42.0853709247442,-1.4328431007097575,0.12294612000000002,0.03719718666666669,0.023251586666666824,0.18339489333333353,0.13053740996927574,0.6918193849175439,0.6985474321488989,0.6702228186972443
LBP08_S10,LBP08,151,152,10,151,151,1716497017.04,2024-05-23 20:43:37.040000+00:00,2024-05-24 05:43:37.040000+09:00,2024,5,23,20,43,37,40,,,,,,,,,-0.081299,-0.677246,1.510498,33.935547,18.676758,29.785156,,,,,,,,,,,0.0,1.0,1.0,10.0,0.0,0.0,0.0,5.0,0.0,0.034514986666666664,-0.26709965333333335,0.9850195199999999,-1.2524413733333333,-1.0994466666666665,2.3038737333333335,-2.698988201536176,-7.930668042216953,10.192387791784837,-13.494588371943472,-5.083887180808936,40.02104134639766,42.539788135878815,-1.4377806605351986,42.544507417871365,-1.43234045677741,-0.11581398666666666,-0.41014634666666666,0.52547848,1.0514388133333332,0.6765800308424353,0.7034296673599859,0.693847910816859,0.6737619197634475
LBP08_S10,LBP08,152,153,10,152,152,1716497017.08,2024-05-23 20:43:37.080000+00:00,2024-05-24 05:43:37.080000+09:00,2024,5,23,20,43,37,80,,,,,,,,,-0.210205,-0.44165,1.517334,119.628906,-34.301758,29.11377,,,,,,,,,,,0.0,1.0,1.0,10.0,0.0,0.0,0.0,5.0,0.0,0.04115886666666666,-0.27071618666666664,0.9973014266666667,-1.4119465866666665,0.0870767733333336,3.043619826666667,-7.461275582934931,-14.443536781644758,9.552207819698294,-13.79303939526087,-5.661628652074726,40.40312965918559,43.06640060430142,-1.4146725065859718,43.04944075210883,-1.4276576855344663,-0.25136386666666666,-0.17093381333333335,0.5200325733333333,0.9423302533333333,0.6023587297731986,0.6756410421694008,0.6945313994286757,0.672087066714535
LBP08_S10,LBP08,153,154,10,153,153,1716497017.12,2024-05-23 20:43:37.120000+00:00,2024-05-24 05:43:37.120000+09:00,2024,5,23,20,43,37,120,,,,,,,,,0.211182,0.050781,1.091553,-12.634277,29.724121,32.287598,,,,,,,,,,,0.0,1.0,1.0,10.0,0.0,0.0,0.0,5.0,0.0,0.03846681333333333,-0.26597334666666667,0.9915397200000001,-1.7317708133333334,0.7682291200000003,2.821451853333334,-11.658733310679139,-20.28130826076055,9.161355497738631,-14.259388727688036,-6.472880982505148,40.76958387909513,43.67364565473744,-1.4222713055152725,43.58438715496768,-1.4255009845910842,0.1727151866666667,0.3167543466666667,0.10001327999999987,0.5894828133333332,0.3743881782507118,0.6658990603866783,0.6933353876643403,0.6690469581343054
LBP08_S10,LBP08,154,155,10,154,154,1716497017.16,2024-05-23 20:43:37.160000+00:00,2024-05-24 05:43:37.160000+09:00,2024,5,23,20,43,37,160,,,,,,,,,-0.402344,0.569092,-0.002441,-3.723145,65.917969,-3.356934,,,,,,,,,,,0.0,1.0,1.0,10.0,0.0,0.0,0.0,5.0,0.0,0.03452801333333333,-0.26634770666666663,0.9858268266666668,-2.1232096133333336,-0.2872721733333331,2.187500026666667,-14.16812442687425,-24.4860592177114,8.979100040366914,-14.826113704763006,-7.452323351213605,41.12874788070981,44.350024500022506,-1.437392491997866,44.13290894014652,-1.4212960862385418,-0.4368720133333333,0.8354397066666667,-0.9882678266666668,2.260579546666667,1.3658294025000572,0.7024250088533985,0.7092174100991435,0.6868155572239119
LBP08_S10,LBP08,155,156,10,155,155,1716497017.2,2024-05-23 20:43:37.200000+00:00,2024-05-24 05:43:37.200000+09:00,2024,5,23,20,43,37,200,,,,,,,,,-0.080811,-0.599854,0.176025,-198.852539,-80.871582,-2.258301,,,,,,,,,,,0.0,1.0,1.0,10.0,0.0,0.0,0.0,5.0,0.0,0.03798505333333333,-0.26213221333333336,0.9784277333333333,-2.3250325333333333,-1.4510091466666661,1.4143880533333335,-13.956259710250121,-26.212587260627032,8.984635124407252,-15.384364093173012,-8.500826841638686,41.4881332856861,45.05782861028359,-1.4219988375509454,44.68048310646913,-1.4183858409570165,-0.11879605333333332,-0.33772178666666663,-0.8024027333333333,1.2589205733333333,0.8786459206857482,0.7266087680258587,0.708685844378119,0.6840374640802123
LBP08_S10,LBP08,156,157,10,156,156,1716497017.24,2024-05-23 20:43:37.240000+00:00,2024-05-24 05:43:37.240000+09:00,2024,5,23,20,43,37,240,,,,,,,,,0.163086,-0.547119,0.45874,49.072266,-122.558594,-9.643555,,,,,,,,,,,0.0,1.0,1.0,10.0,0.0,0.0,0.0,5.0,0.0,0.04587893333333333,-0.26061528,0.9764453199999998,-3.77522784,-0.5957031466666663,1.8644206000000005,-10.641528623277328,-25.042749014096923,9.145927104664434,-15.810025238104105,-9.502536802202563,41.85397036987268,45.73849515920788,-1.3907644326158652,45.21694496272901,-1.4176670762513988,0.11720706666666668,-0.28650372,-0.5177053199999999,0.9214161066666666,0.6031920725662309,0.728258927338585,0.7085212788470934,0.6841926078690095
LBP08_S10,LBP08,157,158,10,157,157,1716497017.28,2024-05-23 20:43:37.280000+00:00,2024-05-24 05:43:37.280000+09:00,2024,5,23,20,43,37,280,,,,,,,,,0.338379,0.239258,0.703613,-51.025391,-76.660156,-4.943848,,,,,,,,,,,0.0,1.0,1.0,10.0,0.0,0.0,0.0,5.0,0.0,0.038736999999999994,-0.2671777733333333,0.97682292,-4.592285133333333,-0.18147789333333292,1.8505859600000003,-4.85929119042194,-21.26215278410433,9.386046029123332,-16.004396885720983,-10.353022913566736,42.22941221103761,46.3319442589478,-1.4217173204354063,45.737542094016376,-1.4168581209643067,0.29964199999999996,0.5064357733333333,-0.27320992,1.0792876933333333,0.6487728270066015,0.7293598140725039,0.7034460744432492,0.687580251115572
LBP08_S10,LBP08,158,159,10,158,158,1716497017.32,2024-05-23 20:43:37.320000+00:00,2024-05-24 05:43:37.320000+09:00,2024,5,23,20,43,37,320,,,,,,,,,0.203125,-0.487061,1.109131,-58.71582,4.089355,42.541504,,,,,,,,,,,0.0,1.0,1.0,10.0,0.0,0.0,0.0,5.0,0.0,0.04500978666666666,-0.27443364,0.9963086,-3.8696288799999996,-2.370605493333333,1.5218099066666668,1.7662235567586684,-15.912536925785707,9.585391751722751,-15.933747943450635,-10.989524390598165,42.612827881106526,46.802853223727496,-1.4024600127676996,46.24235972090047,-1.4163864165368234,0.15811521333333334,-0.21262736000000004,0.1128224000000001,0.4835649733333335,0.2879925499900564,0.7265600641235701,0.6923774316508924,0.6844719801021583
LBP08_S10,LBP08,159,160,10,159,159,1716497017.36,2024-05-23 20:43:37.360000+00:00,2024-05-24 05:43:37.360000+09:00,2024,5,23,20,43,37,360,,,,,,,,,-0.094971,-0.385742,1.349121,94.665527,16.357422,5.92041,,,,,,,,,,,0.0,1.0,1.0,10.0,0.0,0.0,0.0,5.0,0.0,0.04385744,-0.2681803866666667,1.0061816399999999,-1.6805012799999999,0.7731119600000004,1.9156901200000005,7.058100141985809,-10.514772447814098,9.62332928938328,-15.651423937771202,-11.41011528851073,42.99776105268186,47.1589361385567,-1.4032949207632759,46.73489110227377,-1.41426537448558,-0.13882844,-0.11756161333333326,0.34293936000000014,0.5993294133333333,0.38820287649575635,0.698917763363646,0.6929701057867532,0.6799508197629717
LBP08_S10,LBP08,160,161,10,160,160,1716497017.4,2024-05-23 20:43:37.400000+00:00,2024-05-24 05:43:37.400000+09:00,2024,5,23,20,43,37,400,,,,,,,,,0.003662,-0.440918,1.246094,61.889648,-0.061035,32.897949,,,,,,,,,,,0.0,1.0,1.0,10.0,0.0,0.0,0.0,5.0,0.0,0.03807945333333333,-0.2670052533333333,0.99703776,-5.948893213333333,0.6917317600000004,1.5828450666666671,8.970172054634522,-6.53301032626867,9.425510151507345,-15.292617055585822,-11.671435701561476,43.374781458742156,47.44953334162645,-1.4243182737464857,47.22067922443697,-1.4124801230693065,-0.034417453333333334,-0.17391274666666667,0.24905624000000004,0.45738644000000006,0.3057109995241159,0.6886570678886841,0.6921739934951393,0.6745821595284884
LBP08_S10,LBP08,161,162,10,161,161,1716497017.44,2024-05-23 20:43:37.440000+00:00,2024-05-24 05:43:37.440000+09:00,2024,5,23,20,43,37,440,,,,,,,,,0.172852,-0.010986,1.023193,67.993164,84.777832,12.451172,,,,,,,,,,,0.0,1.0,1.0,10.0,0.0,0.0,0.0,5.0,0.0,0.03750654666666666,-0.27362309333333334,0.9962434933333333,-3.8264973866666665,0.10498045333333361,0.3540039200000003,6.254303875489959,-4.803142556883714,8.973475687558238,-15.042444900566224,-11.863561403836824,43.733720486244486,47.745759448752494,-1.4296911076642782,47.70634143552196,-1.4077151344837302,0.13534545333333334,0.26263709333333335,0.026949506666666734,0.4249320533333334,0.2966865525131941,0.6706937381769439,0.6865060550989451,0.67498742693063
LBP08_S10,LBP08,162,163,10,162,162,1716497017.48,2024-05-23 20:43:37.480000+00:00,2024-05-24 05:43:37.480000+09:00,2024,5,23,20,43,37,480,,,,,,,,,-0.656494,0.134033,-0.067139,9.277344,116.760254,-7.080078,,,,,,,,,,,0.0,1.0,1.0,10.0,0.0,0.0,0.0,5.0,0.0,0.04266605333333333,-0.2724512266666667,0.9926562533333333,-2.687988266666667,-0.26855470666666637,0.3857422000000003,-1.1466672203688706,-5.191333223924127,8.25841756394948,-15.088311589380979,-12.07121473279379,44.064057188802465,48.114576873142305,-1.4099554623111377,48.19857222970019,-1.4099022785338198,-0.6991600533333333,0.4064842266666667,-1.0597952533333332,2.165439533333333,1.3331242199036561,0.683892037789609,0.6924067926091821,0.6792871979548476
LBP08_S10,LBP08,163,164,10,163,163,1716497017.52,2024-05-23 20:43:37.520000+00:00,2024-05-24 05:43:37.520000+09:00,2024,5,23,20,43,37,520,,,,,,,,,-0.047363,-0.05542,0.187988,-67.932129,-62.133789,-19.165039,,,,,,,,,,,0.0,1.0,1.0,10.0,0.0,0.0,0.0,5.0,0.0,0.044384799999999995,-0.2679688,0.9933203199999999,-4.02343748,0.3181966000000003,0.9993489733333335,-12.116403198830078,-6.6651571030836605,7.204152440146191,-15.572967717334182,-12.337821016917136,44.35222328640831,48.59895946847046,-1.4010608850028394,48.702450146020425,-1.410937988938215,-0.09174779999999999,0.2125488,-0.80533232,1.10962892,0.8379467744569833,0.6831644755219131,0.7013655862169961,0.6821701045699892
LBP08_S10,LBP08,164,165,10,164,164,1716497017.56,2024-05-23 20:43:37.560000+00:00,2024-05-24 05:43:37.560000+09:00,2024,5,23,20,43,37,560,,,,,,,,,0.264893,-0.552002,0.416016,-97.595215,-155.578613,-7.141113,,,,,,,,,,,0.0,1.0,1.0,10.0,0.0,0.0,0.0,5.0,0.0,0.03971031999999999,-0.2695996666666667,1.00119792,-3.5603840933333335,-0.6469726799999997,0.3385416800000003,-24.74322586728357,-7.774469416576502,5.617734401324686,-16.562696752025523,-12.648799793580196,44.576932662461296,49.20790572165452,-1.4195399778351296,49.21876329180268,-1.4136213640300412,0.22518268,-0.2824023333333333,-0.5851819200000001,1.0927669333333334,0.6876744845775362,0.6872565771608518,0.6863051732225484,0.6841773452413846
LBP08_S10,LBP08,165,166,10,165,165,1716497017.6,2024-05-23 20:43:37.600000+00:00,2024-05-24 05:43:37.600000+09:00,2024,5,23,20,43,37,600,,,,,,,,,0.444092,0.047607,0.795898,-2.685547,-66.40625,-22.644043,,,,,,,,,,,0.0,1.0,1.0,10.0,0.0,0.0,0.0,5.0,0.0,0.052438186666666664,-0.2722949733333333,1.02368164,-3.732910146666667,-0.32714845333333303,0.015462240000000259,-36.86417911570422,-7.321458351955895,3.225718830466648,-18.037263916653693,-12.941658127658432,44.70596141567996,49.914450721133555,-1.3743489516951843,49.740936247386365,-1.4132366759235981,0.3916538133333333,0.3199019733333333,-0.22778363999999995,0.9393394266666666,0.554630840012302,0.6902521364184341,0.6860924824468345,0.6846957345793068
LBP08_S10,LBP08,166,167,10,166,166,1716497017.64,2024-05-23 20:43:37.640000+00:00,2024-05-24 05:43:37.640000+09:00,2024,5,23,20,43,37,640,,,,,,,,,0.206787,-0.178223,1.250488,-81.359863,5.67627,44.311523,,,,,,,,,,,0.0,1.0,1.0,10.0,0.0,0.0,0.0,5.0,0.0,0.04202152,-0.27250981333333335,1.0182779866666665,-4.502766906666667,1.7985025866666668,0.9464518266666669,-46.554098001154635,-4.881051047540702,-0.1877394894640634,-19.89942783669988,-13.13690016956006,44.6984518361014,50.660803100990115,-1.412635873116762,50.252885842889256,-1.4116067231202682,0.16476548,0.09428681333333336,0.23221001333333358,0.4912623066666669,0.29993192037602834,0.6541482429706887,0.6826624585547507,0.6786250837708653
LBP08_S10,LBP08,167,168,10,167,167,1716497017.68,2024-05-23 20:43:37.680000+00:00,2024-05-24 05:43:37.680000+09:00,2024,5,23,20,43,37,680,,,,,,,,,-0.081543,-0.564697,1.534424,-56.396484,-8.361816,23.254395,,,,,,,,,,,0.0,1.0,1.0,10.0,0.0,0.0,0.0,5.0,0.0,0.037373079999999996,-0.27736658666666664,1.0117805866666667,-4.954427066666667,1.594238266666667,0.7153320400000002,-52.423571887529384,-0.9144556411758568,-4.5904679935069534,-21.996370712201053,-13.173478395207093,44.51483311636112,51.370723422150135,-1.4320744244793577,50.72910792352759,-1.41060422738288,-0.11891608000000001,-0.28733041333333337,0.5226434133333333,0.9288899066666667,0.6081578232741794,0.6564154146852182,0.6813368207273885,0.6789183078844917
LBP08_S10,LBP08,168,169,10,168,168,1716497017.72,2024-05-23 20:43:37.720000+00:00,2024-05-24 05:43:37.720000+09:00,2024,5,23,20,43,37,720,,,,,,,,,0.197998,-0.092285,1.58667,19.348145,38.574219,9.033203,,,,,,,,,,,0.0,1.0,1.0,10.0,0.0,0.0,0.0,5.0,0.0,0.03785485333333333,-0.2752344266666667,1.00973956,-3.61897784,0.29296873333333356,1.0815429733333335,-53.7106789482456,3.548073406501327,-9.560223961185702,-24.144797870130876,-13.03155545894704,44.13242415791369,51.96598468155003,-1.4292937636859608,51.13748036286603,-1.409076728039283,0.16014314666666668,0.1829494266666667,0.5769304399999999,0.9200230133333334,0.6260711243465531,0.6593555417905614,0.674271352839492,0.6745913603481615
LBP08_S10,LBP08,169,170,10,169,169,1716497017.76,2024-05-23 20:43:37.760000+00:00,2024-05-24 05:43:37.760000+09:00,2024,5,23,20,43,37,760,,,,,,,,,-0.12915,-0.314453,0.834229,-49.621582,191.589355,18.859863,,,,,,,,,,,0.0,1.0,1.0,10.0,0.0,0.0,0.0,5.0,0.0,0.044485706666666666,-0.26569992,1.00192056,-5.2539062266666665,-0.5957031466666665,1.2939453200000002,-50.23787679951512,7.451494647929483,-14.290361637450813,-26.15431294211148,-12.73349567302986,43.56080969241566,52.38066569439362,-1.3994480396988453,51.444330877053645,-1.411381436873676,-0.17363570666666667,-0.048753080000000004,-0.16769156000000007,0.39008034666666674,0.2462654680103419,0.6359273137280307,0.6617023215986778,0.6641175669880867
LBP08_S10,LBP08,170,171,10,170,170,1716497017.8,2024-05-23 20:43:37.800000+00:00,2024-05-24 05:43:37.800000+09:00,2024,5,23,20,43,37,800,,,,,,,,,-0.227295,-0.077637,0.133057,-97.106934,-37.780762,-76.904297,,,,,,,,,,,0.0,1.0,1.0,10.0,0.0,0.0,0.0,5.0,0.0,0.04388674666666667,-0.27697596,1.0023241999999999,-7.453613266666666,-0.030110693333333056,1.9148763066666667,-42.328571750801764,10.188296289854165,-17.778946588467036,-27.84745581214355,-12.325963821435694,42.84965182887698,52.56902929665536,-1.4080187457131885,51.62076910212043,-1.413882872429269,-0.27118174666666667,0.19933896,-0.8692671999999999,1.3397879066666665,0.93214860708736,0.6382093119944758,0.6583403211504713,0.6690811476566266
LBP08_S10,LBP08,171,172,10,171,171,1716497017.84,2024-05-23 20:43:37.840000+00:00,2024-05-24 05:43:37.840000+09:00,2024,5,23,20,43,37,840,,,,,,,,,0.267822,-0.543701,0.750732,24.841309,-63.476562,-53.588867,,,,,,,,,,,0.0,1.0,1.0,10.0,0.0,0.0,0.0,5.0,0.0,0.04036786666666667,-0.2745475866666666,1.0057454266666668,-6.7089843600000005,-1.300455733333333,1.6772460933333333,-30.743569972788876,11.772353335087134,-19.141658657161138,-29.077198611055106,-11.85506968803221,42.083985482590535,52.50798025513585,-1.4196661502903942,51.64890392136097,-1.4195448342727572,0.22745413333333334,-0.26915341333333337,-0.2550134266666668,0.7516209733333336,0.43498366688839873,0.6310829597738133,0.6454207182655218,0.6689074552159578
LBP08_S10,LBP08,172,173,10,172,172,1716497017.88,2024-05-23 20:43:37.880000+00:00,2024-05-24 05:43:37.880000+09:00,2024,5,23,20,43,37,880,,,,,,,,,0.263672,0.147705,1.00708,-15.258789,0.671387,-40.344238,,,,,,,,,,,0.0,1.0,1.0,10.0,0.0,0.0,0.0,5.0,0.0,0.04801434666666666,-0.27943039999999997,1.0203320133333333,-5.703938786666667,0.2929687466666669,2.04996744,-16.639735126752786,12.677899363207652,-17.91724180780024,-29.742788016125218,-11.347953713503903,41.36729581027853,52.198301266526634,-1.3946804688751682,51.52616285418744,-1.4189894954021058,0.21565765333333337,0.42713539999999994,-0.013252013333333368,0.6560450666666666,0.4786736771870655,0.6178864676920033,0.6501706002661979,0.6680206635294799
LBP08_S10,LBP08,173,174,10,173,173,1716497017.92,2024-05-23 20:43:37.920000+00:00,2024-05-24 05:43:37.920000+09:00,2024,5,23,20,43,37,920,,,,,,,,,0.045654,-0.660889,1.619385,-91.369629,21.057129,18.310547,,,,,,,,,,,0.0,1.0,1.0,10.0,0.0,0.0,0.0,5.0,0.0,0.03966148,-0.27815436,1.0132877333333332,-4.376627586666666,1.4314778533333334,2.1948242133333333,-1.5118345338901418,13.492022622987891,-14.233331507311703,-29.803261397480824,-10.808272808584388,40.79796254998606,51.66746461034662,-1.4241079733467688,51.266068746458174,-1.4185068451789649,0.005992520000000001,-0.38273463999999996,0.6060972666666669,0.9948244266666668,0.7168511781483551,0.5907604871380849,0.6545010880608547,0.6668252594715652
LBP08_S10,LBP08,174,175,10,174,174,1716497017.96,2024-05-23 20:43:37.960000+00:00,2024-05-24 05:43:37.960000+09:00,2024,5,23,20,43,37,960,,,,,,,,,-0.229004,-0.749512,1.743408,13.183594,-50.65918,-20.141602,,,,,,,,,,,0.0,1.0,1.0,10.0,0.0,0.0,0.0,5.0,0.0,0.03314454666666666,-0.27035488,1.0013183333333333,-2.3616536266666666,1.0099283733333335,1.9694010400000002,12.93300104048689,14.592004855331545,-8.772309324221103,-29.28594135586135,-10.224592614371126,40.44707017701722,50.972287972322356,-1.444554333391059,50.895070878639885,-1.417163653582288,-0.26214854666666665,-0.47915711999999994,0.7420896666666668,1.4833953333333334,0.9214176466399937,0.6094709992410454,0.662071921742685,0.6731219296933626
LBP08_S10,LBP08,175,176,10,175,175,1716497018.0,2024-05-23 20:43:38+00:00,2024-05-24 05:43:38+09:00,2024,5,23,20,43,38,0,20.0,43.0,36.0,40.794716,141.622208,-1.022,3.0,15.0,0.380127,-0.456055,1.599854,65.368652,5.981445,22.277832,-584.0,31.0,596.0,0.0,0.0,1020.700012,26.059999,0.076305,-61.806309,3.796875,0.0,1.0,1.0,10.0,0.0,0.0,0.0,6.0,0.0,0.03543621333333333,-0.26014004,0.9908528400000001,-4.762369773333333,-1.2044270933333332,1.29557292,25.000359930798016,15.992382732158076,-2.5718056501138173,-28.285926958629428,-9.584897305084803,40.34419795101267,50.19579891353893,-1.4309685701300683,50.44679092229853,-1.4201447010402641,0.34469078666666664,-0.19591495999999997,0.60900116,1.1496069066666665,0.7266889450418471,0.6333170606439483,0.6625682227807461,0.676803974980582
LBP08_S10,LBP08,176,177,10,176,176,1716497018.04,2024-05-23 20:43:38.040000+00:00,2024-05-24 05:43:38.040000+09:00,2024,5,23,20,43,38,40,,,,,,,,,-0.46875,-0.343018,0.16333,81.054688,166.259766,32.592773,,,,,,,,,,,0.0,1.0,1.0,10.0,0.0,0.0,0.0,6.0,0.0,0.04181968,-0.2617383466666666,0.98316404,-4.675292946666667,-0.0016276133333333101,0.5875651066666666,33.310543737467036,17.38905722296824,3.246252914079193,-26.953505209130746,-8.889335016166074,40.474048067575836,49.43339242925488,-1.407082484410246,49.95599136102951,-1.4242184857244666,-0.51056968,-0.08127965333333337,-0.81983404,1.4116833733333336,0.9692345605290863,0.6450232418314144,0.6742264545957002,0.6775730211550441
LBP08_S10,LBP08,177,178,10,177,177,1716497018.08,2024-05-23 20:43:38.080000+00:00,2024-05-24 05:43:38.080000+09:00,2024,5,23,20,43,38,80,,,,,,,,,0.148438,0.395508,0.486084,37.902832,-51.025391,-23.864746,,,,,,,,,,,0.0,1.0,1.0,10.0,0.0,0.0,0.0,6.0,0.0,0.03627605333333333,-0.2593978533333333,0.9822916533333331,-3.7084960799999998,0.004882800000000026,0.14811198666666675,37.08747460012872,18.328388397681568,7.721890006052253,-25.470006225125598,-8.156199480258811,40.782923667817926,48.7697823448575,-1.427247922247949,49.454042777529004,-1.4275769398368459,0.11216194666666665,0.6549058533333334,-0.4962076533333331,1.2632754533333332,0.829279213677089,0.6541000611875699,0.6648705516784852,0.6810542866816405
LBP08_S10,LBP08,178,179,10,178,178,1716497018.12,2024-05-23 20:43:38.120000+00:00,2024-05-24 05:43:38.120000+09:00,2024,5,23,20,43,38,120,,,,,,,,,0.387939,-0.72168,1.177979,-15.258789,-9.399414,2.319336,,,,,,,,,,,0.0,1.0,1.0,10.0,0.0,0.0,0.0,6.0,0.0,0.03974936,-0.26299485333333333,0.9970930933333333,-5.6713867066666666,-2.04345704,-0.6022135333333333,36.32499651087741,18.389456719569644,10.220547071323788,-24.017006364690502,-7.420621211476026,41.19174555067088,48.25600600336715,-1.415861847719192,48.9662799781661,-1.4320274406588571,0.34818963999999997,-0.45868514666666665,0.18088590666666682,0.9877606933333334,0.6036122931208188,0.6632690257823742,0.6645840430845261,0.6833132670370183
LBP08_S10,LBP08,179,180,10,179,179,1716497018.16,2024-05-23 20:43:38.160000+00:00,2024-05-24 05:43:38.160000+09:00,2024,5,23,20,43,38,160,,,,,,,,,0.106689,-0.155029,1.444092,83.374023,48.706055,25.32959,,,,,,,,,,,0.0,1.0,1.0,10.0,0.0,0.0,0.0,6.0,0.0,0.03771485333333333,-0.27410162666666665,1.0080566400000002,-8.096516920000001,0.9358723866666666,0.16031901333333343,31.772535734988526,17.303361980120584,10.50312071693081,-22.746104935290962,-6.728486732271202,41.61187037934811,47.897866130980056,-1.4292585142786083,48.510571014137454,-1.4339917123567156,0.06897414666666668,0.11907262666666665,0.43603535999999976,0.6240821333333331,0.45723359292600496,0.6269251933994121,0.6646751011264054,0.6817866711992331
LBP08_S10,LBP08,180,181,10,180,180,1716497018.2,2024-05-23 20:43:38.200000+00:00,2024-05-24 05:43:38.200000+09:00,2024,5,23,20,43,38,200,,,,,,,,,-0.055908,-0.631836,1.740479,6.164551,-4.943848,10.925293,,,,,,,,,,,0.0,1.0,1.0,10.0,0.0,0.0,0.0,6.0,0.0,0.03274089333333333,-0.27683925333333337,1.0000195333333333,-8.09733072,1.31429036,-0.048014319999999916,24.755515128081846,15.002392184863504,8.720176758717834,-21.75588433016769,-6.128391044876662,41.960677449696824,47.6610336839651,-1.4487565925552108,48.09638658692898,-1.435200627715171,-0.08864889333333334,-0.3549967466666666,0.7404594666666668,1.1841051066666668,0.8259307102956197,0.624816584983807,0.6757126765048328,0.6807294245800151
LBP08_S10,LBP08,181,182,10,181,181,1716497018.24,2024-05-23 20:43:38.240000+00:00,2024-05-24 05:43:38.240000+09:00,2024,5,23,20,43,38,240,,,,,,,,,-0.109619,-0.146729,1.673584,7.995605,-16.052246,2.685547,,,,,,,,,,,0.0,1.0,1.0,10.0,0.0,0.0,0.0,6.0,0.0,0.03160157333333333,-0.27762376,0.9982128933333333,-5.425618480000001,1.1946614533333335,-0.09928385333333327,16.886935365631846,11.626328019558208,5.3490314496144835,-21.080406915542415,-5.663337924094334,42.1746387076814,47.48849442013078,-1.4532506914141878,47.724467128933966,-1.43518612855568,-0.14122057333333332,0.13089476,0.6753711066666667,0.94748644,0.7022840025575202,0.6287802621834585,0.6785195947610219,0.6819409399592151
LBP08_S10,LBP08,182,183,10,182,182,1716497018.28,2024-05-23 20:43:38.280000+00:00,2024-05-24 05:43:38.280000+09:00,2024,5,23,20,43,38,280,,,,,,,,,0.194336,-0.258789,1.183594,-3.173828,102.661133,16.479492,,,,,,,,,,,0.0,1.0,1.0,10.0,0.0,0.0,0.0,6.0,0.0,0.03430339999999999,-0.26826177333333334,0.99321616,-4.719238266666667,1.4127604133333334,-0.33121745333333324,9.733711875888352,7.499319210960781,1.084331297381247,-20.691058440506882,-5.363365155655902,42.21801195957665,47.32067327289767,-1.4391854770952814,47.387967906019654,-1.4393222385473232,0.16003260000000002,0.00947277333333335,0.19037784000000002,0.3598832133333334,0.24888529177203367,0.6127847607740758,0.67107228742329,0.6732256365535247
LBP08_S10,LBP08,183,184,10,183,183,1716497018.32,2024-05-23 20:43:38.320000+00:00,2024-05-24 05:43:38.320000+09:00,2024,5,23,20,43,38,320,,,,,,,,,-0.313721,-0.054932,0.059082,62.805176,-5.004883,-17.51709,,,,,,,,,,,0.0,1.0,1.0,10.0,0.0,0.0,0.0,6.0,0.0,0.03305339999999999,-0.26792974666666663,0.9899088666666666,-5.27343748,1.9775390666666666,-0.28564453333333323,4.4982126471171435,3.0670144316639414,-3.3048112553813733,-20.511129934622197,-5.240684578389344,42.08581950936139,47.110374970060114,-1.4437506903253536,47.07582235433979,-1.441084008024295,-0.34677440000000004,0.21299774666666663,-0.9308268666666666,1.4905990133333331,1.0159031352884593,0.641901184186012,0.684230624154791,0.6755520158292656
