file_name,test_id,_program_index,program_index,session_id,index,_index,unixtime,datetime_utc,datetime_jst,rtc_year,rtc_month,rtc_day,rtc_hour,rtc_min,rtc_sec,rtc_msec,gps_hour,gps_min,gps_sec,latitude,longitude,altitude,fix_type,SIV,acc_x,acc_y,acc_z,gyro_x,gyro_y,gyro_z,mag_x,mag_y,mag_z,illuminance,atmopress,water_pressure,water_temp,depth,alt_wps,battery_level,behavior_class,camera_command,camera_recording,camera_count,play_audio,speaker_on,audio_file,prev_sd_write_time_ms,delay_occurred_counter,acc_x_ma,acc_y_ma,acc_z_ma,gyro_x_ma,gyro_y_ma,gyro_z_ma,gyro_x_lowpass,gyro_y_lowpass,gyro_z_lowpass,angle_x,angle_y,angle_z,combined_angle_change,gravity_adjusted_angle,smoothed_angle_change,smoothed_gravity_angle,acc_x_dy,acc_y_dy,acc_z_dy,ODBA,VeDBA,smoothed_VeDBA_1s,smoothed_VeDBA_2s,smoothed_VeDBA_3s
LBP08_S00,LBP08,0,1,0,0,0,1716444137.0,2024-05-23 06:02:17+00:00,2024-05-23 15:02:17+09:00,2024,5,23,6,2,17,0,6.0,2.0,15.0,40.549103,141.545654,10.903,3.0,11.0,-0.334717,0.530518,-0.117188,-44.067383,111.26709,-25.390625,-561.0,7.0,593.0,351.0,0.0,1023.299988,34.66,0.102071,-83.290077,4.057031,0.0,1.0,1.0,0.0,0.0,0.0,0.0,4.0,0.0,,,,,,,-44.04034569476591,109.64084486360352,-25.431933295840164,-1.7616138277906366,4.385633794544141,-1.0172773318336066,4.834451388521072,,9.168418599932089,,,,,,,,,
LBP08_S00,LBP08,1,2,0,1,1,1716444137.04,2024-05-23 06:02:17.040000+00:00,2024-05-23 15:02:17.040000+09:00,2024,5,23,6,2,17,40,,,,,,,,,-0.022461,0.138184,-0.007324,-42.480469,-71.716309,-33.691406,,,,,,,,,,,0.0,1.0,1.0,0.0,0.0,0.0,0.0,4.0,0.0,,,,,,,-40.28629992203587,69.94878551185002,-25.037112749195483,-3.3730658246720715,7.183585215018142,-2.018761841801426,8.188825860458348,,9.438333340213461,,,,,,,,,
LBP08_S00,LBP08,2,3,0,2,2,1716444137.08,2024-05-23 06:02:17.080000+00:00,2024-05-23 15:02:17.080000+09:00,2024,5,23,6,2,17,80,,,,,,,,,0.252686,-0.322998,0.275635,-41.137695,-112.487793,-57.495117,,,,,,,,,,,0.0,1.0,1.0,0.0,0.0,0.0,0.0,4.0,0.0,,,,,,,-33.48626305721653,35.30312492032135,-23.887656971163526,-4.712516346960733,8.595710211830996,-2.974268120647967,10.244038032907266,,9.496768215046064,,,,,,,,,
LBP08_S00,LBP08,3,4,0,3,3,1716444137.12,2024-05-23 06:02:17.120000+00:00,2024-05-23 15:02:17.120000+09:00,2024,5,23,6,2,17,120,,,,,,,,,0.460205,0.018311,0.831299,-69.458008,-62.988281,-24.353027,,,,,,,,,,,0.0,1.0,1.0,0.0,0.0,0.0,0.0,4.0,0.0,,,,,,,-21.463482824796646,9.162596034512083,-21.557587866462686,-5.571055659952599,8.96221405321148,-3.8365716353064747,11.228411455531429,,9.446769965111196,,,,,,,,,
LBP08_S00,LBP08,4,5,0,4,4,1716444137.16,2024-05-23 06:02:17.160000+00:00,2024-05-23 15:02:17.160000+09:00,2024,5,23,6,2,17,160,,,,,,,,,0.299316,-0.699463,1.34082,0.976562,40.039062,-16.357422,,,,,,,,,,,0.0,1.0,1.0,0.0,0.0,0.0,0.0,4.0,0.0,,,,,,,-3.602074923197841,-7.089247493323395,-17.98904847486547,-5.715138656880512,8.678644153478544,-4.556133574301094,11.346366262242329,,9.433545353526261,,,,,,,,,
LBP08_S00,LBP08,5,6,0,5,5,1716444137.2,2024-05-23 06:02:17.200000+00:00,2024-05-23 15:02:17.200000+09:00,2024,5,23,6,2,17,200,,,,,,,,,-0.095459,0.037109,1.390625,-73.120117,1.708984,-20.202637,,,,,,,,,,,0.0,1.0,1.0,0.0,0.0,0.0,0.0,4.0,0.0,,,,,,,18.86681552025143,-14.164210676677083,-13.491083726351285,-4.960466036070455,8.11207572641146,-5.095776923355145,10.787907041620324,,9.577123564490835,,,,,,,,,
LBP08_S00,LBP08,6,7,0,6,6,1716444137.24,2024-05-23 06:02:17.240000+00:00,2024-05-23 15:02:17.240000+09:00,2024,5,23,6,2,17,240,,,,,,,,,0.043701,-0.435303,1.486816,-0.183105,49.621582,3.417969,,,,,,,,,,,0.0,1.0,1.0,0.0,0.0,0.0,0.0,4.0,0.0,,,,,,,43.07195282320348,-14.242838372595585,-8.624049768513512,-3.237587923142316,7.542362191507636,-5.440738914095686,9.84737746404168,,10.415110784095424,,,,,,,,,
LBP08_S00,LBP08,7,8,0,7,7,1716444137.28,2024-05-23 06:02:17.280000+00:00,2024-05-23 15:02:17.280000+09:00,2024,5,23,6,2,17,280,,,,,,,,,-0.118164,-0.369141,0.702637,114.807129,160.522461,43.457031,,,,,,,,,,,0.0,1.0,1.0,0.0,0.0,0.0,0.0,4.0,0.0,,,,,,,65.18301805023071,-10.067881514421993,-4.025385532859002,-0.6302672011330874,7.139646930930756,-5.601754335410046,9.096782215567126,,11.159436596143774,,,,,,,,,
LBP08_S00,LBP08,8,9,0,8,8,1716444137.32,2024-05-23 06:02:17.320000+00:00,2024-05-23 15:02:17.320000+09:00,2024,5,23,6,2,17,320,,,,,,,,,-0.073975,0.839844,-0.158691,292.053223,-46.75293,-18.554688,,,,,,,,,,,0.0,1.0,1.0,0.0,0.0,0.0,0.0,4.0,0.0,,,,,,,81.3888729046253,-4.162734248146785,-0.2462613606915998,2.625287715051925,6.973137561004885,-5.61160478983771,9.327748460846768,,11.893841044706814,,,,,,,,,
LBP08_S00,LBP08,9,10,0,9,9,1716444137.36,2024-05-23 06:02:17.360000+00:00,2024-05-23 15:02:17.360000+09:00,2024,5,23,6,2,17,360,,,,,,,,,0.260498,0.406494,0.411133,36.193848,-104.370117,-35.27832,,,,,,,,,,,0.0,1.0,1.0,0.0,0.0,0.0,0.0,4.0,0.0,,,,,,,88.86424435878915,1.5772701490394043,2.351883385821037,6.179857489403491,7.036228366966461,-5.517529454404868,10.869327463172008,,12.649400721223529,,,,,,,,,
LBP08_S00,LBP08,10,11,0,10,10,1716444137.4,2024-05-23 06:02:17.400000+00:00,2024-05-23 15:02:17.400000+09:00,2024,5,23,6,2,17,400,,,,,,,,,0.499268,-0.639893,1.045166,27.34375,-75.500488,2.13623,,,,,,,,,,,0.0,1.0,1.0,0.0,0.0,0.0,0.0,4.0,0.0,,,,,,,86.41135910153469,5.925633127143102,3.635354802557157,9.636311853464878,7.273253692052185,-5.372115262302581,13.214323584566968,,13.42709752505237,,,,,,,,,
LBP08_S00,LBP08,11,12,0,11,11,1716444137.44,2024-05-23 06:02:17.440000+00:00,2024-05-23 15:02:17.440000+09:00,2024,5,23,6,2,17,440,,,,,,,,,0.094238,-0.299561,1.501953,84.289551,42.84668,26.306152,,,,,,,,,,,0.0,1.0,1.0,0.0,0.0,0.0,0.0,4.0,0.0,,,,,,,74.6202740520202,8.19697797635977,3.6983055225691355,12.621122815545686,7.6011328111065755,-5.224183041399816,15.632083980941832,,14.21579437437202,,,,,,,,,
LBP08_S00,LBP08,12,13,0,12,12,1716444137.48,2024-05-23 06:02:17.480000+00:00,2024-05-23 15:02:17.480000+09:00,2024,5,23,6,2,17,480,,,,,,,,,-0.229248,-0.831787,1.779297,60.424805,29.541016,13.122559,,,,,,,,,,,0.0,1.0,1.0,0.0,0.0,0.0,0.0,4.0,0.0,,,,,,,55.600575489304475,8.161997270923417,2.8468740632621232,14.845145835117865,7.927612701943512,-5.110308078869331,17.588082518537675,,14.994141566151166,,,,,,,,,
LBP08_S00,LBP08,13,14,0,13,13,1716444137.52,2024-05-23 06:02:17.520000+00:00,2024-05-23 15:02:17.520000+09:00,2024,5,23,6,2,17,520,,,,,,,,,-0.155029,-0.22168,1.830322,41.564941,19.65332,-0.549316,,,,,,,,,,,0.0,1.0,1.0,0.0,0.0,0.0,0.0,4.0,0.0,,,,,,,32.45181023742452,6.066939518232549,1.5588850228707167,16.143218244614847,8.170290282672815,-5.047952677954503,18.784008220698574,,15.710085619674704,,,,,,,,,
LBP08_S00,LBP08,14,15,0,14,14,1716444137.56,2024-05-23 06:02:17.560000+00:00,2024-05-23 15:02:17.560000+09:00,2024,5,23,6,2,17,560,,,,,,,,,0.162842,-0.237305,1.210449,-17.76123,125.732422,24.230957,,,,,,,,,,,0.0,1.0,1.0,0.0,0.0,0.0,0.0,4.0,0.0,,,,,,,8.637956059918716,2.656591019064074,0.39604724511763645,16.488736487011597,8.276553923435378,-5.032110788149797,19.123334300530715,,16.260552682790006,,,,,,,,,
LBP08_S00,LBP08,15,16,0,15,15,1716444137.6,2024-05-23 06:02:17.600000+00:00,2024-05-23 15:02:17.600000+09:00,2024,5,23,6,2,17,600,,,,,,,,,-0.484375,0.112305,-0.267822,-46.142578,29.846191,-25.390625,,,,,,,,,,,0.0,1.0,1.0,0.0,0.0,0.0,0.0,4.0,0.0,,,,,,,-12.60823927459933,-0.9508711144873985,-0.13500057159042103,15.984406916027623,8.238519078855882,-5.037510811013414,18.674875534816856,,16.533839309721742,,,,,,,,,
LBP08_S00,LBP08,16,17,0,16,16,1716444137.64,2024-05-23 06:02:17.640000+00:00,2024-05-23 15:02:17.640000+09:00,2024,5,23,6,2,17,640,,,,,,,,,0.084473,-0.171387,0.29834,-50.78125,-136.901855,-20.996094,,,,,,,,,,,0.0,1.0,1.0,0.0,0.0,0.0,0.0,4.0,0.0,,,,,,,-28.753637867321547,-3.602145638537672,0.2603834136926652,14.83426140133476,8.094433253314374,-5.027095474465708,17.630849381833126,,16.48517507404051,,,,,,,,,
LBP08_S00,LBP08,17,18,0,17,17,1716444137.68,2024-05-23 06:02:17.680000+00:00,2024-05-23 15:02:17.680000+09:00,2024,5,23,6,2,17,680,,,,,,,,,0.532471,-0.1604,0.752441,44.372559,-123.168945,-19.226074,,,,,,,,,,,0.0,1.0,1.0,0.0,0.0,0.0,0.0,4.0,0.0,,,,,,,-38.24347779016284,-4.556508408155969,1.5504747476866179,13.304522289728247,7.912172916988135,-4.965076484558243,16.25622275080252,,16.14994100127837,,,,,,,,,
LBP08_S00,LBP08,18,19,0,18,18,1716444137.72,2024-05-23 06:02:17.720000+00:00,2024-05-23 15:02:17.720000+09:00,2024,5,23,6,2,17,720,,,,,,,,,0.242432,-0.272461,1.087646,-58.837891,-11.71875,15.50293,,,,,,,,,,,0.0,1.0,1.0,0.0,0.0,0.0,0.0,4.0,0.0,,,,,,,-40.58553947989184,-3.8031619823218454,3.363140653078002,11.681100710532574,7.760046437695261,-4.830550858435123,14.832419091999787,,15.617640054573098,,,,,,,,,
LBP08_S00,LBP08,19,20,0,19,19,1716444137.76,2024-05-23 06:02:17.760000+00:00,2024-05-23 15:02:17.760000+09:00,2024,5,23,6,2,17,760,,,,,,,,,-0.036133,-0.035645,1.470215,-83.129883,36.376953,19.836426,,,,,,,,,,,0.0,1.0,1.0,0.0,0.0,0.0,0.0,4.0,0.0,,,,,,,-36.284503738119895,-2.0306722464357647,5.091221963354584,10.229720561007777,7.678819547837831,-4.626901979900939,13.602193732489363,,15.005472516904089,,,,,,,,,
LBP08_S00,LBP08,20,21,0,20,20,1716444137.8,2024-05-23 06:02:17.800000+00:00,2024-05-23 15:02:17.800000+09:00,2024,5,23,6,2,17,800,,,,,,,,,0.254639,-0.696289,1.923584,14.953613,67.687988,11.413574,,,,,,,,,,,0.0,1.0,1.0,0.0,0.0,0.0,0.0,4.0,0.0,,,,,,,-26.676940025827722,-0.22960432515184587,6.080873717339968,9.162642959974669,7.669635374831757,-4.383667031207341,12.727681227754653,,14.435972641038072,,,,,,,,,
LBP08_S00,LBP08,21,22,0,21,21,1716444137.84,2024-05-23 06:02:17.840000+00:00,2024-05-23 15:02:17.840000+09:00,2024,5,23,6,2,17,840,,,,,,,,,-0.200684,-0.643799,0.927246,-81.726074,144.104004,32.043457,,,,,,,,,,,0.0,1.0,1.0,0.0,0.0,0.0,0.0,4.0,0.0,,,,,,,-13.692059632693196,0.8527689527022979,5.828591714796068,8.614960574666942,7.703746132939849,-4.150523362615498,12.279743253320426,,14.016187422141877,,,,,,,,,
LBP08_S00,LBP08,22,23,0,22,22,1716444137.88,2024-05-23 06:02:17.880000+00:00,2024-05-23 15:02:17.880000+09:00,2024,5,23,6,2,17,880,,,,,,,,,-0.310059,0.001953,-0.041504,79.040527,15.075684,3.173828,,,,,,,,,,,0.0,1.0,1.0,0.0,0.0,0.0,0.0,4.0,0.0,,,,,,,0.4463401958356412,1.085826057043428,4.1144793470569825,8.632814182500367,7.747179175221587,-3.9859441887332188,12.265073051484961,,13.819912065806168,,,,,,,,,
LBP08_S00,LBP08,23,24,0,23,23,1716444137.92,2024-05-23 06:02:17.920000+00:00,2024-05-23 15:02:17.920000+09:00,2024,5,23,6,2,17,920,,,,,,,,,0.038574,0.058594,0.300049,19.897461,-116.149902,-21.362305,,,,,,,,,,,0.0,1.0,1.0,0.0,0.0,0.0,0.0,4.0,0.0,,,,,,,13.539852615738976,0.9447784251649167,1.0359062737844318,9.174408287129925,7.784970312228183,-3.9445079377818413,12.6623328440085,,13.876724870192145,,,,,,,,,
LBP08_S00,LBP08,24,25,0,24,24,1716444137.96,2024-05-23 06:02:17.960000+00:00,2024-05-23 15:02:17.960000+09:00,2024,5,23,6,2,17,960,,,,,,,,,0.410645,-0.398682,1.054932,9.460449,-101.013184,-22.888184,,,,,,,,,,,0.0,1.0,1.0,0.0,0.0,0.0,0.0,4.0,0.0,,,,,,,23.69867329504949,1.148513168280489,-3.0452933683613854,10.122355218931904,7.830910838959403,-4.066319672516297,13.428335541870513,,14.170053376446267,,,,,,,,,
LBP08_S00,LBP08,25,26,0,25,25,1716444138.0,2024-05-23 06:02:18+00:00,2024-05-23 15:02:18+09:00,2024,5,23,6,2,18,0,6.0,2.0,16.0,40.549068,141.545746,9.892,3.0,11.0,0.224609,0.009766,1.277832,-2.685547,9.58252,0.732422,-558.0,9.0,590.0,519.0,0.0,1023.599976,34.66,0.105044,-85.766052,4.057031,0.0,1.0,1.0,0.0,0.0,0.0,0.0,3.0,0.0,,,,,,,29.5412060964363,2.194615277669633,-7.5950774768610865,11.304003462789357,7.918695450066188,-4.37012277159074,14.47702334585493,,14.644051508555648,,,,,,,,,
LBP08_S00,LBP08,26,27,0,26,26,1716444138.04,2024-05-23 06:02:18.040000+00:00,2024-05-23 15:02:18.040000+09:00,2024,5,23,6,2,18,40,,,,,,,,,0.00293,-0.664307,1.707275,24.719238,18.676758,-8.239746,,,,,,,,,,,0.0,1.0,1.0,0.0,0.0,0.0,0.0,3.0,0.0,,,,,,,30.303984315830345,4.075185524913778,-11.992995486549782,12.51616283542257,8.08170287106274,-4.849842591052731,15.668095818476026,,15.217046207787941,,,,,,,,,
LBP08_S00,LBP08,27,28,0,27,27,1716444138.08,2024-05-23 06:02:18.080000+00:00,2024-05-23 15:02:18.080000+09:00,2024,5,23,6,2,18,80,,,,,,,,,-0.01123,-0.755127,1.884033,98.632812,17.272949,-8.361816,,,,,,,,,,,0.0,1.0,1.0,0.0,0.0,0.0,0.0,3.0,0.0,,,,,,,25.885216834106526,6.302065593570079,-15.597159002435374,13.55157150878683,8.333785494805543,-5.473728951150146,16.824350794662283,,15.797325131045309,,,,,,,,,
LBP08_S00,LBP08,28,29,0,28,28,1716444138.12,2024-05-23 06:02:18.120000+00:00,2024-05-23 15:02:18.120000+09:00,2024,5,23,6,2,18,120,,,,,,,,,0.089355,-0.574463,1.493164,-27.038574,139.526367,31.311035,,,,,,,,,,,0.0,1.0,1.0,0.0,0.0,0.0,0.0,3.0,0.0,,,,,,,16.838362944451728,8.161164387880076,-17.807558485376187,14.2251060265649,8.660232070320745,-6.186031290565193,17.765704154541037,,16.29634297502206,,,,,,,,,
LBP08_S00,LBP08,29,30,0,29,29,1716444138.16,2024-05-23 06:02:18.160000+00:00,2024-05-23 15:02:18.160000+09:00,2024,5,23,6,2,18,160,,,,,,,,,-0.486328,-0.113281,0.033936,-75.98877,15.258789,-57.739258,,,,,,,,,,,0.0,1.0,1.0,0.0,0.0,0.0,0.0,3.0,0.0,,,,,,,4.312844153142657,9.001399537203127,-18.153900585839324,14.397619792690605,9.02028805180887,-6.912187313998766,18.34217505358314,,16.637316604314496,,,,,,,,,
LBP08_S00,LBP08,30,31,0,30,30,1716444138.2,2024-05-23 06:02:18.200000+00:00,2024-05-23 15:02:18.200000+09:00,2024,5,23,6,2,18,200,,,,,,,,,0.355469,-0.188965,0.59375,137.939453,-112.243652,-52.79541,,,,,,,,,,,0.0,1.0,1.0,0.0,0.0,0.0,0.0,3.0,0.0,,,,,,,-10.063150858274483,8.399173269733305,-16.40730624218546,13.995093758359626,9.356254982598204,-7.568479563686184,18.457628220077616,,16.76133196470733,,,,,,,,,
LBP08_S00,LBP08,31,32,0,31,31,1716444138.24,2024-05-23 06:02:18.240000+00:00,2024-05-23 15:02:18.240000+09:00,2024,5,23,6,2,18,240,,,,,,,,,0.432861,-0.371338,1.343994,-73.303223,-52.612305,-5.126953,,,,,,,,,,,0.0,1.0,1.0,0.0,0.0,0.0,0.0,3.0,0.0,,,,,,,-24.35904935406651,6.178422746261425,-12.675029230392166,13.020731784196967,9.603391892448661,-8.07548073290187,18.08253248589409,,16.63328825176987,,,,,,,,,
LBP08_S00,LBP08,32,33,0,32,32,1716444138.28,2024-05-23 06:02:18.280000+00:00,2024-05-23 15:02:18.280000+09:00,2024,5,23,6,2,18,280,,,,,,,,,0.108643,-0.73999,1.778564,-39.794922,29.47998,-6.591797,,,,,,,,,,,0.0,1.0,1.0,0.0,0.0,0.0,0.0,3.0,0.0,,,,,,,-36.582024489435675,2.3929222549641085,-7.421849961182839,11.55745080461954,9.699108782647226,-8.372354731349184,17.255251491252466,,16.24683853013732,,,,,,,,,
LBP08_S00,LBP08,33,34,0,33,33,1716444138.32,2024-05-23 06:02:18.320000+00:00,2024-05-23 15:02:18.320000+09:00,2024,5,23,6,2,18,320,,,,,,,,,-0.02417,-0.637695,1.802734,-83.374023,20.019531,13.916016,,,,,,,,,,,0.0,1.0,1.0,0.0,0.0,0.0,0.0,3.0,0.0,,,,,,,-44.97154092161025,-2.6212944403903573,-1.3917135835309142,9.75858916775513,9.594257005031611,-8.42802327469042,16.072069136932846,,15.626146554909056,-1.3633121325590405,,,,,,,,
LBP08_S00,LBP08,34,35,0,34,34,1716444138.36,2024-05-23 06:02:18.360000+00:00,2024-05-23 15:02:18.360000+09:00,2024,5,23,6,2,18,360,,,,,,,,,0.102295,-0.400879,1.455078,-15.50293,89.233398,12.817383,,,,,,,,,,,0.0,1.0,1.0,0.0,0.0,0.0,0.0,3.0,0.0,,,,,,,-48.29921064928576,-8.139600217993374,4.544872402090512,7.8266207417836995,9.268672996311876,-8.2462283786068,14.668489145798892,,14.824119612074501,-1.361641628634508,,,,,,,,
LBP08_S00,LBP08,35,36,0,35,35,1716444138.4,2024-05-23 06:02:18.400000+00:00,2024-05-23 15:02:18.400000+09:00,2024,5,23,6,2,18,400,,,,,,,,,-0.570557,-0.149902,-0.051758,-56.70166,79.101562,12.268066,,,,,,,,,,,0.0,1.0,1.0,0.0,0.0,0.0,0.0,3.0,0.0,,,,,,,-46.099697336342054,-13.029626545375754,9.560556284018597,5.9826328483300175,8.747487934496846,-7.863806127246056,13.1965862164803,,13.918230618328286,-1.3556423803467101,,,,,,,,
LBP08_S00,LBP08,36,37,0,36,36,1716444138.44,2024-05-23 06:02:18.440000+00:00,2024-05-23 15:02:18.440000+09:00,2024,5,23,6,2,18,440,,,,,,,,,-0.007812,0.164551,0.137451,-51.635742,-104.675293,10.009766,,,,,,,,,,,0.0,1.0,1.0,0.0,0.0,0.0,0.0,3.0,0.0,,,,,,,-38.77423329881777,-15.959456100537551,13.00655320463495,4.431663516377307,8.109109690475343,-7.343543999060658,11.803598602150558,,13.003198822519284,-1.360575375396765,,,,,,,,
LBP08_S00,LBP08,37,38,0,37,37,1716444138.48,2024-05-23 06:02:18.480000+00:00,2024-05-23 15:02:18.480000+09:00,2024,5,23,6,2,18,480,,,,,,,,,0.415527,-0.513672,0.65332,-61.523438,-149.658203,12.817383,,,,,,,,,,,0.0,1.0,1.0,0.0,0.0,0.0,0.0,3.0,0.0,0.04974282666666667,-0.24299806666666665,0.9901334533333332,6.536458266666667,0.6168619599999992,-3.9046223866666665,-27.54102520476499,-15.828148629616207,14.490885853133513,3.330022508186707,7.475983745290694,-6.763908564935317,10.617431042379607,-1.3633121325590405,12.177900414151551,-1.3683263432325883,0.3657841733333333,-0.27067393333333334,-0.33681345333333323,0.9732715599999998,0.5661322654588884,0.5661322654588884,0.5661322654588884,0.5661322654588884
LBP08_S00,LBP08,38,39,0,38,38,1716444138.52,2024-05-23 06:02:18.520000+00:00,2024-05-23 15:02:18.520000+09:00,2024,5,23,6,2,18,520,,,,,,,,,0.398193,0.187012,0.887939,42.175293,-32.287598,-7.93457,,,,,,,,,,,0.0,1.0,1.0,0.0,0.0,0.0,0.0,3.0,0.0,0.052832026666666664,-0.25408205333333334,1.0195638,7.9500324933333335,-1.624348973333334,-3.6263020800000003,-14.23246582857662,-12.227815919559381,13.90522517539892,2.760723875043642,6.9868711085083195,-6.20769955791936,9.745434726195464,-1.359971124709976,11.528359438638354,-1.3702086099578104,0.3453609733333334,0.44109405333333335,-0.1316248,0.9180798266666668,0.5754678564114741,0.5708000609351813,0.5708000609351813,0.5708000609351813
LBP08_S00,LBP08,39,40,0,39,39,1716444138.56,2024-05-23 06:02:18.560000+00:00,2024-05-23 15:02:18.560000+09:00,2024,5,23,6,2,18,560,,,,,,,,,0.115479,-1.156738,1.615234,-75.927734,12.329102,30.273438,,,,,,,,,,,0.0,1.0,1.0,0.0,0.0,0.0,0.0,3.0,0.0,0.05824218666666667,-0.25920576,1.0452864533333333,8.096516866666667,1.0237630133333324,-2.78238932,-0.964584339154456,-5.674007914943518,11.419795689621722,2.722140501477464,6.7599107919105785,-5.750907730334491,9.283285116121021,-1.3436438837711135,11.114451653516213,-1.3693282205052948,0.05723681333333333,-0.8975322400000001,0.5699475466666668,1.5247166,1.06474427943583,0.7354481337687307,0.7354481337687307,0.7354481337687307
LBP08_S00,LBP08,40,41,0,40,40,1716444138.6,2024-05-23 06:02:18.600000+00:00,2024-05-23 15:02:18.600000+09:00,2024,5,23,6,2,18,600,,,,,,,,,-0.123047,-0.381836,1.599854,74.951172,-0.366211,3.173828,,,,,,,,,,,0.0,1.0,1.0,0.0,0.0,0.0,0.0,3.0,0.0,0.04660156,-0.24146813333333336,1.0377994666666668,9.669596293333335,4.060872386666666,-1.9449869733333336,10.26287847203357,2.544915948308702,7.46086302372673,3.1326556403588066,6.861707429842927,-5.452473209385422,9.307310261987576,-1.3753743605469309,10.965106265312793,-1.369940424407612,-0.16964856,-0.14036786666666665,0.5620545333333333,0.87207096,0.6036464779514379,0.7024977198144076,0.7024977198144076,0.7024977198144076
LBP08_S00,LBP08,41,42,0,41,41,1716444138.64,2024-05-23 06:02:18.640000+00:00,2024-05-23 15:02:18.640000+09:00,2024,5,23,6,2,18,640,,,,,,,,,0.152832,0.132568,1.728027,89.233398,81.542969,0.0,,,,,,,,,,,0.0,1.0,1.0,0.0,0.0,0.0,0.0,3.0,0.0,0.041897786666666666,-0.24868167999999996,1.03121092,10.258789,3.2194010266666653,-0.9969075466666667,17.94861367959881,10.831047401133732,2.6690827697517125,3.850600187542759,7.294949325888276,-5.345709898595354,9.829548402216782,-1.3993302145758812,11.0806147662853,-1.3707365167314964,0.11093421333333334,0.3812496799999999,0.6968160800000001,1.1889999733333334,0.80200396977481,0.722398969806488,0.722398969806488,0.722398969806488
LBP08_S00,LBP08,42,43,0,42,42,1716444138.68,2024-05-23 06:02:18.680000+00:00,2024-05-23 15:02:18.680000+09:00,2024,5,23,6,2,18,680,,,,,,,,,-0.294678,-0.31958,0.695801,-87.402344,172.363281,52.062988,,,,,,,,,,,0.0,1.0,1.0,0.0,0.0,0.0,0.0,3.0,0.0,0.04445313333333334,-0.23543949333333336,1.0254459466666668,11.645507760000001,1.979980466666666,-0.48746744000000014,21.361439466998746,17.816316169000757,-2.1763791578668474,4.705057766222709,8.007601972648306,-5.432765064910027,10.759841736120496,-1.379619943583921,11.438472700964393,-1.3742095034075543,-0.33913113333333333,-0.08414050666666661,-0.32964494666666677,0.7529165866666667,0.48037000460160295,0.6820608089390072,0.6820608089390072,0.6820608089390072
LBP08_S00,LBP08,43,44,0,43,43,1716444138.72,2024-05-23 06:02:18.720000+00:00,2024-05-23 15:02:18.720000+09:00,2024,5,23,6,2,18,720,,,,,,,,,-0.017334,-0.062256,0.105713,37.04834,-61.401367,-33.752441,,,,,,,,,,,0.0,1.0,1.0,0.0,0.0,0.0,0.0,3.0,0.0,0.051627613333333336,-0.2531738666666667,1.0282519333333335,12.032877546666667,1.9254557333333324,1.123046893333333,20.639312923896476,22.717721827568013,-6.280773530266114,5.530630283178568,8.916310845751026,-5.683996006120672,11.932991285711433,-1.364045883790201,11.999654808685,-1.380770238766147,-0.06896161333333334,0.19091786666666669,-0.9225389333333336,1.1824184133333335,0.9446075478429612,0.7195674859252863,0.7195674859252863,0.7195674859252863
LBP08_S00,LBP08,44,45,0,44,44,1716444138.76,2024-05-23 06:02:18.760000+00:00,2024-05-23 15:02:18.760000+09:00,2024,5,23,6,2,18,760,,,,,,,,,0.43042,0.23584,1.038574,97.65625,-90.209961,-55.480957,,,,,,,,,,,0.0,1.0,1.0,0.0,0.0,0.0,0.0,3.0,0.0,0.048701186666666674,-0.2514453466666667,1.0307942533333334,13.583170506666667,1.7838541733333326,1.6682942799999998,16.706000225464898,25.37244593639218,-8.993314851326682,6.198870292197164,9.931208683206712,-6.043728600173739,13.175035263764684,-1.374225851723833,12.713038125785701,-1.3875323205581762,0.38171881333333335,0.4872853466666667,0.007779746666666698,0.8767839066666667,0.6190450597386745,0.7070021826519599,0.7070021826519599,0.7070021826519599
LBP08_S00,LBP08,45,46,0,45,45,1716444138.8,2024-05-23 06:02:18.800000+00:00,2024-05-23 15:02:18.800000+09:00,2024,5,23,6,2,18,800,,,,,,,,,0.326172,-0.689697,1.792969,-39.0625,42.785645,-2.990723,,,,,,,,,,,0.0,1.0,1.0,0.0,0.0,0.0,0.0,3.0,0.0,0.04686198666666667,-0.2452637066666667,1.0358300533333336,10.493164,0.6209309999999993,1.5275065199999998,11.031575828153965,26.013080867658626,-9.9583977019371,6.640133325323323,10.971731917913058,-6.442064508251223,14.351671226205385,-1.3771052553225707,13.517171318097027,-1.3944043760160896,0.27931001333333333,-0.4444332933333333,0.7571389466666665,1.4808822533333332,0.9213003963588037,0.7308130952860536,0.7308130952860536,0.7308130952860536
LBP08_S00,LBP08,46,47,0,46,46,1716444138.84,2024-05-23 06:02:18.840000+00:00,2024-05-23 15:02:18.840000+09:00,2024,5,23,6,2,18,840,,,,,,,,,-0.606934,0.12915,1.867188,88.378906,52.490234,8.178711,,,,,,,,,,,0.0,1.0,1.0,0.0,0.0,0.0,0.0,3.0,0.0,0.042203786666666666,-0.2605469066666667,1.0396874666666667,5.66731764,2.6106770933333325,1.9295247599999996,5.272635504446885,24.976090019213665,-9.196735380192383,6.851038745501198,11.970775518681604,-6.809933923458918,15.382177948941496,-1.4054663834920755,14.341841886821149,-1.3966976659940382,-0.6491377866666667,0.3896969066666667,0.8275005333333334,1.8663352266666668,1.1216062935856854,0.7698924151160168,0.7698924151160168,0.7698924151160168
LBP08_S00,LBP08,47,48,0,47,47,1716444138.88,2024-05-23 06:02:18.880000+00:00,2024-05-23 15:02:18.880000+09:00,2024,5,23,6,2,18,880,,,,,,,,,-0.079102,-0.456543,1.894043,-130.310059,-36.315918,-23.193359,,,,,,,,,,,0.0,1.0,1.0,0.0,0.0,0.0,0.0,3.0,0.0,0.03745769333333333,-0.2708594,1.03721676,4.994303306666667,2.583821626666666,1.5901692933333331,0.8500295197644451,22.51582372849111,-7.0784928544558845,6.885039926291776,12.871408467821249,-7.093073637637153,16.22925211958566,-1.4289194861449643,15.113985391938812,-1.397197159900121,-0.11655969333333334,-0.1856836,0.85682624,1.1590695333333332,0.8844296280493198,0.7803048890190444,0.7803048890190444,0.7803048890190444
LBP08_S00,LBP08,48,49,0,48,48,1716444138.92,2024-05-23 06:02:18.920000+00:00,2024-05-23 15:02:18.920000+09:00,2024,5,23,6,2,18,920,,,,,,,,,0.14209,-0.531006,1.616211,-26.367188,127.075195,9.70459,,,,,,,,,,,0.0,1.0,1.0,0.0,0.0,0.0,0.0,3.0,0.0,0.03622721333333333,-0.2588639466666667,1.0322753599999999,4.463704346666667,2.1997070399999994,0.9700521066666662,-1.4285459815286918,18.772438459754515,-4.198418203269331,6.827898087030628,13.62230600621143,-7.261010365767927,16.879267897202467,-1.4275919426302728,15.767924656974884,-1.4005543417560888,0.10586278666666667,-0.2721420533333333,0.5839356400000002,0.9619404800000002,0.6528775217876052,0.7696859417497577,0.7696859417497577,0.7696859417497577
LBP08_S00,LBP08,49,50,0,49,49,1716444138.96,2024-05-23 06:02:18.960000+00:00,2024-05-23 15:02:18.960000+09:00,2024,5,23,6,2,18,960,,,,,,,,,-0.68335,0.571777,-0.213867,33.14209,39.672852,-24.108887,,,,,,,,,,,0.0,1.0,1.0,0.0,0.0,0.0,0.0,3.0,0.0,0.03944661333333333,-0.2541569066666667,1.02689776,2.5463866399999997,1.843261719999999,0.681152373333333,-1.5653562830391625,13.83703421207782,-1.1977937354809267,6.765283835709062,14.175787374694542,-7.308922115187164,17.3246170392343,-1.4123644383502456,16.254115964351925,-1.4054881780756168,-0.7227966133333333,0.8259339066666667,-1.24076476,2.7894952799999997,1.6565322067758466,0.8379048852133031,0.8379048852133031,0.8379048852133031
LBP08_S00,LBP08,50,51,0,50,50,1716444139.0,2024-05-23 06:02:19+00:00,2024-05-23 15:02:19+09:00,2024,5,23,6,2,19,0,6.0,2.0,17.0,40.549019,141.545853,8.193,3.0,11.0,0.256104,-0.28125,0.758057,25.939941,-146.728516,40.344238,-568.0,11.0,586.0,724.0,0.0,1023.700012,34.700001,0.106035,-86.591583,4.057031,0.0,1.0,1.0,0.0,0.0,0.0,0.0,3.0,0.0,0.042942706666666663,-0.25367187999999996,1.0269465866666667,1.1385090266666669,2.114257813333333,0.9684245066666664,-0.2991393893639227,7.836559682617037,1.4121842080837976,6.753318260134505,14.489249761999224,-7.252434746863812,17.554015949228777,-1.3983072603264164,16.542971361475665,-1.4095055358679325,0.21316129333333333,-0.02757812000000004,-0.26888958666666674,0.5096290000000001,0.3442381435809296,0.802642975096705,0.802642975096705,0.802642975096705
LBP08_S00,LBP08,51,52,0,51,51,1716444139.04,2024-05-23 06:02:19.040000+00:00,2024-05-23 15:02:19.040000+09:00,2024,5,23,6,2,19,40,,,,,,,,,0.737793,-0.291504,1.677734,-116.760254,21.66748,17.272949,,,,,,,,,,,0.0,1.0,1.0,0.0,0.0,0.0,0.0,3.0,0.0,0.04392577333333333,-0.27,1.0305728933333334,0.5737303866666669,2.0515950533333327,1.606445333333333,1.2226290493995884,1.007420402856934,3.372935441685176,6.8022234221104885,14.529546578113502,-7.117517329196405,17.550983453393414,-1.404325153636709,16.625239182819048,-1.4132117043907229,0.6938672266666667,-0.021503999999999968,0.6471611066666667,1.3625323333333332,0.9490688321929639,0.8124046989031223,0.8124046989031223,0.8124046989031223
LBP08_S00,LBP08,52,53,0,52,52,1716444139.08,2024-05-23 06:02:19.080000+00:00,2024-05-23 15:02:19.080000+09:00,2024,5,23,6,2,19,80,,,,,,,,,-0.638184,-0.132324,1.797852,108.703613,74.21875,17.51709,,,,,,,,,,,0.0,1.0,1.0,0.0,0.0,0.0,0.0,3.0,0.0,0.041806626666666666,-0.2717578133333333,1.0350195066666668,1.5226236133333335,2.1842447866666657,1.7521159066666663,1.9106555270136523,-6.227183905670246,4.703673741721328,6.878649643191035,14.280459221886693,-6.929370379527551,17.29923438648123,-1.4131917621435985,16.510964021600742,-1.4136833307707004,-0.6799906266666667,0.13943381333333332,0.7628324933333333,1.5822569333333332,1.031378908811088,0.82609058702237,0.82609058702237,0.82609058702237
LBP08_S00,LBP08,53,54,0,53,53,1716444139.12,2024-05-23 06:02:19.120000+00:00,2024-05-23 15:02:19.120000+09:00,2024,5,23,6,2,19,120,,,,,,,,,-0.145264,-0.218506,1.90918,141.540527,-32.775879,-28.381348,,,,,,,,,,,0.0,1.0,1.0,0.0,0.0,0.0,0.0,3.0,0.0,0.04103514666666667,-0.26672201333333334,1.03784828,3.603515533333334,2.819010413333332,2.309570333333333,1.1707747772745714,-13.17986743193013,5.614441625628071,6.925480634282017,13.753264524609488,-6.704792714502428,16.794904359481833,-1.413384246985483,16.227375231341128,-1.4127951264044758,-0.18629914666666667,0.048216013333333335,0.8713317200000001,1.10584688,0.8923290437213434,0.829986966828192,0.829986966828192,0.829986966828192
LBP08_S00,LBP08,54,55,0,54,54,1716444139.16,2024-05-23 06:02:19.160000+00:00,2024-05-23 15:02:19.160000+09:00,2024,5,23,6,2,19,160,,,,,,,,,0.085449,-0.709473,1.280273,-67.504883,25.57373,-4.638672,,,,,,,,,,,0.0,1.0,1.0,0.0,0.0,0.0,0.0,3.0,0.0,0.03984373333333333,-0.2603645866666667,1.0346484133333333,4.012857986666667,2.833658839999999,2.403157573333333,-0.8666339480454128,-18.891132627744465,6.3408310050677406,6.890815276360201,12.99761921949971,-6.451159474299718,16.06358923500207,-1.4143994296469886,15.815124651038957,-1.4119384631873866,0.045605266666666665,-0.44910841333333335,0.24562458666666664,0.7403382666666667,0.5139159900700627,0.8124274681194071,0.8124274681194071,0.8124274681194071
LBP08_S00,LBP08,55,56,0,55,55,1716444139.2,2024-05-23 06:02:19.200000+00:00,2024-05-23 15:02:19.200000+09:00,2024,5,23,6,2,19,200,,,,,,,,,-0.438477,0.569092,-0.240234,3.540039,71.777344,-10.314941,,,,,,,,,,,0.0,1.0,1.0,0.0,0.0,0.0,0.0,3.0,0.0,0.0403906,-0.26367513333333337,1.0386393066666666,2.4527993866666664,2.833658839999999,2.325846373333333,-3.4411904717338224,-22.284463460696365,6.977042447232496,6.753167657490849,12.106240681071855,-6.172077776410418,15.174349439639215,-1.4141669405504742,15.322629112652297,-1.4115373944260277,-0.4788676,0.8327671333333334,-1.2788733066666667,2.59050804,1.5994787310853844,0.8538512188018269,0.8538512188018269,0.8538512188018269
LBP08_S00,LBP08,56,57,0,56,56,1716444139.24,2024-05-23 06:02:19.240000+00:00,2024-05-23 15:02:19.240000+09:00,2024,5,23,6,2,19,240,,,,,,,,,0.016602,0.316406,-0.038574,-57.312012,-96.374512,-2.441406,,,,,,,,,,,0.0,1.0,1.0,0.0,0.0,0.0,0.0,3.0,0.0,0.04196286666666667,-0.2671191466666667,1.04559244,3.764648346666667,3.656412746666666,2.3819987066666664,-5.549091254940221,-22.509965457652626,7.388406318469583,6.53120400729324,11.20584206276575,-5.876541523671635,14.239426336758457,-1.410182647291851,14.799380227202747,-1.4136812990491796,-0.02536086666666667,0.5835251466666667,-1.0841664400000002,1.6930524533333335,1.2314875719927967,0.8727330364613755,0.8727330364613755,0.8727330364613755
LBP08_S00,LBP08,57,58,0,57,57,1716444139.28,2024-05-23 06:02:19.280000+00:00,2024-05-23 15:02:19.280000+09:00,2024,5,23,6,2,19,280,,,,,,,,,0.447754,-0.429932,0.376709,-117.980957,-169.433594,37.29248,,,,,,,,,,,0.0,1.0,1.0,0.0,0.0,0.0,0.0,3.0,0.0,0.04011716,-0.27260416,1.0521484266666665,5.545247306666667,3.5970051999999986,2.299804693333333,-6.425750187979001,-19.372063460380758,7.244220884021197,6.27417399977408,10.43095952435052,-5.586772688310788,13.393364216989518,-1.4200374424827198,14.290234717972577,-1.4150861384099729,0.40763684,-0.15732784,-0.6754394266666666,1.2404041066666665,0.8044490423016529,0.8694814176918648,0.8694814176918648,0.8694814176918648
LBP08_S00,LBP08,58,59,0,58,58,1716444139.32,2024-05-23 06:02:19.320000+00:00,2024-05-23 15:02:19.320000+09:00,2024,5,23,6,2,19,320,,,,,,,,,0.53125,-0.413818,0.852295,-64.697266,-83.92334,12.634277,,,,,,,,,,,0.0,1.0,1.0,0.0,0.0,0.0,0.0,3.0,0.0,0.039391239999999994,-0.2654166666666667,1.05307616,5.638020746666667,3.1233723866666656,2.0914713599999994,-5.866979641497847,-13.619537935760698,6.1520759678647154,6.039494814114166,9.886178006920092,-5.340689649596199,12.756762094180733,-1.4190253104593789,13.832762988456642,-1.4144660847825428,0.49185876,-0.14840133333333333,-0.20078116000000001,0.8410412533333333,0.5515986491415604,0.8550322009395782,0.8550322009395782,0.8550322009395782
LBP08_S00,LBP08,59,60,0,59,59,1716444139.36,2024-05-23 06:02:19.360000+00:00,2024-05-23 15:02:19.360000+09:00,2024,5,23,6,2,19,360,,,,,,,,,0.348633,-0.510498,1.388184,130.859375,55.358887,-3.295898,,,,,,,,,,,0.0,1.0,1.0,0.0,0.0,0.0,0.0,3.0,0.0,0.04175126666666667,-0.26226888000000004,1.0576204266666664,6.2516275199999995,3.0232747333333325,2.2778320399999994,-4.224381917787645,-6.869540693554203,3.830914929803969,5.87051953740266,9.611396379177924,-5.187453052404041,12.399661655367732,-1.4083537507366561,13.457934167981298,-1.4138689381370917,0.30688173333333335,-0.24822911999999997,0.33056357333333364,0.885674426666667,0.5148459675325696,0.8402414951392735,0.8402414951392735,0.8402414951392735
LBP08_S00,LBP08,60,61,0,60,60,1716444139.4,2024-05-23 06:02:19.400000+00:00,2024-05-23 15:02:19.400000+09:00,2024,5,23,6,2,19,400,,,,,,,,,0.005371,-0.635498,1.815186,111.694336,48.76709,8.972168,,,,,,,,,,,0.0,1.0,1.0,0.0,0.0,0.0,0.0,3.0,0.0,0.03858396,-0.26093424,1.0566015466666665,4.915364506666667,3.2006835866666656,2.625325533333333,-2.1102304612003326,-1.0988800509315428,0.2523985586077133,5.786110318954647,9.567441177140662,-5.177357110059733,12.321527094733273,-1.4197463065579372,13.191940497374123,-1.413831066326676,-0.03321296,-0.37456376,0.7585844533333335,1.1663611733333334,0.8466708237894651,0.8405093838330315,0.8405093838330315,0.8405093838330315
LBP08_S00,LBP08,61,62,0,61,61,1716444139.44,2024-05-23 06:02:19.440000+00:00,2024-05-23 15:02:19.440000+09:00,2024,5,23,6,2,19,440,,,,,,,,,0.134766,-0.104004,1.801025,-16.296387,59.875488,0.488281,,,,,,,,,,,0.0,1.0,1.0,0.0,0.0,0.0,0.0,3.0,0.0,0.03938149333333334,-0.2640429733333333,1.0582454266666665,4.633788986666667,3.108723946666666,3.224283866666666,-0.026980721365144646,2.1108787368105135,-4.297486011295349,5.78503109010004,9.651876326613083,-5.349256550511547,12.459528361091715,-1.4183735472446413,13.056243321191527,-1.4125734241019952,0.09538450666666666,0.16003897333333333,0.7427795733333336,0.9982030533333335,0.7657885946257491,0.8375205522647403,0.8375205522647403,0.8375205522647403
LBP08_S00,LBP08,62,63,0,62,62,1716444139.48,2024-05-23 06:02:19.480000+00:00,2024-05-23 15:02:19.480000+09:00,2024,5,23,6,2,19,480,,,,,,,,,-0.074707,0.022705,0.999756,-25.024414,165.893555,7.8125,,,,,,,,,,,0.0,1.0,1.0,0.0,0.0,0.0,0.0,3.0,0.0,0.041676413333333336,-0.25942382666666663,1.0573762800000002,4.487304613333334,3.342285146666666,2.9663086133333323,1.8401960943168023,2.2162829756433515,-9.25417605835144,5.8586389338727125,9.740527645638817,-5.7194235928456045,12.724517091321863,-1.4069912258692978,13.064993023958355,-1.4127339620806711,-0.11638341333333332,0.2821288266666666,-0.05762028000000019,0.45613252000000015,0.3105831135182754,0.8272985861871156,0.8172537276975684,0.8172537276975684
LBP08_S00,LBP08,63,64,0,63,63,1716444139.52,2024-05-23 06:02:19.520000+00:00,2024-05-23 15:02:19.520000+09:00,2024,5,23,6,2,19,520,,,,,,,,,-0.311768,-0.101807,-0.07251,-106.018066,-7.080078,-26.123047,,,,,,,,,,,0.0,1.0,1.0,0.0,0.0,0.0,0.0,3.0,0.0,0.04333982666666667,-0.27108724,1.0631054533333333,4.93489576,3.765462226666666,3.312174493333333,3.5847864045253965,-0.08832246327727543,-13.899634109621367,6.002030390053728,9.736994747107726,-6.275408957230459,13.046616154728406,-1.4074127805309713,13.222130643961165,-1.4109211116018636,-0.3551078266666667,0.16928024000000003,-1.1356154533333334,1.66000352,1.2018235419827044,0.852352813609965,0.8314970541525736,0.8314970541525736
LBP08_S00,LBP08,64,65,0,64,64,1716444139.56,2024-05-23 06:02:19.560000+00:00,2024-05-23 15:02:19.560000+09:00,2024,5,23,6,2,19,560,,,,,,,,,-0.015137,-0.237549,0.022217,-3.601074,-142.456055,-20.996094,,,,,,,,,,,0.0,1.0,1.0,0.0,0.0,0.0,0.0,3.0,0.0,0.0416992,-0.27202148,1.06739908,4.483235613333334,3.8321939999999994,3.7361653733333333,5.407391887523185,-3.230980668229425,-17.544840707223987,6.218326065554656,9.607755520378548,-6.977202585519419,13.403652528930307,-1.4140207115428314,13.521620443181595,-1.4096495692092037,-0.056836199999999996,0.03447247999999997,-1.04518208,1.13649076,1.0472937915699285,0.8516547940953287,0.8392040804889076,0.8392040804889076
LBP08_S00,LBP08,65,66,0,65,65,1716444139.6,2024-05-23 06:02:19.600000+00:00,2024-05-23 15:02:19.600000+09:00,2024,5,23,6,2,19,600,,,,,,,,,0.469727,0.13208,0.556396,6.774902,-146.362305,-42.602539,,,,,,,,,,,0.0,1.0,1.0,0.0,0.0,0.0,0.0,3.0,0.0,0.04480141333333333,-0.27029296,1.06667968,2.013346293333333,4.235026039999999,4.104817706666666,7.495998413504795,-5.504573935484355,-19.71375968377094,6.518166002094848,9.387572562959175,-7.765752972870256,13.817377677813264,-1.401590518303667,13.952224220956367,-1.4090034356785495,0.4249255866666667,0.40237296,-0.51028368,1.3375822266666666,0.7764374973025935,0.8585664348693751,0.8370397155514485,0.8370397155514485
LBP08_S00,LBP08,66,67,0,66,66,1716444139.64,2024-05-23 06:02:19.640000+00:00,2024-05-23 15:02:19.640000+09:00,2024,5,23,6,2,19,640,,,,,,,,,0.272705,-0.555908,1.016602,85.632324,-9.765625,-49.865723,,,,,,,,,,,0.0,1.0,1.0,0.0,0.0,0.0,0.0,3.0,0.0,0.04157225333333334,-0.2671614533333333,1.0586555866666667,1.86767572,4.531249999999999,3.912760413333333,10.050170902797449,-5.804375119771211,-20.26034502230562,6.920172838206746,9.155397558168326,-8.57616677376248,14.32692336442673,-1.4117880270786125,14.504980441911126,-1.4063918184878064,0.23113274666666664,-0.28874654666666666,-0.0420535866666667,0.56193288,0.372243762802191,0.8413760265904703,0.8215465171264733,0.8215465171264733
LBP08_S00,LBP08,67,68,0,67,67,1716444139.68,2024-05-23 06:02:19.680000+00:00,2024-05-23 15:02:19.680000+09:00,2024,5,23,6,2,19,680,,,,,,,,,-0.033691,-0.540283,1.444092,94.055176,42.053223,-11.779785,,,,,,,,,,,0.0,1.0,1.0,0.0,0.0,0.0,0.0,3.0,0.0,0.044414053333333335,-0.26848632,1.0585774533333334,1.98893224,3.425292973333333,4.908854159999999,13.382144881304326,-3.9918767255234964,-19.36463900586451,7.455458633458919,8.995722489147386,-9.350752333997061,14.96474041701762,-1.4019089376946443,15.17945951618691,-1.4041370320987159,-0.07810505333333334,-0.27179667999999996,0.3855145466666665,0.7354162799999998,0.478116408740414,0.8412858827560228,0.8104681265333746,0.8104681265333746
LBP08_S00,LBP08,68,69,0,68,68,1716444139.72,2024-05-23 06:02:19.720000+00:00,2024-05-23 15:02:19.720000+09:00,2024,5,23,6,2,19,720,,,,,,,,,0.043457,-0.668945,1.604736,39.978027,11.962891,-2.319336,,,,,,,,,,,0.0,1.0,1.0,0.0,0.0,0.0,0.0,3.0,0.0,0.043411439999999996,-0.26966470666666664,1.0584374799999998,0.16764317333333345,3.0664062533333323,5.950520826666666,17.93724798411845,-0.7551925714135461,-17.40002436861761,8.172948552823657,8.965514786290845,-10.046753308741765,15.751660086385044,-1.406309886532777,15.984938476046139,-1.4028459962695006,4.5560000000006984e-05,-0.39928029333333337,0.5462985200000001,0.9456243733333335,0.6766585754087927,0.8305679238586561,0.8062865780607315,0.8062865780607315
LBP08_S00,LBP08,69,70,0,69,69,1716444139.76,2024-05-23 06:02:19.760000+00:00,2024-05-23 15:02:19.760000+09:00,2024,5,23,6,2,19,760,,,,,,,,,0.159912,-0.331055,1.419189,-82.336426,101.867676,12.939453,,,,,,,,,,,0.0,1.0,1.0,0.0,0.0,0.0,0.0,3.0,0.0,0.044658186666666676,-0.27009113333333334,1.0545865733333333,0.8138020266666668,2.751464853333333,6.085611973333333,24.12719916667763,2.8762640360570955,-14.725901015027906,9.138036519490763,9.080565347733128,-10.63578934934288,16.705699433115452,-1.4018924154301162,16.935102330561058,-1.3987244131862755,0.11525381333333332,-0.060963866666666644,0.36460242666666676,0.5408201066666667,0.38721436447793106,0.8212946960482264,0.7935874200733739,0.7935874200733739
LBP08_S00,LBP08,70,71,0,70,70,1716444139.8,2024-05-23 06:02:19.800000+00:00,2024-05-23 15:02:19.800000+09:00,2024,5,23,6,2,19,800,,,,,,,,,-0.468018,0.045654,0.032715,-81.604004,106.933594,41.931152,,,,,,,,,,,0.0,1.0,1.0,0.0,0.0,0.0,0.0,3.0,0.0,0.04638018666666667,-0.2669921733333333,1.0523665333333332,2.8702798933333336,3.0607096533333324,6.339518226666667,32.02591677990318,6.0515975794620465,-11.505571206499004,10.41907319068689,9.322629250911609,-11.09601219760284,17.849089304280877,-1.3936301346505053,18.0386322121007,-1.3960678981663663,-0.5143981866666667,0.31264617333333333,-1.0196515333333331,1.846695893333333,1.1840787024412478,0.8318058282915242,0.8050724577900761,0.8050724577900761
LBP08_S00,LBP08,71,72,0,71,71,1716444139.84,2024-05-23 06:02:19.840000+00:00,2024-05-23 15:02:19.840000+09:00,2024,5,23,6,2,19,840,,,,,,,,,-0.168213,0.068604,-0.029541,132.568359,-78.857422,-42.663574,,,,,,,,,,,0.0,1.0,1.0,0.0,0.0,0.0,0.0,3.0,0.0,0.0457324,-0.2665820266666667,1.05485352,4.455566346666667,2.7555338799999993,6.417643226666666,41.11182275124517,8.381939619724939,-7.64526517855967,12.063546100736696,9.657906835700606,-11.401822804745228,19.20431910384954,-1.3958256833537361,19.290435265959367,-1.3959602780686455,-0.2139454,0.3351860266666667,-1.08439452,1.6335259466666667,1.155003801578063,0.8331417286112192,0.8150704961840185,0.8150704961840185
LBP08_S00,LBP08,72,73,0,72,72,1716444139.88,2024-05-23 06:02:19.880000+00:00,2024-05-23 15:02:19.880000+09:00,2024,5,23,6,2,19,880,,,,,,,,,0.522217,0.447754,0.828613,38.757324,-118.286133,-37.04834,,,,,,,,,,,0.0,1.0,1.0,0.0,0.0,0.0,0.0,3.0,0.0,0.04630857333333333,-0.26713541333333335,1.06247396,4.798177026666666,2.108561226666666,6.28173828,50.23569373956232,9.898805026307334,-2.889874025154519,14.072973850319189,10.0538590367529,-11.517417765751409,20.77930668991417,-1.3940808675771452,20.667314541899138,-1.3954354926308437,0.4759084266666667,0.7148894133333333,-0.2338609599999999,1.4246588,0.8900823852209081,0.8333678388980826,0.8171541597683765,0.8171541597683765
LBP08_S00,LBP08,73,74,0,73,73,1716444139.92,2024-05-23 06:02:19.920000+00:00,2024-05-23 15:02:19.920000+09:00,2024,5,23,6,2,19,920,,,,,,,,,0.431641,-1.203369,1.602783,23.376465,55.725098,-5.249023,,,,,,,,,,,0.0,1.0,1.0,0.0,0.0,0.0,0.0,3.0,0.0,0.053964826666666674,-0.26758464,1.0809342533333335,6.0489908266666665,3.578287799999999,6.3533528666666665,57.8555315542437,10.805916699340958,2.973359794080647,16.387195112488936,10.486095704726539,-11.398483373988183,22.548254699877564,-1.36619694969872,22.128508329859905,-1.3946114945340884,0.3776761733333333,-0.93578436,0.5218487466666666,1.83530928,1.1360712014314465,0.8526955860838363,0.8257735392727839,0.8257735392727839
LBP08_S00,LBP08,74,75,0,74,74,1716444139.96,2024-05-23 06:02:19.960000+00:00,2024-05-23 15:02:19.960000+09:00,2024,5,23,6,2,19,960,,,,,,,,,-0.407227,-0.892334,1.692139,192.138672,18.737793,33.813477,,,,,,,,,,,0.0,1.0,1.0,0.0,0.0,0.0,0.0,3.0,0.0,0.047685519999999995,-0.26453777333333334,1.07838868,6.638997333333333,4.955240919999999,6.370442706666666,62.43026408684105,11.241674822294035,9.904522990470138,18.884405675962576,10.935762697618301,-11.002302454369378,24.438951344326743,-1.3874555613437414,23.618962221382823,-1.3930077063192863,-0.45491252,-0.6277962266666666,0.6137503200000001,1.6964590666666666,0.9888189714855584,0.8259870566722247,0.8300642085415411,0.8300642085415411
LBP08_S00,LBP08,75,76,0,75,75,1716444140.0,2024-05-23 06:02:20+00:00,2024-05-23 15:02:20+09:00,2024,5,23,6,2,20,0,6.0,2.0,18.0,40.548965,141.545944,7.867,3.0,11.0,-0.103027,-0.300781,2.090088,61.950684,-56.82373,-4.516602,-564.0,9.0,586.0,1510.0,0.0,1024.0,34.759998,0.109008,-89.066772,4.057031,0.0,1.0,1.0,0.0,0.0,0.0,0.0,3.0,0.0,0.04262042666666666,-0.25454102666666667,1.0735351733333331,5.337727813333334,5.517578159999999,5.961100253333332,62.80257799756041,11.203974030474223,17.485405281619286,21.396508795864992,11.38392165883727,-10.302886243104606,26.335408216399962,-1.4005143173264567,25.073378116652208,-1.3926628320861274,-0.14564742666666666,-0.04623997333333335,1.016552826666667,1.208440226666667,1.027974200762101,0.8533364989594717,0.8351388237266837,0.8351388237266837
LBP08_S00,LBP08,76,77,0,76,76,1716444140.04,2024-05-23 06:02:20.040000+00:00,2024-05-23 15:02:20.040000+09:00,2024,5,23,6,2,20,40,,,,,,,,,0.383301,-0.246094,1.921875,-31.494141,126.89209,29.602051,,,,,,,,,,,0.0,1.0,1.0,0.0,0.0,0.0,0.0,3.0,0.0,0.04291665333333333,-0.2665397333333333,1.0759245066666665,2.9654947333333332,4.641927119999999,5.874837226666666,58.437278679348935,10.639265287727774,24.921125117368167,23.73399994303895,11.80949227034638,-9.306041238409879,28.095716123824445,-1.4065401727005942,26.420789525981043,-1.3919943504694823,0.34038434666666667,0.0204457333333333,0.8459504933333335,1.2067805733333334,0.9120919737823272,0.8518574246230464,0.8370626524780747,0.8370626524780747
LBP08_S00,LBP08,77,78,0,77,77,1716444140.08,2024-05-23 06:02:20.080000+00:00,2024-05-23 15:02:20.080000+09:00,2024,5,23,6,2,20,80,,,,,,,,,-0.620361,1.007324,-0.285889,76.843262,115.29541,5.310059,,,,,,,,,,,0.0,1.0,1.0,0.0,0.0,0.0,0.0,3.0,0.0,0.04560545333333334,-0.2619564,1.0778450800000001,4.191080666666667,4.701334666666666,5.85123696,49.47670244897529,9.584059133169067,31.168514947043683,25.71306804099796,12.192854635673143,-8.059300640528132,29.57667829662526,-1.3936689567270906,27.59052800447236,-1.3919809428196033,-0.6659664533333334,1.2692804,-1.3637340800000002,3.2989809333333335,1.9784728180450157,0.8897411809924033,0.8649019248089758,0.8649019248089758
LBP08_S00,LBP08,78,79,0,78,78,1716444140.12,2024-05-23 06:02:20.120000+00:00,2024-05-23 15:02:20.120000+09:00,2024,5,23,6,2,20,120,,,,,,,,,0.107422,-0.522705,0.337158,-25.268555,-126.098633,46.75293,,,,,,,,,,,0.0,1.0,1.0,0.0,0.0,0.0,0.0,3.0,0.0,0.04667968,-0.262959,1.0823437733333332,3.4651692,4.849446653333332,6.058756493333333,36.66983359302582,8.22838521323831,35.16685667281559,27.179861384718993,12.521990044202676,-6.652626373615508,30.656199001614244,-1.3902720043847576,28.520240094907006,-1.3941757687905016,0.06074232,-0.259746,-0.7451857733333331,1.065674093333333,0.791491914509163,0.8857076958239162,0.8631540674208849,0.8631540674208849
LBP08_S00,LBP08,79,80,0,79,79,1716444140.16,2024-05-23 06:02:20.160000+00:00,2024-05-23 15:02:20.160000+09:00,2024,5,23,6,2,20,160,,,,,,,,,0.490967,0.293701,0.908447,104.980469,-52.91748,21.850586,,,,,,,,,,,0.0,1.0,1.0,0.0,0.0,0.0,0.0,3.0,0.0,0.045400386666666674,-0.2684668133333334,1.0825195600000002,2.4487304000000005,4.699707066666665,6.221516906666666,21.261178294407436,6.848889110318939,36.12534291722835,28.030308516495293,12.795945608615433,-5.207612656926374,31.24985838580925,-1.3984436730985272,29.165359076302735,-1.398399752950806,0.4455666133333333,0.5621678133333334,-0.17407256000000015,1.181806986666667,0.738148706840479,0.8946770044947328,0.8602469660120383,0.8602469660120383
LBP08_S00,LBP08,80,81,0,80,80,1716444140.2,2024-05-23 06:02:20.200000+00:00,2024-05-23 15:02:20.200000+09:00,2024,5,23,6,2,20,200,,,,,,,,,0.442627,-1.292969,1.601074,-44.067383,-2.380371,100.585938,,,,,,,,,,,0.0,1.0,1.0,0.0,0.0,0.0,0.0,3.0,0.0,0.04769205333333333,-0.26370118666666664,1.0840202133333332,3.206380146666667,4.624837279999999,5.44270832,4.876731128853438,5.680913613885383,33.79319541126883,28.22537776164943,13.023182153170849,-3.8558848404756203,31.323203397569213,-1.3869453184840534,29.50779995007951,-1.3970742590750822,0.3949349466666667,-1.0292678133333335,0.5170537866666669,1.9412565466666671,1.217665989493393,0.8794044948310531,0.8683701256366145,0.8683701256366145
LBP08_S00,LBP08,81,82,0,81,81,1716444140.24,2024-05-23 06:02:20.240000+00:00,2024-05-23 15:02:20.240000+09:00,2024,5,23,6,2,20,240,,,,,,,,,-0.175781,-0.305664,1.67749,116.088867,39.001465,44.311523,,,,,,,,,,,0.0,1.0,1.0,0.0,0.0,0.0,0.0,3.0,0.0,0.04554036,-0.26478517333333335,1.0810742533333335,0.4842121733333333,4.361165399999998,5.844726546666666,-10.62231018554752,4.853381615234364,28.616050757172008,27.80048535422753,13.217317417780222,-2.71124281018874,30.901703888762768,-1.3956916068549472,29.560808416825815,-1.3937387294982218,-0.22132136,-0.040878826666666646,0.5964157466666664,0.8586159333333331,0.6374684037141372,0.8556437280999067,0.8632389762605595,0.8632389762605595
LBP08_S00,LBP08,82,83,0,82,82,1716444140.28,2024-05-23 06:02:20.280000+00:00,2024-05-23 15:02:20.280000+09:00,2024,5,23,6,2,20,280,,,,,,,,,-0.256104,0.094482,1.080322,-116.943359,73.303223,32.897949,,,,,,,,,,,0.0,1.0,1.0,0.0,0.0,0.0,0.0,3.0,0.0,0.041158853333333335,-0.27199221333333334,1.0706836266666666,-2.83528652,3.583984413333332,6.455078106666666,-23.365565262248,4.434837757486036,21.69260219710024,26.86586274373761,13.394710928079665,-1.8435387223047304,30.07642759426063,-1.4160291272861272,29.367854205637627,-1.3895937693750022,-0.29726285333333335,0.36647421333333335,0.009638373333333394,0.67337544,0.47197611300856435,0.8423448109281831,0.8547332618420379,0.8547332618420379
LBP08_S00,LBP08,83,84,0,83,83,1716444140.32,2024-05-23 06:02:20.320000+00:00,2024-05-23 15:02:20.320000+09:00,2024,5,23,6,2,20,320,,,,,,,,,-0.42334,-0.306396,0.130615,-69.885254,102.478027,11.59668,,,,,,,,,,,0.0,1.0,1.0,0.0,0.0,0.0,0.0,3.0,0.0,0.04256836,-0.26786136,1.0579590133333332,-3.52294928,1.5917969066666655,5.979003893333333,-31.7802838169701,4.511886595190377,14.50606881892459,25.594651391058804,13.57518639188728,-1.2632959695477468,28.99944451383484,-1.4084367913017655,28.995859436477094,-1.3857593476612413,-0.46590836,-0.03853464000000001,-0.9273440133333332,1.431787013333333,1.0385193486223512,0.8618216389074148,0.8586436041139595,0.8586436041139595
LBP08_S00,LBP08,84,85,0,84,84,1716444140.36,2024-05-23 06:02:20.360000+00:00,2024-05-23 15:02:20.360000+09:00,2024,5,23,6,2,20,360,,,,,,,,,-0.095459,-0.366943,0.22583,-14.282227,-106.384277,-60.72998,,,,,,,,,,,0.0,1.0,1.0,0.0,0.0,0.0,0.0,3.0,0.0,0.05360352,-0.27803388,1.0509863466666667,-3.732910213333333,1.1401367599999985,5.60139972,-34.90732287164671,5.179757419492402,8.501360838547066,24.198358476192936,13.782376688666977,-0.9232415360058641,27.863360082094477,-1.3742006225865018,28.525235894203764,-1.3833079514346465,-0.14906252,-0.08890912000000001,-0.8251563466666667,1.0631279866666667,0.8432125846619019,0.8749563035925881,0.8583221245420415,0.8583221245420415
LBP08_S00,LBP08,85,86,0,85,85,1716444140.4,2024-05-23 06:02:20.400000+00:00,2024-05-23 15:02:20.400000+09:00,2024,5,23,6,2,20,400,,,,,,,,,0.406982,0.259766,0.674561,-12.451172,-104.309082,-44.372559,,,,,,,,,,,0.0,1.0,1.0,0.0,0.0,0.0,0.0,3.0,0.0,0.05555014666666666,-0.2779004133333334,1.0489062666666666,-1.7049154133333333,1.9856771199999983,6.206868466666666,-32.61909982459153,6.417141682884387,4.662846033253432,22.893594483209274,14.039062355982352,-0.7367276946757269,26.865492883862995,-1.3671590215578535,28.039662081809347,-1.3829910273337072,0.3514318533333334,0.5376664133333333,-0.3743452666666667,1.2634435333333334,0.7434540323649944,0.8708276319356092,0.8559778777629181,0.8559778777629181
LBP08_S00,LBP08,86,87,0,86,86,1716444140.44,2024-05-23 06:02:20.440000+00:00,2024-05-23 15:02:20.440000+09:00,2024,5,23,6,2,20,440,,,,,,,,,0.335693,0.053467,1.098633,-59.509277,16.113281,4.638672,,,,,,,,,,,0.0,1.0,1.0,0.0,0.0,0.0,0.0,3.0,0.0,0.05489910666666667,-0.27148765333333336,1.0436556133333335,-1.7822265999999998,1.6625976933333322,6.19628904,-25.663423511257427,7.956828920873574,3.265349867011174,21.867057542758978,14.357335512817295,-0.6061136999952799,26.166174011942577,-1.3650905714683983,27.6172863514509,-1.3791424040858966,0.2807938933333334,0.32495465333333334,0.05497738666666652,0.6607259333333333,0.43297026491547247,0.8575148987471981,0.8475177255059693,0.8475177255059693
LBP08_S00,LBP08,87,88,0,87,87,1716444140.48,2024-05-23 06:02:20.480000+00:00,2024-05-23 15:02:20.480000+09:00,2024,5,23,6,2,20,480,,,,,,,,,0.032959,-0.79541,1.782959,-45.166016,49.865723,34.667969,,,,,,,,,,,0.0,1.0,1.0,0.0,0.0,0.0,0.0,3.0,0.0,0.05930016,-0.2799511866666667,1.0503580799999999,-2.58056644,2.8849284133333324,6.534016906666666,-15.518457574880404,9.307184125447176,3.8987815835246247,21.24631923976376,14.729622877835181,-0.4501624366542949,25.85673060501996,-1.355324739589482,27.323459575346483,-1.3720645319997606,-0.026341159999999995,-0.5154588133333333,0.7326009200000001,1.2744008933333335,0.8961560985330627,0.8809378181477898,0.8541182021674527,0.8484714190947358
LBP08_S00,LBP08,88,89,0,88,88,1716444140.52,2024-05-23 06:02:20.520000+00:00,2024-05-23 15:02:20.520000+09:00,2024,5,23,6,2,20,520,,,,,,,,,-0.081299,-1.446289,2.102295,-0.793457,14.953613,47.302246,,,,,,,,,,,0.0,1.0,1.0,0.0,0.0,0.0,0.0,3.0,0.0,0.05579754666666668,-0.27728517333333336,1.0398177066666667,-3.5929362266666667,4.0511067999999995,5.8569335733333325,-4.0893568851877475,9.970477406341402,5.736025159515533,21.08274496435625,15.128441974088837,-0.22072143027367358,25.949963578880872,-1.365758042118809,27.20446131698507,-1.3618991864050705,-0.13709654666666668,-1.1690038266666667,1.062477293333333,2.3685776666666665,1.5856302875254877,0.896290087969501,0.8743214507897329,0.8626475511799426
LBP08_S00,LBP08,89,90,0,89,89,1716444140.56,2024-05-23 06:02:20.560000+00:00,2024-05-23 15:02:20.560000+09:00,2024,5,23,6,2,20,560,,,,,,,,,0.003906,-0.369141,1.543945,53.405762,135.681152,35.15625,,,,,,,,,,,0.0,1.0,1.0,0.0,0.0,0.0,0.0,3.0,0.0,0.047158226666666664,-0.2751367333333333,1.01903972,-2.9182942933333336,2.0727539466666656,5.0846354,6.689366647021438,9.735752031963873,7.900649573798743,21.35031963023711,15.517872055367391,0.09530455267827614,26.39412026186517,-1.3952744320891342,27.282253114438383,-1.3520057623695796,-0.043252226666666664,-0.09400426666666667,0.5249052799999998,0.6621617733333331,0.5350075796052245,0.8757986394909129,0.863726716793121,0.8564656649238158
LBP08_S00,LBP08,90,91,0,90,90,1716444140.6,2024-05-23 06:02:20.600000+00:00,2024-05-23 15:02:20.600000+09:00,2024,5,23,6,2,20,600,,,,,,,,,-0.542236,0.48999,-0.055664,109.924316,77.453613,16.418457,,,,,,,,,,,0.0,1.0,1.0,0.0,0.0,0.0,0.0,3.0,0.0,0.060104199999999997,-0.27522788000000004,1.0011360666666667,-4.969889346666667,-0.8064778266666677,4.256998679999999,15.240890595005862,8.840549756828088,9.762874045273136,21.959955254037343,15.871494045640516,0.48581951448920163,27.099446093984714,-1.3484590860059469,27.55137481596342,-1.3454697492120844,-0.6023402,0.76521788,-1.0568000666666666,2.4243581466666666,1.4370798521009212,0.9022243336828459,0.8803953842761105,0.8672177795011696
LBP08_S00,LBP08,91,92,0,91,91,1716444140.64,2024-05-23 06:02:20.640000+00:00,2024-05-23 15:02:20.640000+09:00,2024,5,23,6,2,20,640,,,,,,,,,-0.004883,0.30542,0.05835,-20.080566,-135.803223,-13.977051,,,,,,,,,,,0.0,1.0,1.0,0.0,0.0,0.0,0.0,3.0,0.0,0.06663414666666667,-0.2750455866666667,0.9849055999999999,-7.11914064,-1.3403319866666676,4.1129557199999995,20.597479252965204,7.864028379745759,11.056819821800348,22.78385442415595,16.186055180830348,0.9280923073612155,27.963436127718616,-1.3249128859935884,27.979624751124184,-1.3423402394109607,-0.07151714666666667,0.5804655866666667,-0.9265555999999999,1.5785383333333334,1.0957008165840614,0.9311626158341206,0.8862693212122956,0.8713720165390404
LBP08_S00,LBP08,92,93,0,92,92,1716444140.68,2024-05-23 06:02:20.680000+00:00,2024-05-23 15:02:20.680000+09:00,2024,5,23,6,2,20,680,,,,,,,,,0.573486,-0.408691,1.051758,-72.631836,-123.168945,-25.024414,,,,,,,,,,,0.0,1.0,1.0,0.0,0.0,0.0,0.0,3.0,0.0,0.06833010666666667,-0.2696191466666667,0.9811002666666667,-6.530761733333334,-1.7333983866666676,4.1414387999999995,22.441249439426272,7.394291557526054,11.81945819839595,23.681504401733,16.48182684313139,1.4008706352970535,28.88644501064649,-1.3143756713392252,28.51346556586002,-1.3426143715632834,0.5051558933333333,-0.13907185333333333,0.07065773333333325,0.7148854799999999,0.528692701140058,0.9331856675301066,0.8872357751430645,0.8652527430497727
LBP08_S00,LBP08,93,94,0,93,93,1716444140.72,2024-05-23 06:02:20.720000+00:00,2024-05-23 15:02:20.720000+09:00,2024,5,23,6,2,20,720,,,,,,,,,0.360352,-0.530762,1.609131,39.550781,49.987793,19.714355,,,,,,,,,,,0.0,1.0,1.0,0.0,0.0,0.0,0.0,3.0,0.0,0.07396162666666667,-0.2869140666666667,1.0024348933333334,-6.248372413333334,-2.2574869333333343,4.210611973333333,20.968779702955164,7.682790270833787,12.235591650802009,24.520255589851207,16.789138453964743,1.8902943013291338,29.777362488367977,-1.309502550946856,29.087417595786526,-1.3447191026539345,0.28639037333333334,-0.24384793333333327,0.6066961066666667,1.1369344133333334,0.7138357138539898,0.9346727530679143,0.8826203384632854,0.8625963039410749
LBP08_S00,LBP08,94,95,0,94,94,1716444140.76,2024-05-23 06:02:20.760000+00:00,2024-05-23 15:02:20.760000+09:00,2024,5,23,6,2,20,760,,,,,,,,,-0.174561,-0.447021,1.961914,50.415039,31.921387,13.671875,,,,,,,,,,,0.0,1.0,1.0,0.0,0.0,0.0,0.0,3.0,0.0,0.07677737333333334,-0.29744466666666664,1.01995116,-4.1162109466666665,0.1391601999999989,4.458821599999999,16.695396201066572,8.517329520700878,12.492679081800128,25.18807143789387,17.12983163479278,2.3900014646011387,30.55457709734481,-1.308840491011551,29.635096003501626,-1.3437673076000036,-0.2513383733333333,-0.14957633333333337,0.94196284,1.3428775466666667,0.9863255290948096,0.9586371996525895,0.889965947850408,0.8647295664437255
LBP08_S00,LBP08,95,96,0,95,95,1716444140.8,2024-05-23 06:02:20.800000+00:00,2024-05-23 15:02:20.800000+09:00,2024,5,23,6,2,20,800,,,,,,,,,0.200195,-0.157227,1.993164,21.911621,32.165527,-4.211426,,,,,,,,,,,0.0,1.0,1.0,0.0,0.0,0.0,0.0,3.0,0.0,0.06778649333333332,-0.29405924000000006,1.02165364,-3.050944026666667,4.177246146666666,4.223632800000001,10.300560519374242,9.384209709316323,12.709378220344911,25.600093858668842,17.505200023165433,2.8983765934149353,31.147992235470664,-1.335863923546616,30.099116809893342,-1.3394250044437048,0.1324085066666667,0.13683224000000005,0.9715103599999999,1.2407511066666665,0.989993663680957,0.9508737981021779,0.891339813196851,0.8668526867358819
LBP08_S00,LBP08,96,97,0,96,96,1716444140.84,2024-05-23 06:02:20.840000+00:00,2024-05-23 15:02:20.840000+09:00,2024,5,23,6,2,20,840,,,,,,,,,-0.023682,-0.407715,1.268066,-35.705566,136.59668,46.020508,,,,,,,,,,,0.0,1.0,1.0,0.0,0.0,0.0,0.0,3.0,0.0,0.05746748,-0.2900813866666666,1.009069,-1.7203776133333335,5.117187559999999,3.7296549466666664,2.542775091700564,9.783827822160653,12.941513507688425,25.701804862336864,17.89655313605186,3.4160371337224724,31.504582159300917,-1.3678318929916256,30.438002667861902,-1.3408709091953384,-0.08114948,-0.11763361333333339,0.2589969999999999,0.4577800933333333,0.2958079632111457,0.9165059645675012,0.8748238465893601,0.8573352746771363
LBP08_S00,LBP08,97,98,0,97,97,1716444140.88,2024-05-23 06:02:20.880000+00:00,2024-05-23 15:02:20.880000+09:00,2024,5,23,6,2,20,880,,,,,,,,,-0.547607,0.102051,-0.11792,-21.179199,28.381348,29.23584,,,,,,,,,,,0.0,1.0,1.0,0.0,0.0,0.0,0.0,3.0,0.0,0.0536654,-0.28298177333333335,0.9925716,-3.1388346400000002,2.7099609999999994,3.4106445199999995,-5.774156752542185,9.47498896647725,13.225976954375279,25.470838592235175,18.27555269471095,3.945076211897484,31.596250904285036,-1.376372050495993,30.629646985186742,-1.343630068992705,-0.6012723999999999,0.38503277333333336,-1.1104916,2.0967967733333333,1.3202160161174676,0.9337113098033637,0.8835395743507232,0.8649234835532074
LBP08_S00,LBP08,98,99,0,98,98,1716444140.92,2024-05-23 06:02:20.920000+00:00,2024-05-23 15:02:20.920000+09:00,2024,5,23,6,2,20,920,,,,,,,,,0.098389,-0.174561,0.42334,-1.220703,-123.046875,23.55957,,,,,,,,,,,0.0,1.0,1.0,0.0,0.0,0.0,0.0,3.0,0.0,0.05773116,-0.27472655999999995,0.9769921733333333,-4.368489586666667,0.6681315733333323,2.4788411333333333,-13.802117524649574,8.500939411621586,13.611600792733244,24.918753891249192,18.61559027117581,4.489540243606814,31.426747656031917,-1.3562400915795008,30.671976886358898,-1.3470568463396337,0.04065784000000001,0.10016555999999996,-0.5536521733333333,0.6944755733333332,0.5641071958416259,0.9108327495797708,0.8817641678318036,0.860071607944956
LBP08_S00,LBP08,99,100,0,99,99,1716444140.96,2024-05-23 06:02:20.960000+00:00,2024-05-23 15:02:20.960000+09:00,2024,5,23,6,2,20,960,,,,,,,,,0.582764,-0.052246,0.989746,-1.525879,-83.496094,-42.236328,,,,,,,,,,,0.0,1.0,1.0,0.0,0.0,0.0,0.0,3.0,0.0,0.058974639999999995,-0.27502603999999997,0.9677180933333334,-3.9461263066666667,0.226237039999999,2.31770832,-20.636140949632267,7.02747786439688,14.146724218001214,24.093308253263903,18.896689385751685,5.055409212326862,31.034328325782308,-1.351851400526145,30.581789069000234,-1.354966281446781,0.52378936,0.22278003999999996,0.022027906666666652,0.7685973066666666,0.5696239711807488,0.8940649495675784,0.8600260031199016,0.8554613279963178
LBP08_S00,LBP08,100,101,0,100,100,1716444141.0,2024-05-23 06:02:21+00:00,2024-05-23 15:02:21+09:00,2024,5,23,6,2,21,0,6.0,2.0,19.0,40.548923,141.546051,7.384,3.0,11.0,0.349365,-0.86499,1.70752,30.883789,41.320801,26.672363,-563.0,0.0,583.0,670.0,0.0,1023.799988,34.82,0.107026,-87.416542,4.057031,0.0,1.0,1.0,0.0,0.0,0.0,0.0,4.0,0.0,0.05679365333333333,-0.27965169333333334,0.9745507733333333,-3.805338546666667,-1.5787759866666675,2.21028644,-25.332721822560167,5.168994757203864,14.833969996528726,23.079999380361496,19.103449176039838,5.648768012188011,30.488304673670243,-1.3629181335222833,30.392276567399602,-1.3637086002782768,0.2925713466666666,-0.5853383066666666,0.7329692266666666,1.61087888,0.9825796727910052,0.8922491684487346,0.8727928337041031,0.8574475521337348
LBP08_S00,LBP08,101,102,0,101,101,1716444141.04,2024-05-23 06:02:21.040000+00:00,2024-05-23 15:02:21.040000+09:00,2024,5,23,6,2,21,40,,,,,,,,,-0.120117,-0.734375,2.029297,-9.155273,23.681641,23.55957,,,,,,,,,,,0.0,1.0,1.0,0.0,0.0,0.0,0.0,4.0,0.0,0.060446,-0.2826953066666667,0.9979980399999999,-1.46240236,-1.566568960000001,2.4584960799999993,-27.020326589204558,2.97264136617358,15.592914984877444,21.999186316793313,19.222354830686783,6.272484611583109,29.879879300967072,-1.3525044839672546,30.148880227040745,-1.3666050130441676,-0.180563,-0.4516796933333333,1.0312989600000002,1.6635416533333336,1.1402609733020665,0.9013759284295242,0.876616676526285,0.8617985278440168
LBP08_S00,LBP08,102,103,0,102,102,1716444141.08,2024-05-23 06:02:21.080000+00:00,2024-05-23 15:02:21.080000+09:00,2024,5,23,6,2,21,80,,,,,,,,,0.221436,-0.625488,1.830078,-86.608887,47.485352,19.287109,,,,,,,,,,,0.0,1.0,1.0,0.0,0.0,0.0,0.0,4.0,0.0,0.06125003999999999,-0.28087238666666664,1.0132844933333334,-1.7781575733333332,1.877441466666666,3.17464192,-25.12947605854744,0.5752434181558629,16.264269372626615,20.994007274451416,19.245364567413016,6.923055386488174,29.309744022368026,-1.3486434448085118,29.902670204938367,-1.363644077224428,0.16018596000000002,-0.3446156133333334,0.8167935066666667,1.3215950800000003,0.9008724078730913,0.8582719120226473,0.8740065465075253,0.8623905563293058
LBP08_S00,LBP08,103,104,0,103,103,1716444141.12,2024-05-23 06:02:21.120000+00:00,2024-05-23 15:02:21.120000+09:00,2024,5,23,6,2,21,120,,,,,,,,,-0.152832,-0.3396,0.891357,-37.963867,161.743164,16.906738,,,,,,,,,,,0.0,1.0,1.0,0.0,0.0,0.0,0.0,4.0,0.0,0.05012698666666667,-0.28226236,1.0042024666666667,-2.2493489733333334,4.644368559999998,3.6409505066666665,-19.685632674863832,-1.6222921467971079,16.655497947996118,20.206581967456863,19.18047288154113,7.589275304408019,28.87548431478137,-1.3885969020183282,29.701319048652646,-1.3609968214326136,-0.20295898666666667,-0.05733764000000002,-0.11284546666666673,0.3731420933333334,0.23919459562612944,0.8361800192673258,0.860943857545621,0.8530891240800047
LBP08_S00,LBP08,104,105,0,104,104,1716444141.16,2024-05-23 06:02:21.160000+00:00,2024-05-23 15:02:21.160000+09:00,2024,5,23,6,2,21,160,,,,,,,,,-0.273193,-0.212646,0.028076,-66.894531,-67.687988,16.967773,,,,,,,,,,,0.0,1.0,1.0,0.0,0.0,0.0,0.0,4.0,0.0,0.04718102666666667,-0.27755208000000003,0.9913671733333332,-2.1394856933333335,3.5758464266666654,3.710937493333333,-11.52740903252871,-2.9604205362857328,16.602207129034596,19.745485606155714,19.062056060089702,8.253363589569403,28.659452081338454,-1.3962636793265095,29.579506894718246,-1.3587059011400902,-0.3203740266666667,0.06490608000000003,-0.9632911733333333,1.34857128,1.0172424493725625,0.8473437689686092,0.871010386731671,0.8555031435696011
LBP08_S00,LBP08,105,106,0,105,105,1716444141.2,2024-05-23 06:02:21.200000+00:00,2024-05-23 15:02:21.200000+09:00,2024,5,23,6,2,21,200,,,,,,,,,0.280273,-0.277344,0.583252,1.342773,-139.160156,25.32959,,,,,,,,,,,0.0,1.0,1.0,0.0,0.0,0.0,0.0,4.0,0.0,0.053811880000000006,-0.26652018666666666,0.9795051866666667,-2.3722330933333335,1.0400391333333319,2.935384106666666,-2.300808229612124,-2.781716273417208,16.018224479039336,19.65345327697123,18.950787409153016,8.894092568730978,28.71402883188215,-1.3648280512055238,29.551738276908686,-1.3561056143281411,0.22646112,-0.01082381333333332,-0.39625318666666676,0.6335381200000001,0.4565286209540619,0.8168982742270359,0.8481513845290445,0.8497209041114049
LBP08_S00,LBP08,106,107,0,106,106,1716444141.24,2024-05-23 06:02:21.240000+00:00,2024-05-23 15:02:21.240000+09:00,2024,5,23,6,2,21,240,,,,,,,,,0.526367,-0.40332,1.055176,-24.841309,-76.23291,5.004883,,,,,,,,,,,0.0,1.0,1.0,0.0,0.0,0.0,0.0,4.0,0.0,0.06064130666666667,-0.26483073333333335,0.9724999866666667,-3.849283866666666,0.26367194666666527,2.8157552,5.84161913134965,-0.8189996951125216,14.9193280965767,19.887118042225218,18.918027421348516,9.490865692594046,29.04248193827712,-1.3382225347942291,29.609943072486846,-1.3576663661193593,0.46572569333333336,-0.13848926666666667,0.08267601333333319,0.6868909733333332,0.4928641005321636,0.811114102099757,0.833378915099832,0.8446229497745587
LBP08_S00,LBP08,107,108,0,107,107,1716444141.28,2024-05-23 06:02:21.280000+00:00,2024-05-23 15:02:21.280000+09:00,2024,5,23,6,2,21,280,,,,,,,,,0.237793,-0.507568,1.612061,114.440918,52.67334,12.451172,,,,,,,,,,,0.0,1.0,1.0,0.0,0.0,0.0,0.0,4.0,0.0,0.05819990666666667,-0.26834961333333335,0.9739973866666666,-2.5089518266666664,-0.19287102666666803,2.663574213333333,10.777615086646291,2.5463870184230544,13.417844219219303,20.31822264569107,19.01988290208544,10.027579461362818,29.582739341427814,-1.3498994925778498,29.72631230682209,-1.3616017735325188,0.17959309333333334,-0.23921838666666667,0.6380636133333334,1.0568750933333333,0.7047015611962469,0.8204231200272644,0.8313839654777238,0.8426522259917655
LBP08_S00,LBP08,108,109,0,108,108,1716444141.32,2024-05-23 06:02:21.320000+00:00,2024-05-23 15:02:21.320000+09:00,2024,5,23,6,2,21,320,,,,,,,,,-0.072754,-0.606934,1.989258,35.522461,-2.868652,19.775391,,,,,,,,,,,0.0,1.0,1.0,0.0,0.0,0.0,0.0,4.0,0.0,0.06435225333333335,-0.27527994666666666,0.9958756400000001,-0.9488932266666665,-1.483561133333335,2.17041016,11.011432981011131,6.3524787163604515,11.693718291367249,20.758679964931513,19.273982050739857,10.495328193017507,30.208626116687917,-1.333330888654266,29.859806290411633,-1.3621468226570177,-0.13710625333333334,-0.3316540533333333,0.9933823599999999,1.4621426666666666,1.0562201706816166,0.8211311529096349,0.841476395908525,0.8456184474457912
LBP08_S00,LBP08,109,110,0,109,109,1716444141.36,2024-05-23 06:02:21.360000+00:00,2024-05-23 15:02:21.360000+09:00,2024,5,23,6,2,21,360,,,,,,,,,0.145508,-0.442383,2.026611,10.192871,40.710449,2.624512,,,,,,,,,,,0.0,1.0,1.0,0.0,0.0,0.0,0.0,4.0,0.0,0.06699222666666667,-0.27731772,1.0097688666666667,-2.3014322799999998,0.9765625599999985,3.0094401066666663,6.1066032639646926,9.438132867199982,9.951187270370017,21.0029440954901,19.651507365427857,10.893375683832307,30.75664214768668,-1.3258485324066567,29.96371523147612,-1.3553218672049892,0.07851577333333333,-0.16506528000000004,1.0168421333333333,1.2604231866666666,1.033140453881027,0.8287282676783999,0.8518422856354939,0.848187242054493
LBP08_S00,LBP08,110,111,0,110,110,1716444141.4,2024-05-23 06:02:21.400000+00:00,2024-05-23 15:02:21.400000+09:00,2024,5,23,6,2,21,400,,,,,,,,,0.003662,-0.183594,1.332764,37.109375,189.331055,17.63916,,,,,,,,,,,0.0,1.0,1.0,0.0,0.0,0.0,0.0,4.0,0.0,0.05350914666666667,-0.2854557466666667,0.9989615733333334,-3.883463533333333,3.8818359999999985,3.384602866666667,-3.2135160034442807,10.929018615522095,8.369529396628787,20.87440345535233,20.08866811004874,11.228156859697458,31.07035262945185,-1.378525651434463,29.992130789133796,-1.3484395297223803,-0.04984714666666667,0.10186174666666667,0.3338024266666667,0.4855113200000001,0.35254022963819004,0.8130917155693278,0.8419596737524685,0.8414893094542727
LBP08_S00,LBP08,111,112,0,111,111,1716444141.44,2024-05-23 06:02:21.440000+00:00,2024-05-23 15:02:21.440000+09:00,2024,5,23,6,2,21,440,,,,,,,,,-0.47876,0.393066,-0.053467,-7.385254,-1.403809,11.291504,,,,,,,,,,,0.0,1.0,1.0,0.0,0.0,0.0,0.0,4.0,0.0,0.04771486666666667,-0.27355470666666665,0.9805175599999999,-4.822591133333333,1.9482422399999983,3.278808586666667,-15.33402033063439,10.560352749248691,7.055741305297305,20.261042642126952,20.511082220018686,11.510386511909351,31.043571644319506,-1.3918585580988487,29.904918883603905,-1.3445007143673782,-0.5264748666666667,0.6666207066666667,-1.03398456,2.227080133333333,1.3381640490264428,0.8492994669337667,0.8534071828404823,0.848111639315235
LBP08_S00,LBP08,112,113,0,112,112,1716444141.48,2024-05-23 06:02:21.480000+00:00,2024-05-23 15:02:21.480000+09:00,2024,5,23,6,2,21,480,,,,,,,,,0.035645,0.236084,0.289307,-159.118652,-107.48291,-17.883301,,,,,,,,,,,0.0,1.0,1.0,0.0,0.0,0.0,0.0,4.0,0.0,0.056113306666666675,-0.26382814666666665,0.9625683333333335,-7.05240884,-0.2571614000000015,2.3201497200000003,-28.272483760635847,8.67112371151102,6.010167007741831,19.13014329170152,20.857927168479126,11.750793192219025,30.644683858263466,-1.3540939360535011,29.672297224108245,-1.3429291430860657,-0.020468306666666672,0.4999121466666666,-0.6732613333333335,1.1936417866666669,0.8388157896251438,0.8470058545774498,0.8639718363626198,0.8517474196374517
LBP08_S00,LBP08,113,114,0,113,113,1716444141.52,2024-05-23 06:02:21.520000+00:00,2024-05-23 15:02:21.520000+09:00,2024,5,23,6,2,21,520,,,,,,,,,0.42041,-0.712891,1.067139,-135.742188,-97.961426,-14.404297,,,,,,,,,,,0.0,1.0,1.0,0.0,0.0,0.0,0.0,4.0,0.0,0.06453452,-0.26107098666666667,0.9469596133333332,-7.5764973866666665,-0.5037434400000016,2.1191406133333337,-40.23877949899625,5.911529790087908,5.12119647118667,17.520592111741667,21.094388360082643,11.955641051066491,29.914573725426223,-1.3203473474980434,29.27979046061863,-1.3437327098344416,0.35587548,-0.4518200133333334,0.12017938666666683,0.9278748800000002,0.587564266011251,0.8070832137168803,0.8516866508431906,0.8519087050987821
LBP08_S00,LBP08,114,115,0,114,114,1716444141.56,2024-05-23 06:02:21.560000+00:00,2024-05-23 15:02:21.560000+09:00,2024,5,23,6,2,21,560,,,,,,,,,0.317139,-0.812988,1.759277,15.991211,16.784668,28.503418,,,,,,,,,,,0.0,1.0,1.0,0.0,0.0,0.0,0.0,4.0,0.0,0.062451186666666665,-0.26044923999999997,0.9395735466666666,-7.688802066666666,-1.622721306666668,2.2167968666666664,-49.99904237615982,2.886060103990044,4.20295118318309,15.520630416695274,21.209830764242245,12.123759098393815,28.943607657915248,-1.3274403045004222,28.732344548170367,-1.3483331218778742,0.25468781333333335,-0.55253876,0.8197034533333334,1.6269300266666669,1.020822567819425,0.8265158132454483,0.8511572263681805,0.85132308227723
LBP08_S00,LBP08,115,116,0,115,115,1716444141.6,2024-05-23 06:02:21.600000+00:00,2024-05-23 15:02:21.600000+09:00,2024,5,23,6,2,21,600,,,,,,,,,-0.04248,-0.457031,1.937256,20.507812,10.742188,18.737793,,,,,,,,,,,0.0,1.0,1.0,0.0,0.0,0.0,0.0,4.0,0.0,0.06808269333333333,-0.2825748933333333,0.9665722533333332,-7.8108723866666665,-2.743326773333335,2.16308592,-56.928605923820534,-0.031869360567865074,3.0709766917727968,13.243486179742453,21.20855598981953,12.246598166064727,27.8419097765832,-1.3254398976555022,28.054912081182714,-1.3526295564113633,-0.11056269333333332,-0.17445610666666672,0.9706837466666669,1.255702546666667,0.9924142171257171,0.8087291878464401,0.8554767607646432,0.8565066521328871
LBP08_S00,LBP08,116,117,0,116,116,1716444141.64,2024-05-23 06:02:21.640000+00:00,2024-05-23 15:02:21.640000+09:00,2024,5,23,6,2,21,640,,,,,,,,,0.056885,-0.280518,1.741211,13.000488,70.3125,12.207031,,,,,,,,,,,0.0,1.0,1.0,0.0,0.0,0.0,0.0,4.0,0.0,0.06724936,-0.27478192,0.9833365733333334,-6.924641919999999,-0.1708983866666682,1.60074868,-60.833946943241294,-2.6446464262260814,1.6225666238584193,10.810128302012801,21.102770132770488,12.311500831019064,26.716265343320565,-1.3225068219811043,27.287659511797358,-1.3483172156513727,-0.010364359999999996,-0.005736079999999977,0.7578744266666667,0.7739748666666667,0.7579669974130172,0.7952198350795985,0.8631912254568596,0.8559194925013965
LBP08_S00,LBP08,117,118,0,117,117,1716444141.68,2024-05-23 06:02:21.680000+00:00,2024-05-23 15:02:21.680000+09:00,2024,5,23,6,2,21,680,,,,,,,,,-0.122803,0.037842,0.80835,-30.578613,166.748047,-6.347656,,,,,,,,,,,0.0,1.0,1.0,0.0,0.0,0.0,0.0,4.0,0.0,0.05825521333333335,-0.2797754133333333,0.9814778533333333,-8.203125,2.704264373333332,1.4632161333333333,-61.75546337583381,-4.769787030741845,-0.12377234598544586,8.33990976697945,20.911978651540814,12.306549937179646,25.65767170653164,-1.357935160061607,26.47657370419853,-1.3391977854448274,-0.18105821333333333,0.31761741333333326,-0.17312785333333325,0.6718034799999999,0.4045196552305271,0.7902529132432171,0.8617192903866617,0.8549081545097821
LBP08_S00,LBP08,118,119,0,118,118,1716444141.72,2024-05-23 06:02:21.720000+00:00,2024-05-23 15:02:21.720000+09:00,2024,5,23,6,2,21,720,,,,,,,,,-0.178711,-0.143555,-0.115234,-167.114258,-81.176758,-3.601074,,,,,,,,,,,0.0,1.0,1.0,0.0,0.0,0.0,0.0,4.0,0.0,0.04910482666666667,-0.26228192,0.95957356,-7.948404946666666,2.205403693333332,0.006510399999999924,-59.92027565107381,-6.185957175619719,-2.054351407466219,5.943098740936497,20.664540364516025,12.224375880880997,24.7341669922053,-1.379335009088595,25.662697432860682,-1.3337049671875272,-0.22781582666666667,0.11872692000000001,-1.07480756,1.4213503066666666,1.1050825414626986,0.8059027863475656,0.87028776970774,0.8570478210913787
LBP08_S00,LBP08,119,120,0,119,119,1716444141.76,2024-05-23 06:02:21.760000+00:00,2024-05-23 15:02:21.760000+09:00,2024,5,23,6,2,21,760,,,,,,,,,0.101807,-0.304688,0.259277,-151.306152,-148.498535,-9.70459,,,,,,,,,,,0.0,1.0,1.0,0.0,0.0,0.0,0.0,4.0,0.0,0.0514974,-0.2605534,0.94104492,-9.662272133333333,-0.06347652000000154,-1.1010742266666667,-55.83561049526604,-6.7876962892510075,-4.036341026895099,3.7096743211258554,20.393032512945986,12.062922239805193,23.982317477810174,-1.368812877741547,24.874025726252682,-1.3342012163189403,0.050309599999999996,-0.044134600000000024,-0.68176792,0.77621212,0.6850448273729584,0.7938515582786916,0.8762443789656404,0.8579278179931691
LBP08_S00,LBP08,120,121,0,120,120,1716444141.8,2024-05-23 06:02:21.800000+00:00,2024-05-23 15:02:21.800000+09:00,2024,5,23,6,2,21,800,,,,,,,,,0.431885,-0.379883,0.838623,-90.637207,-106.628418,-38.696289,,,,,,,,,,,0.0,1.0,1.0,0.0,0.0,0.0,0.0,4.0,0.0,0.060722666666666675,-0.26236654666666664,0.9370214800000001,-8.010253906666668,-2.330729133333335,-2.0654296933333334,-50.35470827708119,-6.835074580153479,-5.9971983969955005,1.695485990042608,20.119629529739846,11.823034303925374,23.397826935598243,-1.3354022438345583,24.122892318573797,-1.3360370115045708,0.37116233333333337,-0.11751645333333338,-0.09839848000000007,0.5870772666666668,0.40156426055589206,0.770314382153689,0.8605940901279334,0.8509980028491303
LBP08_S00,LBP08,121,122,0,121,121,1716444141.84,2024-05-23 06:02:21.840000+00:00,2024-05-23 15:02:21.840000+09:00,2024,5,23,6,2,21,840,,,,,,,,,0.220703,-0.633789,1.344238,72.631836,18.615723,-20.141602,,,,,,,,,,,0.0,1.0,1.0,0.0,0.0,0.0,0.0,4.0,0.0,0.06984376,-0.26085938666666664,0.9504036400000001,-7.976888013333334,-3.6149088133333347,-2.077636733333333,-44.54650319268041,-7.043603361773201,-7.956106277443051,-0.08637413766460855,19.83788539526892,11.504790052827651,22.93271356833123,-1.3006642560333936,23.408964611312648,-1.339377772311925,0.15085924,-0.3729296133333334,0.39383435999999994,0.9176232133333334,0.5629746973985037,0.7810010515211832,0.8487535080443422,0.8435495815666345
LBP08_S00,LBP08,122,123,0,122,122,1716444141.88,2024-05-23 06:02:21.880000+00:00,2024-05-23 15:02:21.880000+09:00,2024,5,23,6,2,21,880,,,,,,,,,0.066895,-0.446533,1.738037,21.789551,27.099609,22.216797,,,,,,,,,,,0.0,1.0,1.0,0.0,0.0,0.0,0.0,4.0,0.0,0.07013998666666667,-0.2600781466666667,0.9684407466666666,-7.544759106666666,-1.6259765200000016,-1.4176432533333334,-39.36049951336002,-8.335092307936225,-9.980773761739812,-1.6607941181990094,19.50448170295147,11.10555910235806,22.505921144884987,-1.2991657534805001,22.725124052465056,-1.3405424109177488,-0.0032449866666666716,-0.18645485333333334,0.7695962533333335,0.9592960933333334,0.791867624931545,0.7598671158737463,0.846789212838555,0.8423154215250642
LBP08_S00,LBP08,123,124,0,123,123,1716444141.92,2024-05-23 06:02:21.920000+00:00,2024-05-23 15:02:21.920000+09:00,2024,5,23,6,2,21,920,,,,,,,,,0.093262,-0.050049,1.222412,-32.165527,102.844238,8.911133,,,,,,,,,,,0.0,1.0,1.0,0.0,0.0,0.0,0.0,4.0,0.0,0.06495770666666667,-0.2682096666666666,0.9804296666666669,-7.3624674400000005,0.4809570799999985,-0.9195963733333333,-35.2601001494147,-11.319358571172,-12.089243808730798,-3.0711981241755972,19.05170736010459,10.621989350008828,22.02785665934623,-1.3253098388121736,22.062465423117025,-1.3360931761088346,0.028304293333333327,0.21816066666666661,0.2419823333333332,0.48844729333333314,0.32703311628486215,0.7503841526914756,0.8306084511356232,0.8379708294516943
LBP08_S00,LBP08,124,125,0,124,124,1716444141.96,2024-05-23 06:02:21.960000+00:00,2024-05-23 15:02:21.960000+09:00,2024,5,23,6,2,21,960,,,,,,,,,-0.353271,-0.062988,0.288818,-26.733398,131.347656,1.220703,,,,,,,,,,,0.0,1.0,1.0,0.0,0.0,0.0,0.0,4.0,0.0,0.05997724,-0.27141605333333335,0.9797363066666666,-6.245117186666667,2.5724284399999986,-0.72672528,-32.045618454441886,-15.804972592067317,-14.15953525408633,-4.3530228623532725,18.419508456421898,10.055607939845375,21.432273581126417,-1.3457982563567261,21.412388299836454,-1.3272563462327407,-0.41324824,0.20842805333333336,-0.6909183066666665,1.3125945999999997,0.8316155769143303,0.7608638169208191,0.8274643832441987,0.8269719410535408
LBP08_S00,LBP08,125,126,0,125,125,1716444142.0,2024-05-23 06:02:22+00:00,2024-05-23 15:02:22+09:00,2024,5,23,6,2,22,0,6.0,2.0,20.0,40.548908,141.546143,8.664,3.0,11.0,-0.006592,-0.081299,-0.032471,-49.987793,-59.265137,-10.437012,-565.0,16.0,587.0,315.0,0.0,1023.5,34.880001,0.104053,-84.940964,4.057031,0.0,1.0,1.0,0.0,0.0,0.0,0.0,4.0,0.0,0.053958360000000004,-0.25943689333333336,0.9547786266666666,-6.6414387999999995,2.1134440666666654,-1.49088544,-28.975264805549042,-20.672526418913613,-15.916403573480917,-5.512033454575234,17.592607399665354,9.41895179690614,20.70263270397169,-1.3588475057290441,20.76684441718792,-1.3214693896834238,-0.060550360000000004,0.17813789333333335,-0.9872496266666666,1.22593788,1.0050180498333552,0.7617613520025129,0.8270052602256237,0.835782339803573
LBP08_S00,LBP08,126,127,0,126,126,1716444142.04,2024-05-23 06:02:22.040000+00:00,2024-05-23 15:02:22.040000+09:00,2024,5,23,6,2,22,40,,,,,,,,,0.089844,-0.130371,0.119385,-66.162109,-126.708984,-40.649414,,,,,,,,,,,0.0,1.0,1.0,0.0,0.0,0.0,0.0,4.0,0.0,0.05699221333333334,-0.24383467999999997,0.9312141733333332,-6.500651039999999,0.4931641199999988,-2.556966173333333,-25.123235062906083,-24.25472202095537,-17.022275504849983,-6.516962857091477,16.62241851882714,8.738060776712139,19.877859754844646,-1.3341532080393421,20.119202158777618,-1.3212145420285846,0.03285178666666665,0.11346367999999998,-0.8118291733333333,0.9581446399999999,0.820377872228047,0.7489660279595521,0.8251709781945382,0.8340664603373742
LBP08_S00,LBP08,127,128,0,127,127,1716444142.08,2024-05-23 06:02:22.080000+00:00,2024-05-23 15:02:22.080000+09:00,2024,5,23,6,2,22,80,,,,,,,,,0.332764,-0.13916,0.455078,-45.166016,-141.723633,-44.555664,,,,,,,,,,,0.0,1.0,1.0,0.0,0.0,0.0,0.0,4.0,0.0,0.06190758666666666,-0.24261722666666666,0.9260709466666667,-7.425944013333333,-2.271321546666668,-3.496907573333333,-19.803353284000668,-25.065798562862852,-17.23400570020334,-7.309096988451504,15.619786576312626,8.048700548704005,19.03108541305133,-1.3134428119724666,19.466622751836574,-1.3260694347625321,0.2708564133333333,0.10345722666666665,-0.4709929466666667,0.8453065866666667,0.5530831313673426,0.7350544568993221,0.7966631844609847,0.8276891833047909
LBP08_S00,LBP08,128,129,0,128,128,1716444142.12,2024-05-23 06:02:22.120000+00:00,2024-05-23 15:02:22.120000+09:00,2024,5,23,6,2,22,120,,,,,,,,,0.344482,-0.204834,0.691895,-19.65332,-72.814941,-39.18457,,,,,,,,,,,0.0,1.0,1.0,0.0,0.0,0.0,0.0,4.0,0.0,0.07168622666666667,-0.2577539466666667,0.9493196399999999,-9.579264319999998,-2.866210866666668,-3.7280273599999996,-12.875029314739841,-22.50036279396127,-16.54124417266449,-7.824098161041098,14.719772064554174,7.387050781797425,18.233395759399567,-1.290966710327655,18.812522607641068,-1.3305482898307945,0.2727957733333333,0.05291994666666669,-0.25742463999999987,0.5831403599999999,0.3787947993081,0.740638465046601,0.7884092421569635,0.8208420600459476
LBP08_S00,LBP08,129,130,0,129,129,1716444142.16,2024-05-23 06:02:22.160000+00:00,2024-05-23 15:02:22.160000+09:00,2024,5,23,6,2,22,160,,,,,,,,,0.212646,-0.30249,0.994873,-23.376465,-3.90625,-2.502441,,,,,,,,,,,0.0,1.0,1.0,0.0,0.0,0.0,0.0,4.0,0.0,0.06966800000000001,-0.2713184,0.9744758800000002,-9.257812506666665,-1.193847586666668,-3.61897788,-4.815558677131925,-17.128266481785804,-15.205571159535959,-8.016720508126374,14.034641405282741,6.778827935415987,17.526878651324854,-1.3109433122483778,18.16716894569884,-1.332372222707666,0.142978,-0.031171599999999966,0.020397119999999824,0.19454671999999978,0.14775120857324447,0.7058588154146284,0.7766012921916188,0.8159598629593234
LBP08_S00,LBP08,130,131,0,130,130,1716444142.2,2024-05-23 06:02:22.200000+00:00,2024-05-23 15:02:22.200000+09:00,2024,5,23,6,2,22,200,,,,,,,,,-0.016113,-0.728027,1.359863,24.719238,32.470703,-5.126953,,,,,,,,,,,0.0,1.0,1.0,0.0,0.0,0.0,0.0,4.0,0.0,0.06303714666666667,-0.268877,0.9844107733333334,-8.252766933333332,1.058756573333332,-3.2161458533333334,3.4523437788759233,-10.439897527993416,-13.6718750011011,-7.878626756971337,13.617045504163004,6.231952935371943,16.921404351495227,-1.332853767286167,17.545551179393357,-1.3297897734229518,-0.07915014666666667,-0.45915,0.37545222666666667,0.9137523733333334,0.5983709908796656,0.7115325102116526,0.7642153922193442,0.8026117597565805
LBP08_S00,LBP08,131,132,0,131,131,1716444142.24,2024-05-23 06:02:22.240000+00:00,2024-05-23 15:02:22.240000+09:00,2024,5,23,6,2,22,240,,,,,,,,,0.227783,-0.473389,1.275146,102.600098,83.374023,16.174316,,,,,,,,,,,0.0,1.0,1.0,0.0,0.0,0.0,0.0,4.0,0.0,0.057298213333333334,-0.26298832,0.9742740533333332,-8.910319013333332,2.4747721999999985,-3.0021158933333334,10.889655584242766,-4.1929564713511125,-12.39434361679795,-7.443040533601626,13.44932724530896,5.7361791907000255,16.40691949892077,-1.3492131833728696,16.963018638131892,-1.3223705531647387,0.17048478666666667,-0.21040068,0.3008719466666667,0.6817574133333334,0.40479307914072693,0.7080096693559951,0.759561885727876,0.7915891665185529
LBP08_S00,LBP08,132,133,0,132,132,1716444142.28,2024-05-23 06:02:22.280000+00:00,2024-05-23 15:02:22.280000+09:00,2024,5,23,6,2,22,280,,,,,,,,,-0.226562,-0.176025,0.504395,-38.085938,133.422852,19.65332,,,,,,,,,,,0.0,1.0,1.0,0.0,0.0,0.0,0.0,4.0,0.0,0.05762048,-0.2582487466666667,0.9486327733333333,-10.208333333333332,1.3118490133333316,-3.666178386666667,16.68255569589187,0.29349002727248336,-11.666788479255533,-6.775738305765951,13.46106684639986,5.269507651529804,15.96491970292994,-1.3439543041631232,16.43032801438352,-1.3191482747697414,-0.28418248,0.08222374666666671,-0.44423777333333325,0.8106439999999999,0.5337299183210668,0.7011708036409878,0.760796961834126,0.7879795781988118
LBP08_S00,LBP08,133,134,0,133,133,1716444142.32,2024-05-23 06:02:22.320000+00:00,2024-05-23 15:02:22.320000+09:00,2024,5,23,6,2,22,320,,,,,,,,,-0.242676,-0.115479,-0.091553,35.095215,-13.427734,-24.414062,,,,,,,,,,,0.0,1.0,1.0,0.0,0.0,0.0,0.0,4.0,0.0,0.057737666666666666,-0.2587337733333333,0.9266633733333333,-9.9202474,-0.7592772800000014,-4.055989586666667,20.46335850190756,2.5497567340120484,-11.54345449896445,-5.957203965689648,13.56305711576034,4.807769471571226,15.574320039923988,-1.3435491675808884,15.950438046847548,-1.3205399126863875,-0.3004136666666667,0.1432547733333333,-1.0182163733333334,1.4618848133333333,1.071230546673769,0.701771218680674,0.7614511857951544,0.7949080034992413
LBP08_S00,LBP08,134,135,0,134,134,1716444142.36,2024-05-23 06:02:22.360000+00:00,2024-05-23 15:02:22.360000+09:00,2024,5,23,6,2,22,360,,,,,,,,,0.063477,0.021973,0.150879,24.475098,-125.183105,-27.22168,,,,,,,,,,,0.0,1.0,1.0,0.0,0.0,0.0,0.0,4.0,0.0,0.06354170666666667,-0.2568424933333333,0.92143552,-10.099283866666667,-3.810221293333334,-5.15625,22.34848199193108,2.905903138725909,-11.88373947484262,-5.063264686012404,13.679293241309377,4.332419892577521,15.216095918071565,-1.319973763509582,15.51875497501428,-1.325880606535733,-6.470666666666403e-05,0.27881549333333333,-0.77055652,1.04943672,0.8194482497535601,0.6932235305155753,0.7609758990969876,0.7989693672621877
LBP08_S00,LBP08,135,136,0,135,135,1716444142.4,2024-05-23 06:02:22.400000+00:00,2024-05-23 15:02:22.400000+09:00,2024,5,23,6,2,22,400,,,,,,,,,0.310303,-0.016357,0.646729,19.470215,-104.370117,-60.913086,,,,,,,,,,,0.0,1.0,1.0,0.0,0.0,0.0,0.0,4.0,0.0,0.07525068000000001,-0.2648633333333333,0.9408593466666667,-8.806152359999999,-3.5725910933333345,-5.9090169333333336,22.81355348395906,2.0858681256541183,-12.48156931377785,-4.150722546654042,13.762727966335541,3.833157120026407,14.877307291357054,-1.2846553031469166,15.126486435538563,-1.3283478479860302,0.23505231999999998,0.24850633333333327,-0.2941303466666667,0.777689,0.45112930704445886,0.6971670936118259,0.7551294045905769,0.7936954803722543
LBP08_S00,LBP08,136,137,0,136,136,1716444142.44,2024-05-23 06:02:22.440000+00:00,2024-05-23 15:02:22.440000+09:00,2024,5,23,6,2,22,440,,,,,,,,,0.228027,-0.126465,1.105469,15.380859,26.733398,-11.59668,,,,,,,,,,,0.0,1.0,1.0,0.0,0.0,0.0,0.0,4.0,0.0,0.07250328,-0.27280604,0.9584439866666667,-7.71240236,-1.4632160933333345,-6.277669266666667,22.474623132509763,0.7416697331238536,-13.191551430265434,-3.2517376213536515,13.792394755660496,3.3054950628157895,14.550953517360895,-1.3019304240893668,14.764975323504672,-1.3273287514250587,0.15552372,0.14634104000000003,0.1470250133333333,0.44888977333333335,0.2592675876707053,0.6540112351575965,0.7516553510456815,0.7869418669461871
LBP08_S00,LBP08,137,138,0,137,137,1716444142.48,2024-05-23 06:02:22.480000+00:00,2024-05-23 15:02:22.480000+09:00,2024,5,23,6,2,22,480,,,,,,,,,-0.238281,-0.324219,1.512207,-14.465332,30.517578,-0.244141,,,,,,,,,,,0.0,1.0,1.0,0.0,0.0,0.0,0.0,4.0,0.0,0.06615888,-0.2763802533333334,0.9679980266666667,-7.0532226666666675,0.07975265333333226,-5.6534830666666664,21.855959060816613,-0.7905664253139625,-13.972613977707695,-2.377499258920987,13.760772098647937,2.746590503707482,14.232185737691648,-1.3273591911389284,14.428861872523925,-1.3209397681753399,-0.30443988,-0.0478387466666666,0.5442089733333334,0.8964875999999999,0.6254083409050224,0.6454749372087918,0.7462403958931207,0.7911395366446771
LBP08_S00,LBP08,138,139,0,138,138,1716444142.52,2024-05-23 06:02:22.520000+00:00,2024-05-23 15:02:22.520000+09:00,2024,5,23,6,2,22,520,,,,,,,,,-0.037842,-0.330078,1.686035,69.702148,-6.164551,-7.507324,,,,,,,,,,,0.0,1.0,1.0,0.0,0.0,0.0,0.0,4.0,0.0,0.06002606666666666,-0.27027022666666667,0.9545051866666667,-7.46337892,1.2784831199999989,-5.526529933333333,21.21662046330766,-2.4269788105529653,-14.830857921785169,-1.5288344403886809,13.663692946225819,2.153356186836075,13.916565041066885,-1.3443736488211098,14.117054251204607,-1.3125383949308247,-0.09786806666666667,-0.059807773333333314,0.7315298133333332,0.8892056533333332,0.7404667420078122,0.6515910362486541,0.7293371249827671,0.7849881126450118
LBP08_S00,LBP08,139,140,0,139,139,1716444142.56,2024-05-23 06:02:22.560000+00:00,2024-05-23 15:02:22.560000+09:00,2024,5,23,6,2,22,560,,,,,,,,,0.045166,-0.10083,1.168701,-27.282715,115.844727,32.714844,,,,,,,,,,,0.0,1.0,1.0,0.0,0.0,0.0,0.0,4.0,0.0,0.059475933333333335,-0.25708011999999997,0.9256347466666667,-6.329752626666667,0.47119145333333223,-6.441243466666666,20.486741316980176,-4.0961264072539665,-15.7141697180694,-0.7093647877094739,13.49984788993566,1.524789398113299,13.604193256567664,-1.3356157267513513,13.83151710696742,-1.3065369906210322,-0.014309933333333337,0.15625011999999996,0.24306625333333332,0.4136263066666666,0.28930965711763407,0.6223305198205825,0.7244231665330154,0.7748816575189812
LBP08_S00,LBP08,140,141,0,140,140,1716444142.6,2024-05-23 06:02:22.600000+00:00,2024-05-23 15:02:22.600000+09:00,2024,5,23,6,2,22,600,,,,,,,,,-0.364502,0.027832,-0.124756,-28.564453,61.157227,-7.629395,,,,,,,,,,,0.0,1.0,1.0,0.0,0.0,0.0,0.0,4.0,0.0,0.060683613333333344,-0.24777022666666662,0.9054589733333334,-5.19531252,-1.948242146666668,-7.263183560000001,19.332945605104705,-5.549666422695432,-16.4438462874321,0.06395303649471429,13.277861233027842,0.867035546616015,13.306293231156312,-1.3226628016764508,13.574697667481264,-1.3049364636813836,-0.4251856133333333,0.2756022266666666,-1.0302149733333335,1.7310028133333333,1.1480776473782026,0.6285570570306819,0.7186431224385611,0.7798368595199894
LBP08_S00,LBP08,141,142,0,141,141,1716444142.64,2024-05-23 06:02:22.640000+00:00,2024-05-23 15:02:22.640000+09:00,2024,5,23,6,2,22,640,,,,,,,,,0.051758,-0.202637,0.053955,93.87207,-89.904785,-44.616699,,,,,,,,,,,0.0,1.0,1.0,0.0,0.0,0.0,0.0,4.0,0.0,0.06962566666666667,-0.24503584000000003,0.9059570266666668,-4.572753933333334,-5.198567666666667,-7.932128866666667,17.33584911049752,-6.389381392658844,-16.742657100552094,0.7573870009146151,13.022285977321488,0.19732926259393124,13.04578498911331,-1.2853233508756803,13.347068445585194,-1.308008344659377,-0.01786766666666667,0.04239884000000002,-0.8520020266666668,0.9122685333333335,0.8532434404023065,0.6323681147502535,0.7137939749149258,0.7862501885546576
LBP08_S00,LBP08,142,143,0,142,142,1716444142.68,2024-05-23 06:02:22.680000+00:00,2024-05-23 15:02:22.680000+09:00,2024,5,23,6,2,22,680,,,,,,,,,0.463623,0.287109,0.554443,76.599121,-148.132324,-69.946289,,,,,,,,,,,0.0,1.0,1.0,0.0,0.0,0.0,0.0,4.0,0.0,0.07627930666666667,-0.24479170666666666,0.9237402266666666,-4.601237013333333,-3.965657520000001,-7.48779292,14.220960141713597,-6.306130236961677,-16.350669115375755,1.3262254065831591,12.770040767843021,-0.45669750202109893,12.84684348973676,-1.2599405717179735,13.146225138114769,-1.3095740901022304,0.38734369333333335,0.5319007066666667,-0.36929722666666653,1.2885416266666665,0.7545422056726171,0.6463690167679371,0.7183109650055772,0.7899358658470869
LBP08_S00,LBP08,143,144,0,143,143,1716444142.72,2024-05-23 06:02:22.720000+00:00,2024-05-23 15:02:22.720000+09:00,2024,5,23,6,2,22,720,,,,,,,,,0.555664,-0.542236,1.079346,-70.800781,-46.264648,-11.291504,,,,,,,,,,,0.0,1.0,1.0,0.0,0.0,0.0,0.0,4.0,0.0,0.07069012000000001,-0.24670250666666665,0.93877604,-4.329427106666667,-1.601562466666668,-7.618815053333335,10.049787733281455,-5.349016189427867,-15.155242642006556,1.7282169159144174,12.556080120265907,-1.062907207701361,12.718948597552117,-1.2835351244829623,12.968026099677408,-1.3089352550219264,0.48497388,-0.2955334933333334,0.14056995999999988,0.9210773333333333,0.5850637773939346,0.6255682662051865,0.7157355262763759,0.7887146018735556
LBP08_S00,LBP08,144,145,0,144,144,1716444142.76,2024-05-23 06:02:22.760000+00:00,2024-05-23 15:02:22.760000+09:00,2024,5,23,6,2,22,760,,,,,,,,,-0.023193,-0.594971,1.531494,18.188477,67.626953,1.525879,,,,,,,,,,,0.0,1.0,1.0,0.0,0.0,0.0,0.0,4.0,0.0,0.06537437333333333,-0.2465299866666667,0.94817708,-3.092447933333333,-0.060221320000001036,-7.433268186666666,5.286101333846026,-3.9929324800685615,-13.249715152905393,1.9396609692682585,12.396362821063164,-1.5928958138175768,12.64790152320998,-1.303968494113097,12.808976072177225,-1.3036018699549323,-0.08856737333333334,-0.3484410133333333,0.5833169199999999,1.0203253066666664,0.6852108788907343,0.6255749082658976,0.7097132332722945,0.7926878887323929
LBP08_S00,LBP08,145,146,0,145,145,1716444142.8,2024-05-23 06:02:22.800000+00:00,2024-05-23 15:02:22.800000+09:00,2024,5,23,6,2,22,800,,,,,,,,,-0.006592,-0.474121,1.673584,35.400391,10.131836,4.943848,,,,,,,,,,,0.0,1.0,1.0,0.0,0.0,0.0,0.0,4.0,0.0,0.06123049333333333,-0.24160486666666667,0.9394140533333335,-4.434407573333333,1.3224284133333324,-7.106119746666667,0.7100163204387009,-2.9096294636898383,-10.88795496487153,1.9680616220858065,12.27997764251557,-2.028414012412438,12.601015072396367,-1.3153741129268528,12.66825502630825,-1.2970019861031126,-0.06782249333333333,-0.23251613333333335,0.7341699466666665,1.034508573333333,0.7730906502155943,0.6404359638522856,0.7053751730029874,0.7872080480360508
LBP08_S00,LBP08,146,147,0,146,146,1716444142.84,2024-05-23 06:02:22.840000+00:00,2024-05-23 15:02:22.840000+09:00,2024,5,23,6,2,22,840,,,,,,,,,0.029785,-0.084229,1.012451,31.12793,105.651855,20.263672,,,,,,,,,,,0.0,1.0,1.0,0.0,0.0,0.0,0.0,4.0,0.0,0.05857423999999999,-0.23316410666666665,0.9119563733333332,-5.205078146666667,1.4542643466666656,-7.530924440000001,-2.788439534696255,-2.571345863818793,-8.375357068438618,1.8565240406979562,12.177123807962818,-2.3634282951499825,12.542520442656649,-1.3175878785178967,12.54801136157821,-1.294802221607005,-0.028789239999999994,0.14893510666666665,0.10049462666666675,0.2782189733333334,0.18196059003658374,0.6251953995578089,0.703098225539496,0.774234138548831
LBP08_S00,LBP08,147,148,0,147,147,1716444142.88,2024-05-23 06:02:22.880000+00:00,2024-05-23 15:02:22.880000+09:00,2024,5,23,6,2,22,880,,,,,,,,,-0.489014,-0.162598,0.018066,-79.89502,99.609375,-8.911133,,,,,,,,,,,0.0,1.0,1.0,0.0,0.0,0.0,0.0,4.0,0.0,0.05706708,-0.23060225333333334,0.8877408799999998,-4.578450546666667,-0.557454400000001,-7.79459632,-4.4775111943448955,-2.9510338159031027,-5.972654695792247,1.6774235929241603,12.059082455326694,-2.6023344829816724,12.450195353318044,-1.3209708403358889,12.451707844281946,-1.2977713912666005,-0.54608108,0.06800425333333335,-0.8696748799999998,1.4837602133333332,1.0291567039612601,0.6346869627189975,0.6972770392963719,0.7760884627987025
LBP08_S00,LBP08,148,149,0,148,148,1716444142.92,2024-05-23 06:02:22.920000+00:00,2024-05-23 15:02:22.920000+09:00,2024,5,23,6,2,22,920,,,,,,,,,-0.00293,-0.310791,0.219482,-47.058105,-89.294434,-13.183594,,,,,,,,,,,0.0,1.0,1.0,0.0,0.0,0.0,0.0,4.0,0.0,0.0630762,-0.22610681333333338,0.8799902266666667,-5.203450546666667,-4.248860653333335,-8.752441373333333,-4.037273729663931,-3.5332531398836653,-3.866416869900402,1.515932643737603,11.917752329731346,-2.7569911577776884,12.326064766065063,-1.29103979815117,12.381682182051097,-1.3042388998496337,-0.0660062,-0.0846841866666666,-0.6605082266666666,0.8111986133333333,0.6691781133630862,0.6483727626021265,0.6993784576468012,0.7698632216244576
LBP08_S00,LBP08,149,150,0,149,149,1716444142.96,2024-05-23 06:02:22.960000+00:00,2024-05-23 15:02:22.960000+09:00,2024,5,23,6,2,22,960,,,,,,,,,0.222656,-0.162842,0.345947,24.902344,-146.66748,-38.085938,,,,,,,,,,,0.0,1.0,1.0,0.0,0.0,0.0,0.0,4.0,0.0,0.07297529333333333,-0.24251957333333332,0.8995052,-4.38313804,-3.586425746666667,-9.160970026666668,-1.7045669429741384,-3.648416295935588,-2.2034725335794767,1.4477499660186375,11.771815677893922,-2.8451300591208675,12.196982797877894,-1.269616888233154,12.337723897822993,-1.3091136851658294,0.14968070666666666,0.07967757333333333,-0.5535582,0.78291648,0.5789468977615835,0.6382660154360166,0.6995649161784178,0.7643982606414713
LBP08_S00,LBP08,150,151,0,150,150,1716444143.0,2024-05-23 06:02:23+00:00,2024-05-23 15:02:23+09:00,2024,5,23,6,2,23,0,6.0,2.0,21.0,40.548882,141.546234,9.001,3.0,10.0,0.528564,-0.093994,0.919434,22.644043,-75.317383,-19.592285,-557.0,14.0,590.0,384.0,0.0,1023.700012,34.93,0.106035,-86.591583,4.057031,0.0,1.0,1.0,0.0,0.0,0.0,0.0,4.0,0.0,0.06805666666666667,-0.2543001733333333,0.9201529866666668,-1.4274088799999998,-1.8343098666666675,-8.781738253333334,1.7639007525404646,-2.917028629573518,-1.1383129255184632,1.518305996120256,11.655134532710981,-2.890662576141606,12.103856583855922,-1.3006651567153744,12.317909195562667,-1.31122844641865,0.4605073333333334,0.16030617333333333,-0.0007189866666668099,0.6215324933333335,0.48761213090363265,0.6175697786788276,0.6896655653406703,0.7571934330433584
LBP08_S00,LBP08,151,152,0,151,151,1716444143.04,2024-05-23 06:02:23.040000+00:00,2024-05-23 15:02:23.040000+09:00,2024,5,23,6,2,23,40,,,,,,,,,0.227051,-0.199463,1.36792,-39.916992,42.96875,36.92627,,,,,,,,,,,0.0,1.0,1.0,0.0,0.0,0.0,0.0,4.0,0.0,0.06312502666666667,-0.24930993333333334,0.9316015466666668,1.3590494666666668,-0.2319335600000008,-8.485514293333333,5.309287175883961,-1.5000032245272266,-0.8363456292806772,1.7306774831556144,11.595134403729892,-2.924116401312833,12.082749816150674,-1.315015047471635,12.32148991397906,-1.3091913106297475,0.16392597333333334,0.04984693333333334,0.4363184533333332,0.6500913599999999,0.4687539164798632,0.6035048204489003,0.6762354242042262,0.7512822589459922
LBP08_S00,LBP08,152,153,0,152,152,1716444143.08,2024-05-23 06:02:23.080000+00:00,2024-05-23 15:02:23.080000+09:00,2024,5,23,6,2,23,80,,,,,,,,,-0.197998,-0.6521,1.739014,67.687988,31.25,1.281738,,,,,,,,,,,0.0,1.0,1.0,0.0,0.0,0.0,0.0,4.0,0.0,0.05916994666666666,-0.2430111066666667,0.9224544133333332,1.4095052000000001,1.3370768533333326,-8.27636716,7.888453235019484,0.02226883520834913,-1.4154381688505393,2.0462156125563937,11.596025157138225,-2.9807339280668543,12.146586867428274,-1.3246156575483057,12.352179821944974,-1.305229660838678,-0.25716794666666665,-0.4090888933333333,0.8165595866666668,1.4828164266666668,0.9488196003554514,0.6193342792084247,0.6771943680538735,0.7375535493767981
LBP08_S00,LBP08,153,154,0,153,153,1716444143.12,2024-05-23 06:02:23.120000+00:00,2024-05-23 15:02:23.120000+09:00,2024,5,23,6,2,23,120,,,,,,,,,0.044922,0.061768,1.594482,41.19873,66.833496,4.577637,,,,,,,,,,,0.0,1.0,1.0,0.0,0.0,0.0,0.0,4.0,0.0,0.05629885333333334,-0.23920577333333332,0.8947884000000002,1.0351562533333336,0.9773763199999993,-9.066568986666667,8.774550579641273,1.0633542447339521,-2.861411912421129,2.3971976357420446,11.638559326927583,-3.0951904045636995,12.279365755271055,-1.3322829776449192,12.419623108932871,-1.3027175662611088,-0.011376853333333346,0.3009737733333333,0.6996935999999998,1.0120442266666665,0.7617649105250469,0.6346530836571025,0.6876457743518517,0.7371571893236765
LBP08_S00,LBP08,154,155,0,154,154,1716444143.16,2024-05-23 06:02:23.160000+00:00,2024-05-23 15:02:23.160000+09:00,2024,5,23,6,2,23,160,,,,,,,,,-0.183594,-0.080811,0.769043,9.094238,162.719727,11.535645,,,,,,,,,,,0.0,1.0,1.0,0.0,0.0,0.0,0.0,4.0,0.0,0.057402360000000006,-0.23663414666666663,0.8754491999999999,2.3844401066666667,-1.669921853333334,-9.55729164,7.733964576514294,1.459708550780236,-4.977524739303755,2.7065562188026164,11.696947668958792,-3.2942913941358496,12.449754500606716,-1.3251161066413046,12.537645367468937,-1.3051334605653193,-0.24099636000000002,0.15582314666666663,-0.1064061999999999,0.5032257066666666,0.3060757716134864,0.6409860661787122,0.6734224407966702,0.7313962168539831
LBP08_S00,LBP08,155,156,0,155,155,1716444143.2,2024-05-23 06:02:23.200000+00:00,2024-05-23 15:02:23.200000+09:00,2024,5,23,6,2,23,200,,,,,,,,,-0.243652,0.019043,-0.041748,-24.963379,-39.794922,-8.666992,,,,,,,,,,,0.0,1.0,1.0,0.0,0.0,0.0,0.0,4.0,0.0,0.06565432,-0.23979496000000003,0.8792447733333334,1.98649088,-4.977213520000001,-9.630533826666666,5.021689589856071,1.6250464519492067,-7.408754453632279,2.9074238023968593,11.76194952703676,-3.590641572281141,12.636822256560297,-1.2950027550378254,12.719758767780622,-1.3115433836449508,-0.30930632,0.25883796000000003,-0.9209927733333334,1.4891370533333335,1.0054328310042044,0.6572685397836938,0.6844005249976732,0.7285664414074607
LBP08_S00,LBP08,156,157,0,156,156,1716444143.24,2024-05-23 06:02:23.240000+00:00,2024-05-23 15:02:23.240000+09:00,2024,5,23,6,2,23,240,,,,,,,,,0.003662,-0.176025,0.287842,-12.451172,-131.164551,-38.757324,,,,,,,,,,,0.0,1.0,1.0,0.0,0.0,0.0,0.0,4.0,0.0,0.07043297333333334,-0.24108401333333332,0.9018391733333332,3.745930986666667,-3.277994773333334,-9.206542946666668,1.212915160845639,2.312963822008567,-9.737682049696382,2.955940408830685,11.854468079917103,-3.9801488542689962,12.8494195223158,-1.2779713806072022,12.974171771442323,-1.315256983083697,-0.06677097333333334,0.06505901333333333,-0.6139971733333331,0.7458271599999998,0.6210342719666208,0.6659181874967295,0.6869639284263623,0.7283473196508272
LBP08_S00,LBP08,157,158,0,157,157,1716444143.28,2024-05-23 06:02:23.280000+00:00,2024-05-23 15:02:23.280000+09:00,2024,5,23,6,2,23,280,,,,,,,,,0.435791,-0.041504,0.778564,6.958008,-96.740723,-39.428711,,,,,,,,,,,0.0,1.0,1.0,0.0,0.0,0.0,0.0,4.0,0.0,0.06511396,-0.2377636933333333,0.9234830533333334,5.927734373333333,-0.774739573333334,-8.780924453333334,-3.0418353050545295,4.127069554538268,-11.607691373881954,2.8342669966285037,12.019550862098633,-4.444456509224274,13.124628223197012,-1.2958498945601977,13.301019218772733,-1.3149181508523358,0.37067704,0.19625969333333332,-0.14491905333333333,0.7118557866666666,0.44375766723459004,0.6623192974532703,0.6817450505471291,0.7279710737071742
LBP08_S00,LBP08,158,159,0,158,158,1716444143.32,2024-05-23 06:02:23.320000+00:00,2024-05-23 15:02:23.320000+09:00,2024,5,23,6,2,23,320,,,,,,,,,0.260742,-0.193359,1.134277,-67.382812,6.164551,10.681152,,,,,,,,,,,0.0,1.0,1.0,0.0,0.0,0.0,0.0,4.0,0.0,0.06021811999999999,-0.23727866666666667,0.9335221199999999,8.4358724,2.066243493333333,-7.983398413333334,-7.227959469914001,7.09286278884583,-12.813155248050466,2.5451486178319436,12.303265373652467,-4.956982719146293,13.506287351425728,-1.3151987411932768,13.693237020849272,-1.3098146293035355,0.20052388,0.04391966666666666,0.20075488000000008,0.44519842666666676,0.2871259051604016,0.6309551117927357,0.6663631652367047,0.7179524944610148
LBP08_S00,LBP08,159,160,0,159,159,1716444143.36,2024-05-23 06:02:23.360000+00:00,2024-05-23 15:02:23.360000+09:00,2024,5,23,6,2,23,360,,,,,,,,,-0.073242,-0.30835,1.578613,18.127441,42.785645,-11.230469,,,,,,,,,,,0.0,1.0,1.0,0.0,0.0,0.0,0.0,4.0,0.0,0.05329104000000001,-0.22679363999999996,0.9186653466666667,7.932942706666668,3.4822591199999997,-6.958007786666667,-11.064948740663185,10.567679943658417,-13.317238347724649,2.1025506682054163,12.725972571398804,-5.489672253055279,14.018116800994731,-1.3337161190294677,14.140093383952632,-1.3067021882650203,-0.12653304,-0.08155636000000005,0.6599476533333334,0.8680370533333335,0.6768995163303522,0.6252531624558074,0.6592383464856912,0.7157349868832609
LBP08_S00,LBP08,160,161,0,160,160,1716444143.4,2024-05-23 06:02:23.400000+00:00,2024-05-23 15:02:23.400000+09:00,2024,5,23,6,2,23,400,,,,,,,,,0.018311,-0.350098,1.57373,1.220703,53.710938,-7.019043,,,,,,,,,,,0.0,1.0,1.0,0.0,0.0,0.0,0.0,4.0,0.0,0.051429053333333336,-0.22293296000000004,0.8981152133333334,8.03466796,1.6723632933333328,-7.300618466666666,-14.47156356338223,13.539012741652684,-13.204306268989596,1.5236881256701271,13.267533081064911,-6.017844503814862,14.647986620472954,-1.3378011511028365,14.630517645345474,-1.3046760504526933,-0.033118053333333335,-0.12716503999999998,0.6756147866666666,0.83589788,0.6882754483616546,0.6347390081084953,0.6659530508601607,0.714999272429883
LBP08_S00,LBP08,161,162,0,161,161,1716444143.44,2024-05-23 06:02:23.440000+00:00,2024-05-23 15:02:23.440000+09:00,2024,5,23,6,2,23,440,,,,,,,,,-0.037842,-0.187012,1.046631,24.291992,172.973633,19.104004,,,,,,,,,,,0.0,1.0,1.0,0.0,0.0,0.0,0.0,4.0,0.0,0.05710288000000001,-0.2214323066666667,0.8939583200000001,8.696289053333333,-1.6446940000000005,-7.670898413333333,-17.43939473555431,15.115773906903906,-12.611949368277712,0.8261123362479548,13.872164037341069,-6.522322478545971,15.351224289454766,-1.311626725158022,15.153713780225416,-1.307185331543944,-0.09494488000000001,0.03442030666666668,0.15267268,0.2820378666666667,0.1830525470121194,0.6316904064821518,0.6428508208198741,0.7116670361911716
LBP08_S00,LBP08,162,163,0,162,162,1716444143.48,2024-05-23 06:02:23.480000+00:00,2024-05-23 15:02:23.480000+09:00,2024,5,23,6,2,23,480,,,,,,,,,-0.418457,0.103027,-0.088867,-74.890137,15.441895,-22.644043,,,,,,,,,,,0.0,1.0,1.0,0.0,0.0,0.0,0.0,4.0,0.0,0.06906901333333333,-0.23206056,0.9094400933333334,8.450520813333332,-3.1461588400000005,-7.351074186666667,-19.892437952458614,14.914554944739267,-11.691155406335884,0.030414818149610223,14.46874623513064,-6.989968694799407,16.068764888193673,-1.2735804420603036,15.69698644869355,-1.3157880279909455,-0.48752601333333334,0.33508756,-0.9983070933333335,1.8209206666666669,1.1604233447940868,0.6530910066377145,0.649282971923253,0.7151905994746519
LBP08_S00,LBP08,163,164,0,163,163,1716444143.52,2024-05-23 06:02:23.520000+00:00,2024-05-23 15:02:23.520000+09:00,2024,5,23,6,2,23,520,,,,,,,,,0.14624,-0.276123,0.334961,9.765625,-106.567383,-32.653809,,,,,,,,,,,0.0,1.0,1.0,0.0,0.0,0.0,0.0,4.0,0.0,0.06578125333333333,-0.24546876000000004,0.9356900933333334,9.687499986666667,-1.7049153466666673,-6.644693973333333,-21.60173161432269,13.134030800481943,-10.613434370063711,-0.8336544464232974,14.994107467149917,-7.414506069601955,16.747929386304637,-1.301158567259765,16.243186097098942,-1.3224516027403155,0.08045874666666668,-0.03065423999999997,-0.6007290933333334,0.71184208,0.6068679723978166,0.6477470558533146,0.6496690460509843,0.7021404352729497
LBP08_S00,LBP08,164,165,0,164,164,1716444143.56,2024-05-23 06:02:23.560000+00:00,2024-05-23 15:02:23.560000+09:00,2024,5,23,6,2,23,560,,,,,,,,,0.372559,-0.277832,1.158203,-15.991211,-71.655273,-35.339355,,,,,,,,,,,0.0,1.0,1.0,0.0,0.0,0.0,0.0,4.0,0.0,0.06635742666666666,-0.25120118666666663,0.96062824,11.732584613333332,0.05696615999999925,-5.8748372,-22.183134130086547,10.327209748721778,-9.601704233461417,-1.7209798116267594,15.407195857098788,-7.798574238940411,17.35399711453514,-1.3048547285180372,16.77071827900175,-1.324085026244523,0.3062015733333333,-0.026630813333333392,0.19757476000000007,0.5304071466666668,0.3653825249237587,0.6507899705655595,0.636560245193071,0.6998787678771968
LBP08_S00,LBP08,165,166,0,165,165,1716444143.6,2024-05-23 06:02:23.600000+00:00,2024-05-23 15:02:23.600000+09:00,2024,5,23,6,2,23,600,,,,,,,,,0.191162,-0.645264,1.687988,-51.574707,32.836914,-0.915527,,,,,,,,,,,0.0,1.0,1.0,0.0,0.0,0.0,0.0,4.0,0.0,0.06251628000000001,-0.25162436,0.9734993333333334,12.135416653333333,4.018554706666666,-4.569498653333333,-21.169228797264243,7.072768223362878,-8.936122376900645,-2.567748963517329,15.690106586033304,-8.156019134016436,17.868783605359717,-1.3200955659503295,17.25737105618057,-1.3245399378120668,0.12864572,-0.39363963999999996,0.7144886666666667,1.2367740266666667,0.825830456115999,0.6379000829150714,0.6332285699728767,0.6917287759307312
LBP08_S00,LBP08,166,167,0,166,166,1716444143.64,2024-05-23 06:02:23.640000+00:00,2024-05-23 15:02:23.640000+09:00,2024,5,23,6,2,23,640,,,,,,,,,-0.15625,-0.711914,1.945068,4.02832,-10.375977,-5.79834,,,,,,,,,,,0.0,1.0,1.0,0.0,0.0,0.0,0.0,4.0,0.0,0.05046876,-0.24806966666666663,0.9631933333333332,12.360026026666667,5.743815119999999,-4.346516893333333,-18.13106928118436,3.774130067824141,-8.898605224593831,-3.292991734764703,15.84107178874627,-8.51196334300019,18.282146206997158,-1.3639983450772188,17.6865541149613,-1.3245148850081914,-0.20671876,-0.4638443333333334,0.9818746666666668,1.6524377600000002,1.105423933313894,0.6479873026315349,0.6401777086908942,0.691858417487129
LBP08_S00,LBP08,167,168,0,167,167,1716444143.68,2024-05-23 06:02:23.680000+00:00,2024-05-23 15:02:23.680000+09:00,2024,5,23,6,2,23,680,,,,,,,,,0.076172,-0.225586,1.796875,2.746582,45.776367,5.187988,,,,,,,,,,,0.0,1.0,1.0,0.0,0.0,0.0,0.0,4.0,0.0,0.0505176,-0.24646810666666666,0.9557193733333332,12.851562493333335,4.496256519999998,-4.33837888,-12.82307451116554,0.6730367142673254,-9.664988207484306,-3.805914715211325,15.867993257316963,-8.898562871299562,18.586624707250905,-1.3624856420538973,18.052625433934512,-1.325546188684124,0.0256544,0.02088210666666665,0.8411556266666668,0.8876921333333334,0.8418057964228988,0.6514778462615461,0.6489234315147416,0.6960332587575668
LBP08_S00,LBP08,168,169,0,168,168,1716444143.72,2024-05-23 06:02:23.720000+00:00,2024-05-23 15:02:23.720000+09:00,2024,5,23,6,2,23,720,,,,,,,,,-0.070068,-0.089111,0.848877,-9.765625,156.188965,35.766602,,,,,,,,,,,0.0,1.0,1.0,0.0,0.0,0.0,0.0,4.0,0.0,0.05675457333333334,-0.23947592,0.95262368,12.335611973333332,3.29182944,-4.467773413333333,-5.323673805983936,-2.016181863536736,-11.198747186575394,-4.0188616674506825,15.787345982775493,-9.346512758762579,18.781609170453784,-1.331532976235351,18.36202268004973,-1.3309891322676075,-0.12682257333333335,0.15036492,-0.10374667999999998,0.38093417333333335,0.2223891811319011,0.6369708624110648,0.6312695643081256,0.6894806383212723
LBP08_S00,LBP08,169,170,0,169,169,1716444143.76,2024-05-23 06:02:23.760000+00:00,2024-05-23 15:02:23.760000+09:00,2024,5,23,6,2,23,760,,,,,,,,,-0.150391,-0.091553,0.038818,-46.936035,-55.297852,-36.132812,,,,,,,,,,,0.0,1.0,1.0,0.0,0.0,0.0,0.0,4.0,0.0,0.056057960000000004,-0.24382813333333336,0.9592382666666667,10.444335933333333,2.5610351733333325,-4.015299453333333,3.861154316963678,-4.026494268853315,-13.211735136984933,-3.8644154947721354,15.62628621202136,-9.874982164241976,18.884644572782964,-1.3382652347049073,18.629166711849344,-1.3365282216333196,-0.20644896000000001,0.15227513333333337,-0.9204202666666667,1.27914436,0.9555011023580788,0.6477824713497585,0.636678689807828,0.6890696459647826
LBP08_S00,LBP08,170,171,0,170,170,1716444143.8,2024-05-23 06:02:23.800000+00:00,2024-05-23 15:02:23.800000+09:00,2024,5,23,6,2,23,800,,,,,,,,,0.208984,-0.193604,0.345459,43.518066,-123.168945,-33.447266,,,,,,,,,,,0.0,1.0,1.0,0.0,0.0,0.0,0.0,4.0,0.0,0.058118506666666674,-0.25214519999999996,0.9811393066666667,10.8585612,0.7405599066666664,-3.8045247066666668,13.775424325726043,-5.118567500180113,-15.225214381821482,-3.3133985217430935,15.421543512014157,-10.483990739514836,18.939817208280235,-1.3375506230640837,18.86942128096254,-1.3427558203277203,0.15086549333333332,0.05854119999999996,-0.6356803066666668,0.845087,0.655954969079416,0.6430970441043116,0.6417665039782986,0.6846157967034288
LBP08_S00,LBP08,171,172,0,171,171,1716444143.84,2024-05-23 06:02:23.840000+00:00,2024-05-23 15:02:23.840000+09:00,2024,5,23,6,2,23,840,,,,,,,,,0.411621,-0.265869,0.875977,-49.133301,-92.224121,-36.499023,,,,,,,,,,,0.0,1.0,1.0,0.0,0.0,0.0,0.0,4.0,0.0,0.06319664000000001,-0.2560872533333333,1.0075813733333332,11.54785156,1.223958333333333,-3.3048502400000004,23.1167797925137,-5.26365443492368,-16.70718594194645,-2.3887273300425456,15.21099733461721,-11.152278177192693,19.011937479186923,-1.3219397619173445,19.093347888471236,-1.343860355843119,0.34842436,-0.009781746666666702,-0.1316043733333332,0.4898104799999999,0.37257875447980093,0.6507217706820402,0.6379585851199245,0.6856394072536773
LBP08_S00,LBP08,172,173,0,172,172,1716444143.88,2024-05-23 06:02:23.880000+00:00,2024-05-23 15:02:23.880000+09:00,2024,5,23,6,2,23,880,,,,,,,,,0.330566,-0.499512,1.338867,75.805664,46.203613,-27.22168,,,,,,,,,,,0.0,1.0,1.0,0.0,0.0,0.0,0.0,4.0,0.0,0.0611784,-0.25416668000000003,1.0159082000000001,11.76757812,4.781901039999999,-2.69531248,30.48101389913303,-4.74804932812621,-17.21890844964306,-1.1694867740772243,15.02107536149216,-11.841034515178416,19.162737349345864,-1.328009877895141,19.305340245539554,-1.3394665084259665,0.2693876,-0.24534531999999998,0.3229587999999999,0.8376917199999998,0.4868946411464212,0.6290312881694466,0.6318591254442221,0.6745284555873967
LBP08_S00,LBP08,173,174,0,173,173,1716444143.92,2024-05-23 06:02:23.920000+00:00,2024-05-23 15:02:23.920000+09:00,2024,5,23,6,2,23,920,,,,,,,,,-0.107666,-0.770264,1.742188,80.810547,35.15625,-4.089355,,,,,,,,,,,0.0,1.0,1.0,0.0,0.0,0.0,0.0,4.0,0.0,0.05319012000000001,-0.2516634266666667,1.0041145733333334,10.37841796,5.996093746666666,-1.7073567466666668,34.702383728681525,-4.058854807401059,-16.506670646353967,0.21860857507003661,14.858721169196118,-12.501301341032574,19.41936970430075,-1.3565494609168876,19.50649554488642,-1.3369685068658899,-0.16085612,-0.5186005733333332,0.7380734266666666,1.41753012,0.9162825051012333,0.6389154638389725,0.6436441132205495,0.6792241263775249
LBP08_S00,LBP08,174,175,0,174,174,1716444143.96,2024-05-23 06:02:23.960000+00:00,2024-05-23 15:02:23.960000+09:00,2024,5,23,6,2,23,960,,,,,,,,,0.106934,-0.320312,1.706299,47.912598,32.226562,4.577637,,,,,,,,,,,0.0,1.0,1.0,0.0,0.0,0.0,0.0,4.0,0.0,0.05028648,-0.2508463733333333,0.9905729066666666,7.70345052,3.7597656266666664,-1.564127573333333,35.18540404319832,-3.5893247250894076,-14.520062800882968,1.6260247367979694,14.715148180192541,-13.082103853067894,19.756542805667102,-1.367130715462042,19.698970097695174,-1.336001330633136,0.05664752,-0.06946562666666667,0.7157260933333334,0.8418392400000001,0.7213170284199164,0.6446102690653057,0.6414381422506612,0.6812467004740471
LBP08_S00,LBP08,175,176,0,175,175,1716444144.0,2024-05-23 06:02:24+00:00,2024-05-23 15:02:24+09:00,2024,5,23,6,2,24,0,6.0,2.0,22.0,40.548843,141.546326,8.196,3.0,10.0,-0.110596,-0.406738,0.695557,0.12207,131.225586,36.193848,-561.0,15.0,589.0,508.0,0.0,1023.599976,34.970001,0.105044,-85.766052,4.057031,0.0,1.0,1.0,0.0,0.0,0.0,0.0,5.0,0.0,0.0607064,-0.2562695466666666,0.9820344933333333,6.939290359999998,1.4526367199999997,-1.3338215733333332,32.10614355972798,-3.3616538512001743,-11.38840604830142,2.910270479187089,14.580682026144535,-13.53764009499995,20.108049680446694,-1.3311409211043168,19.88867648593083,-1.3349783075303892,-0.1713024,-0.15046845333333336,-0.2864774933333333,0.6082483466666666,0.3661347045567185,0.6397511720114293,0.6286604753451285,0.6730274342309233
LBP08_S00,LBP08,176,177,0,176,176,1716444144.04,2024-05-23 06:02:24.040000+00:00,2024-05-23 15:02:24.040000+09:00,2024,5,23,6,2,24,40,,,,,,,,,-0.161377,0.254883,-0.135986,75.866699,-36.865234,-45.043945,,,,,,,,,,,0.0,1.0,1.0,0.0,0.0,0.0,0.0,5.0,0.0,0.06367841333333334,-0.2565169466666667,0.9761360533333334,5.939127599999999,1.604817706666666,-1.0091145466666667,26.40412305966492,-2.976773713557799,-7.403657894113348,3.9664354015736856,14.461611077602223,-13.833786410764485,20.402069777680314,-1.3200598709056919,20.08479222489603,-1.3378878957737785,-0.22505541333333334,0.5113999466666668,-1.1121220533333334,1.8485774133333335,1.2445863995848807,0.6707844713356299,0.637144645892265,0.6744184399146942
LBP08_S00,LBP08,177,178,0,177,177,1716444144.08,2024-05-23 06:02:24.080000+00:00,2024-05-23 15:02:24.080000+09:00,2024,5,23,6,2,24,80,,,,,,,,,0.312012,0.072754,0.316895,-1.525879,-133.972168,-42.358398,,,,,,,,,,,0.0,1.0,1.0,0.0,0.0,0.0,0.0,5.0,0.0,0.06019534666666666,-0.2616732,0.9822688666666667,6.503906253333333,0.7194010399999994,-1.2198892933333332,19.56376191155495,-1.8583283826475727,-3.0269951535429027,4.748985878035883,14.38727794229632,-13.954866216906202,20.59817770071956,-1.3375056264531338,20.297033336417435,-1.344762871846334,0.25181665333333336,0.3344272,-0.6653738666666666,1.25161772,0.7861142165352254,0.6642762559828209,0.6418052675956228,0.6728883306968559
LBP08_S00,LBP08,178,179,0,178,178,1716444144.12,2024-05-23 06:02:24.120000+00:00,2024-05-23 15:02:24.120000+09:00,2024,5,23,6,2,24,120,,,,,,,,,0.517822,-0.134521,0.928711,8.728027,-82.03125,-33.26416,,,,,,,,,,,0.0,1.0,1.0,0.0,0.0,0.0,0.0,5.0,0.0,0.06547204,-0.26581708000000004,1.0068033733333335,8.085937506666667,0.7234700399999994,-0.9041340799999998,13.252585724456441,0.3453137602815426,1.1173118020276518,5.279089307014141,14.401090492707581,-13.910173744825096,20.706354698541343,-1.321861213907813,20.53349667382424,-1.348248053091664,0.45234996,0.13129608000000004,-0.07809237333333352,0.6617384133333336,0.47744901896244457,0.6529036203203168,0.6437783519887097,0.6760650563413401
LBP08_S00,LBP08,179,180,0,179,179,1716444144.16,2024-05-23 06:02:24.160000+00:00,2024-05-23 15:02:24.160000+09:00,2024,5,23,6,2,24,160,,,,,,,,,0.22583,-0.194336,1.361816,-69.030762,24.780273,50.292969,,,,,,,,,,,0.0,1.0,1.0,0.0,0.0,0.0,0.0,5.0,0.0,0.06415368,-0.26726564,1.0203938666666665,7.360026053333335,4.113769519999999,0.25878909333333333,8.92345753910824,3.4620170334197007,4.319971082859447,5.636027608578471,14.539571174044369,-13.737374901510718,20.781708455139515,-1.3280350036774367,20.801494601245768,-1.3480774399270872,0.16167631999999998,0.07292964000000002,0.3414221333333334,0.5760280933333334,0.3847428205557012,0.6560503022780054,0.6485181842283587,0.6676317279571153
LBP08_S00,LBP08,180,181,0,180,180,1716444144.2,2024-05-23 06:02:24.200000+00:00,2024-05-23 15:02:24.200000+09:00,2024,5,23,6,2,24,200,,,,,,,,,-0.138916,-0.420654,1.710938,21.728516,38.146973,15.50293,,,,,,,,,,,0.0,1.0,1.0,0.0,0.0,0.0,0.0,5.0,0.0,0.05383792000000001,-0.2686556133333333,1.0129264266666667,6.940104173333334,6.201171866666666,1.37939456,7.498005367871399,6.804698261888456,5.9556187507516425,5.9359478232933265,14.811759104519908,-13.499150151480652,20.90097459793225,-1.3666465054979782,21.110923495841764,-1.348741989445005,-0.19275392000000002,-0.15199838666666665,0.6980115733333334,1.04276388,0.7399173870993379,0.6454296845218107,0.6513491121527523,0.6714102448390523
LBP08_S00,LBP08,181,182,0,181,181,1716444144.24,2024-05-23 06:02:24.240000+00:00,2024-05-23 15:02:24.240000+09:00,2024,5,23,6,2,24,240,,,,,,,,,0.127686,-0.390381,1.760254,67.932129,39.367676,18.920898,,,,,,,,,,,0.0,1.0,1.0,0.0,0.0,0.0,0.0,5.0,0.0,0.04585614666666667,-0.25992514666666666,1.0010383999999999,7.687988280000001,5.148925773333333,1.3118489866666665,9.21597936369308,9.489164348491892,5.687688669142609,6.304586997841049,15.191325678459583,-13.271642604714948,21.134348594400937,-1.3906895226429001,21.47678634483681,-1.3506467551615255,0.08182985333333333,-0.13045585333333332,0.7592156000000001,0.9715013066666667,0.7746761787023293,0.651575360791239,0.6587467741439843,0.6751677392146546
LBP08_S00,LBP08,182,183,0,182,182,1716444144.28,2024-05-23 06:02:24.280000+00:00,2024-05-23 15:02:24.280000+09:00,2024,5,23,6,2,24,280,,,,,,,,,-0.072998,-0.138184,0.954834,13.793945,156.37207,36.987305,,,,,,,,,,,0.0,1.0,1.0,0.0,0.0,0.0,0.0,5.0,0.0,0.052255880000000005,-0.25538086666666665,0.9931510266666667,6.442871093333333,2.746582026666666,0.8968099199999998,13.662498150933446,10.86295316870368,3.611137715225791,6.851086923878388,15.62584380520773,-13.127197096105917,21.5273707234139,-1.36286169034844,21.917639947200833,-1.3532856959518058,-0.12525387999999998,0.11719686666666665,-0.0383170266666667,0.28076777333333336,0.17576073095009842,0.6408554833398594,0.6515873903965648,0.6681151948113725
LBP08_S00,LBP08,183,184,0,183,183,1716444144.32,2024-05-23 06:02:24.320000+00:00,2024-05-23 15:02:24.320000+09:00,2024,5,23,6,2,24,320,,,,,,,,,-0.271973,0.026123,-0.070068,-22.277832,7.019043,-12.084961,,,,,,,,,,,0.0,1.0,1.0,0.0,0.0,0.0,0.0,5.0,0.0,0.05463544,-0.25691732,0.9895670400000001,5.56233724,2.819010413333333,0.7910156399999999,19.918336707438,10.786640034283947,0.25569535292242335,7.647820392175908,16.057309406579087,-13.11696928198902,22.09934897851605,-1.3548433292711206,22.449863329219106,-1.3568677777932154,-0.32660844,0.28304032,-1.05963504,1.6692838,1.1443825032832065,0.6751457472647716,0.6530504295287537,0.6692906925793938
LBP08_S00,LBP08,184,185,0,184,184,1716444144.36,2024-05-23 06:02:24.360000+00:00,2024-05-23 15:02:24.360000+09:00,2024,5,23,6,2,24,360,,,,,,,,,0.032471,-0.250244,0.210449,57.189941,-110.168457,-17.150879,,,,,,,,,,,0.0,1.0,1.0,0.0,0.0,0.0,0.0,5.0,0.0,0.05110028,-0.26449869333333337,0.9976529733333332,5.64046224,1.8733723999999996,0.5688476666666666,26.766497790112286,9.614613526189435,-3.5617559165448687,8.7184803037804,16.441893947626664,-13.259439518650815,22.850831751627073,-1.3737762106412184,23.080711416005023,-1.364620539454977,-0.018629279999999998,0.014254693333333346,-0.7872039733333333,0.8200879466666666,0.7875533899280308,0.6795719022086789,0.6524125323322432,0.6660161983933538
