file_name,test_id,_program_index,program_index,session_id,index,_index,unixtime,datetime_utc,datetime_jst,rtc_year,rtc_month,rtc_day,rtc_hour,rtc_min,rtc_sec,rtc_msec,gps_hour,gps_min,gps_sec,latitude,longitude,altitude,fix_type,SIV,acc_x,acc_y,acc_z,gyro_x,gyro_y,gyro_z,mag_x,mag_y,mag_z,illuminance,atmopress,water_pressure,water_temp,depth,alt_wps,battery_level,behavior_class,camera_command,camera_recording,camera_count,play_audio,speaker_on,audio_file,prev_sd_write_time_ms,delay_occurred_counter,acc_x_ma,acc_y_ma,acc_z_ma,gyro_x_ma,gyro_y_ma,gyro_z_ma,gyro_x_lowpass,gyro_y_lowpass,gyro_z_lowpass,angle_x,angle_y,angle_z,combined_angle_change,gravity_adjusted_angle,smoothed_angle_change,smoothed_gravity_angle,acc_x_dy,acc_y_dy,acc_z_dy,ODBA,VeDBA,smoothed_VeDBA_1s,smoothed_VeDBA_2s,smoothed_VeDBA_3s
LBP08_S12,LBP08,0,1,12,0,0,1716497643.0,2024-05-23 20:54:03+00:00,2024-05-24 05:54:03+09:00,2024,5,23,20,54,3,0,20.0,54.0,1.0,40.788883,141.625992,-24.982,3.0,15.0,0.423828,-0.413086,1.032227,-49.560547,-2.319336,-2.441406,-566.0,59.0,585.0,245.0,0.0,1021.0,25.120001,0.079278,-64.287384,3.782813,1.0,1.0,1.0,12.0,0.0,0.0,0.0,3.0,0.0,,,,,,,-50.09743390630383,-1.123479793780951,-2.3380515722462514,-2.003897356252153,-0.04493919175123805,-0.09352206288985006,2.0065818003751543,,2.7740184204371716,,,,,,,,,
LBP08_S12,LBP08,1,2,12,1,1,1716497643.04,2024-05-23 20:54:03.040000+00:00,2024-05-24 05:54:03.040000+09:00,2024,5,23,20,54,3,40,,,,,,,,,0.080566,-0.414307,1.222168,89.172363,74.707031,18.554688,,,,,,,,,,,1.0,1.0,1.0,12.0,0.0,0.0,0.0,3.0,0.0,,,,,,,-26.506744740543148,0.9272309883774732,2.307171815018681,-3.0641671458738786,-0.00784995221613912,-0.0012351902891028221,3.0641774500341388,,2.6792451354892672,,,,,,,,,
LBP08_S12,LBP08,2,3,12,2,2,1716497643.08,2024-05-23 20:54:03.080000+00:00,2024-05-24 05:54:03.080000+09:00,2024,5,23,20,54,3,80,,,,,,,,,-0.424561,-0.309326,1.603516,47.424316,-30.212402,10.253906,,,,,,,,,,,1.0,1.0,1.0,12.0,0.0,0.0,0.0,3.0,0.0,,,,,,,-5.8698724658964405,2.543051992157349,6.542097553347395,-3.2989620445097363,0.09387212747015483,0.260448711844793,3.31055827300068,,2.640627697799119,,,,,,,,,
LBP08_S12,LBP08,3,4,12,3,3,1716497643.12,2024-05-23 20:54:03.120000+00:00,2024-05-24 05:54:03.120000+09:00,2024,5,23,20,54,3,120,,,,,,,,,-0.100586,-0.38501,1.689697,-16.906738,-102.783203,-7.263184,,,,,,,,,,,1.0,1.0,1.0,12.0,0.0,0.0,0.0,3.0,0.0,,,,,,,9.540840905558413,3.355468726468388,10.032807205913006,-2.9173284082874,0.22809087652889035,0.6617610000813132,3.000126349170153,,2.6773258540714466,,,,,,,,,
LBP08_S12,LBP08,4,5,12,4,4,1716497643.16,2024-05-23 20:54:03.160000+00:00,2024-05-24 05:54:03.160000+09:00,2024,5,23,20,54,3,160,,,,,,,,,0.4021,-0.545898,1.375488,9.643555,88.745117,37.597656,,,,,,,,,,,1.0,1.0,1.0,12.0,0.0,0.0,0.0,3.0,0.0,,,,,,,18.661337190026135,3.0604332861153716,12.587316427752492,-2.1708749206863542,0.35050820797350524,1.165253657191413,2.488648229605732,,2.7740205787877006,,,,,,,,,
LBP08_S12,LBP08,5,6,12,5,5,1716497643.2,2024-05-23 20:54:03.200000+00:00,2024-05-24 05:54:03.200000+09:00,2024,5,23,20,54,3,200,,,,,,,,,-0.90625,0.025146,-0.309326,71.899414,65.368652,27.038574,,,,,,,,,,,1.0,1.0,1.0,12.0,0.0,0.0,0.0,3.0,0.0,,,,,,,21.735663793301836,1.5248980861080457,14.174199140969797,-1.3014483689542808,0.41150413141782705,1.7322216228302048,2.205378710749745,,2.9125619438610206,,,,,,,,,
LBP08_S12,LBP08,6,7,12,6,6,1716497643.24,2024-05-23 20:54:03.240000+00:00,2024-05-24 05:54:03.240000+09:00,2024,5,23,20,54,3,240,,,,,,,,,0.380615,-0.217773,0.899414,-33.630371,-74.523926,-23.4375,,,,,,,,,,,1.0,1.0,1.0,12.0,0.0,0.0,0.0,3.0,0.0,,,,,,,20.07673199410059,-1.1126612519615697,14.895841234773986,-0.4983790891902572,0.3669976813393643,2.3280552722211643,2.4089230716582337,,3.187273135899597,,,,,,,,,
LBP08_S12,LBP08,7,8,12,7,7,1716497643.28,2024-05-23 20:54:03.280000+00:00,2024-05-24 05:54:03.280000+09:00,2024,5,23,20,54,3,280,,,,,,,,,0.34375,-0.367676,1.275391,6.530762,16.601562,16.601562,,,,,,,,,,,1.0,1.0,1.0,12.0,0.0,0.0,0.0,3.0,0.0,,,,,,,15.608692565370616,-4.409753692136638,14.931230194122174,0.12596861342456744,0.19060753365389876,2.9253044799860515,2.9342129479777355,,3.4130390453927175,,,,,,,,,
LBP08_S12,LBP08,8,9,12,8,8,1716497643.32,2024-05-23 20:54:03.320000+00:00,2024-05-24 05:54:03.320000+09:00,2024,5,23,20,54,3,320,,,,,,,,,-0.285156,-0.636475,1.578857,7.629395,36.865234,23.071289,,,,,,,,,,,1.0,1.0,1.0,12.0,0.0,0.0,0.0,3.0,0.0,,,,,,,10.34061918883315,-7.68988524513108,14.476124570876514,0.5395933809778934,-0.11698787615134443,3.504349462821112,3.54757837651773,,3.6665984939220806,,,,,,,,,
LBP08_S12,LBP08,9,10,12,9,9,1716497643.36,2024-05-23 20:54:03.360000+00:00,2024-05-24 05:54:03.360000+09:00,2024,5,23,20,54,3,360,,,,,,,,,-0.40625,-0.319824,1.828857,-22.827148,-108.581543,4.211426,,,,,,,,,,,1.0,1.0,1.0,12.0,0.0,0.0,0.0,3.0,0.0,,,,,,,5.911666365257054,-10.195861078768923,13.705087338266152,0.7760600355881756,-0.5248223193021013,4.052552956351758,4.159434229520901,,3.9976629191242354,,,,,,,,,
LBP08_S12,LBP08,10,11,12,10,10,1716497643.4,2024-05-23 20:54:03.400000+00:00,2024-05-24 05:54:03.400000+09:00,2024,5,23,20,54,3,400,,,,,,,,,0.617676,-0.300537,1.226807,22.460938,46.691895,51.086426,,,,,,,,,,,1.0,1.0,1.0,12.0,0.0,0.0,0.0,3.0,0.0,,,,,,,3.307144752363822,-11.276020372950402,12.759077658133544,0.9083458256827285,-0.9758631342201174,4.5629160626771,4.753693720760924,,4.420320587718078,,,,,,,,,
LBP08_S12,LBP08,11,12,12,11,11,1716497643.44,2024-05-23 20:54:03.440000+00:00,2024-05-24 05:54:03.440000+09:00,2024,5,23,20,54,3,440,,,,,,,,,-0.866699,0.754395,-0.527588,-37.902832,58.105469,-7.93457,,,,,,,,,,,1.0,1.0,1.0,12.0,0.0,0.0,0.0,3.0,0.0,,,,,,,2.7848758123647013,-10.553058070621637,11.743704688425217,1.0197408581773166,-1.3979854570449828,5.0326642502141095,5.32183654496534,,4.907369829126891,,,,,,,,,
LBP08_S12,LBP08,12,13,12,12,12,1716497643.48,2024-05-23 20:54:03.480000+00:00,2024-05-24 05:54:03.480000+09:00,2024,5,23,20,54,3,480,,,,,,,,,0.236572,-0.283936,0.545166,55.175781,-161.315918,-16.845703,,,,,,,,,,,1.0,1.0,1.0,12.0,0.0,0.0,0.0,3.0,0.0,,,,,,,3.9915596913577547,-8.037441768471213,10.725255069070322,1.1794032458316268,-1.7194831277838314,5.461674452976922,5.846152758294313,,5.407865986765804,,,,,,,,,
LBP08_S12,LBP08,13,14,12,13,13,1716497643.52,2024-05-23 20:54:03.520000+00:00,2024-05-24 05:54:03.520000+09:00,2024,5,23,20,54,3,520,,,,,,,,,0.536377,0.045654,1.180176,-9.033203,24.719238,3.417969,,,,,,,,,,,1.0,1.0,1.0,12.0,0.0,0.0,0.0,3.0,0.0,,,,,,,6.202245710792416,-4.154151201417227,9.729325793562463,1.4274930742633234,-1.8856491758405205,5.850847484719421,6.3107706011916935,,5.888277025853426,,,,,,,,,
LBP08_S12,LBP08,14,15,12,14,14,1716497643.56,2024-05-23 20:54:03.560000+00:00,2024-05-24 05:54:03.560000+09:00,2024,5,23,20,54,3,560,,,,,,,,,-0.25708,-0.56665,1.54834,40.466309,76.599121,56.213379,,,,,,,,,,,1.0,1.0,1.0,12.0,0.0,0.0,0.0,3.0,0.0,,,,,,,8.589435295084211,0.3438236436598676,8.756148180277416,1.771070486066692,-1.8718962300941258,6.201093411930517,6.715224915544168,,6.337094734598091,,,,,,,,,
LBP08_S12,LBP08,15,16,12,15,15,1716497643.6,2024-05-23 20:54:03.600000+00:00,2024-05-24 05:54:03.600000+09:00,2024,5,23,20,54,3,600,,,,,,,,,-0.366943,-0.467773,1.841309,41.992188,-80.566406,-10.131836,,,,,,,,,,,1.0,1.0,1.0,12.0,0.0,0.0,0.0,3.0,0.0,,,,,,,10.430525219843629,4.57203692944685,7.811852386372646,2.188291494860437,-1.6890147529162518,6.513567507385424,7.075871124837876,,6.748494590175747,,,,,,,,,
LBP08_S12,LBP08,16,17,12,16,16,1716497643.64,2024-05-23 20:54:03.640000+00:00,2024-05-24 05:54:03.640000+09:00,2024,5,23,20,54,3,640,,,,,,,,,0.657715,-0.27417,1.47583,-24.353027,56.82373,24.536133,,,,,,,,,,,1.0,1.0,1.0,12.0,0.0,0.0,0.0,3.0,0.0,,,,,,,11.1975121241915,7.763533442981741,6.93269688337395,2.636191979828097,-1.3784734151969822,6.790875382720381,7.413884648047372,,7.114687873255727,,,,,,,,,
LBP08_S12,LBP08,17,18,12,17,17,1716497643.68,2024-05-23 20:54:03.680000+00:00,2024-05-24 05:54:03.680000+09:00,2024,5,23,20,54,3,680,,,,,,,,,-0.697021,0.55957,-0.340576,4.760742,119.750977,-6.896973,,,,,,,,,,,1.0,1.0,1.0,12.0,0.0,0.0,0.0,3.0,0.0,,,,,,,10.532633445781528,9.47691499396699,6.18010507413912,3.057497317659358,-0.9993968154383026,7.038079585685947,7.738323338853944,,7.42734274694304,,,,,,,,,
LBP08_S12,LBP08,18,19,12,18,18,1716497643.72,2024-05-23 20:54:03.720000+00:00,2024-05-24 05:54:03.720000+09:00,2024,5,23,20,54,3,720,,,,,,,,,-0.005615,-0.201416,0.284424,-31.738281,-115.05127,-46.386719,,,,,,,,,,,1.0,1.0,1.0,12.0,0.0,0.0,0.0,3.0,0.0,,,,,,,8.173888474041256,9.68222178472491,5.610961911119354,3.3844528566210084,-0.6121079440493062,7.262518062130721,8.035755463964376,,7.683246584499408,,,,,,,,,
LBP08_S12,LBP08,19,20,12,19,19,1716497643.76,2024-05-23 20:54:03.760000+00:00,2024-05-24 05:54:03.760000+09:00,2024,5,23,20,54,3,760,,,,,,,,,0.448242,-0.175293,1.312012,-20.996094,7.202148,38.085938,,,,,,,,,,,1.0,1.0,1.0,12.0,0.0,0.0,0.0,3.0,0.0,,,,,,,3.9215800981178126,8.69615484217549,5.25068609708435,3.541316060545721,-0.2642617503622866,7.472545506014095,8.27343278529747,,7.890126568692102,,,,,,,,,
LBP08_S12,LBP08,20,21,12,20,20,1716497643.8,2024-05-23 20:54:03.800000+00:00,2024-05-24 05:54:03.800000+09:00,2024,5,23,20,54,3,800,,,,,,,,,-0.070557,-0.496582,1.462402,-19.042969,101.867676,53.222656,,,,,,,,,,,1.0,1.0,1.0,12.0,0.0,0.0,0.0,3.0,0.0,,,,,,,-2.292372503066364,7.007010464496883,5.08905173147287,3.4496211604230664,0.01601866821758874,7.67610757527301,8.415626551560717,,8.06895378695921,,,,,,,,,
LBP08_S12,LBP08,21,22,12,21,21,1716497643.84,2024-05-23 20:54:03.840000+00:00,2024-05-24 05:54:03.840000+09:00,2024,5,23,20,54,3,840,,,,,,,,,-0.5896,-0.584717,1.673828,132.019043,-104.858398,-6.530762,,,,,,,,,,,1.0,1.0,1.0,12.0,0.0,0.0,0.0,3.0,0.0,,,,,,,-10.24984857772961,5.0739626462437535,5.087045832009816,3.039627217313882,0.21897717406733888,7.879589408553402,8.448385281838465,,8.249706897294885,,,,,,,,,
LBP08_S12,LBP08,22,23,12,22,22,1716497643.88,2024-05-23 20:54:03.880000+00:00,2024-05-24 05:54:03.880000+09:00,2024,5,23,20,54,3,880,,,,,,,,,0.681152,-0.319092,1.566895,-40.710449,-59.570312,-14.404297,,,,,,,,,,,1.0,1.0,1.0,12.0,0.0,0.0,0.0,3.0,0.0,,,,,,,-19.310590325444004,3.1823652551570287,5.166024141370776,2.267203604296122,0.34627178427362004,8.086230374208233,8.405191133858002,,8.461802388633098,,,,,,,,,
LBP08_S12,LBP08,23,24,12,23,23,1716497643.92,2024-05-23 20:54:03.920000+00:00,2024-05-24 05:54:03.920000+09:00,2024,5,23,20,54,3,920,,,,,,,,,-0.985596,0.16748,-0.265137,23.193359,184.570312,-19.775391,,,,,,,,,,,1.0,1.0,1.0,12.0,0.0,0.0,0.0,3.0,0.0,,,,,,,-28.42656348493296,1.4031376451603743,5.175585364956385,1.1301410648988035,0.402397290080035,8.293253788806489,8.379570443118642,,8.725908467639261,,,,,,,,,
LBP08_S12,LBP08,24,25,12,24,24,1716497643.96,2024-05-23 20:54:03.960000+00:00,2024-05-24 05:54:03.960000+09:00,2024,5,23,20,54,3,960,,,,,,,,,-0.144775,0.1875,0.11499,-138.061523,-88.867188,-17.272949,,,,,,,,,,,1.0,1.0,1.0,12.0,0.0,0.0,0.0,3.0,0.0,,,,,,,-36.36437455085725,-0.34369854453727056,4.878983163570467,-0.3244339171354864,0.3886493482985442,8.488413115349307,8.503497098215233,,9.052224450230714,,,,,,,,,
LBP08_S12,LBP08,25,26,12,25,25,1716497644.0,2024-05-23 20:54:04+00:00,2024-05-24 05:54:04+09:00,2024,5,23,20,54,4,0,20.0,54.0,2.0,40.788872,141.625885,-24.826,3.0,15.0,0.539062,-1.041016,1.111816,-131.591797,-62.133789,31.677246,-571.0,53.0,591.0,220.0,0.0,1021.099976,25.16,0.080269,-65.114113,3.782813,0.0,1.0,1.0,12.0,0.0,0.0,0.0,6.0,0.0,,,,,,,-42.054837022838875,-2.167841924252681,4.002987622724587,-2.0066273980490417,0.30193567132843696,8.64853262025829,8.883402228194631,,9.443559666802708,,,,,,,,,
LBP08_S12,LBP08,26,27,12,26,26,1716497644.04,2024-05-23 20:54:04.040000+00:00,2024-05-24 05:54:04.040000+09:00,2024,5,23,20,54,4,40,,,,,,,,,0.370361,-0.046875,1.232178,19.165039,86.486816,20.324707,,,,,,,,,,,0.0,1.0,1.0,12.0,0.0,0.0,0.0,6.0,0.0,,,,,,,-44.89147641178476,-4.088490376375163,2.3567958302422096,-3.802286454520432,0.13839605627343043,8.74280445346798,9.534839561429502,,9.898558298686627,,,,,,,,,
LBP08_S12,LBP08,27,28,12,27,27,1716497644.08,2024-05-23 20:54:04.080000+00:00,2024-05-24 05:54:04.080000+09:00,2024,5,23,20,54,4,80,,,,,,,,,-0.519775,-0.617188,1.627441,-43.273926,10.986328,17.944336,,,,,,,,,,,0.0,1.0,1.0,12.0,0.0,0.0,0.0,6.0,0.0,,,,,,,-44.82712123138524,-5.9530484684227645,-0.03308698951737906,-5.595371303775842,-0.09972588246348016,8.741480973887285,10.379384128915582,,10.41196278449335,,,,,,,,,
LBP08_S12,LBP08,28,29,12,28,28,1716497644.12,2024-05-23 20:54:04.120000+00:00,2024-05-24 05:54:04.120000+09:00,2024,5,23,20,54,4,120,,,,,,,,,-0.056396,-0.378906,1.755859,-11.474609,-108.764648,-13.305664,,,,,,,,,,,0.0,1.0,1.0,12.0,0.0,0.0,0.0,6.0,0.0,,,,,,,-42.24773162062295,-7.418924221192047,-2.8506561043620033,-7.28528056860076,-0.396482851311162,8.627454729712804,11.298915289878913,,10.9715327224059,,,,,,,,,
LBP08_S12,LBP08,29,30,12,29,29,1716497644.16,2024-05-23 20:54:04.160000+00:00,2024-05-24 05:54:04.160000+09:00,2024,5,23,20,54,4,160,,,,,,,,,0.050049,-0.300537,0.761963,-20.629883,131.225586,33.081055,,,,,,,,,,,0.0,1.0,1.0,12.0,0.0,0.0,0.0,6.0,0.0,,,,,,,-37.728260454942365,-8.0181038182117,-5.535117724623445,-8.794410986798454,-0.71720700403963,8.406050020727866,12.186784951017385,,11.553735527980177,,,,,,,,,
LBP08_S12,LBP08,30,31,12,30,30,1716497644.2,2024-05-23 20:54:04.200000+00:00,2024-05-24 05:54:04.200000+09:00,2024,5,23,20,54,4,200,,,,,,,,,-0.251953,0.043457,-0.172363,-52.734375,-38.452148,-46.325684,,,,,,,,,,,0.0,1.0,1.0,12.0,0.0,0.0,0.0,6.0,0.0,,,,,,,-31.811635314864525,-7.303420013312075,-7.440955779937339,-10.066876399393035,-1.009343804572113,8.108411789530372,12.965612870399907,,12.122361832269211,,,,,,,,,
LBP08_S12,LBP08,31,32,12,31,31,1716497644.24,2024-05-23 20:54:04.240000+00:00,2024-05-24 05:54:04.240000+09:00,2024,5,23,20,54,4,240,,,,,,,,,0.310303,-0.159668,0.436035,22.216797,-105.529785,-43.701172,,,,,,,,,,,0.0,1.0,1.0,12.0,0.0,0.0,0.0,6.0,0.0,,,,,,,-24.904567410599203,-5.039021179284086,-8.055404817235333,-11.063059095817003,-1.2109046517434765,7.786195596840959,13.582430139905703,,12.634186091249294,,,,,,,,,
LBP08_S12,LBP08,32,33,12,32,32,1716497644.28,2024-05-23 20:54:04.280000+00:00,2024-05-24 05:54:04.280000+09:00,2024,5,23,20,54,4,280,,,,,,,,,0.457275,-0.157227,0.961914,-44.250488,-2.01416,-26.672363,,,,,,,,,,,0.0,1.0,1.0,12.0,0.0,0.0,0.0,6.0,0.0,,,,,,,-17.30950805054846,-1.3608468212461422,-7.182395824807186,-11.755439417838941,-1.2653385245933222,7.498899763848671,14.000890512983496,,13.050797811376231,,,,,,,,,
LBP08_S12,LBP08,33,34,12,33,33,1716497644.32,2024-05-23 20:54:04.320000+00:00,2024-05-24 05:54:04.320000+09:00,2024,5,23,20,54,4,320,,,,,,,,,0.10498,-0.494141,1.484863,-19.65332,64.025879,29.846191,,,,,,,,,,,0.0,1.0,1.0,12.0,0.0,0.0,0.0,6.0,0.0,,,,,,,-9.349585031533612,3.180460328851817,-5.011565726795901,-12.129422819100286,-1.1381201114392496,7.298437134776835,14.201598498861413,,13.349091062171116,-1.5641541193001498,,,,,,,,
LBP08_S12,LBP08,34,35,12,34,34,1716497644.36,2024-05-23 20:54:04.360000+00:00,2024-05-24 05:54:04.360000+09:00,2024,5,23,20,54,4,360,,,,,,,,,-0.282715,-0.420166,1.600586,-44.433594,-36.621094,0.854492,,,,,,,,,,,0.0,1.0,1.0,12.0,0.0,0.0,0.0,6.0,0.0,,,,,,,-1.5019856224072896,7.740266393707494,-2.0466481912331824,-12.189502243996579,-0.8285094556909498,7.216571207127507,14.189760141105582,,13.524002935827557,-1.5855356918725425,,,,,,,,
LBP08_S12,LBP08,35,36,12,35,35,1716497644.4,2024-05-23 20:54:04.400000+00:00,2024-05-24 05:54:04.400000+09:00,2024,5,23,20,54,4,400,,,,,,,,,0.158691,-0.918457,1.705078,-59.204102,-14.770508,8.728027,,,,,,,,,,,0.0,1.0,1.0,12.0,0.0,0.0,0.0,6.0,0.0,,,,,,,5.556984290382631,11.427471822220124,1.0617659529687697,-11.967222872381273,-0.37141058280214484,7.259041845246258,14.00164481799546,,13.58436566658865,-1.5887598392686417,,,,,,,,
LBP08_S12,LBP08,36,37,12,36,36,1716497644.44,2024-05-23 20:54:04.440000+00:00,2024-05-24 05:54:04.440000+09:00,2024,5,23,20,54,4,440,,,,,,,,,-0.536865,0.013916,-0.09375,95.52002,182.800293,45.227051,,,,,,,,,,,0.0,1.0,1.0,12.0,0.0,0.0,0.0,6.0,0.0,,,,,,,11.056463707096777,13.577673253502624,3.696059465799932,-11.524964324097402,0.1716963473379602,7.406884223878255,13.700956762698862,,13.546734536531229,-1.5890918921980246,,,,,,,,
LBP08_S12,LBP08,37,38,12,37,37,1716497644.48,2024-05-23 20:54:04.480000+00:00,2024-05-24 05:54:04.480000+09:00,2024,5,23,20,54,4,480,,,,,,,,,-0.045166,0.155762,0.243408,67.016602,-55.175781,-35.705566,,,,,,,,,,,0.0,1.0,1.0,12.0,0.0,0.0,0.0,6.0,0.0,0.0015885599999999995,-0.24635097333333333,0.9969531599999999,-1.123046853333333,0.47851561333333337,2.47314452,14.360585103129583,13.938806323205393,5.395067505548157,-10.95054091997222,0.729248600266176,7.622686924100182,13.362316636864435,-1.5641541193001498,13.430931573343116,-1.5897827459727414,-0.04675456,0.40211297333333335,-0.7535451599999998,1.2024126933333332,0.8554011575647961,0.8554011575647961,0.8554011575647961,0.8554011575647961
LBP08_S12,LBP08,38,39,12,38,38,1716497644.52,2024-05-23 20:54:04.520000+00:00,2024-05-24 05:54:04.520000+09:00,2024,5,23,20,54,4,520,,,,,,,,,0.328125,-0.068848,0.829834,28.747559,-57.800293,-16.540527,,,,,,,,,,,0.0,1.0,1.0,12.0,0.0,0.0,0.0,6.0,0.0,-0.00877928,-0.2503483733333333,1.0058952133333332,-0.33691403999999997,-0.44270834666666675,2.700195293333333,15.207572258452888,12.695709551993106,5.899975922088314,-10.342238029634103,1.2370769823459002,7.858685960983714,13.048034026443311,-1.6069172644449354,13.258134102118344,-1.5906303226786263,0.33690428,0.1815003733333333,-0.17606121333333324,0.6944658666666665,0.4212415343278286,0.6383213459463124,0.6383213459463124,0.6383213459463124
LBP08_S12,LBP08,39,40,12,39,39,1716497644.56,2024-05-23 20:54:04.560000+00:00,2024-05-24 05:54:04.560000+09:00,2024,5,23,20,54,4,560,,,,,,,,,0.374268,-0.288086,1.174316,-21.606445,51.025391,12.084961,,,,,,,,,,,0.0,1.0,1.0,12.0,0.0,0.0,0.0,6.0,0.0,-0.005823546666666667,-0.24542324,1.0114974266666668,-1.4046223733333334,-2.29085288,2.4959309600000004,13.82185177489782,10.341223901847139,5.148362077625402,-9.78936395863819,1.6507259384197859,8.06462044408873,12.790412258628342,-1.5952081340608404,13.05023196563007,-1.5797977982389786,0.38009154666666667,-0.04266276000000002,0.16281857333333316,0.5855728799999999,0.41569169195520184,0.5641114612826089,0.5641114612826089,0.5641114612826089
LBP08_S12,LBP08,40,41,12,40,40,1716497644.6,2024-05-23 20:54:04.600000+00:00,2024-05-24 05:54:04.600000+09:00,2024,5,23,20,54,4,600,,,,,,,,,-0.456055,-0.404541,1.65625,-9.643555,14.038086,18.371582,,,,,,,,,,,0.0,1.0,1.0,12.0,0.0,0.0,0.0,6.0,0.0,-0.0045279733333333325,-0.2415235066666667,0.99281904,-2.6611327866666667,0.7299804533333334,2.832845026666667,10.83816017715043,7.47907343116764,3.257545779253168,-9.355837551552174,1.9498888756664914,8.194922275258858,12.589301569825688,-1.5900880509861726,12.828775635631834,-1.576111818307902,-0.45152702666666666,-0.1630174933333333,0.66343096,1.2779754799999998,0.8188968174499432,0.6278078003244425,0.6278078003244425,0.6278078003244425
LBP08_S12,LBP08,41,42,12,41,41,1716497644.64,2024-05-23 20:54:04.640000+00:00,2024-05-24 05:54:04.640000+09:00,2024,5,23,20,54,4,640,,,,,,,,,-0.158936,-0.483154,1.921387,19.714355,-97.290039,-7.995605,,,,,,,,,,,0.0,1.0,1.0,12.0,0.0,0.0,0.0,6.0,0.0,-0.005110653333333333,-0.24210618666666667,0.9724121466666668,-3.40087888,1.4648437333333337,2.499999986666667,7.087380427020891,4.657990101863168,0.5152124419055464,-9.072342334471339,2.1362084797410184,8.215530772935079,12.424400508024585,-1.5925461610716085,12.612761557064363,-1.5766598601768775,-0.15382534666666667,-0.2410478133333333,0.9489748533333332,1.343848013333333,0.9911203548756947,0.7004703112346929,0.7004703112346929,0.7004703112346929
LBP08_S12,LBP08,42,43,12,42,42,1716497644.68,2024-05-23 20:54:04.680000+00:00,2024-05-24 05:54:04.680000+09:00,2024,5,23,20,54,4,680,,,,,,,,,0.354004,-0.383301,1.240479,-17.456055,113.464355,39.794922,,,,,,,,,,,0.0,1.0,1.0,12.0,0.0,0.0,0.0,6.0,0.0,-0.005582666666666666,-0.23888027999999997,0.96403324,-3.1054687333333333,-0.6722005333333332,1.3167317600000001,3.3547197215761106,2.288132162916471,-2.639848069112109,-8.938153545608294,2.227733766257677,8.109936850170595,12.272915800735769,-1.5948682062080515,12.415845502324606,-1.5738655148369696,0.35958666666666667,-0.14442072000000003,0.2764457600000001,0.7804531466666668,0.47600648465303547,0.6630596734710833,0.6630596734710833,0.6630596734710833
LBP08_S12,LBP08,43,44,12,43,43,1716497644.72,2024-05-23 20:54:04.720000+00:00,2024-05-24 05:54:04.720000+09:00,2024,5,23,20,54,4,720,,,,,,,,,-0.526367,0.120117,-0.064697,-42.663574,35.27832,-13.366699,,,,,,,,,,,0.0,1.0,1.0,12.0,0.0,0.0,0.0,6.0,0.0,0.013020853333333334,-0.23905930666666667,0.9821810266666667,-4.495442693333334,-1.2841796933333331,0.7535807200000001,0.2087675948464326,0.6290710403349167,-5.676171733581347,-8.929802841814437,2.2528966078710737,7.882889980827341,12.12257713397866,-1.514802651601092,12.24444816855976,-1.5717702333000039,-0.5393878533333334,0.35917630666666667,-1.0468780266666666,1.9454421866666667,1.231219102480035,0.7442253061866478,0.7442253061866478,0.7442253061866478
LBP08_S12,LBP08,44,45,12,44,44,1716497644.76,2024-05-23 20:54:04.760000+00:00,2024-05-24 05:54:04.760000+09:00,2024,5,23,20,54,4,760,,,,,,,,,0.122803,-0.436768,0.47168,25.878906,-67.382812,-44.799805,,,,,,,,,,,0.0,1.0,1.0,12.0,0.0,0.0,0.0,6.0,0.0,0.004801453333333335,-0.24118170666666666,0.9906999066666666,-4.25455728,0.33854166666666685,1.75211588,-2.051466438393297,-0.19927158590961325,-8.074894872939906,-9.01186149935017,2.2449257444346893,7.559894185909744,11.975196841123218,-1.550309958790365,12.09800038733783,-1.5681060694654545,0.11800154666666667,-0.19558629333333333,-0.5190199066666666,0.8326077466666666,0.5670626302904059,0.7220799716996176,0.7220799716996176,0.7220799716996176
LBP08_S12,LBP08,45,46,12,45,45,1716497644.8,2024-05-23 20:54:04.800000+00:00,2024-05-24 05:54:04.800000+09:00,2024,5,23,20,54,4,800,,,,,,,,,0.356689,0.199707,0.881836,78.491211,-13.061523,-35.888672,,,,,,,,,,,0.0,1.0,1.0,12.0,0.0,0.0,0.0,6.0,0.0,-0.0024088266666666656,-0.24186529333333334,0.9969792000000001,-3.979492173333333,-0.6062825466666666,1.40625,-3.3440193466166495,-0.2241255665641577,-9.450545580724759,-9.145622273214835,2.235960721772123,7.181872362680754,11.841504032320753,-1.5810441951286829,11.971348235437015,-1.5572700329106721,0.3590978266666666,0.44157229333333337,-0.11514320000000011,0.91581332,0.5806851951467531,0.7063694409715215,0.7063694409715215,0.7063694409715215
LBP08_S12,LBP08,46,47,12,46,46,1716497644.84,2024-05-23 20:54:04.840000+00:00,2024-05-24 05:54:04.840000+09:00,2024,5,23,20,54,4,840,,,,,,,,,0.189209,-0.212891,1.283203,-43.823242,37.353516,7.202148,,,,,,,,,,,0.0,1.0,1.0,12.0,0.0,0.0,0.0,6.0,0.0,0.005162786666666668,-0.2405599466666667,0.9918001733333334,-4.749348946666667,0.19856772000000017,1.6512044266666668,-3.707483872007781,0.36011802868391674,-9.631538671931354,-9.293921628095147,2.2503654429194797,6.7966108158035,11.731796215301305,-1.5487164067777963,11.858051682984971,-1.5484942938256936,0.18404621333333332,0.027668946666666694,0.2914028266666667,0.5031179866666667,0.34576608659801367,0.6703091055341708,0.6703091055341708,0.6703091055341708
LBP08_S12,LBP08,47,48,12,47,47,1716497644.88,2024-05-23 20:54:04.880000+00:00,2024-05-24 05:54:04.880000+09:00,2024,5,23,20,54,4,880,,,,,,,,,-0.246094,-0.510986,1.687988,-33.935547,-37.04834,9.643555,,,,,,,,,,,0.0,1.0,1.0,12.0,0.0,0.0,0.0,6.0,0.0,0.006328146666666668,-0.23598964,0.9668197066666668,-3.6254882799999995,1.5388997466666667,1.5592447866666668,-3.231700468289866,1.2035839892633242,-8.661867754238017,-9.42318964682674,2.2985088024900127,6.4501361056339785,11.648343299215979,-1.5432013039304955,11.75296170893051,-1.5453703941353614,-0.2524221466666667,-0.27499636000000005,0.7211682933333332,1.2485868,0.8120490412840657,0.6831945542387067,0.6831945542387067,0.6831945542387067
LBP08_S12,LBP08,48,49,12,48,48,1716497644.92,2024-05-23 20:54:04.920000+00:00,2024-05-24 05:54:04.920000+09:00,2024,5,23,20,54,4,920,,,,,,,,,-0.059082,-0.501465,1.61377,7.568359,-61.401367,4.089355,,,,,,,,,,,0.0,1.0,1.0,12.0,0.0,0.0,0.0,6.0,0.0,0.0001171999999999999,-0.23159836000000003,0.9555273866666666,-3.56038412,-0.625,0.2766927066666667,-2.043791401065997,1.878820911182727,-6.736826222385851,-9.50494130286938,2.373661638937322,6.1806630567385445,11.583556214224004,-1.5702756260994384,11.653084127077221,-1.5383624045334925,-0.0591992,-0.26986664000000005,0.6582426133333333,0.9873084533333334,0.7138738590769561,0.6857511629752274,0.6857511629752274,0.6857511629752274
LBP08_S12,LBP08,49,50,12,49,49,1716497644.96,2024-05-23 20:54:04.960000+00:00,2024-05-24 05:54:04.960000+09:00,2024,5,23,20,54,4,960,,,,,,,,,0.284424,-0.229004,0.990967,7.751465,129.882812,27.038574,,,,,,,,,,,0.0,1.0,1.0,12.0,0.0,0.0,0.0,6.0,0.0,0.020201826666666665,-0.24760097333333334,0.9780306399999998,-3.509114586666667,-1.8066406266666666,0.3401692666666667,-0.32260110050922414,2.0164011842299314,-4.127492651397936,-9.517845346889748,2.4543176863065193,6.015563350682627,11.523890739620184,-1.4868477685130188,11.556673762749622,-1.5403248805079088,0.26422217333333337,0.018596973333333322,0.012936360000000202,0.2957555066666669,0.26519154154723784,0.653400422865382,0.653400422865382,0.653400422865382
LBP08_S12,LBP08,50,51,12,50,50,1716497645.0,2024-05-23 20:54:05+00:00,2024-05-24 05:54:05+09:00,2024,5,23,20,54,5,0,20.0,54.0,3.0,40.788849,141.625778,-24.476999,3.0,15.0,-0.459229,0.508301,-0.096924,-13.977051,30.456543,-36.865234,-572.0,59.0,582.0,195.0,0.0,1021.099976,25.219999,0.080269,-65.114113,3.782813,0.0,1.0,1.0,12.0,0.0,0.0,0.0,5.0,0.0,0.01665690666666667,-0.2504981066666666,0.9919792133333332,-3.7898763066666667,1.5795898400000001,0.9895833333333334,1.700343770237702,1.4427556401793094,-1.1450843934501556,-9.44983159608024,2.5120279119136915,5.969759974944621,11.456336045305266,-1.502330660136386,11.461322758837621,-1.5427941077286877,-0.4758859066666667,0.7587991066666666,-1.0889032133333332,2.3235882266666668,1.409948115516931,0.7074395437690641,0.7074395437690641,0.7074395437690641
LBP08_S12,LBP08,51,52,12,51,51,1716497645.04,2024-05-23 20:54:05.040000+00:00,2024-05-24 05:54:05.040000+09:00,2024,5,23,20,54,5,40,,,,,,,,,0.225342,-0.563721,0.425781,-11.84082,-56.518555,-12.817383,,,,,,,,,,,0.0,1.0,1.0,12.0,0.0,0.0,0.0,5.0,0.0,0.002373053333333332,-0.2582813066666667,0.9998307733333334,-3.397623706666667,0.41097005333333336,0.9456380133333333,3.770678692410324,0.24105641692105748,1.84830589382216,-9.299004448383828,2.521670168590534,6.0436922106975075,11.373500767479966,-1.5613071641682879,11.362344627828241,-1.5362087419373736,0.22296894666666667,-0.3054396933333333,-0.5740497733333334,1.1024584133333333,0.6874166856465261,0.706104686560895,0.706104686560895,0.706104686560895
LBP08_S12,LBP08,52,53,12,52,52,1716497645.08,2024-05-23 20:54:05.080000+00:00,2024-05-24 05:54:05.080000+09:00,2024,5,23,20,54,5,80,,,,,,,,,0.24292,0.260498,0.749023,83.80127,-26.306152,-22.705078,,,,,,,,,,,0.0,1.0,1.0,12.0,0.0,0.0,0.0,5.0,0.0,0.011578786666666665,-0.25974941333333335,1.0043001733333334,-4.57275392,-1.45670572,-0.07324220000000002,5.660451155222917,-1.3102671018573986,4.42531011644591,-9.072586402174911,2.469259484516238,6.220704615355344,11.27413998220289,-1.524788310189361,11.25269353034361,-1.529957364426782,0.23134121333333332,0.5202474133333334,-0.25527717333333344,1.0068658000000001,0.623973207190517,0.7009714691002463,0.7009714691002463,0.7009714691002463
LBP08_S12,LBP08,53,54,12,53,53,1716497645.12,2024-05-23 20:54:05.120000+00:00,2024-05-24 05:54:05.120000+09:00,2024,5,23,20,54,5,120,,,,,,,,,0.193604,-0.273682,1.162598,-52.91748,-7.873535,18.798828,,,,,,,,,,,0.0,1.0,1.0,12.0,0.0,0.0,0.0,5.0,0.0,0.008951826666666662,-0.25419277333333334,0.9781152666666668,-4.503580746666667,2.1801757866666667,0.5965169200000001,7.21129861418206,-2.8827542884454953,6.132924178533866,-8.784134457607628,2.353949312978418,6.4660215824966984,11.158473490702676,-1.5344274113452558,11.124812444419288,-1.5293406390383268,0.18465217333333334,-0.019489226666666637,0.1844827333333332,0.3886241333333332,0.2617444058063626,0.6751345830241355,0.6751345830241355,0.6751345830241355
LBP08_S12,LBP08,54,55,12,54,54,1716497645.16,2024-05-23 20:54:05.160000+00:00,2024-05-24 05:54:05.160000+09:00,2024,5,23,20,54,5,160,,,,,,,,,-0.253906,-0.412598,1.554443,18.005371,-16.540527,10.864258,,,,,,,,,,,0.0,1.0,1.0,12.0,0.0,0.0,0.0,5.0,0.0,-0.0010286400000000028,-0.25287766666666667,0.9619889600000001,-4.610188826666667,0.34830730666666665,-0.017903653333333266,8.34948533424466,-4.227440011385645,6.610572039607017,-8.450155044237842,2.1848517125229923,6.730444464080979,11.021686802003185,-1.5750022309981566,10.973629370160836,-1.5258744857221367,-0.25287736,-0.15972033333333335,0.5924540399999999,1.0050517333333333,0.6636711034789764,0.6744977230494045,0.6744977230494045,0.6744977230494045
LBP08_S12,LBP08,55,56,12,55,55,1716497645.2,2024-05-23 20:54:05.200000+00:00,2024-05-24 05:54:05.200000+09:00,2024,5,23,20,54,5,200,,,,,,,,,-0.099121,-0.439941,1.596924,4.699707,-51.574707,22.521973,,,,,,,,,,,0.0,1.0,1.0,12.0,0.0,0.0,0.0,5.0,0.0,0.014104813333333329,-0.26233404000000005,0.9775586133333334,-4.495442733333333,-2.1175130133333333,-0.34423827999999995,9.070875682801262,-5.2080718692454475,5.7512348303811205,-8.087320016925792,1.9765288377531745,6.960493857296224,10.851722722226963,-1.51519053721554,10.799252620170602,-1.5262960066818472,-0.11322581333333333,-0.17760695999999998,0.6193653866666666,0.91019816,0.6542001217106168,0.6734294282420998,0.6734294282420998,0.6734294282420998
LBP08_S12,LBP08,56,57,12,56,56,1716497645.24,2024-05-23 20:54:05.240000+00:00,2024-05-24 05:54:05.240000+09:00,2024,5,23,20,54,5,240,,,,,,,,,0.227295,-0.225586,1.099609,9.521484,106.018066,53.527832,,,,,,,,,,,0.0,1.0,1.0,12.0,0.0,0.0,0.0,5.0,0.0,0.021770826666666663,-0.26573248,0.9919401200000001,-4.111328159999999,0.3320312666666666,0.4394531333333333,9.414681246675249,-5.733705616651928,3.8240465073173837,-7.710732767058783,1.7471806130870973,7.113455717588919,10.635285240454996,-1.4862026316718817,10.608198009505076,-1.5290626265315956,0.20552417333333334,0.040146479999999984,0.10766887999999997,0.3533395333333333,0.23546658659180253,0.651531286159585,0.651531286159585,0.651531286159585
LBP08_S12,LBP08,57,58,12,57,57,1716497645.28,2024-05-23 20:54:05.280000+00:00,2024-05-24 05:54:05.280000+09:00,2024,5,23,20,54,5,280,,,,,,,,,-0.536133,-0.164551,-0.038818,12.695312,33.26416,8.178711,,,,,,,,,,,0.0,1.0,1.0,12.0,0.0,0.0,0.0,5.0,0.0,0.008815093333333333,-0.27039393333333334,0.99794272,-3.624674506666667,0.1546224133333333,0.5289713600000001,9.445477283084633,-5.66254411099235,1.4732482663763378,-7.332913675735398,1.5206788486474032,7.1723856482439725,10.369532439972737,-1.5370340500459407,10.41285930045483,-1.5193186984440632,-0.5449480933333333,0.10584293333333333,-1.03676072,1.6875517466666665,1.1760288863370483,0.6765073623585118,0.6765073623585118,0.6765073623585118
LBP08_S12,LBP08,58,59,12,58,58,1716497645.32,2024-05-23 20:54:05.320000+00:00,2024-05-24 05:54:05.320000+09:00,2024,5,23,20,54,5,320,,,,,,,,,0.171143,-0.191162,0.476807,14.160156,-64.697266,-31.616211,,,,,,,,,,,0.0,1.0,1.0,12.0,0.0,0.0,0.0,5.0,0.0,0.009101559999999998,-0.26761724,1.0035123866666666,-2.8971354399999996,-2.9785156133333333,-0.5957031199999999,9.246838986952277,-4.77688242811143,-0.44537578529057115,-6.963040116257307,1.329603551522946,7.154570616832349,10.071725471639496,-1.5356140929375386,10.229575947807863,-1.5095503993412769,0.16204143999999998,0.07645523999999998,-0.5267053866666667,0.7652020666666666,0.5563464714945301,0.6710455036828763,0.6710455036828763,0.6710455036828763
LBP08_S12,LBP08,59,60,12,59,59,1716497645.36,2024-05-23 20:54:05.360000+00:00,2024-05-24 05:54:05.360000+09:00,2024,5,23,20,54,5,360,,,,,,,,,0.268311,-0.114746,0.907959,3.90625,-27.893066,-33.081055,,,,,,,,,,,0.0,1.0,1.0,12.0,0.0,0.0,0.0,5.0,0.0,0.02046549333333333,-0.2650260933333333,0.9937467600000001,-4.9121094,0.8219401066666666,0.12369792000000009,8.916574524404107,-2.8815767962592367,-1.1496611216469115,-6.606377135281143,1.2143404796725765,7.108584171966473,9.78012323971785,-1.4910629781101234,10.07567102443144,-1.5028095823125922,0.2478455066666667,0.1502800933333333,-0.0857877600000001,0.48391336000000007,0.3022764320832005,0.6550120657872381,0.6550120657872381,0.6550120657872381
LBP08_S12,LBP08,60,61,12,60,60,1716497645.4,2024-05-23 20:54:05.400000+00:00,2024-05-24 05:54:05.400000+09:00,2024,5,23,20,54,5,400,,,,,,,,,0.286621,-0.159424,1.000488,16.967773,5.126953,-35.400391,,,,,,,,,,,0.0,1.0,1.0,12.0,0.0,0.0,0.0,5.0,0.0,0.010166013333333331,-0.2576335066666667,0.9710612133333334,-2.5675456,1.0644531199999998,-0.0838216133333333,8.551984213302298,0.018314896572246494,-0.22468123407097385,-6.264297766749051,1.2150730755354664,7.0995969226036335,9.545789938649989,-1.5299968586338708,9.965848106992564,-1.4959002502829128,0.2764549866666667,0.09820950666666667,0.02942678666666665,0.40409128,0.29485318825833035,0.6400054458902004,0.6400054458902004,0.6400054458902004
LBP08_S12,LBP08,61,62,12,61,61,1716497645.44,2024-05-23 20:54:05.440000+00:00,2024-05-24 05:54:05.440000+09:00,2024,5,23,20,54,5,440,,,,,,,,,-0.026611,-0.585205,1.573975,10.009766,2.746582,21.66748,,,,,,,,,,,0.0,1.0,1.0,12.0,0.0,0.0,0.0,5.0,0.0,0.027324226666666663,-0.26347985333333335,0.9811458533333333,-3.1054687733333335,-2.6863606800000004,-0.8235677066666667,8.219848982924919,3.5724137770997766,2.204704588877389,-5.935503807432054,1.3579696266194574,7.187785106158729,9.420113676977506,-1.463867883292962,9.908857895597844,-1.489450542442599,-0.05393522666666666,-0.32172514666666663,0.5928291466666666,0.9684895199999999,0.6766553597000478,0.6414714424425942,0.6414714424425942,0.6414714424425942
LBP08_S12,LBP08,62,63,12,62,62,1716497645.48,2024-05-23 20:54:05.480000+00:00,2024-05-24 05:54:05.480000+09:00,2024,5,23,20,54,5,480,,,,,,,,,-0.178955,-0.47876,1.70166,14.953613,-69.763184,8.728027,,,,,,,,,,,0.0,1.0,1.0,12.0,0.0,0.0,0.0,5.0,0.0,0.03699544,-0.2643652666666667,0.9958170799999999,-0.43701174666666665,-1.0489908800000003,-1.0058593733333334,7.9149175583745555,7.072597657576608,5.497307551634488,-5.6189071050970725,1.6408735329225217,7.407677408224108,9.441306455733224,-1.4271053191615009,9.905629340819385,-1.4896505708406413,-0.21595044,-0.2143947333333333,0.70584292,1.1361880933333333,0.7686442102373445,0.6380011645494963,0.6463627027423923,0.6463627027423923
LBP08_S12,LBP08,63,64,12,63,63,1716497645.52,2024-05-23 20:54:05.520000+00:00,2024-05-24 05:54:05.520000+09:00,2024,5,23,20,54,5,520,,,,,,,,,0.326172,-0.55542,1.549561,-4.943848,30.090332,11.657715,,,,,,,,,,,0.0,1.0,1.0,12.0,0.0,0.0,0.0,5.0,0.0,0.025996093333333335,-0.25762698666666667,1.00224612,0.7242838266666668,0.7071940133333331,-0.4467773466666667,7.521562571517702,9.607346123551013,8.699822186301612,-5.318044602236364,2.025167377864562,7.755670295676173,9.619424256938451,-1.467019241058408,9.949499539239351,-1.4857180144116833,0.30017590666666666,-0.29779301333333336,0.5473148800000001,1.1452838,0.6916211619107072,0.6488163496528113,0.6480389419708485,0.6480389419708485
LBP08_S12,LBP08,64,65,12,64,64,1716497645.56,2024-05-23 20:54:05.560000+00:00,2024-05-24 05:54:05.560000+09:00,2024,5,23,20,54,5,560,,,,,,,,,-0.870117,0.532471,-0.219482,-17.700195,162.536621,41.19873,,,,,,,,,,,0.0,1.0,1.0,12.0,0.0,0.0,0.0,5.0,0.0,0.01680013333333333,-0.2674186533333333,1.0101172133333334,0.7763671600000002,-1.7260742133333338,-0.6087239600000001,6.805463680404938,10.337989123137021,10.845050340308909,-5.045826055020167,2.438686942790043,8.18947230928853,9.923457627614411,-1.5059089107013635,10.028404715699349,-1.4781946746621564,-0.8869171333333333,0.7998896533333333,-1.2295992133333333,2.9164060000000003,1.7141644274514303,0.7007552590726605,0.6861148521665835,0.6861148521665835
LBP08_S12,LBP08,65,66,12,65,65,1716497645.6,2024-05-23 20:54:05.600000+00:00,2024-05-24 05:54:05.600000+09:00,2024,5,23,20,54,5,600,,,,,,,,,0.130371,-0.82251,0.38623,-85.083008,-72.021484,35.217285,,,,,,,,,,,0.0,1.0,1.0,12.0,0.0,0.0,0.0,5.0,0.0,0.030908199999999997,-0.26465172,1.0087890933333332,1.3850911200000002,-1.139322906666667,-0.4410807333333334,5.467037099438085,8.785795545126339,11.234468700780619,-4.827144571042644,2.7901187645950967,8.638851057319755,10.28182060827978,-1.450693458812399,10.128395250326912,-1.4763968638386884,0.09946279999999999,-0.55785828,-0.6225590933333331,1.2798801733333331,0.8418304662106381,0.7016726050230884,0.6914843560991372,0.6914843560991372
LBP08_S12,LBP08,66,67,12,66,66,1716497645.64,2024-05-23 20:54:05.640000+00:00,2024-05-24 05:54:05.640000+09:00,2024,5,23,20,54,5,640,,,,,,,,,0.322754,0.240723,0.885498,176.879883,-11.047363,-36.376953,,,,,,,,,,,0.0,1.0,1.0,12.0,0.0,0.0,0.0,5.0,0.0,0.02080077333333333,-0.25982750666666665,0.9839518533333333,2.15006508,2.004394533333333,0.12613931999999997,3.2667693645256457,5.003811124101724,9.618249109526866,-4.696473796461618,2.9902712095591655,9.02358102170083,10.60299969267039,-1.4882029156523084,10.237326047368072,-1.4755730952410324,0.30195322666666663,0.5005505066666667,-0.09845385333333334,0.9009575866666667,0.5928066481196458,0.6857400567528464,0.6881950991664874,0.6881950991664874
LBP08_S12,LBP08,67,68,12,67,67,1716497645.68,2024-05-23 20:54:05.680000+00:00,2024-05-24 05:54:05.680000+09:00,2024,5,23,20,54,5,680,,,,,,,,,0.288086,-0.144287,1.272217,-28.808594,37.109375,22.460938,,,,,,,,,,,0.0,1.0,1.0,12.0,0.0,0.0,0.0,5.0,0.0,0.018072906666666666,-0.25506188,0.9772135733333333,2.1964518,-0.5297851600000001,-0.5460612,0.1775797912200952,-0.4304417805039182,6.235687922215942,-4.689370604812813,2.9730535383390087,9.273008538589467,10.808234424172422,-1.4977084857563607,10.347145668575035,-1.480292847711722,0.27001309333333334,0.11077488000000002,0.2950034266666667,0.6757914,0.4149761033547898,0.6832988415009165,0.6793815831725617,0.6793815831725617
LBP08_S12,LBP08,68,69,12,68,68,1716497645.72,2024-05-23 20:54:05.720000+00:00,2024-05-24 05:54:05.720000+09:00,2024,5,23,20,54,5,720,,,,,,,,,-0.345947,-0.44458,1.667725,-3.234863,-24.108887,10.864258,,,,,,,,,,,0.0,1.0,1.0,12.0,0.0,0.0,0.0,5.0,0.0,0.02809894666666666,-0.2620117466666667,0.9933561466666667,2.263997373333334,-0.3857422000000001,-0.11067708000000001,-3.5304294680150354,-6.571680934466455,1.729911258102779,-4.830587783533415,2.7101863009603506,9.34220498891358,10.860777236239457,-1.4603806954422665,10.453834187739968,-1.4887797616239267,-0.3740459466666667,-0.18256825333333326,0.6743688533333332,1.230983053333333,0.7924739034750997,0.665749033540719,0.682915718182016,0.682915718182016
LBP08_S12,LBP08,69,70,12,69,69,1716497645.76,2024-05-23 20:54:05.760000+00:00,2024-05-24 05:54:05.760000+09:00,2024,5,23,20,54,5,760,,,,,,,,,0.001465,-0.242676,1.758301,-2.319336,-116.088867,-18.737793,,,,,,,,,,,0.0,1.0,1.0,12.0,0.0,0.0,0.0,5.0,0.0,0.025195293333333327,-0.26574221333333337,1.0074023733333333,2.4031575333333333,2.13134764,0.7739257866666666,-7.350169211976505,-12.331660350269448,-3.0220289329286874,-5.124594552012475,2.2169198869495728,9.221323831596433,10.780028585993488,-1.4730848698754442,10.55605673811472,-1.49476364557263,-0.023730293333333326,0.023066213333333363,0.7508986266666666,0.7976951333333333,0.7516275171580076,0.6731316290154231,0.6849978939085611,0.6849978939085611
LBP08_S12,LBP08,70,71,12,70,70,1716497645.8,2024-05-23 20:54:05.800000+00:00,2024-05-24 05:54:05.800000+09:00,2024,5,23,20,54,5,800,,,,,,,,,0.175537,-0.251953,0.956543,-34.362793,136.71875,33.325195,,,,,,,,,,,0.0,1.0,1.0,12.0,0.0,0.0,0.0,5.0,0.0,0.012818999999999994,-0.27022788,1.0180696933333333,3.6873372133333335,1.2508137866666666,1.2654622400000002,-10.731174740890571,-16.697614824080297,-7.121055933356728,-5.553841541648098,1.5490152939863608,8.936481594262164,10.63509790906159,-1.5217591726573108,10.654949730846422,-1.4919639222968821,0.162718,0.018274879999999993,-0.06152669333333327,0.24251957333333327,0.17491898912224607,0.6569009807744429,0.6699955731795519,0.6699955731795519
LBP08_S12,LBP08,71,72,12,71,71,1716497645.84,2024-05-23 20:54:05.840000+00:00,2024-05-24 05:54:05.840000+09:00,2024,5,23,20,54,5,840,,,,,,,,,-0.324707,-0.115234,-0.093506,-126.098633,-41.137695,-46.508789,,,,,,,,,,,0.0,1.0,1.0,12.0,0.0,0.0,0.0,5.0,0.0,0.015657546666666664,-0.27079753333333334,1.0236621466666667,4.165039026666666,-0.6575520933333333,0.6795247466666666,-13.304350440666592,-18.907277126723976,-9.860456710220651,-6.086015559274762,0.7927242089174018,8.542063325853338,10.518309889047137,-1.5110654079998613,10.755862855331166,-1.4923293108800673,-0.3403645466666667,0.15556353333333334,-1.1171681466666668,1.6130962266666669,1.1781819492155665,0.6901976152791449,0.6845151839234381,0.6845151839234381
LBP08_S12,LBP08,72,73,12,72,72,1716497645.88,2024-05-23 20:54:05.880000+00:00,2024-05-24 05:54:05.880000+09:00,2024,5,23,20,54,5,880,,,,,,,,,0.213379,-0.301514,0.360352,74.462891,-91.61377,-48.217773,,,,,,,,,,,0.0,1.0,1.0,12.0,0.0,0.0,0.0,5.0,0.0,0.015078119999999995,-0.26480144,1.001894573333333,4.720052053333334,2.2916666533333334,1.2207031333333331,-15.010692268048121,-18.57804444228645,-10.895612407881918,-6.686443249996687,0.049602431225943766,8.10623882953806,10.50819164738255,-1.5119744582835448,10.870000997415412,-1.4921384873111578,0.19830088,-0.036712560000000005,-0.6415425733333331,0.8765560133333331,0.6724938099861463,0.6846154060272283,0.6841812568696244,0.6841812568696244
LBP08_S12,LBP08,73,74,12,73,73,1716497645.92,2024-05-23 20:54:05.920000+00:00,2024-05-24 05:54:05.920000+09:00,2024,5,23,20,54,5,920,,,,,,,,,0.465576,0.000732,0.9646,-24.902344,-30.700684,-29.785156,,,,,,,,,,,0.0,1.0,1.0,12.0,0.0,0.0,0.0,5.0,0.0,0.010729173333333328,-0.25194010666666666,0.9806478266666666,5.332845026666667,1.8636067600000001,0.8927408933333332,-16.061968977796443,-15.788503807842991,-10.31356722604477,-7.3289220091085445,-0.5819377210877759,7.69369614049627,10.641649760685965,-1.5268580805454408,11.013250389289796,-1.4950776605095188,0.45484682666666665,0.2526721066666667,-0.016047826666666598,0.72356676,0.5205635042497999,0.6768829918341419,0.679759155447467,0.679759155447467
LBP08_S12,LBP08,74,75,12,74,74,1716497645.96,2024-05-23 20:54:05.960000+00:00,2024-05-24 05:54:05.960000+09:00,2024,5,23,20,54,5,960,,,,,,,,,0.112549,-0.471436,1.532715,-1.403809,70.617676,32.409668,,,,,,,,,,,0.0,1.0,1.0,12.0,0.0,0.0,0.0,5.0,0.0,0.02302409333333333,-0.255153,0.9912630666666666,3.567708306666667,-1.8359375066666666,-0.04964192000000016,-16.76123918012769,-11.084188579080982,-8.564334825969011,-7.999371576313652,-1.0253052642510152,7.351122747457509,10.912387554931453,-1.4779116779438843,11.201425306367279,-1.4965168621358125,0.08952490666666667,-0.216283,0.5414519333333334,0.8472598400000001,0.5898840912527475,0.6898706938223624,0.6773940221791849,0.6773940221791849
LBP08_S12,LBP08,75,76,12,75,75,1716497646.0,2024-05-23 20:54:06+00:00,2024-05-24 05:54:06+09:00,2024,5,23,20,54,6,0,20.0,54.0,4.0,40.78883,141.625671,-23.872,3.0,15.0,-0.35376,-0.712891,1.702881,9.399414,-71.411133,14.587402,-571.0,60.0,584.0,168.0,0.0,1021.099976,25.290001,0.080269,-65.114113,3.782813,0.0,1.0,1.0,12.0,0.0,0.0,0.0,3.0,0.0,0.029775399999999994,-0.26303061333333333,1.0029102,2.689615853333333,-0.6974284000000001,0.5843098933333332,-17.290260421032425,-5.37741196196421,-6.271327157899688,-8.69098199315495,-1.2404017427295837,7.100269661141522,11.290951853127215,-1.4543473446442516,11.443646856354828,-1.499945354373655,-0.3835354,-0.4498603866666667,0.6999708,1.5333665866666668,0.9162057036483036,0.6701209973476172,0.683517398627111,0.683517398627111
LBP08_S12,LBP08,76,77,12,76,76,1716497646.04,2024-05-23 20:54:06.040000+00:00,2024-05-24 05:54:06.040000+09:00,2024,5,23,20,54,6,40,,,,,,,,,0.302246,-0.044922,1.642334,9.094238,-63.903809,3.234863,,,,,,,,,,,0.0,1.0,1.0,12.0,0.0,0.0,0.0,3.0,0.0,0.02167318666666666,-0.26440430666666664,1.01173832,2.696126266666667,0.9065755066666668,1.13037108,-17.580277528341405,0.25027261404278967,-4.0028470621424885,-9.394193094288605,-1.230390838167872,6.940155778655822,11.744381113512834,-1.4862946799632137,11.736915854235331,-1.5007717896704174,0.28057281333333334,0.21948230666666665,0.6305956799999999,1.1306507999999997,0.7242544429661197,0.6715945076404011,0.6845358247355862,0.6845358247355862
LBP08_S12,LBP08,77,78,12,77,77,1716497646.08,2024-05-23 20:54:06.080000+00:00,2024-05-24 05:54:06.080000+09:00,2024,5,23,20,54,6,80,,,,,,,,,-0.327393,-0.016846,0.202637,-46.813965,196.350098,35.522461,,,,,,,,,,,0.0,1.0,1.0,12.0,0.0,0.0,0.0,3.0,0.0,0.011393226666666664,-0.26949870666666664,1.0198861066666667,3.6319986533333335,-1.11572268,0.7381184799999998,-17.32902489341399,4.792352752754106,-2.109198416152177,-10.087354090025165,-1.0386967280577077,6.855787842009735,12.240728342916272,-1.5271002177399682,12.064713127066868,-1.4973771267293585,-0.33878622666666663,0.2526527066666666,-0.8172491066666667,1.40868804,0.9200573894668177,0.683437874931453,0.690280253143665,0.690280253143665
LBP08_S12,LBP08,78,79,12,78,78,1716497646.12,2024-05-23 20:54:06.120000+00:00,2024-05-24 05:54:06.120000+09:00,2024,5,23,20,54,6,120,,,,,,,,,-0.144287,-0.428711,0.15918,-72.387695,-47.668457,-32.226562,,,,,,,,,,,0.0,1.0,1.0,12.0,0.0,0.0,0.0,3.0,0.0,0.025084639999999995,-0.2693522266666667,1.0155924933333333,3.5262043866666666,-0.88053388,0.6925455599999998,-16.149176583820136,7.535039823308907,-0.6899214106153961,-10.733321153377972,-0.7372951351253514,6.8281909855851195,12.742526407014287,-1.474772711705204,12.40077180902129,-1.4923903118221316,-0.16937164,-0.15935877333333331,-0.8564124933333334,1.1851429066666666,0.8874256756551565,0.7084651257254048,0.6949741917748911,0.6949741917748911
LBP08_S12,LBP08,79,80,12,79,79,1716497646.16,2024-05-23 20:54:06.160000+00:00,2024-05-24 05:54:06.160000+09:00,2024,5,23,20,54,6,160,,,,,,,,,0.366699,-0.303955,0.74707,31.799316,-71.533203,-51.147461,,,,,,,,,,,0.0,1.0,1.0,12.0,0.0,0.0,0.0,3.0,0.0,0.016256519999999997,-0.26497072,0.9879753066666666,3.23323564,2.022298146666667,1.1694335733333332,-13.77025083660743,8.17838506310092,0.32044509190156145,-11.284131186842268,-0.41015973260131455,6.841008789261182,13.202244085868985,-1.5073697922538702,12.716464337844187,-1.490970278761388,0.35044248,-0.03898427999999998,-0.24090530666666654,0.6303320666666665,0.4270422375548225,0.6989999710884386,0.6887432160953545,0.6887432160953545
LBP08_S12,LBP08,80,81,12,80,80,1716497646.2,2024-05-23 20:54:06.200000+00:00,2024-05-24 05:54:06.200000+09:00,2024,5,23,20,54,6,200,,,,,,,,,0.489014,0.011719,1.051758,-32.348633,19.470215,-15.197754,,,,,,,,,,,0.0,1.0,1.0,12.0,0.0,0.0,0.0,3.0,0.0,0.01024414666666666,-0.25986654666666664,0.9747493866666666,3.5327148133333335,-0.23844403999999988,0.2522786266666665,-10.198463795265173,6.83738262996054,1.0243665635633614,-11.692069738652876,-0.13666442740289297,6.881983451803716,13.56778788786661,-1.5300235256249353,12.988098525674184,-1.4958112320641783,0.47876985333333333,0.2715855466666666,0.07700861333333342,0.8273640133333333,0.5557963729159956,0.6950638211366538,0.6857216969321873,0.6857216969321873
LBP08_S12,LBP08,81,82,12,81,81,1716497646.24,2024-05-23 20:54:06.240000+00:00,2024-05-24 05:54:06.240000+09:00,2024,5,23,20,54,6,240,,,,,,,,,-0.23584,-0.376953,1.53833,-15.563965,47.180176,51.452637,,,,,,,,,,,0.0,1.0,1.0,12.0,0.0,0.0,0.0,3.0,0.0,0.023886719999999993,-0.2630501333333333,0.9864193066666667,3.8492838266666665,-1.5568034133333333,0.31412758666666646,-5.772443600191626,3.964342392290686,1.4795547186020663,-11.92296748266054,0.021909268288734463,6.941165640547799,13.79628261736251,-1.4771187785892723,13.200865544378166,-1.5009593059771684,-0.25972671999999997,-0.11390286666666666,0.5519106933333333,0.9255402799999999,0.6205136948791086,0.710465705468146,0.6842726302198966,0.6842726302198966
LBP08_S12,LBP08,82,83,12,82,82,1716497646.28,2024-05-23 20:54:06.280000+00:00,2024-05-24 05:54:06.280000+09:00,2024,5,23,20,54,6,280,,,,,,,,,-0.197021,-0.418945,1.746338,27.160645,-54.260254,-9.338379,,,,,,,,,,,0.0,1.0,1.0,12.0,0.0,0.0,0.0,3.0,0.0,0.027848306666666663,-0.2639029866666667,0.9964876666666667,3.2649739333333336,0.10009762666666679,1.0766601466666665,-1.1042870861305383,0.24894764209108128,1.7021090778404748,-11.967138966105763,0.03186717397237771,7.009250003661418,13.868778466926765,-1.462106309211274,13.34889184329613,-1.5037988959367419,-0.22486930666666666,-0.15504201333333334,0.7498503333333333,1.1297616533333332,0.7980474631118828,0.6953464485391393,0.6867459961523312,0.6867459961523312
LBP08_S12,LBP08,83,84,12,83,83,1716497646.32,2024-05-23 20:54:06.320000+00:00,2024-05-24 05:54:06.320000+09:00,2024,5,23,20,54,6,320,,,,,,,,,0.282715,-0.538574,1.19043,-50.109863,97.229004,41.442871,,,,,,,,,,,0.0,1.0,1.0,12.0,0.0,0.0,0.0,3.0,0.0,0.015419933333333328,-0.2745930933333333,1.0057292000000002,2.57324216,0.4353840800000001,2.2566731733333327,3.0689256824617215,-3.491117154642746,1.721557663905555,-11.844381938807294,-0.10777751221333215,7.07811231021764,13.798575048914936,-1.5126577499380078,13.433151248898316,-1.5026057347613022,0.2672950666666667,-0.2639809066666667,0.1847007999999999,0.7159767733333333,0.4186250795993154,0.6898375928633308,0.6810412958001393,0.6810412958001393
LBP08_S12,LBP08,84,85,12,84,84,1716497646.36,2024-05-23 20:54:06.360000+00:00,2024-05-24 05:54:06.360000+09:00,2024,5,23,20,54,6,360,,,,,,,,,-0.318848,0.022949,-0.044678,61.462402,-8.056641,-2.685547,,,,,,,,,,,0.0,1.0,1.0,12.0,0.0,0.0,0.0,3.0,0.0,0.011966159999999993,-0.27883462666666664,1.0141016,3.4440103866666663,-1.8237305066666663,2.1264648399999997,6.080866655975583,-6.453082795840832,1.620994409400407,-11.60114727256827,-0.36590082404696544,7.142952086593656,13.628729433231447,-1.5263212109717865,13.4591894621479,-1.5017243801513955,-0.33081416,0.30178362666666664,-1.0587796,1.6913773866666668,1.1495762728748153,0.7237295864949954,0.6908024411558618,0.6908024411558618
LBP08_S12,LBP08,85,86,12,85,85,1716497646.4,2024-05-23 20:54:06.400000+00:00,2024-05-24 05:54:06.400000+09:00,2024,5,23,20,54,6,400,,,,,,,,,0.151855,0.028809,0.379883,27.34375,-115.600586,-45.10498,,,,,,,,,,,0.0,1.0,1.0,12.0,0.0,0.0,0.0,3.0,0.0,0.01721030666666666,-0.27420897333333333,1.0024088933333333,4.0551757466666665,0.737304653333334,2.890624986666667,7.525838317654046,-8.032713108722827,1.520947610300161,-11.300113739862107,-0.6872093483958785,7.203789991005663,13.418622040167032,-1.5058280837741504,13.435292314222412,-1.499046781967957,0.13464469333333334,0.30301797333333336,-0.6225258933333333,1.06018856,0.705327989999215,0.7401485785646308,0.6910988809281751,0.6910988809281751
LBP08_S12,LBP08,86,87,12,86,86,1716497646.44,2024-05-23 20:54:06.440000+00:00,2024-05-24 05:54:06.440000+09:00,2024,5,23,20,54,6,440,,,,,,,,,0.639648,-0.445801,1.160156,-34.057617,-30.517578,-3.173828,,,,,,,,,,,0.0,1.0,1.0,12.0,0.0,0.0,0.0,3.0,0.0,0.014554053333333329,-0.26869138666666664,0.9786393600000001,4.203287733333333,0.9611002266666674,2.5317382799999995,7.3860645683465185,-7.999541781428755,1.5195231638920206,-11.004671157128247,-1.0071910196530287,7.264570917561343,13.224644102692446,-1.5146905795589511,13.370575158547751,-1.4969263818337053,0.6250939466666666,-0.17710961333333336,0.1815166399999999,0.9837201999999998,0.6745802753500001,0.7400655751906288,0.6907685088166116,0.6907685088166116
LBP08_S12,LBP08,87,88,12,87,87,1716497646.48,2024-05-23 20:54:06.480000+00:00,2024-05-24 05:54:06.480000+09:00,2024,5,23,20,54,6,480,,,,,,,,,-0.029297,-0.501221,1.591309,34.118652,92.651367,31.860352,,,,,,,,,,,0.0,1.0,1.0,12.0,0.0,0.0,0.0,3.0,0.0,0.014339213333333328,-0.2670442533333333,0.9706120133333334,4.2399088266666665,-2.415364613333333,1.3297526,6.054910940454004,-6.575989928319531,1.6358585183592096,-10.762474719510086,-1.27023061678581,7.330005258295712,13.083322398938144,-1.5151686059855713,13.272513248400452,-1.4978748210106259,-0.043636213333333326,-0.2341767466666667,0.6206969866666667,0.8985099466666668,0.6648365340822785,0.7359132681444263,0.6869572163469612,0.6902600387237815
LBP08_S12,LBP08,88,89,12,88,88,1716497646.52,2024-05-23 20:54:06.520000+00:00,2024-05-24 05:54:06.520000+09:00,2024,5,23,20,54,6,520,,,,,,,,,-0.534912,-0.538086,1.769043,20.385742,-62.927246,0.12207,,,,,,,,,,,0.0,1.0,1.0,12.0,0.0,0.0,0.0,3.0,0.0,0.027880879999999997,-0.2749479066666667,0.9870443066666666,4.154459613333334,-2.893880239999999,1.5470377466666665,4.248164033392737,-4.3620689387326435,1.7943856014072945,-10.592548158174377,-1.4447133743351157,7.401780682352004,13.00290853951013,-1.4659591656061357,13.144285838504004,-1.502027112230841,-0.56279288,-0.26313809333333327,0.7819986933333333,1.6079296666666667,0.9987489365785763,0.748198379131141,0.6985073643919761,0.6961925175286814
LBP08_S12,LBP08,89,90,12,89,89,1716497646.56,2024-05-23 20:54:06.560000+00:00,2024-05-24 05:54:06.560000+09:00,2024,5,23,20,54,6,560,,,,,,,,,0.43335,-0.676758,1.883545,-47.668457,-63.476562,-20.202637,,,,,,,,,,,0.0,1.0,1.0,12.0,0.0,0.0,0.0,3.0,0.0,0.02381186666666666,-0.27280272,1.00034184,3.8492838266666665,-0.8414713866666663,2.373860666666666,2.82873194400596,-2.1267896867757936,1.8518341448790547,-10.47939888041414,-1.5297849618061474,7.475854048147166,12.963272606614108,-1.4805938104194838,12.982996096354691,-1.5007318304985493,0.40953813333333333,-0.40395527999999997,0.8832031600000001,1.6966965733333335,1.0540157364707679,0.7217924314919145,0.7112738452822874,0.7029438990181548
LBP08_S12,LBP08,90,91,12,90,90,1716497646.6,2024-05-23 20:54:06.600000+00:00,2024-05-24 05:54:06.600000+09:00,2024,5,23,20,54,6,600,,,,,,,,,-0.563965,-0.051025,-0.122559,47.180176,192.199707,40.100098,,,,,,,,,,,0.0,1.0,1.0,12.0,0.0,0.0,0.0,3.0,0.0,0.017223319999999993,-0.28851236,1.0142578666666668,3.0786132533333332,-1.7260742533333329,2.8572591066666666,2.58951145104473,-0.54925229221936,1.6453794156919905,-10.375818422372351,-1.5517550534949218,7.541669224774846,12.920616331119987,-1.5088195242824194,12.779852912789016,-1.4971450209830757,-0.5811883200000001,0.23748736000000004,-1.136816866666667,1.955492546666667,1.2986657375175532,0.740065842344191,0.7208692236836397,0.7139757849162918
LBP08_S12,LBP08,91,92,12,91,91,1716497646.64,2024-05-23 20:54:06.640000+00:00,2024-05-24 05:54:06.640000+09:00,2024,5,23,20,54,6,640,,,,,,,,,-0.09082,-0.175537,0.266357,-32.348633,-80.566406,-21.54541,,,,,,,,,,,0.0,1.0,1.0,12.0,0.0,0.0,0.0,3.0,0.0,0.02366862666666666,-0.29157225333333336,1.0219271333333333,4.010416626666667,-2.1272786799999994,3.15917968,4.046694370175471,-0.007030446919062662,1.0427276933230805,-10.213950647565332,-1.5520362713716844,7.583378332507769,12.815663515889526,-1.486603170358479,12.522798270921438,-1.4924075434350559,-0.11448862666666666,0.11603525333333337,-0.7555701333333333,0.9860940133333334,0.7729541073294722,0.7472717407125842,0.7165058987327153,0.7150481180510769
LBP08_S12,LBP08,92,93,12,92,92,1716497646.68,2024-05-23 20:54:06.680000+00:00,2024-05-24 05:54:06.680000+09:00,2024,5,23,20,54,6,680,,,,,,,,,0.437988,-0.149658,0.827148,13.366699,-65.185547,-31.37207,,,,,,,,,,,0.0,1.0,1.0,12.0,0.0,0.0,0.0,3.0,0.0,0.018362639999999993,-0.28375323999999996,0.99771816,5.007324186666667,1.0668944933333337,4.2203776,7.293713712968236,-0.4864836325503494,-0.011914089539599423,-9.922202099046602,-1.5714956166736984,7.582901768926185,12.58650436796227,-1.5036292214134246,12.201042617047653,-1.490716484591505,0.41962536,0.13409523999999995,-0.17057016000000003,0.7242907599999999,0.47239936031731966,0.7495686709910854,0.7164337562460009,0.7107151045201169
LBP08_S12,LBP08,93,94,12,93,93,1716497646.72,2024-05-23 20:54:06.720000+00:00,2024-05-24 05:54:06.720000+09:00,2024,5,23,20,54,6,720,,,,,,,,,0.569336,-0.456299,1.363037,-2.929688,68.664551,12.390137,,,,,,,,,,,0.0,1.0,1.0,12.0,0.0,0.0,0.0,3.0,0.0,0.01868165333333333,-0.2722330666666667,0.97960292,5.96516924,1.6406249600000007,3.62792968,11.953841610482078,-1.63282695165482,-1.4543205899063891,-9.44404843462732,-1.6368086947398912,7.524728945329929,12.185677627421828,-1.4997049326150915,11.809948058293307,-1.488172111452841,0.5506543466666666,-0.18406593333333332,0.38343408,1.11815436,0.6957888839455622,0.745701270209904,0.7057251518753115,0.7104532410012651
LBP08_S12,LBP08,94,95,12,94,94,1716497646.76,2024-05-23 20:54:06.760000+00:00,2024-05-24 05:54:06.760000+09:00,2024,5,23,20,54,6,760,,,,,,,,,-0.523438,-0.524902,1.762207,15.50293,-6.103516,44.799805,,,,,,,,,,,0.0,1.0,1.0,12.0,0.0,0.0,0.0,3.0,0.0,0.02142578666666666,-0.2764127466666667,0.9803744133333333,4.4628906,-0.2587890933333329,3.334960933333333,17.24942123284415,-2.8931071476143475,-3.063889724138203,-8.754071585313554,-1.7525329806444652,7.4021733563644005,11.597297597574693,-1.4904531158170489,11.354416146376128,-1.491530920348222,-0.5448637866666666,-0.24848925333333327,0.7818325866666668,1.5751856266666666,0.9848277253493564,0.7550292785375577,0.7140804537764904,0.7151838355589908
LBP08_S12,LBP08,95,96,12,95,95,1716497646.8,2024-05-23 20:54:06.800000+00:00,2024-05-24 05:54:06.800000+09:00,2024,5,23,20,54,6,800,,,,,,,,,-0.049072,-0.28833,1.880127,35.522461,-133.117676,-31.12793,,,,,,,,,,,0.0,1.0,1.0,12.0,0.0,0.0,0.0,3.0,0.0,0.030429693333333323,-0.27994464,1.0009505866666666,4.52148436,0.581054653333334,3.543294266666667,22.179562963070914,-3.6814777600196393,-4.458806709507859,-7.866889066790717,-1.8997920910452508,7.223821087984086,10.84807562149126,-1.4584533082939546,10.849831725391464,-1.4935068614161604,-0.07950169333333332,-0.008385359999999953,0.8791764133333335,0.9670634666666668,0.8828034884768305,0.7833446585117412,0.720122819643092,0.7180248466253948
LBP08_S12,LBP08,96,97,12,96,96,1716497646.84,2024-05-23 20:54:06.840000+00:00,2024-05-24 05:54:06.840000+09:00,2024,5,23,20,54,6,840,,,,,,,,,0.262695,-0.390381,0.941406,-19.104004,180.175781,47.424316,,,,,,,,,,,0.0,1.0,1.0,12.0,0.0,0.0,0.0,3.0,0.0,0.02037434666666666,-0.28954425333333333,1.01740892,5.229492173333333,0.44270830666666733,4.442545573333334,25.768428407906473,-3.5187873927193887,-5.158554602101818,-6.8361519304744585,-2.0405435867540263,7.017478903900013,10.00708756395458,-1.49777999112344,10.320936332004909,-1.490171389568791,0.24232065333333336,-0.10083674666666664,-0.07600292000000008,0.4191603200000001,0.27324676093000155,0.7471472509803186,0.7186724331297317,0.7106118785304716
LBP08_S12,LBP08,97,98,12,97,97,1716497646.88,2024-05-23 20:54:06.880000+00:00,2024-05-24 05:54:06.880000+09:00,2024,5,23,20,54,6,880,,,,,,,,,-0.091309,0.235352,-0.134521,135.131836,-41.381836,-29.968262,,,,,,,,,,,0.0,1.0,1.0,12.0,0.0,0.0,0.0,3.0,0.0,0.022786453333333328,-0.29135414666666665,1.0313932933333332,5.541992173333333,-1.216634146666666,5.1033528666666665,27.31997304279475,-2.133456203829899,-4.727023028503125,-5.743353008762669,-2.125881834907222,6.828397982759888,9.17237681139469,-1.4897248745989327,9.799353766649613,-1.4886127962502342,-0.11409545333333333,0.5267061466666667,-1.165914293333333,1.8067158933333332,1.284442788452157,0.771625210118959,0.7281203080730937,0.7200189426275485
LBP08_S12,LBP08,98,99,12,98,98,1716497646.92,2024-05-23 20:54:06.920000+00:00,2024-05-24 05:54:06.920000+09:00,2024,5,23,20,54,6,920,,,,,,,,,0.30127,-0.270996,0.491211,-17.150879,-96.740723,-75.256348,,,,,,,,,,,0.0,1.0,1.0,12.0,0.0,0.0,0.0,3.0,0.0,0.019960933333333326,-0.290638,1.02574876,5.408528639999999,1.3509114266666673,6.881510426666667,26.601367619504828,0.46922111759359014,-2.9563928938210373,-4.679298303982476,-2.1071129902034786,6.710142267007047,8.447589420338325,-1.499547254559947,9.319861114337492,-1.482545485530112,0.28130906666666666,0.019641999999999993,-0.5345377599999999,0.8354888266666665,0.6043601707745875,0.7749770767799505,0.7259300343070462,0.7181534785654039
LBP08_S12,LBP08,99,100,12,99,99,1716497646.96,2024-05-23 20:54:06.960000+00:00,2024-05-24 05:54:06.960000+09:00,2024,5,23,20,54,6,960,,,,,,,,,0.580566,0.121094,1.215332,62.072754,33.935547,-30.944824,,,,,,,,,,,0.0,1.0,1.0,12.0,0.0,0.0,0.0,3.0,0.0,0.019150386666666658,-0.28180010666666666,1.0061100799999998,5.605468733333333,1.1401366933333341,6.908365906666666,23.889136067122546,3.9729749311961777,-0.0036942284286412353,-3.7237328612975737,-1.9481939929556316,6.709994497869901,7.9174283967674866,-1.5003532210988664,8.915476179259088,-1.4795040674301851,0.5614156133333333,0.40289410666666664,0.20922192000000028,1.1735316400000002,0.7220006675133069,0.7802617398303728,0.7350662168263676,0.7182145450566404
LBP08_S12,LBP08,100,101,12,100,100,1716497647.0,2024-05-23 20:54:07+00:00,2024-05-24 05:54:07+09:00,2024,5,23,20,54,7,0,20.0,54.0,5.0,40.788811,141.62558,-22.443001,3.0,15.0,-0.285889,-0.535645,1.593994,-44.494629,69.580078,73.608398,-568.0,58.0,586.0,188.0,0.0,1021.299988,25.35,0.082251,-66.767876,3.782813,0.0,1.0,1.0,12.0,0.0,0.0,0.0,6.0,0.0,0.025774733333333324,-0.2799576533333333,0.9932813066666667,5.22542316,1.1027018000000008,7.063802106666667,19.859223378608924,7.781728223181174,3.607904599542177,-2.9293639261532167,-1.6369248640283847,6.8543106818515875,7.631662397254408,-1.4754648058087239,8.612319432285796,-1.4767666637902659,-0.3116637333333333,-0.25568734666666676,0.6007126933333332,1.1680637733333334,0.7234404203889209,0.7725511284999976,0.7213360629238075,0.7182961993587074
LBP08_S12,LBP08,101,102,12,101,101,1716497647.04,2024-05-23 20:54:07.040000+00:00,2024-05-24 05:54:07.040000+09:00,2024,5,23,20,54,7,40,,,,,,,,,-0.319336,-0.78125,1.82251,23.071289,-96.008301,8.178711,,,,,,,,,,,0.0,1.0,1.0,12.0,0.0,0.0,0.0,6.0,0.0,0.026643866666666658,-0.27625973333333337,0.9875000533333333,4.986165346666667,1.0489908666666672,7.172851586666666,15.368135100773335,11.141231166552632,7.144415099301858,-2.314638522122283,-1.1912756173662793,7.140087285823662,7.5998378623365745,-1.471017237172912,8.42558253772011,-1.4794879839620143,-0.3459798666666667,-0.5049902666666666,0.8350099466666667,1.68598008,1.0353544555363756,0.7849951290028078,0.7282948183216044,0.7231740186845176
LBP08_S12,LBP08,102,103,12,102,102,1716497647.08,2024-05-23 20:54:07.080000+00:00,2024-05-24 05:54:07.080000+09:00,2024,5,23,20,54,7,80,,,,,,,,,0.53833,-0.409668,1.527832,2.380371,54.992676,30.517578,,,,,,,,,,,0.0,1.0,1.0,12.0,0.0,0.0,0.0,6.0,0.0,0.03617185333333333,-0.2927766666666667,1.0110384533333334,5.721842426666667,-0.5354817866666661,7.44140628,11.214078969768108,13.332823871815531,9.901528648128,-1.8660753633315588,-0.6579626624936581,7.5361484317487815,7.79157784484108,-1.4429561142122018,8.357440901879517,-1.4773488786961113,0.5021581466666667,-0.11689133333333329,0.5167935466666667,1.1358430266666666,0.730001341059356,0.7773928870665094,0.7304153809989812,0.7232774629629243
LBP08_S12,LBP08,103,104,12,103,103,1716497647.12,2024-05-23 20:54:07.120000+00:00,2024-05-24 05:54:07.120000+09:00,2024,5,23,20,54,7,120,,,,,,,,,-0.814453,-0.01709,-0.106934,45.898438,127.01416,29.23584,,,,,,,,,,,0.0,1.0,1.0,12.0,0.0,0.0,0.0,6.0,0.0,0.028313786666666663,-0.28857093333333333,1.0301628133333331,7.954101546666666,-1.2874349199999995,7.265625026666668,7.957122787996267,13.8794690390196,11.413624342098732,-1.547790451811708,-0.10278390093287404,7.992693405432731,8.141828276637769,-1.4692907516158256,8.397209864146387,-1.4745602398589621,-0.8427667866666666,0.27148093333333334,-1.1370968133333332,2.251344533333333,1.441161655320047,0.799542326253105,0.7540037259892549,0.7339921524010903
LBP08_S12,LBP08,104,105,12,104,104,1716497647.16,2024-05-23 20:54:07.160000+00:00,2024-05-24 05:54:07.160000+09:00,2024,5,23,20,54,7,160,,,,,,,,,-0.154541,0.056885,0.256592,-17.150879,-58.837891,-17.333984,,,,,,,,,,,0.0,1.0,1.0,12.0,0.0,0.0,0.0,6.0,0.0,0.030742173333333327,-0.2953775733333333,1.0414160666666665,5.673828106666667,-2.416178413333333,8.008626333333334,5.833765293630647,12.68816603261832,11.547520983846795,-1.314439840066482,0.40474274037185876,8.454594244786604,8.565730127841787,-1.4630790794178543,8.52371430832354,-1.4699701232861153,-0.18528317333333333,0.35226257333333333,-0.7848240666666666,1.3223698133333333,0.8799815853249978,0.817659900163912,0.7583299356261753,0.7361390558264419
LBP08_S12,LBP08,105,106,12,105,105,1716497647.2,2024-05-23 20:54:07.200000+00:00,2024-05-24 05:54:07.200000+09:00,2024,5,23,20,54,7,200,,,,,,,,,0.5,-0.477783,1.03833,-47.668457,-27.648926,-13.671875,,,,,,,,,,,0.0,1.0,1.0,12.0,0.0,0.0,0.0,6.0,0.0,0.02385741333333333,-0.29050126666666665,1.0250716666666666,6.14664712,-0.32145185333333304,8.681640653333332,4.765311901368622,10.069347653740548,10.471262049336309,-1.123827364011737,0.8075166465214807,8.873444726760056,8.980706675834409,-1.4856665100114392,8.709373077411215,-1.4661949082100647,0.47614258666666665,-0.18728173333333337,0.013258333333333372,0.6766826533333334,0.5118222287872418,0.8159009343987619,0.7554823777677078,0.7328880873186273
LBP08_S12,LBP08,106,107,12,106,106,1716497647.24,2024-05-23 20:54:07.240000+00:00,2024-05-24 05:54:07.240000+09:00,2024,5,23,20,54,7,240,,,,,,,,,0.092529,-0.439453,1.489502,32.653809,83.251953,22.644043,,,,,,,,,,,0.0,1.0,1.0,12.0,0.0,0.0,0.0,6.0,0.0,0.02609698666666666,-0.2865006133333333,1.00457036,5.14729816,-0.3906250266666664,8.771972680000001,4.447410430692036,6.62856510231906,8.547746568184552,-0.9459309467840556,1.0726592506142432,9.215354589487438,9.325671205548653,-1.4763889384644109,8.924965339988521,-1.4681840853933317,0.06643201333333335,-0.15295238666666666,0.4849316400000001,0.7043160400000001,0.5128024380359744,0.8115924841250365,0.7610290947965913,0.7297440066145895
LBP08_S12,LBP08,107,108,12,107,107,1716497647.28,2024-05-23 20:54:07.280000+00:00,2024-05-24 05:54:07.280000+09:00,2024,5,23,20,54,7,280,,,,,,,,,-0.470947,-0.493652,1.761963,52.062988,-68.054199,10.192871,,,,,,,,,,,0.0,1.0,1.0,12.0,0.0,0.0,0.0,6.0,0.0,0.030449199999999996,-0.28986974666666665,0.9913704933333334,4.797363266666666,0.19449866666666688,9.41487632,4.49711287686179,3.087279080101143,6.217816105815822,-0.7660464317095841,1.1961504138182888,9.46406723372007,9.570066434063378,-1.4618384862274418,9.144109849381579,-1.470400328648994,-0.5013962,-0.20378225333333333,0.7705925066666666,1.4757709599999997,0.9416677585427183,0.8173372959422699,0.7563418722407046,0.7327288481910419
LBP08_S12,LBP08,108,109,12,108,108,1716497647.32,2024-05-23 20:54:07.320000+00:00,2024-05-24 05:54:07.320000+09:00,2024,5,23,20,54,7,320,,,,,,,,,0.317871,-0.536865,1.904297,16.174316,-79.101562,-14.099121,,,,,,,,,,,0.0,1.0,1.0,12.0,0.0,0.0,0.0,6.0,0.0,0.03262042666666666,-0.2884797733333333,0.9929427599999999,5.486653626666667,-1.1254883066666665,9.530436226666668,4.605711765317853,0.11006174260218796,3.9126341849891904,-0.5818179610968699,1.2005528835223762,9.620572601119639,9.71263386210984,-1.4536460888314775,9.347110772107118,-1.4792290375011583,0.28525057333333337,-0.24838522666666674,0.91135424,1.44499004,0.9867267408858565,0.8400613623937315,0.7649494776285312,0.7362565967006921
LBP08_S12,LBP08,109,110,12,109,109,1716497647.36,2024-05-23 20:54:07.360000+00:00,2024-05-24 05:54:07.360000+09:00,2024,5,23,20,54,7,360,,,,,,,,,-0.326172,0.029541,-0.031982,-2.807617,184.570312,41.442871,,,,,,,,,,,0.0,1.0,1.0,12.0,0.0,0.0,0.0,6.0,0.0,0.030468733333333328,-0.29177405333333334,1.0133171066666666,7.063802066666667,0.11637366666666689,11.056315133333333,4.627437667477467,-1.8109317989711342,2.000321810614962,-0.39672045439777126,1.128115611563531,9.700585473544237,9.774016087644238,-1.4626010703383603,9.523852515282567,-1.4835923103240731,-0.35664073333333335,0.3213150533333333,-1.0452991066666666,1.7232548933333334,1.150254840706733,0.8400885051070083,0.7819090458010018,0.7419278055226928
LBP08_S12,LBP08,110,111,12,110,110,1716497647.4,2024-05-23 20:54:07.400000+00:00,2024-05-24 05:54:07.400000+09:00,2024,5,23,20,54,7,400,,,,,,,,,-0.16748,0.046143,0.111572,-13.244629,-46.875,-15.869141,,,,,,,,,,,0.0,1.0,1.0,12.0,0.0,0.0,0.0,6.0,0.0,0.021240213333333327,-0.2919888933333334,1.0319271333333333,6.765136693333333,-0.5639648666666665,11.74153648,4.564316646125752,-2.411712168702039,0.7530468936228396,-0.2141477885527412,1.0316471248154493,9.730707349289151,9.787585023027484,-1.4953565776413928,9.674801988135155,-1.4881059836927997,-0.18872021333333333,0.3381318933333334,-0.9203551333333333,1.44720724,0.9984999086944282,0.8518153818548169,0.7959819802097238,0.7453949961060946
LBP08_S12,LBP08,111,112,12,111,111,1716497647.44,2024-05-23 20:54:07.440000+00:00,2024-05-24 05:54:07.440000+09:00,2024,5,23,20,54,7,440,,,,,,,,,0.385254,-0.227051,0.702393,-36.865234,-94.665527,-25.45166,,,,,,,,,,,0.0,1.0,1.0,12.0,0.0,0.0,0.0,6.0,0.0,0.02204750666666666,-0.29463212,1.0373340266666669,6.624348933333334,0.34098305333333345,12.686360693333333,4.474553984333643,-1.6852343788582616,0.3229447696961137,-0.03516562917939545,0.9642377496611189,9.743625140076995,9.79128295626715,-1.4931796697295359,9.809318732213011,-1.4869608379375079,0.3632064933333333,0.06758112,-0.3349410266666668,0.7657286400000001,0.4986698867231426,0.8447789663097426,0.7924222707501856,0.7421053279809885
LBP08_S12,LBP08,112,113,12,112,112,1716497647.48,2024-05-23 20:54:07.480000+00:00,2024-05-24 05:54:07.480000+09:00,2024,5,23,20,54,7,480,,,,,,,,,0.461182,-0.435059,1.116943,1.159668,30.212402,11.84082,,,,,,,,,,,0.0,1.0,1.0,12.0,0.0,0.0,0.0,6.0,0.0,0.010787733333333329,-0.28301102666666667,1.0134798533333333,5.75927732,0.7413736800000001,12.468261733333332,4.380386080341935,0.09762222803938919,0.728141877231013,0.14004981403428196,0.9681426387826945,9.772750815166235,9.821587072096468,-1.5312432027338456,9.941672966301521,-1.4886720631775812,0.45039426666666665,-0.1520479733333333,0.10346314666666667,0.7059053866666667,0.48649584207796337,0.8376453386295698,0.7867793033869981,0.7371865904411641
LBP08_S12,LBP08,113,114,12,113,113,1716497647.52,2024-05-23 20:54:07.520000+00:00,2024-05-24 05:54:07.520000+09:00,2024,5,23,20,54,7,520,,,,,,,,,-0.279541,-0.171875,1.491943,29.23584,62.5,24.414062,,,,,,,,,,,0.0,1.0,1.0,12.0,0.0,0.0,0.0,6.0,0.0,0.015436173333333327,-0.2765136266666667,0.9938802400000001,5.832519506666666,0.7893880000000003,12.40071616,4.241461760110805,2.4010643216803995,1.8579206416761511,0.3097082844387141,1.0641852116499104,9.84706764083328,9.909245708392252,-1.5129234798449709,10.086287306917272,-1.4939315827700441,-0.2949771733333333,0.10463862666666668,0.49806275999999994,0.8976785599999999,0.5882408417283068,0.8212250148355591,0.7847116969833501,0.7394132478731705
LBP08_S12,LBP08,114,115,12,114,114,1716497647.56,2024-05-23 20:54:07.560000+00:00,2024-05-24 05:54:07.560000+09:00,2024,5,23,20,54,7,560,,,,,,,,,-0.396729,-0.670166,1.7854,48.583984,-100.646973,-17.333984,,,,,,,,,,,0.0,1.0,1.0,12.0,0.0,0.0,0.0,6.0,0.0,0.016767559999999994,-0.27801102666666666,0.9844531599999999,5.751953106666667,1.0709635200000005,12.68147788,4.001433535144087,4.50940850475971,3.4987767203247637,0.46976562584447756,1.2445615518402988,9.987018709646271,10.075224856367667,-1.5082158131051238,10.253896154507785,-1.5012686550338432,-0.41349656,-0.3921549733333334,0.8009468400000002,1.6065983733333336,0.9829958131893985,0.8183842179043045,0.7700883246981094,0.7469773028229597
LBP08_S12,LBP08,115,116,12,115,115,1716497647.6,2024-05-23 20:54:07.600000+00:00,2024-05-24 05:54:07.600000+09:00,2024,5,23,20,54,7,600,,,,,,,,,0.570801,-0.393555,1.334229,-17.578125,31.677246,14.953613,,,,,,,,,,,0.0,1.0,1.0,12.0,0.0,0.0,0.0,6.0,0.0,0.026266266666666663,-0.2816340666666666,0.99659508,5.860188786666666,-0.852864613333333,12.830403666666667,3.656808550943798,5.68567479033741,5.370389927378493,0.6160379678822294,1.4719885434537952,10.20183430674141,10.32587411661297,-1.4742150524585205,10.449648375024731,-1.5086512521101603,0.5445347333333334,-0.11192093333333336,0.33763392000000014,0.9940895866666669,0.6504160476642434,0.7924542303101718,0.7662600363271815,0.7447308925591505
LBP08_S12,LBP08,116,117,12,116,116,1716497647.64,2024-05-23 20:54:07.640000+00:00,2024-05-24 05:54:07.640000+09:00,2024,5,23,20,54,7,640,,,,,,,,,-0.821045,-0.154541,-0.149902,-2.258301,120.422363,27.770996,,,,,,,,,,,0.0,1.0,1.0,12.0,0.0,0.0,0.0,6.0,0.0,0.021077466666666666,-0.28245437333333334,1.01352216,6.410318986666666,-0.5777995066666664,14.120279960000001,3.2855033468090205,5.363983187684043,7.159467199480067,0.7474581017545903,1.6865478709611568,10.488212994720614,10.64921354643377,-1.493501190865144,10.673282666907905,-1.5114616547808466,-0.8421224666666667,0.12791337333333333,-1.16342416,2.13346,1.4419042464789296,0.8192122358761502,0.7832419882943671,0.7507413444471935
LBP08_S12,LBP08,117,118,12,117,117,1716497647.68,2024-05-23 20:54:07.680000+00:00,2024-05-24 05:54:07.680000+09:00,2024,5,23,20,54,7,680,,,,,,,,,-0.096924,-0.000488,0.248535,5.004883,-56.091309,-28.991699,,,,,,,,,,,0.0,1.0,1.0,12.0,0.0,0.0,0.0,6.0,0.0,0.01525065333333333,-0.2801562,1.0261360933333332,7.026367173333333,-1.1816406533333328,14.953613293333335,3.0126161653994914,3.3137121939475005,8.55103280077905,0.86796274837057,1.8190963587190567,10.830254306751776,11.01620984022088,-1.5144336821520699,10.920842640145995,-1.5141180252841455,-0.11217465333333333,0.27966820000000003,-0.7776010933333333,1.1694439466666666,0.8339429928327768,0.8336739811767686,0.791621326083927,0.7555138312229235
LBP08_S12,LBP08,118,119,12,118,118,1716497647.72,2024-05-23 20:54:07.720000+00:00,2024-05-24 05:54:07.720000+09:00,2024,5,23,20,54,7,720,,,,,,,,,0.496826,-0.118652,0.810547,-18.920898,-63.598633,-8.728027,,,,,,,,,,,0.0,1.0,1.0,12.0,0.0,0.0,0.0,6.0,0.0,0.011848959999999995,-0.2804328933333333,1.02324872,6.8994140533333335,0.23681637333333375,15.6966146,2.942520210590499,-0.28288027616512834,9.269747327830514,0.9856635567941899,1.8077811476724517,11.201044199864997,11.38872233801498,-1.527016811469468,11.187051338932724,-1.5101114184744122,0.48497703999999997,0.16178089333333334,-0.21270171999999998,0.8594596533333333,0.5537308086659539,0.8279916581655842,0.7868464641877441,0.7464806539720691
LBP08_S12,LBP08,119,120,12,119,119,1716497647.76,2024-05-23 20:54:07.760000+00:00,2024-05-24 05:54:07.760000+09:00,2024,5,23,20,54,7,760,,,,,,,,,0.419922,-0.500732,1.226807,-17.944336,56.884766,12.390137,,,,,,,,,,,0.0,1.0,1.0,12.0,0.0,0.0,0.0,6.0,0.0,0.009026693333333329,-0.27204748,1.0009668266666667,5.4931640533333335,-0.2791341466666663,14.785970066666666,3.1089002749575188,-4.858275661581053,9.146881705584189,1.1100195677924907,1.6134501212092096,11.566919468088365,11.731538292813687,-1.5364270411015297,11.467493793518148,-1.5112399127758382,0.4108953066666667,-0.22868451999999995,0.22584017333333328,0.8654199999999999,0.5216659339266408,0.8094651865086756,0.7822472325231168,0.7458753646872189
LBP08_S12,LBP08,120,121,12,120,120,1716497647.8,2024-05-23 20:54:07.800000+00:00,2024-05-24 05:54:07.800000+09:00,2024,5,23,20,54,7,800,,,,,,,,,-0.575439,-0.602051,1.574951,26.611328,12.084961,52.612305,,,,,,,,,,,0.0,1.0,1.0,12.0,0.0,0.0,0.0,6.0,0.0,0.012379546666666661,-0.27108720000000003,0.9818587466666666,4.930826813333333,-0.4557291999999997,15.094401053333334,3.4796593371777202,-9.56418420505748,8.210662095565425,1.2492059412795995,1.2308827530069104,11.895345951910983,12.02392794185923,-1.523460604348259,11.760313545797434,-1.5165719643905846,-0.5878185466666667,-0.3309638,0.5930922533333334,1.5118746,0.8982349924600818,0.8100824466680056,0.7967135525898733,0.7501093619847298
LBP08_S12,LBP08,121,122,12,121,121,1716497647.84,2024-05-23 20:54:07.840000+00:00,2024-05-24 05:54:07.840000+09:00,2024,5,23,20,54,7,840,,,,,,,,,-0.069824,-0.531006,1.911133,21.484375,-132.080078,-2.563477,,,,,,,,,,,0.0,1.0,1.0,12.0,0.0,0.0,0.0,6.0,0.0,0.013046866666666662,-0.2644888933333333,0.9776465066666669,6.19222004,-2.2070312799999994,14.444173186666667,4.015937088224674,-13.415674493909108,6.761424867620395,1.4098434248085865,0.6942557732505461,12.165802946615798,12.266882688648057,-1.5197433747625237,12.067905061091414,-1.5235952525050247,-0.08287086666666665,-0.26651710666666667,0.9334864933333331,1.2828744666666665,0.9743182138930888,0.8381253047865291,0.792636277883424,0.7584900570153309
LBP08_S12,LBP08,122,123,12,122,122,1716497647.88,2024-05-23 20:54:07.880000+00:00,2024-05-24 05:54:07.880000+09:00,2024,5,23,20,54,7,880,,,,,,,,,0.147217,-0.164062,0.811035,11.901855,155.029297,66.955566,,,,,,,,,,,0.0,1.0,1.0,12.0,0.0,0.0,0.0,6.0,0.0,0.020895173333333333,-0.27140946666666665,0.9940853066666667,4.771321613333334,-1.5364583599999997,15.13753256,4.745125270473958,-15.45942180444096,5.368138199399687,1.5996484356275449,0.07587890107290762,12.380528474591786,12.483674059963747,-1.4911771346365141,12.39908553456841,-1.5276275052294375,0.12632182666666666,0.10734746666666664,-0.18305030666666677,0.4167196000000001,0.24695768314210279,0.796625900574127,0.784125555346543,0.7509555055734382
LBP08_S12,LBP08,123,124,12,123,123,1716497647.92,2024-05-23 20:54:07.920000+00:00,2024-05-24 05:54:07.920000+09:00,2024,5,23,20,54,7,920,,,,,,,,,-0.258301,-0.087646,-0.168945,18.676758,-44.616699,-22.827148,,,,,,,,,,,0.0,1.0,1.0,12.0,0.0,0.0,0.0,6.0,0.0,0.012412106666666664,-0.2759797866666666,1.00947268,5.12695312,-0.04475914666666632,16.29638672,5.7916491095457285,-14.964087562313278,4.742356611594098,1.831314400009374,-0.5226846014196235,12.57022273905555,12.713670254246495,-1.524208422859229,12.770972233420753,-1.5306921508622144,-0.27071310666666665,0.1883337866666666,-1.17841768,1.6374645733333333,1.2236925389401971,0.8213991953007513,0.7981881360403509,0.7577530879716147
LBP08_S12,LBP08,124,125,12,124,124,1716497647.96,2024-05-23 20:54:07.960000+00:00,2024-05-24 05:54:07.960000+09:00,2024,5,23,20,54,7,960,,,,,,,,,0.268311,-0.105469,0.388916,10.498047,-123.352051,-63.110352,,,,,,,,,,,0.0,1.0,1.0,12.0,0.0,0.0,0.0,6.0,0.0,0.0024479199999999967,-0.27376949333333334,1.01627932,6.373697906666666,-1.118977893333333,16.617024733333334,7.330500658533447,-11.619140583859847,5.510253156897189,2.1245344263507118,-0.9874502247740173,12.790632865331437,13.003422379160506,-1.561536329252588,13.208586448035723,-1.5275004089185604,0.26586308000000003,0.16830049333333336,-0.62736332,1.0615268933333333,0.7018496766721148,0.8205931556671037,0.8004274477487382,0.7635751964399463
LBP08_S12,LBP08,125,126,12,125,125,1716497648.0,2024-05-23 20:54:08+00:00,2024-05-24 05:54:08+09:00,2024,5,23,20,54,8,0,20.0,54.0,6.0,40.788792,141.625473,-21.02,3.0,15.0,0.556396,-0.084473,1.135498,-20.385742,-5.432129,-20.568848,-575.0,50.0,590.0,202.0,0.0,1021.0,25.41,0.079278,-64.287384,3.782813,0.0,1.0,1.0,12.0,0.0,0.0,0.0,5.0,0.0,0.006783853333333329,-0.2662564666666667,1.0064843866666666,5.7259114533333335,-0.7112630533333332,16.65934244,9.475969803564055,-5.692692033326872,7.9759479319172595,2.503573218493274,-1.2151579061070923,13.109670782608127,13.401789269552799,-1.5444479336029204,13.740973818210714,-1.5222266525249117,0.5496121466666667,0.18178346666666667,0.12901361333333328,0.8604092266666666,0.5930963268662313,0.815379391926196,0.7939652602130969,0.752683839257937
LBP08_S12,LBP08,126,127,12,126,126,1716497648.04,2024-05-23 20:54:08.040000+00:00,2024-05-24 05:54:08.040000+09:00,2024,5,23,20,54,8,40,,,,,,,,,-0.079834,-0.402832,1.423096,-34.729004,97.412109,49.194336,,,,,,,,,,,0.0,1.0,1.0,12.0,0.0,0.0,0.0,5.0,0.0,0.009215493333333331,-0.25756179999999995,0.9815299599999999,4.62565104,0.13427730666666698,16.54947916,12.164501649351688,1.9319515697236302,11.99548575652366,2.9901532844673415,-1.1378798433181472,13.589490212869073,13.961018281203733,-1.5338237181092724,14.39509822077778,-1.5235864516136028,-0.08904949333333334,-0.14527020000000007,0.44156604,0.6758857333333335,0.47330097290439305,0.7928972526209168,0.7889461908118622,0.7498289630880418
LBP08_S12,LBP08,127,128,12,127,127,1716497648.08,2024-05-23 20:54:08.080000+00:00,2024-05-24 05:54:08.080000+09:00,2024,5,23,20,54,8,80,,,,,,,,,-0.251221,-0.917725,1.792725,26.000977,-92.651367,13.549805,,,,,,,,,,,0.0,1.0,1.0,12.0,0.0,0.0,0.0,5.0,0.0,0.006334626666666663,-0.2547427866666666,0.9628125066666666,4.8470052,0.22623693333333364,16.911621093333334,15.108228017744498,9.898564395678484,17.02922509559184,3.5944824051771214,-0.7419372674910079,14.270659216692748,14.735076828744313,-1.5450801384798394,15.190344806065724,-1.5276736632815875,-0.2575556266666667,-0.6629822133333334,0.8299124933333333,1.7504503333333334,1.0929936242333598,0.8074169439478769,0.7924049155071932,0.7560825686486131
LBP08_S12,LBP08,128,129,12,128,128,1716497648.12,2024-05-23 20:54:08.120000+00:00,2024-05-24 05:54:08.120000+09:00,2024,5,23,20,54,8,120,,,,,,,,,0.677002,-0.503174,1.737793,16.967773,-37.963867,41.442871,,,,,,,,,,,0.0,1.0,1.0,12.0,0.0,0.0,0.0,5.0,0.0,0.018567706666666666,-0.2528710533333333,0.9752734533333332,4.790852853333333,-2.381998746666666,16.017252600000003,17.86564338566276,16.68445034077943,22.34183206930091,4.309108140603632,-0.07455925385983064,15.164332499464784,15.764864484164667,-1.4950993920329267,16.135706206570553,-1.531314497304266,0.6584342933333334,-0.2503029466666667,0.7625195466666668,1.6712567866666668,1.0380863850355235,0.7912939331364959,0.7954181296948005,0.7664337950383352
LBP08_S12,LBP08,129,130,12,129,129,1716497648.16,2024-05-23 20:54:08.160000+00:00,2024-05-24 05:54:08.160000+09:00,2024,5,23,20,54,8,160,,,,,,,,,-0.651855,0.173828,-0.26123,92.773438,223.022461,90.454102,,,,,,,,,,,0.0,1.0,1.0,12.0,0.0,0.0,0.0,5.0,0.0,0.02160156,-0.2553743066666667,0.9914941599999999,4.59960936,-0.6258138533333327,16.840820306666664,20.005391479178254,20.988726506551455,27.244889181507766,5.109323799770762,0.7649898064022276,16.254128066725094,17.055411994563595,-1.4836894771650437,17.229879448959103,-1.531912385383715,-0.67345656,0.4292023066666667,-1.2527241599999999,2.355383026666667,1.4856231619434068,0.8155195962012323,0.8165897481825722,0.777393155817861
LBP08_S12,LBP08,130,131,12,130,130,1716497648.2,2024-05-23 20:54:08.200000+00:00,2024-05-24 05:54:08.200000+09:00,2024,5,23,20,54,8,200,,,,,,,,,-0.075195,0.424072,0.238281,76.538086,-8.544922,-21.911621,,,,,,,,,,,0.0,1.0,1.0,12.0,0.0,0.0,0.0,5.0,0.0,0.00848633333333333,-0.25975255999999997,1.00153648,4.823404933333333,-0.49397791999999946,17.363281240000003,21.272388442182045,22.078846043680844,31.27179343928004,5.960219337458044,1.6481436481494613,17.504999804296297,18.56517196752989,-1.5370585952351703,18.46315700882264,-1.5288745142293299,-0.08368133333333333,0.6838245599999999,-0.76325548,1.5307613733333332,1.0281913840125623,0.8361743624102451,0.8260376484045033,0.7823797059818869
LBP08_S12,LBP08,131,132,12,131,131,1716497648.24,2024-05-23 20:54:08.240000+00:00,2024-05-24 05:54:08.240000+09:00,2024,5,23,20,54,8,240,,,,,,,,,0.433105,-0.539062,1.157471,-103.149414,-36.437988,31.555176,,,,,,,,,,,0.0,1.0,1.0,12.0,0.0,0.0,0.0,5.0,0.0,0.002539066666666666,-0.2574348533333333,1.0052669466666666,4.860839840000001,-2.9166667199999994,17.220865866666667,21.658767541008135,19.963217288462083,34.2289225721409,6.826570039098369,2.446672339687945,18.874156707181932,20.219348541527502,-1.5606154914423696,19.819536597477786,-1.5256155040231,0.4305659333333334,-0.2816271466666667,0.1522040533333333,0.8643971333333333,0.536532335034813,0.8371235582901987,0.8243580212076175,0.7863939159611271
LBP08_S12,LBP08,132,133,12,132,132,1716497648.28,2024-05-23 20:54:08.280000+00:00,2024-05-24 05:54:08.280000+09:00,2024,5,23,20,54,8,280,,,,,,,,,0.13916,-0.429443,1.504395,17.089844,96.252441,23.803711,,,,,,,,,,,0.0,1.0,1.0,12.0,0.0,0.0,0.0,5.0,0.0,0.01057944,-0.2524771733333333,0.9913216400000001,4.351399733333333,-0.6038411999999994,17.063802066666668,21.350466906289757,15.315982372234705,36.14077776242801,7.68058871534996,3.059311634577333,20.319787817679053,21.937288065012034,-1.5275854748633009,21.27793420595581,-1.5242560151285018,0.12858056,-0.17696582666666671,0.5130733599999998,0.8186197466666665,0.5577581348213756,0.8217671733413451,0.8195522346418075,0.778150305940918
LBP08_S12,LBP08,133,134,12,133,133,1716497648.32,2024-05-23 20:54:08.320000+00:00,2024-05-24 05:54:08.320000+09:00,2024,5,23,20,54,8,320,,,,,,,,,-0.583008,-0.911133,1.711182,67.260742,-75.073242,35.827637,,,,,,,,,,,0.0,1.0,1.0,12.0,0.0,0.0,0.0,5.0,0.0,0.009840506666666665,-0.2501594666666667,0.9664095333333333,2.2249348933333333,0.5265298933333338,17.197265613333332,20.606337774850353,9.19794724101843,37.15427064315411,8.504842226343975,3.4272295242180704,21.80595864340522,23.655402678131995,-1.5301873036537208,22.812723982650773,-1.526540263023346,-0.5928485066666667,-0.6609735333333333,0.7447724666666666,1.9985945066666666,1.1588966264204925,0.8286539687627306,0.834357665578231,0.7861843080065977
LBP08_S12,LBP08,134,135,12,134,134,1716497648.36,2024-05-23 20:54:08.360000+00:00,2024-05-24 05:54:08.360000+09:00,2024,5,23,20,54,8,360,,,,,,,,,0.449219,-0.250488,1.956787,27.34375,-152.34375,16.479492,,,,,,,,,,,0.0,1.0,1.0,12.0,0.0,0.0,0.0,5.0,0.0,0.009625666666666664,-0.2508398,0.9602311466666666,2.5756835866666665,-2.711588586666666,16.41438801333333,19.64990266959884,2.715749524495224,37.46419277182685,9.290838333127928,3.5358595051978794,23.304526354278295,25.3361979777959,-1.531157617708735,24.39505263926079,-1.5314958840279953,0.43959333333333334,0.0003518000000000132,0.9965558533333334,1.4365009866666667,1.0892042927234906,0.8262119468434008,0.8331502259752045,0.7966766794818014
LBP08_S12,LBP08,135,136,12,135,135,1716497648.4,2024-05-23 20:54:08.400000+00:00,2024-05-24 05:54:08.400000+09:00,2024,5,23,20,54,8,400,,,,,,,,,0.074707,-0.105713,0.577148,6.958008,197.692871,97.961426,,,,,,,,,,,0.0,1.0,1.0,12.0,0.0,0.0,0.0,5.0,0.0,0.014475933333333331,-0.2534797733333333,0.9734082266666667,1.1897786399999999,-2.3876953599999995,16.62679036,18.606998674884455,-3.22755329602975,37.28259251687416,10.035118280123307,3.4067573733566894,24.79583005495326,26.965585156104222,-1.5118578315406213,25.99597084248643,-1.5344259293626947,0.060231066666666666,0.14776677333333332,-0.3962602266666667,0.6042580666666667,0.427182593197648,0.8033592542235294,0.8275873180391732,0.798441071547659
LBP08_S12,LBP08,136,137,12,136,136,1716497648.44,2024-05-23 20:54:08.440000+00:00,2024-05-24 05:54:08.440000+09:00,2024,5,23,20,54,8,440,,,,,,,,,-0.087402,0.077637,0.101074,24.780273,-13.061523,23.681641,,,,,,,,,,,0.0,1.0,1.0,12.0,0.0,0.0,0.0,5.0,0.0,0.012418639999999998,-0.25337886666666665,0.9828353066666667,1.15966796,-0.3946940533333329,17.94840494666667,17.476897370642305,-8.017512823845305,36.833850432967935,10.734194174948998,3.086056860402877,26.269184072271976,28.544994365983968,-1.520228829163292,27.590526602214123,-1.537307291330467,-0.09982063999999999,0.33101586666666666,-0.8817613066666667,1.3125978133333334,0.9471212520525562,0.821297308836706,0.8330381375732243,0.8020472834456924
LBP08_S12,LBP08,137,138,12,137,137,1716497648.48,2024-05-23 20:54:08.480000+00:00,2024-05-24 05:54:08.480000+09:00,2024,5,23,20,54,8,480,,,,,,,,,0.317871,-0.340576,0.739502,-13.549805,-72.570801,20.385742,,,,,,,,,,,0.0,1.0,1.0,12.0,0.0,0.0,0.0,5.0,0.0,0.0007194266666666642,-0.2588053066666666,0.9873014533333333,0.8024088399999999,-1.5307617599999996,18.31624348,16.127909906693215,-11.292090797528408,36.34179113457521,11.379310571216728,2.6343732285017407,27.722855717654983,30.082974595693944,-1.56792261742828,29.160763445273517,-1.5320409692233963,0.3171515733333333,-0.08177069333333337,-0.2477994533333333,0.6467217199999999,0.4107020036818929,0.8182655553008632,0.8279554469652166,0.7972747206916199
LBP08_S12,LBP08,138,139,12,138,138,1716497648.52,2024-05-23 20:54:08.520000+00:00,2024-05-24 05:54:08.520000+09:00,2024,5,23,20,54,8,520,,,,,,,,,0.391357,-0.278076,1.115967,-22.888184,26.062012,19.836426,,,,,,,,,,,0.0,1.0,1.0,12.0,0.0,0.0,0.0,5.0,0.0,0.006487666666666664,-0.2563378533333333,0.9878613466666667,1.2980143066666667,-3.8793945733333333,17.353515626666667,14.334289999894636,-12.886503239303678,35.99259729178342,11.952682171212514,2.1189130989295935,29.16255960932632,31.58815105026484,-1.544655602079421,30.69633937090875,-1.5277810116101391,0.38486933333333334,-0.02173814666666668,0.12810565333333324,0.5347131333333333,0.40621177872743436,0.8109843927808283,0.8161047038081937,0.7934692622491761
LBP08_S12,LBP08,139,140,12,139,139,1716497648.56,2024-05-23 20:54:08.560000+00:00,2024-05-24 05:54:08.560000+09:00,2024,5,23,20,54,8,560,,,,,,,,,-0.155518,-0.706299,1.545898,37.475586,43.701172,61.340332,,,,,,,,,,,0.0,1.0,1.0,12.0,0.0,0.0,0.0,5.0,0.0,0.013977906666666665,-0.24924475999999998,0.9771191599999999,0.8064778533333334,-0.6608073333333331,17.715657546666666,11.872545052564476,-12.823935768150566,35.88839437011956,12.427583973315093,1.605955668203571,30.598095384131103,33.06459402681996,-1.5129899305120365,32.193040273800264,-1.5255469195039797,-0.16949590666666664,-0.45705424000000006,0.5687788400000001,1.195328986666667,0.7490906550681825,0.8016281864559797,0.8100062021801421,0.7806016119507329
LBP08_S12,LBP08,140,141,12,140,140,1716497648.6,2024-05-23 20:54:08.600000+00:00,2024-05-24 05:54:08.600000+09:00,2024,5,23,20,54,8,600,,,,,,,,,-0.458984,-0.50708,1.820557,82.336426,-128.417969,22.033691,,,,,,,,,,,0.0,1.0,1.0,12.0,0.0,0.0,0.0,5.0,0.0,0.0011654133333333315,-0.24425778666666664,0.9571419466666666,0.37923176000000003,-1.3191732266666665,17.347819013333336,8.657823740529563,-11.342209048382422,36.01979521647807,12.773896922936276,1.152267306268274,32.03888719279023,34.510729564806844,-1.5658722149128943,33.650305352171856,-1.5261132259281525,-0.4601494133333333,-0.26282221333333333,0.8634150533333333,1.58638668,1.013063943063342,0.8161341022719436,0.8042941662910578,0.7828847249754355
LBP08_S12,LBP08,141,142,12,141,141,1716497648.64,2024-05-23 20:54:08.640000+00:00,2024-05-24 05:54:08.640000+09:00,2024,5,23,20,54,8,640,,,,,,,,,0.504883,-0.269775,1.729492,5.859375,-95.703125,19.348145,,,,,,,,,,,0.0,1.0,1.0,12.0,0.0,0.0,0.0,5.0,0.0,0.014915413333333332,-0.24448890666666667,0.96489912,-0.43863934666666665,-3.5725912,16.36067708,4.85074110725821,-8.899831916081192,36.27351979668698,12.967926567226604,0.7962740296250264,33.48982798465771,35.921716972121466,-1.5079522703716601,35.06883887363372,-1.5259540391810167,0.4899675866666666,-0.025286093333333315,0.76459288,1.27984656,0.9084656816009694,0.7947965596768252,0.8070043977764877,0.7870935120885199
LBP08_S12,LBP08,142,143,12,142,142,1716497648.68,2024-05-23 20:54:08.680000+00:00,2024-05-24 05:54:08.680000+09:00,2024,5,23,20,54,8,680,,,,,,,,,-0.228271,0.221436,0.046387,6.652832,194.213867,72.937012,,,,,,,,,,,0.0,1.0,1.0,12.0,0.0,0.0,0.0,5.0,0.0,0.02078129333333333,-0.24930336000000003,0.9746419599999999,-0.12288413333333328,-2.749837293333333,16.448567693333334,0.8529542112036775,-6.104897912685787,36.47244034705769,13.002044735674751,0.5520781131175949,34.948725598540015,37.2930473213643,-1.4849858987307316,36.44897310568706,-1.5247117204864264,-0.24905229333333334,0.47073936000000005,-0.92825496,1.6480466133333334,1.070177490247484,0.8042459395734134,0.8189599603750909,0.7958295305804224
LBP08_S12,LBP08,143,144,12,143,143,1716497648.72,2024-05-23 20:54:08.720000+00:00,2024-05-24 05:54:08.720000+09:00,2024,5,23,20,54,8,720,,,,,,,,,-0.177979,-0.144531,0.130127,-78.186035,-29.296875,17.63916,,,,,,,,,,,0.0,1.0,1.0,12.0,0.0,0.0,0.0,5.0,0.0,0.015162799999999997,-0.2481412533333333,0.9782292000000001,-0.0073242400000000886,-1.8294271333333332,16.920572906666667,-2.8326141944004903,-3.5636805977092556,36.43409572424225,12.888740167898732,0.40953088920922465,36.406089427509706,38.6224117070472,-1.507846382592126,37.790033687029776,-1.519895192136422,-0.1931418,0.10361025333333332,-0.8481022000000001,1.1448542533333335,0.8759658561541528,0.8171353414729414,0.8225634998192628,0.7969427566161431
LBP08_S12,LBP08,144,145,12,144,144,1716497648.76,2024-05-23 20:54:08.760000+00:00,2024-05-24 05:54:08.760000+09:00,2024,5,23,20,54,8,760,,,,,,,,,0.327881,-0.495361,0.768311,-28.564453,-72.20459,29.47998,,,,,,,,,,,0.0,1.0,1.0,12.0,0.0,0.0,0.0,5.0,0.0,0.008219439999999996,-0.24954750666666664,0.9793099333333334,-0.4777018533333334,-3.6368815599999995,16.95312498666667,-5.808227913461889,-1.720633744635564,36.029363063138874,12.656411051360257,0.3407055394238021,37.84726395003526,39.90884876151186,-1.5368206819504628,39.090603382302604,-1.5156438715136307,0.31966155999999996,-0.24581349333333335,-0.21099893333333342,0.7764739866666667,0.45511354222235,0.8144732458047698,0.8119692161567227,0.7929892369503344
LBP08_S12,LBP08,145,146,12,145,145,1716497648.8,2024-05-23 20:54:08.800000+00:00,2024-05-24 05:54:08.800000+09:00,2024,5,23,20,54,8,800,,,,,,,,,0.338379,-0.147705,1.074463,17.333984,37.719727,41.992188,,,,,,,,,,,0.0,1.0,1.0,12.0,0.0,0.0,0.0,5.0,0.0,0.014456413333333333,-0.24592772000000002,0.9785905333333335,-0.21647138666666668,-4.15364588,16.986490866666667,-7.935848601080662,-0.7771320231012996,35.22428905694961,12.33897710731703,0.3096202584997501,39.256235512313246,41.15092037072283,-1.5102659640692613,40.34926803227694,-1.515285005076866,0.3239225866666667,0.09822272000000001,0.09587246666666649,0.5180177733333332,0.3518026076392466,0.7926159504119364,0.801349198539971,0.7953476851972278
LBP08_S12,LBP08,146,147,12,146,146,1716497648.84,2024-05-23 20:54:08.840000+00:00,2024-05-24 05:54:08.840000+09:00,2024,5,23,20,54,8,840,,,,,,,,,-0.486084,-0.362305,1.43457,-7.8125,52.001953,67.932129,,,,,,,,,,,0.0,1.0,1.0,12.0,0.0,0.0,0.0,5.0,0.0,0.014716826666666665,-0.24039712,0.96720056,-0.6152344000000002,-1.4624024,17.881673160000002,-9.35811177575739,-0.7135736902663439,34.092854684677,11.964652636286734,0.2810773108890964,40.61994969970033,42.34633668651734,-1.50780564221739,41.56526761519772,-1.510685116554992,-0.5008008266666667,-0.12190788,0.4673694399999999,1.0900781466666665,0.6957709340307517,0.781474059217443,0.8097996820019862,0.7889155383280969
LBP08_S12,LBP08,147,148,12,147,147,1716497648.88,2024-05-23 20:54:08.880000+00:00,2024-05-24 05:54:08.880000+09:00,2024,5,23,20,54,8,880,,,,,,,,,-0.47876,-0.317627,1.756104,52.062988,-142.63916,3.173828,,,,,,,,,,,0.0,1.0,1.0,12.0,0.0,0.0,0.0,5.0,0.0,0.01183597333333333,-0.23863930666666666,0.9665202133333334,-1.560872426666667,-3.820800826666667,17.347005186666667,-10.394806601099257,-1.373036004560852,32.79278853227912,11.548860372242764,0.2261558707066623,41.931661240991495,43.4935804091211,-1.5197573339282375,42.738633533803956,-1.5130828993592986,-0.4905959733333333,-0.07898769333333333,0.7895837866666667,1.3591674533333333,0.9329340924823541,0.808913115591053,0.8027695080825898,0.7923880754280462
LBP08_S12,LBP08,148,149,12,148,148,1716497648.92,2024-05-23 20:54:08.920000+00:00,2024-05-24 05:54:08.920000+09:00,2024,5,23,20,54,8,920,,,,,,,,,0.526123,-0.19751,1.370117,-35.461426,37.17041,41.07666,,,,,,,,,,,0.0,1.0,1.0,12.0,0.0,0.0,0.0,5.0,0.0,0.01627281333333333,-0.24397134666666667,0.9712890933333334,-1.235351586666667,-3.7849935333333335,17.5854492,-11.392546273199468,-2.54646796814219,31.505227615769314,11.093158521314786,0.1242971519809747,43.19187034562227,44.59384800299313,-1.5021423958515072,43.86984604744893,-1.515196085521803,0.5098501866666667,0.04646134666666668,0.3988279066666667,0.9551394400000001,0.6489757843819987,0.7859244454087251,0.8036618203547383,0.7941002391631423
LBP08_S12,LBP08,149,150,12,149,149,1716497648.96,2024-05-23 20:54:08.960000+00:00,2024-05-24 05:54:08.960000+09:00,2024,5,23,20,54,8,960,,,,,,,,,-0.731934,0.400146,-0.256348,-66.28418,100.646973,16.052246,,,,,,,,,,,0.0,1.0,1.0,12.0,0.0,0.0,0.0,5.0,0.0,0.014414093333333329,-0.24154946666666666,0.9745703333333332,0.531412733333333,-2.8002930133333335,17.83772784,-12.604915557197915,-4.019011618606545,30.35759941678079,10.58896189902687,-0.03646331276328711,44.4061743222935,45.65124052656334,-1.5094012661443872,44.95946865086736,-1.5171738940402253,-0.7463480933333333,0.6416954666666667,-1.2309183333333333,2.618961893333333,1.576061068518274,0.8208929010825714,0.8207430283748376,0.8072492655266826
LBP08_S12,LBP08,150,151,12,150,150,1716497649.0,2024-05-23 20:54:09+00:00,2024-05-24 05:54:09+09:00,2024,5,23,20,54,9,0,20.0,54.0,7.0,40.788757,141.625397,-20.224001,3.0,15.0,-0.005127,-0.225586,0.23291,14.892578,-67.810059,9.521484,-586.0,36.0,593.0,182.0,0.0,1020.599976,25.459999,0.075314,-60.978813,3.782813,0.0,1.0,1.0,12.0,0.0,0.0,0.0,4.0,0.0,0.011767599999999998,-0.23759438666666668,0.9772982,0.3971353866666665,-2.8971354533333336,18.051757786666666,-14.129152180772415,-5.577781493102737,29.366579488419834,10.023795811795974,-0.2595745724873966,45.580837501830295,46.6707253940146,-1.5198733296941556,46.008229111267475,-1.512941207291849,-0.016894599999999996,0.012008386666666676,-0.7443881999999999,0.7732911866666666,0.7446767225841937,0.8269561169112899,0.821167754418743,0.8049622124458279
LBP08_S12,LBP08,151,152,12,151,151,1716497649.04,2024-05-23 20:54:09.040000+00:00,2024-05-24 05:54:09.040000+09:00,2024,5,23,20,54,9,40,,,,,,,,,0.4021,-0.157227,0.935303,3.051758,-42.785645,24.291992,,,,,,,,,,,0.0,1.0,1.0,12.0,0.0,0.0,0.0,4.0,0.0,0.009192733333333331,-0.24359373333333334,0.9794759333333334,-0.06103518666666692,-4.31396488,17.901204413333332,-15.88180836248407,-7.015940616115496,28.436326889759588,9.388523477296612,-0.5402121971320164,46.71829057742068,47.655376158183806,-1.5319300984147286,47.01758020289474,-1.5094167942333565,0.3929072666666667,0.08636673333333333,-0.044172933333333386,0.5234469333333334,0.404705548350172,0.824212299929121,0.8085547762750189,0.8007015605176152
LBP08_S12,LBP08,152,153,12,152,152,1716497649.08,2024-05-23 20:54:09.080000+00:00,2024-05-24 05:54:09.080000+09:00,2024,5,23,20,54,9,80,,,,,,,,,0.38501,-0.288574,1.113281,-38.696289,52.062988,46.691895,,,,,,,,,,,0.0,1.0,1.0,12.0,0.0,0.0,0.0,4.0,0.0,0.014866573333333332,-0.23610676000000003,0.9774479466666666,-0.8162435200000002,-4.4864909200000005,18.124186173333335,-17.596359424160287,-8.158927436336683,27.421433386146344,8.6846691003302,-0.8665692945854837,47.815147912866536,48.605172457814135,-1.5061177603557718,47.99027475572772,-1.5074101591104383,0.37014342666666666,-0.05246723999999997,0.1358330533333334,0.5584437200000001,0.3977556862643397,0.7964027824103603,0.8019098631791186,0.7937375378082488
LBP08_S12,LBP08,153,154,12,153,153,1716497649.12,2024-05-23 20:54:09.120000+00:00,2024-05-24 05:54:09.120000+09:00,2024,5,23,20,54,9,120,,,,,,,,,-0.533447,-0.490234,1.428711,-31.12793,-27.038574,64.51416,,,,,,,,,,,0.0,1.0,1.0,12.0,0.0,0.0,0.0,4.0,0.0,0.00984053333333333,-0.23430988,0.9720182533333331,-0.9147135733333336,-2.8295898800000003,18.361816386666668,-18.851123654267244,-8.900297612374095,26.22526303380488,7.930624154159511,-1.2225811990804476,48.86415843421873,49.51863774123146,-1.5276244677763513,48.93037312950433,-1.5057975641868713,-0.5432875333333334,-0.25592412,0.4566927466666669,1.2559044000000004,0.7544711816438959,0.7850581742746953,0.7881760537055955,0.791964811221432
LBP08_S12,LBP08,154,155,12,154,154,1716497649.16,2024-05-23 20:54:09.160000+00:00,2024-05-24 05:54:09.160000+09:00,2024,5,23,20,54,9,160,,,,,,,,,-0.070312,-0.131592,1.693115,78.00293,-116.821289,11.352539,,,,,,,,,,,0.0,1.0,1.0,12.0,0.0,0.0,0.0,4.0,0.0,0.01723637333333333,-0.23172198666666668,0.9732910400000001,-1.7545573200000004,-4.509277373333333,17.485351546666667,-19.148678651340976,-9.216322101795132,24.875553939213553,7.164677008105872,-1.591234083152253,49.85918059178727,50.39645336551296,-1.494493814466699,49.842444954570375,-1.503809027339941,-0.08754837333333333,0.1001299866666667,0.7198239599999998,0.9075023199999999,0.7320090609365849,0.7549136102344223,0.7852166032178272,0.7960310355331889
LBP08_S12,LBP08,155,156,12,155,155,1716497649.2,2024-05-23 20:54:09.200000+00:00,2024-05-24 05:54:09.200000+09:00,2024,5,23,20,54,9,200,,,,,,,,,0.233887,-0.009033,0.835205,-41.870117,125.854492,40.527344,,,,,,,,,,,0.0,1.0,1.0,12.0,0.0,0.0,0.0,4.0,0.0,0.022132213333333327,-0.23699868,0.9771191733333334,-1.8359375333333336,-4.495442733333333,17.55371092,-18.05765621424421,-9.142517353179253,23.524915119284522,6.442370759536104,-1.956934777279423,50.80017719655865,51.24443128699556,-1.475021833484337,50.730230919154614,-1.500205174071724,0.2117547866666667,0.22796568,-0.14191417333333345,0.5816346400000001,0.34197671489005116,0.7274650234695218,0.7818196929398834,0.7931801067595096
LBP08_S12,LBP08,156,157,12,156,156,1716497649.24,2024-05-23 20:54:09.240000+00:00,2024-05-24 05:54:09.240000+09:00,2024,5,23,20,54,9,240,,,,,,,,,-0.44751,0.251953,-0.132812,-121.032715,8.483887,-16.845703,,,,,,,,,,,0.0,1.0,1.0,12.0,0.0,0.0,0.0,4.0,0.0,0.018850959999999996,-0.23272785333333332,0.9775130533333334,-0.9537760800000002,-3.5335286666666668,17.243652320000002,-15.396086127435662,-8.725210800937434,22.367644508830505,5.826527314438677,-2.3059432093169203,51.69488297691187,52.07328221484707,-1.4877392909882063,51.59534513139025,-1.4952385070869088,-0.46636096,0.48468085333333333,-1.1103250533333333,2.061366866666667,1.298164010693456,0.7579302904958675,0.7975269243930331,0.8022154443037008
LBP08_S12,LBP08,157,158,12,157,157,1716497649.28,2024-05-23 20:54:09.280000+00:00,2024-05-24 05:54:09.280000+09:00,2024,5,23,20,54,9,280,,,,,,,,,0.054443,-0.346924,0.313232,-15.014648,-67.504883,13.793945,,,,,,,,,,,0.0,1.0,1.0,12.0,0.0,0.0,0.0,4.0,0.0,0.015244186666666663,-0.2329134,0.9796875333333332,-1.3655599333333337,-3.8907877866666656,17.500813773333334,-11.386490449766296,-7.988816553809183,21.518455529720104,5.3710676964480255,-2.6254958714692878,52.555621198100674,52.89456414688733,-1.5036313846925675,52.43657263968951,-1.4895336051937187,0.03919881333333333,-0.11401060000000002,-0.6664555333333333,0.8196649466666667,0.6772724280448151,0.7627108622248051,0.792239017783075,0.8006051105028067
LBP08_S12,LBP08,158,159,12,158,158,1716497649.32,2024-05-23 20:54:09.320000+00:00,2024-05-24 05:54:09.320000+09:00,2024,5,23,20,54,9,320,,,,,,,,,0.332764,-0.043701,0.874512,44.494629,-34.118652,-7.324219,,,,,,,,,,,0.0,1.0,1.0,12.0,0.0,0.0,0.0,4.0,0.0,0.01989913333333333,-0.2302246,0.9793489999999999,-1.4461263333333336,-4.760742213333333,16.80419918666667,-6.685852423702762,-6.953298757696797,20.926053274555024,5.103633599499915,-2.90362782177716,53.39266332908287,53.71456625365352,-1.4822570273822038,53.250000467957705,-1.4870026988578946,0.3128648666666667,0.1865236,-0.10483699999999996,0.6042254666666667,0.37903334249154275,0.731516330867647,0.7800851498151888,0.8000772206747031
LBP08_S12,LBP08,159,160,12,159,159,1716497649.36,2024-05-23 20:54:09.360000+00:00,2024-05-24 05:54:09.360000+09:00,2024,5,23,20,54,9,360,,,,,,,,,0.269775,-0.496094,1.188232,-45.10498,42.236328,49.316406,,,,,,,,,,,0.0,1.0,1.0,12.0,0.0,0.0,0.0,4.0,0.0,0.021673213333333326,-0.22766925333333332,0.9729948266666668,-1.9083659200000003,-4.320475293333333,16.831054666666667,-2.2383594878238076,-5.68927248026199,20.376477095438872,5.014099219986963,-3.1311987209876393,54.207722412900424,54.5291001724057,-1.4733627334622175,54.029800058142214,-1.4839032818280484,0.24810178666666666,-0.26842474666666666,0.21523717333333314,0.7317637066666665,0.4241855513272224,0.7049155812117963,0.7655637640275985,0.7904053443874017
LBP08_S12,LBP08,160,161,12,160,160,1716497649.4,2024-05-23 20:54:09.400000+00:00,2024-05-24 05:54:09.400000+09:00,2024,5,23,20,54,9,400,,,,,,,,,-0.484375,-0.313965,1.533936,54.016113,-3.723145,41.809082,,,,,,,,,,,0.0,1.0,1.0,12.0,0.0,0.0,0.0,4.0,0.0,0.022558626666666665,-0.22955402666666666,0.9752181333333332,-1.8717448133333334,-4.965820346666666,16.658528626666666,1.0032084458429442,-4.361226526737326,19.58794542750564,5.05422755782068,-3.3056477820571324,54.99124023000065,55.32186751637091,-1.4702066598460053,54.76920856866386,-1.4830679265834041,-0.5069336266666666,-0.08441097333333333,0.5587178666666668,1.1500624666666668,0.7591261876638503,0.7181933249904445,0.7607762896069871,0.791122653689597
LBP08_S12,LBP08,161,162,12,161,161,1716497649.44,2024-05-23 20:54:09.440000+00:00,2024-05-24 05:54:09.440000+09:00,2024,5,23,20,54,9,440,,,,,,,,,-0.107666,-0.280029,1.670654,59.448242,-111.083984,20.874023,,,,,,,,,,,0.0,1.0,1.0,12.0,0.0,0.0,0.0,4.0,0.0,0.021230506666666666,-0.22645833333333334,0.9774967733333332,-0.35807294666666695,-4.226074253333333,17.154947893333333,2.367452821901878,-3.2203748203139257,18.343752120727643,5.148925670696755,-3.434462774869689,55.72499031482975,56.067651241176456,-1.4748810794828269,55.46130644917249,-1.4832520149262278,-0.12889650666666666,-0.05357066666666663,0.6931572266666669,0.8756244000000002,0.707072179227981,0.7085913620774614,0.7649443354570837,0.7915558790746366
LBP08_S12,LBP08,162,163,12,162,162,1716497649.48,2024-05-23 20:54:09.480000+00:00,2024-05-24 05:54:09.480000+09:00,2024,5,23,20,54,9,480,,,,,,,,,0.295898,0.062256,0.856689,-14.465332,123.22998,35.03418,,,,,,,,,,,0.0,1.0,1.0,12.0,0.0,0.0,0.0,4.0,0.0,0.019697293333333327,-0.22388346666666667,0.9793913066666666,-1.2670898800000006,-3.1542969066666666,17.45930988,1.6429167435702223,-2.542936345928841,16.588910969620212,5.214642340439564,-3.5361802287068427,56.38854675361456,56.739450740496046,-1.480808696997531,56.0994882261489,-1.486761338301338,0.2762007066666667,0.2861394666666667,-0.1227023066666666,0.6850424799999999,0.41619524361622784,0.708811091674835,0.763538323487849,0.7882406618684227
LBP08_S12,LBP08,163,164,12,163,163,1716497649.52,2024-05-23 20:54:09.520000+00:00,2024-05-24 05:54:09.520000+09:00,2024,5,23,20,54,9,520,,,,,,,,,-0.352539,0.114014,-0.102539,-62.133789,0.488281,-8.117676,,,,,,,,,,,0.0,1.0,1.0,12.0,0.0,0.0,0.0,4.0,0.0,0.016588573333333332,-0.22929687999999998,0.9765234666666667,-1.5047200933333338,-3.5343424800000003,17.49511717333333,-0.9157474974163984,-2.538644829115555,14.442140035994695,5.178012440542908,-3.637726021871465,56.96623235505435,57.31663364307659,-1.4966302974778896,56.677810141243484,-1.483466300835349,-0.36912757333333335,0.34331088,-1.0790624666666666,1.7915009199999998,1.1910051774405017,0.7402028276233577,0.7755936102020929,0.7908040784132483
LBP08_S12,LBP08,164,165,12,164,164,1716497649.56,2024-05-23 20:54:09.560000+00:00,2024-05-24 05:54:09.560000+09:00,2024,5,23,20,54,9,560,,,,,,,,,0.217285,-0.465332,0.479736,-31.066895,-56.57959,6.958008,,,,,,,,,,,0.0,1.0,1.0,12.0,0.0,0.0,0.0,4.0,0.0,0.01871097333333333,-0.22635742666666667,0.9716504133333332,-0.7999674933333335,-4.53613284,16.302897119999997,-4.723602983660205,-3.273910586954358,12.126842329829444,4.989068321196499,-3.768682445349639,57.45130604824753,57.790538470729416,-1.4861402620202555,57.19146036230707,-1.485288016603368,0.19857402666666668,-0.23897457333333336,-0.49191441333333324,0.9294630133333333,0.5818249571920581,0.7335121997083127,0.7675701930821462,0.7845082013561989
LBP08_S12,LBP08,165,166,12,165,165,1716497649.6,2024-05-23 20:54:09.600000+00:00,2024-05-24 05:54:09.600000+09:00,2024,5,23,20,54,9,600,,,,,,,,,0.353516,0.089355,0.812012,42.96875,-3.417969,-26.977539,,,,,,,,,,,0.0,1.0,1.0,12.0,0.0,0.0,0.0,4.0,0.0,0.020169306666666664,-0.21947265333333335,0.9680208533333333,-0.4093424933333337,-3.51969404,15.954589826666666,-9.048721184035163,-4.6492750856600145,9.868579789166553,4.6271194738350925,-3.9546534487760394,57.84604923981419,58.16541009208194,-1.4768627169125748,57.63743161054366,-1.4903754408252636,0.33334669333333333,0.30882765333333334,-0.15600885333333336,0.7981832000000001,0.48045114188439847,0.7122076876611549,0.7641708949665492,0.7735986734144235
LBP08_S12,LBP08,166,167,12,166,166,1716497649.64,2024-05-23 20:54:09.640000+00:00,2024-05-24 05:54:09.640000+09:00,2024,5,23,20,54,9,640,,,,,,,,,0.136719,-0.363281,1.48291,-46.691895,51.147461,40.222168,,,,,,,,,,,0.0,1.0,1.0,12.0,0.0,0.0,0.0,4.0,0.0,0.010126986666666664,-0.21618814666666666,0.9655306133333332,-0.39388025333333376,-3.8264974266666667,15.566406240000003,-13.158272529290404,-6.435248517256914,7.817641027080399,4.100788572663476,-4.212063389466316,58.158754880897405,58.455099984611074,-1.5228325247393077,58.015227253112734,-1.4951619069164812,0.12659201333333334,-0.14709285333333336,0.5173793866666667,0.7910642533333334,0.5525787501244548,0.6979722104020943,0.7463843850394598,0.7706603353183565
LBP08_S12,LBP08,167,168,12,167,167,1716497649.68,2024-05-23 20:54:09.680000+00:00,2024-05-24 05:54:09.680000+09:00,2024,5,23,20,54,9,680,,,,,,,,,-0.545654,-0.478027,1.580322,30.151367,-55.297852,7.8125,,,,,,,,,,,0.0,1.0,1.0,12.0,0.0,0.0,0.0,4.0,0.0,0.021897813333333332,-0.22345702666666667,0.9869726666666666,-1.8570964000000003,-6.003418,14.74283852,-16.407872166308028,-8.337547601795102,6.030205446456377,3.444473686011155,-4.54556529353812,58.39996309875566,58.67778329783313,-1.4706810100326762,58.32727108263369,-1.4945532523620688,-0.5675518133333333,-0.2545699733333333,0.5933493333333334,1.4154711199999999,0.8596419972918959,0.6895507906838708,0.746898365128642,0.7758235704780175
LBP08_S12,LBP08,168,169,12,168,168,1716497649.72,2024-05-23 20:54:09.720000+00:00,2024-05-24 05:54:09.720000+09:00,2024,5,23,20,54,9,720,,,,,,,,,0.123291,-0.282471,1.642822,-0.12207,-113.037109,1.708984,,,,,,,,,,,0.0,1.0,1.0,12.0,0.0,0.0,0.0,4.0,0.0,0.01589194666666666,-0.23172199999999998,0.9868001466666666,-2.5553385866666676,-3.8183593999999994,15.350748680000002,-18.308446799417105,-10.05708297767018,4.499849814142699,2.712135814034471,-4.947848612644927,58.57995709132137,58.851068464289355,-1.5004741850623966,58.578746558915626,-1.4961638345113122,0.10739905333333334,-0.050749000000000044,0.6560218533333334,0.8141699066666668,0.6666893502290236,0.6811797304468656,0.7491575359599035,0.7754355766951304
LBP08_S12,LBP08,169,170,12,169,169,1716497649.76,2024-05-23 20:54:09.760000+00:00,2024-05-24 05:54:09.760000+09:00,2024,5,23,20,54,9,760,,,,,,,,,0.07959,-0.153076,0.716309,-22.705078,167.358398,33.02002,,,,,,,,,,,0.0,1.0,1.0,12.0,0.0,0.0,0.0,4.0,0.0,0.010205106666666665,-0.22474609333333334,0.9760091333333333,-2.1858724400000007,-3.842773466666666,14.877115866666667,-18.605884342123872,-11.322346254490524,3.203223854687536,1.9679004403495162,-5.400742462824549,58.70808604550887,58.98881265477173,-1.5242369756811738,58.776878995347644,-1.496713317129006,0.06938489333333334,0.07167009333333335,-0.2597001333333333,0.40075512,0.27819961350555084,0.6741031732981938,0.7442882095514817,0.766013868537213
LBP08_S12,LBP08,170,171,12,170,170,1716497649.8,2024-05-23 20:54:09.800000+00:00,2024-05-24 05:54:09.800000+09:00,2024,5,23,20,54,9,800,,,,,,,,,-0.104492,-0.114502,0.011719,-123.962402,-48.339844,-21.118164,,,,,,,,,,,0.0,1.0,1.0,12.0,0.0,0.0,0.0,4.0,0.0,0.011542999999999996,-0.22449218666666668,0.9698893333333335,-1.9523112400000007,-5.262858093333333,14.866536439999999,-17.365300451960827,-11.89759097406972,2.126273622022895,1.273288422271083,-5.876646101787338,58.79313699038979,59.09982394206164,-1.5180713207581802,58.930032567467705,-1.4976116464507867,-0.116035,0.10999018666666667,-0.9581703333333335,1.18419552,0.9714177011296837,0.6988877770378111,0.7457518637248738,0.7671953913725844
LBP08_S12,LBP08,171,172,12,171,171,1716497649.84,2024-05-23 20:54:09.840000+00:00,2024-05-24 05:54:09.840000+09:00,2024,5,23,20,54,9,840,,,,,,,,,0.246582,-0.441406,0.478027,7.202148,-62.683105,-11.291504,,,,,,,,,,,0.0,1.0,1.0,12.0,0.0,0.0,0.0,4.0,0.0,0.02139326666666666,-0.21408528,0.9601855466666666,-2.806803426666667,-4.47753908,14.453124973333333,-15.001914807622455,-11.599627627482707,1.262396004199976,0.6732118299661848,-6.340631206886646,58.84363283055779,59.18808953638603,-1.4687945339387027,59.04715268337286,-1.5002323986342196,0.22518873333333334,-0.22732072000000003,-0.4821585466666666,0.9346679999999999,0.5786722211107956,0.6942038285210128,0.737838943869228,0.7712677308416617
LBP08_S12,LBP08,172,173,12,172,172,1716497649.88,2024-05-23 20:54:09.880000+00:00,2024-05-24 05:54:09.880000+09:00,2024,5,23,20,54,9,880,,,,,,,,,0.272461,0.037354,0.85376,31.188965,-17.089844,-14.038086,,,,,,,,,,,0.0,1.0,1.0,12.0,0.0,0.0,0.0,4.0,0.0,0.015608759999999994,-0.21624349333333331,0.9503255200000001,-3.28206384,-2.6782226799999997,14.558919239999998,-12.194146824432995,-10.35037133195129,0.6006457610657985,0.18544595698886496,-6.754646060164697,58.86765866100042,59.25420550331529,-1.496914518489964,59.13787844974979,-1.4993470645974236,0.25685224,0.2535974933333333,-0.09656552000000018,0.6070152533333335,0.3736437627886194,0.6718322153332636,0.7403726654621582,0.7591237438328144
LBP08_S12,LBP08,173,174,12,173,173,1716497649.92,2024-05-23 20:54:09.920000+00:00,2024-05-24 05:54:09.920000+09:00,2024,5,23,20,54,9,920,,,,,,,,,0.146973,-0.263428,1.198242,-19.40918,52.734375,23.864746,,,,,,,,,,,0.0,1.0,1.0,12.0,0.0,0.0,0.0,4.0,0.0,0.014515013333333332,-0.21633138666666668,0.9575358133333333,-2.806803426666667,-6.2386068,13.175455693333333,-9.67481915680275,-8.246502950203007,0.1307405838560778,-0.20154680928324503,-7.084506178172818,58.872888284354666,59.29795800739689,-1.5021251236548268,59.213187412051184,-1.5016264832250275,0.13245798666666667,-0.047096613333333315,0.24070618666666677,0.4202607866666668,0.2787520000266627,0.6570232639590501,0.7214738546838876,0.7547823015561755
LBP08_S12,LBP08,174,175,12,174,174,1716497649.96,2024-05-23 20:54:09.960000+00:00,2024-05-24 05:54:09.960000+09:00,2024,5,23,20,54,9,960,,,,,,,,,-0.296875,-0.285889,1.550293,35.27832,-51.269531,-3.356934,,,,,,,,,,,0.0,1.0,1.0,12.0,0.0,0.0,0.0,4.0,0.0,0.016315133333333332,-0.2206608133333333,0.9695638133333333,-3.2454427466666673,-6.896972693333334,12.755533813333333,-7.979832652922539,-5.596508066637046,-0.1256743501403199,-0.5207401154001465,-7.3083665008383,58.867861310349056,59.32207419193005,-1.4951235552380648,59.286030925069646,-1.497155974361186,-0.31319013333333334,-0.06522818666666672,0.5807291866666666,0.9591475066666667,0.6630152066127147,0.6205014294828277,0.7206971652826994,0.7539958287441676
LBP08_S12,LBP08,175,176,12,175,175,1716497650.0,2024-05-23 20:54:10+00:00,2024-05-24 05:54:10+09:00,2024,5,23,20,54,10,0,20.0,54.0,8.0,40.788712,141.625351,-20.288,3.0,14.0,0.146729,-0.350586,1.635986,-7.324219,-106.567383,1.403809,-587.0,40.0,592.0,133.0,0.0,1021.200012,25.51,0.08126,-65.941277,3.782813,0.0,1.0,1.0,12.0,0.0,0.0,0.0,5.0,0.0,0.014528026666666664,-0.21953451999999998,0.9737858133333332,-2.8247070666666674,-6.22151696,12.589518186666666,-7.268334209761498,-2.8871318088126783,-0.07723535133503871,-0.8114734837906065,-7.423851773190807,58.86477189629566,59.336611251133334,-1.5030702387469022,59.3713499425095,-1.4930764096061697,0.13220097333333333,-0.13105148000000003,0.6622001866666667,0.92545264,0.6878667567064419,0.6182290308477176,0.7225925738795037,0.7535215132284011
LBP08_S12,LBP08,176,177,12,176,176,1716497650.04,2024-05-23 20:54:10.040000+00:00,2024-05-24 05:54:10.040000+09:00,2024,5,23,20,54,10,40,,,,,,,,,0.242432,-0.249268,1.016846,-13.793945,145.385742,35.339355,,,,,,,,,,,0.0,1.0,1.0,12.0,0.0,0.0,0.0,5.0,0.0,0.012181026666666662,-0.21953126666666667,0.97245768,-2.565918000000001,-6.376953159999999,12.602539013333333,-7.291756230586839,-0.6710095971072921,0.44552917529165725,-1.10314373301408,-7.450692157075099,58.882593063307326,59.36235764838048,-1.5139791843713497,59.48516063801528,-1.488193121059057,0.23025097333333336,-0.02973673333333332,0.044388319999999926,0.30437602666666663,0.2363685829011706,0.6114955522297576,0.7178539260794393,0.7428683682599319
LBP08_S12,LBP08,177,178,12,177,177,1716497650.08,2024-05-23 20:54:10.080000+00:00,2024-05-24 05:54:10.080000+09:00,2024,5,23,20,54,10,80,,,,,,,,,-0.422607,-0.035645,0.029541,-29.663086,5.615234,2.929688,,,,,,,,,,,0.0,1.0,1.0,12.0,0.0,0.0,0.0,5.0,0.0,0.016168666666666665,-0.21371746666666666,0.9652929733333332,-2.9524739866666674,-6.285807333333333,12.210286413333334,-7.516208729358065,0.5961397289406335,1.6422283430219038,-1.4037920821884027,-7.426846567917473,58.9482821970282,59.43087292084707,-1.493475196308714,59.642852469784415,-1.4869719049185381,-0.4387756666666667,0.17807246666666665,-0.9357519733333332,1.5526001066666666,1.0487447948098507,0.6375351165715781,0.7169689494909691,0.747118280976605
LBP08_S12,LBP08,178,179,12,178,178,1716497650.12,2024-05-23 20:54:10.120000+00:00,2024-05-24 05:54:10.120000+09:00,2024,5,23,20,54,10,120,,,,,,,,,0.216797,-0.034424,0.474854,-15.441895,-41.992188,-44.799805,,,,,,,,,,,0.0,1.0,1.0,12.0,0.0,0.0,0.0,5.0,0.0,0.023691453333333327,-0.20989259999999998,0.9541634133333334,-4.000651066666667,-3.9851888399999993,12.199706986666667,-7.338521580521979,0.7000467934954006,3.6413735514367973,-1.6973329454092818,-7.398844696177657,59.09393713908567,59.57950359447396,-1.455769096423981,59.857159059600875,-1.4847649512731522,0.19310554666666666,0.17546859999999997,-0.47930941333333343,0.8478835600000001,0.5457256595115685,0.6291852956862849,0.70712173498049,0.7351791343658253
LBP08_S12,LBP08,179,180,12,179,179,1716497650.16,2024-05-23 20:54:10.160000+00:00,2024-05-24 05:54:10.160000+09:00,2024,5,23,20,54,10,160,,,,,,,,,0.2854,-0.304199,0.987305,6.530762,2.868652,-10.742188,,,,,,,,,,,0.0,1.0,1.0,12.0,0.0,0.0,0.0,5.0,0.0,0.017926479999999995,-0.20963869333333335,0.9441992266666667,-4.309895853333334,-2.430013053333333,11.98649084,-6.308299571900722,-0.2789338065088146,6.387561118878366,-1.9496649282853107,-7.41000204843801,59.349439583840805,59.84200282917017,-1.483441328131012,60.13628799022085,-1.483844148670777,0.26747352,-0.09456030666666665,0.04310577333333332,0.4051396,0.286952684588852,0.6113830406323756,0.6831483254333989,0.72727208235601
LBP08_S12,LBP08,180,181,12,180,180,1716497650.2,2024-05-23 20:54:10.200000+00:00,2024-05-24 05:54:10.200000+09:00,2024,5,23,20,54,10,200,,,,,,,,,0.078613,-0.390625,1.307373,-39.001465,41.381836,21.728516,,,,,,,,,,,0.0,1.0,1.0,12.0,0.0,0.0,0.0,5.0,0.0,0.021403039999999995,-0.21520836,0.95745768,-4.593098973333334,-4.907226586666666,11.183268173333333,-4.281208999319883,-2.0246905568895115,9.581441357439488,-2.120913288258106,-7.49098967071359,59.732697238138385,60.237930897119575,-1.4692384352870533,60.482495364159334,-1.4798840049468933,0.057209960000000004,-0.17541664,0.3499153199999999,0.5825419199999999,0.39558148121821063,0.613527231285502,0.6704961273775119,0.7257222057217563
LBP08_S12,LBP08,181,182,12,181,181,1716497650.24,2024-05-23 20:54:10.240000+00:00,2024-05-24 05:54:10.240000+09:00,2024,5,23,20,54,10,240,,,,,,,,,-0.428223,-0.544922,1.570557,-2.624512,-52.307129,25.085449,,,,,,,,,,,0.0,1.0,1.0,12.0,0.0,0.0,0.0,5.0,0.0,0.024443413333333327,-0.21835289333333335,0.9693164,-3.6905924666666667,-4.5222982,11.184081973333335,-1.4655986654234447,-4.11425064373589,12.717969253358191,-2.1795372348750437,-7.655559696463026,60.241416008272715,60.76500785407743,-1.4565823725335134,60.89118340093326,-1.4713173322706292,-0.45266641333333335,-0.32656910666666666,0.6012406,1.38047612,0.8203929072569368,0.5944163871480412,0.6761733388219544,0.7298234119780358
LBP08_S12,LBP08,182,183,12,182,182,1716497650.28,2024-05-23 20:54:10.280000+00:00,2024-05-24 05:54:10.280000+09:00,2024,5,23,20,54,10,280,,,,,,,,,-0.003174,-0.222168,1.708008,71.655273,-106.811523,12.695312,,,,,,,,,,,0.0,1.0,1.0,12.0,0.0,0.0,0.0,5.0,0.0,0.020247453333333332,-0.21542321333333334,0.9724544133333333,-3.0216471600000006,-3.669433613333333,10.950520786666667,1.6350392509886913,-6.148012304585554,15.214492308802209,-2.114135664835496,-7.901480188646448,60.8499957006248,61.39727140147971,-1.4748449820361058,61.350583741077386,-1.4643469604282608,-0.02342145333333333,-0.006744786666666669,0.7355535866666667,0.7657198266666667,0.735957291886983,0.596763781701728,0.6797373219632665,0.7270806057559593
LBP08_S12,LBP08,183,184,12,183,183,1716497650.32,2024-05-23 20:54:10.320000+00:00,2024-05-24 05:54:10.320000+09:00,2024,5,23,20,54,10,320,,,,,,,,,0.337402,-0.12207,1.050049,-13.73291,122.741699,53.039551,,,,,,,,,,,0.0,1.0,1.0,12.0,0.0,0.0,0.0,5.0,0.0,0.016445373333333332,-0.2158529066666667,0.97084308,-3.283691426666667,-4.480794293333332,10.568033800000002,4.349873341659539,-7.823170714035003,16.572025666856383,-1.9401407311691146,-8.214407017207849,61.51287672729906,62.08924731359678,-1.492917097631075,61.84226140524521,-1.45490434796374,0.32095662666666663,0.09378290666666671,0.07920592000000004,0.4939454533333334,0.343630568411981,0.5953476707385454,0.6634320008030963,0.7185059901229743
