file_name,test_id,_program_index,program_index,session_id,index,_index,unixtime,datetime_utc,datetime_jst,rtc_year,rtc_month,rtc_day,rtc_hour,rtc_min,rtc_sec,rtc_msec,gps_hour,gps_min,gps_sec,latitude,longitude,altitude,fix_type,SIV,acc_x,acc_y,acc_z,gyro_x,gyro_y,gyro_z,mag_x,mag_y,mag_z,illuminance,atmopress,water_pressure,water_temp,depth,alt_wps,battery_level,behavior_class,camera_command,camera_recording,camera_count,play_audio,speaker_on,audio_file,prev_sd_write_time_ms,delay_occurred_counter,acc_x_ma,acc_y_ma,acc_z_ma,gyro_x_ma,gyro_y_ma,gyro_z_ma,gyro_x_lowpass,gyro_y_lowpass,gyro_z_lowpass,angle_x,angle_y,angle_z,combined_angle_change,gravity_adjusted_angle,smoothed_angle_change,smoothed_gravity_angle,acc_x_dy,acc_y_dy,acc_z_dy,ODBA,VeDBA,smoothed_VeDBA_1s,smoothed_VeDBA_2s,smoothed_VeDBA_3s
LBP05_S12,LBP05,-1650,1,12,0,-1650,1715818560.0,2024-05-16 00:16:00+00:00,2024-05-16 09:16:00+09:00,2024,5,16,0,16,0,0,0.0,16.0,0.0,40.541878,141.521957,32.179001,3.0,10.0,0.095215,0.469238,0.522217,-18.493652,-53.100586,2.502441,-521.0,52.0,546.0,272.0,0.0,1019.900024,28.540001,0.068377,-55.187038,3.607031,0.0,1.0,1.0,12.0,0.0,0.0,0.0,13.0,0.0,,,,,,,-17.704022803724815,-53.948995112877746,2.635328302043678,-0.7081609121489926,-2.15795980451511,0.10541313208174712,2.2736302082383295,,4.625925530413169,,,,,,,,,
LBP05_S12,LBP05,-1649,2,12,1,-1649,1715818560.04,2024-05-16 00:16:00.040000+00:00,2024-05-16 09:16:00.040000+09:00,2024,5,16,0,16,0,40,,,,,,,,,0.158203,-0.485596,0.875244,10.131836,-1.281738,15.74707,,,,,,,,,,,0.0,1.0,1.0,12.0,0.0,0.0,0.0,13.0,0.0,,,,,,,-14.52178413198219,-38.36664489369899,4.622014909791748,-1.28903227742828,-3.69262560026307,0.29029372847341706,3.921907505890614,,4.941974709778205,,,,,,,,,
LBP05_S12,LBP05,-1648,3,12,2,-1648,1715818560.08,2024-05-16 00:16:00.080000+00:00,2024-05-16 09:16:00.080000+09:00,2024,5,16,0,16,0,80,,,,,,,,,-0.327637,0.192139,1.114502,32.409668,-13.061523,8.117676,,,,,,,,,,,0.0,1.0,1.0,12.0,0.0,0.0,0.0,13.0,0.0,,,,,,,-11.137284140515183,-24.954071344552567,5.815424498207363,-1.7345236430488873,-4.6907884540451725,0.5229107084017115,5.028469369287265,,5.221072718592237,,,,,,,,,
LBP05_S12,LBP05,-1647,4,12,3,-1647,1715818560.12,2024-05-16 00:16:00.120000+00:00,2024-05-16 09:16:00.120000+09:00,2024,5,16,0,16,0,120,,,,,,,,,-0.162598,-0.644043,1.288818,-70.922852,-38.818359,5.67627,,,,,,,,,,,0.0,1.0,1.0,12.0,0.0,0.0,0.0,13.0,0.0,,,,,,,-7.422919619858503,-15.340586114294437,5.54015598349527,-2.0314404278432274,-5.30441189861695,0.7445169477415223,5.728685825522229,,5.492790445224858,,,,,,,,,
LBP05_S12,LBP05,-1646,5,12,4,-1646,1715818560.16,2024-05-16 00:16:00.160000+00:00,2024-05-16 09:16:00.160000+09:00,2024,5,16,0,16,0,160,,,,,,,,,-0.108643,0.313965,0.787842,6.713867,0.793457,-3.662109,,,,,,,,,,,0.0,1.0,1.0,12.0,0.0,0.0,0.0,13.0,0.0,,,,,,,-3.5347580740560627,-10.255520709252117,3.4140788382600467,-2.17283075080547,-5.714632726987034,0.8810801012719243,6.1769347431274095,,5.777510820173958,,,,,,,,,
LBP05_S12,LBP05,-1645,6,12,5,-1645,1715818560.2,2024-05-16 00:16:00.200000+00:00,2024-05-16 09:16:00.200000+09:00,2024,5,16,0,16,0,200,,,,,,,,,-0.195312,-0.12085,0.222656,-43.151855,40.405273,3.356934,,,,,,,,,,,0.0,1.0,1.0,12.0,0.0,0.0,0.0,13.0,0.0,,,,,,,0.03542218722370725,-9.381140178821548,-0.5545586971387829,-2.1714138633165216,-6.089878334139896,0.858897753386373,6.522220606603387,,6.08303036524188,,,,,,,,,
LBP05_S12,LBP05,-1644,7,12,6,-1644,1715818560.24,2024-05-16 00:16:00.240000+00:00,2024-05-16 09:16:00.240000+09:00,2024,5,16,0,16,0,240,,,,,,,,,-0.147217,0.131348,0.074707,41.259766,24.169922,-11.047363,,,,,,,,,,,0.0,1.0,1.0,12.0,0.0,0.0,0.0,13.0,0.0,,,,,,,2.526061974362419,-11.45458717453769,-5.92842985522086,-2.070371384342025,-6.5480618211214034,0.6217605591775386,6.8956607714764235,,6.817918182526593,,,,,,,,,
LBP05_S12,LBP05,-1643,8,12,7,-1643,1715818560.28,2024-05-16 00:16:00.280000+00:00,2024-05-16 09:16:00.280000+09:00,2024,5,16,0,16,0,280,,,,,,,,,-0.029541,-0.13916,0.0896,-28.015137,-44.372559,5.004883,,,,,,,,,,,0.0,1.0,1.0,12.0,0.0,0.0,0.0,13.0,0.0,,,,,,,3.10840195273225,-14.614590132951568,-11.869969449116091,-1.9460353062327351,-7.132645426439466,0.14696178121289494,7.394814531653207,,7.456217835028163,,,,,,,,,
LBP05_S12,LBP05,-1642,9,12,8,-1642,1715818560.32,2024-05-16 00:16:00.320000+00:00,2024-05-16 09:16:00.320000+09:00,2024,5,16,0,16,0,320,,,,,,,,,0.107178,0.001221,0.116943,-7.629395,-78.674316,5.79834,,,,,,,,,,,0.0,1.0,1.0,12.0,0.0,0.0,0.0,13.0,0.0,,,,,,,1.1874575862707077,-16.921149141488648,-17.248785716137778,-1.8985370027819068,-7.809491392099012,-0.5429896474326162,8.055273819766754,,8.031675117945067,,,,,,,,,
LBP05_S12,LBP05,-1641,10,12,9,-1641,1715818560.36,2024-05-16 00:16:00.360000+00:00,2024-05-16 09:16:00.360000+09:00,2024,5,16,0,16,0,360,,,,,,,,,0.141602,-0.155518,0.452393,-2.13623,-60.302734,-21.30127,,,,,,,,,,,0.0,1.0,1.0,12.0,0.0,0.0,0.0,13.0,0.0,,,,,,,-3.2864646675892395,-16.897030559190142,-20.83337529397289,-2.0299955894854764,-8.485372614466618,-1.376324659191532,8.832706270853187,,8.558696873423518,,,,,,,,,
LBP05_S12,LBP05,-1640,11,12,10,-1640,1715818560.4,2024-05-16 00:16:00.400000+00:00,2024-05-16 09:16:00.400000+09:00,2024,5,16,0,16,0,400,,,,,,,,,0.151367,-0.420898,0.731689,148.55957,3.173828,-46.508789,,,,,,,,,,,0.0,1.0,1.0,12.0,0.0,0.0,0.0,13.0,0.0,,,,,,,-9.615804081010427,-13.90799142688354,-21.549686967117793,-2.4146277527258935,-9.04169227154196,-2.2383121378762434,9.622508381085455,,9.034301481718575,,,,,,,,,
LBP05_S12,LBP05,-1639,12,12,11,-1639,1715818560.44,2024-05-16 00:16:00.440000+00:00,2024-05-16 09:16:00.440000+09:00,2024,5,16,0,16,0,440,,,,,,,,,-0.203613,0.658691,0.903809,53.771973,22.583008,-46.630859,,,,,,,,,,,0.0,1.0,1.0,12.0,0.0,0.0,0.0,13.0,0.0,,,,,,,-16.38959215549568,-8.25787001140703,-18.751350312736182,-3.0702114389457207,-9.37200707199824,-2.9883661503856906,10.304904030906313,,9.442042823579454,,,,,,,,,
LBP05_S12,LBP05,-1638,13,12,12,-1638,1715818560.48,2024-05-16 00:16:00.480000+00:00,2024-05-16 09:16:00.480000+09:00,2024,5,16,0,16,0,480,,,,,,,,,-0.277344,-0.115234,1.411133,-223.693848,-27.404785,-20.996094,,,,,,,,,,,0.0,1.0,1.0,12.0,0.0,0.0,0.0,13.0,0.0,,,,,,,-21.818134353396086,-0.9939417563142158,-12.418384862842457,-3.9429368130815643,-9.411764742250808,-3.485101544899389,10.783042198456302,,9.756820655166118,,,,,,,,,
LBP05_S12,LBP05,-1637,14,12,13,-1637,1715818560.52,2024-05-16 00:16:00.520000+00:00,2024-05-16 09:16:00.520000+09:00,2024,5,16,0,16,0,520,,,,,,,,,-0.30835,-0.58667,1.678955,-96.435547,4.089355,8.972168,,,,,,,,,,,0.0,1.0,1.0,12.0,0.0,0.0,0.0,13.0,0.0,,,,,,,-24.280240976069717,6.480284625146696,-3.211431578575478,-4.914146452124353,-9.15255335724494,-3.613558808042408,10.998903380306732,,9.950736550965653,,,,,,,,,
LBP05_S12,LBP05,-1636,15,12,14,-1636,1715818560.56,2024-05-16 00:16:00.560000+00:00,2024-05-16 09:16:00.560000+09:00,2024,5,16,0,16,0,560,,,,,,,,,-0.300049,-0.359131,1.55127,-5.432129,46.691895,21.54541,,,,,,,,,,,0.0,1.0,1.0,12.0,0.0,0.0,0.0,13.0,0.0,,,,,,,-22.836138642094266,12.8467799868331,7.64067885130507,-5.827591997808123,-8.638682157771616,-3.307931653990205,10.932980826078005,,10.000907166693484,,,,,,,,,
LBP05_S12,LBP05,-1635,16,12,15,-1635,1715818560.6,2024-05-16 00:16:00.600000+00:00,2024-05-16 09:16:00.600000+09:00,2024,5,16,0,16,0,600,,,,,,,,,-0.29126,-0.330811,1.459961,-40.100098,83.740234,24.963379,,,,,,,,,,,0.0,1.0,1.0,12.0,0.0,0.0,0.0,13.0,0.0,,,,,,,-17.449922574636734,17.234331361332806,18.582093484574344,-6.5255889007935926,-7.949308903318303,-2.564647914607231,10.599634025212163,,9.898515986184224,,,,,,,,,
LBP05_S12,LBP05,-1634,17,12,16,-1634,1715818560.64,2024-05-16 00:16:00.640000+00:00,2024-05-16 09:16:00.640000+09:00,2024,5,16,0,16,0,640,,,,,,,,,-0.554199,0.033203,0.716064,123.291016,41.442871,5.92041,,,,,,,,,,,0.0,1.0,1.0,12.0,0.0,0.0,0.0,13.0,0.0,,,,,,,-8.842486001836265,19.389463311800633,28.029036100407282,-6.879288340867043,-7.173730370846278,-1.4434864705909398,10.04343908734307,,9.65675384751232,,,,,,,,,
LBP05_S12,LBP05,-1633,18,12,17,-1633,1715818560.68,2024-05-16 00:16:00.680000+00:00,2024-05-16 09:16:00.680000+09:00,2024,5,16,0,16,0,680,,,,,,,,,-0.065674,0.079346,0.838379,-21.728516,-73.974609,43.395996,,,,,,,,,,,0.0,1.0,1.0,12.0,0.0,0.0,0.0,13.0,0.0,,,,,,,1.8821932666909915,19.606414295230948,34.6594509031693,-6.804000610199403,-6.38947379903704,-0.05710843446416769,9.333973489648534,,9.31530818765157,,,,,,,,,
LBP05_S12,LBP05,-1632,19,12,18,-1632,1715818560.72,2024-05-16 00:16:00.720000+00:00,2024-05-16 09:16:00.720000+09:00,2024,5,16,0,16,0,720,,,,,,,,,0.038574,-0.243408,1.304199,93.444824,19.042969,58.227539,,,,,,,,,,,0.0,1.0,1.0,12.0,0.0,0.0,0.0,13.0,0.0,,,,,,,13.591911099750325,18.466748123014202,37.64462022204214,-6.26032416620939,-5.6508038741164714,1.448676374417518,8.556979977045085,,8.93669865648586,,,,,,,,,
LBP05_S12,LBP05,-1631,20,12,19,-1631,1715818560.76,2024-05-16 00:16:00.760000+00:00,2024-05-16 09:16:00.760000+09:00,2024,5,16,0,16,0,760,,,,,,,,,-0.185791,-0.296875,1.579102,13.61084,-7.507324,55.664062,,,,,,,,,,,0.0,1.0,1.0,12.0,0.0,0.0,0.0,13.0,0.0,,,,,,,25.276982281588715,16.5317026590749,36.78665251181112,-5.249244874945841,-4.989535767753475,2.9201424748899627,7.808794465760571,,8.589403977405079,,,,,,,,,
LBP05_S12,LBP05,-1630,21,12,20,-1630,1715818560.8,2024-05-16 00:16:00.800000+00:00,2024-05-16 09:16:00.800000+09:00,2024,5,16,0,16,0,800,,,,,,,,,-0.338379,0.04541,1.63916,-63.171387,-1.525879,9.887695,,,,,,,,,,,0.0,1.0,1.0,12.0,0.0,0.0,0.0,13.0,0.0,,,,,,,35.97046341623604,14.144313100203322,32.53483897459663,-3.8104263382963994,-4.423763243745342,4.221536033873828,7.20488699436642,,8.325471797676311,,,,,,,,,
LBP05_S12,LBP05,-1629,22,12,21,-1629,1715818560.84,2024-05-16 00:16:00.840000+00:00,2024-05-16 09:16:00.840000+09:00,2024,5,16,0,16,0,840,,,,,,,,,-0.124023,-0.674316,1.753906,-20.629883,7.202148,19.287109,,,,,,,,,,,0.0,1.0,1.0,12.0,0.0,0.0,0.0,13.0,0.0,,,,,,,44.571351053210854,11.423637501296378,25.87595669591871,-2.027572296167965,-3.966817743693487,5.256574301710576,6.890447432298816,,8.167717038907131,,,,,,,,,
LBP05_S12,LBP05,-1628,23,12,22,-1628,1715818560.88,2024-05-16 00:16:00.880000+00:00,2024-05-16 09:16:00.880000+09:00,2024,5,16,0,16,0,880,,,,,,,,,-0.161621,-0.197754,1.532471,54.016113,52.856445,28.137207,,,,,,,,,,,0.0,1.0,1.0,12.0,0.0,0.0,0.0,13.0,0.0,,,,,,,49.77709706116657,8.424033929308687,18.1267675399044,-0.03648841372130196,-3.6298563865211397,5.9816450033067525,6.996946886799187,,8.11007706538761,,,,,,,,,
LBP05_S12,LBP05,-1627,24,12,23,-1627,1715818560.92,2024-05-16 00:16:00.920000+00:00,2024-05-16 09:16:00.920000+09:00,2024,5,16,0,16,0,920,,,,,,,,,-0.246094,0.051758,0.875488,53.283691,74.401855,19.836426,,,,,,,,,,,0.0,1.0,1.0,12.0,0.0,0.0,0.0,13.0,0.0,,,,,,,50.26922478044407,5.345575675593366,10.67933802040889,1.9742805774964607,-3.4160333594974053,6.408818524123108,7.52595658949893,,8.126910946299168,,,,,,,,,
LBP05_S12,LBP05,-1626,25,12,24,-1626,1715818560.96,2024-05-16 00:16:00.960000+00:00,2024-05-16 09:16:00.960000+09:00,2024,5,16,0,16,0,960,,,,,,,,,-0.287354,-0.3396,0.24585,136.535645,25.268555,-24.536133,,,,,,,,,,,0.0,1.0,1.0,12.0,0.0,0.0,0.0,13.0,0.0,,,,,,,45.12903282092431,2.6520230126320863,4.75077290307848,3.779441890333433,-3.3099524389921218,6.598849440246247,8.293659028790323,,8.187947455177703,,,,,,,,,
LBP05_S12,LBP05,-1625,26,12,25,-1625,1715818561.0,2024-05-16 00:16:01+00:00,2024-05-16 09:16:01+09:00,2024,5,16,0,16,1,0,0.0,16.0,1.0,40.541939,141.52179,31.709,3.0,10.0,0.006104,0.312744,0.431885,90.393066,-79.833984,3.967285,-524.0,59.0,546.0,270.0,0.0,1020.5,28.52,0.074323,-60.15176,3.607031,0.0,1.0,1.0,12.0,0.0,0.0,0.0,10.0,0.0,,,,,,,34.29570774561124,1.001627409166809,1.180606779276438,5.1512702001578825,-3.2698873426254496,6.646073711417304,9.022086437520366,,8.275866166509449,,,,,,,,,
LBP05_S12,LBP05,-1624,27,12,26,-1624,1715818561.04,2024-05-16 00:16:01.040000+00:00,2024-05-16 09:16:01.040000+09:00,2024,5,16,0,16,1,40,,,,,,,,,0.175537,-0.118164,0.867432,21.057129,-34.301758,-9.094238,,,,,,,,,,,0.0,1.0,1.0,12.0,0.0,0.0,0.0,10.0,0.0,,,,,,,18.823170254556945,1.0105347497725707,0.31106865991916305,5.904197010340161,-3.2294659526345466,6.658516457814071,9.467039352147866,,8.399057977344276,,,,,,,,,
LBP05_S12,LBP05,-1623,28,12,27,-1623,1715818561.08,2024-05-16 00:16:01.080000+00:00,2024-05-16 09:16:01.080000+09:00,2024,5,16,0,16,1,80,,,,,,,,,-0.069092,0.45752,1.092529,11.413574,11.108398,4.394531,,,,,,,,,,,0.0,1.0,1.0,12.0,0.0,0.0,0.0,10.0,0.0,,,,,,,0.7776515951354703,2.9777852287310567,1.9707013207429303,5.93530307414558,-3.1103545434853044,6.737344510643788,9.502312298764108,,8.584886211106635,,,,,,,,,
LBP05_S12,LBP05,-1622,29,12,28,-1622,1715818561.12,2024-05-16 00:16:01.120000+00:00,2024-05-16 09:16:01.120000+09:00,2024,5,16,0,16,1,120,,,,,,,,,-0.313477,-0.289551,1.628418,-136.108398,-2.990723,30.578613,,,,,,,,,,,0.0,1.0,1.0,12.0,0.0,0.0,0.0,10.0,0.0,,,,,,,-17.2075713228919,6.7232846230222005,5.5554649593346745,5.247000221229904,-2.8414231585644165,6.959563109017175,9.167345065830437,,8.851174557136074,,,,,,,,,
LBP05_S12,LBP05,-1621,30,12,29,-1621,1715818561.16,2024-05-16 00:16:01.160000+00:00,2024-05-16 09:16:01.160000+09:00,2024,5,16,0,16,1,160,,,,,,,,,-0.295166,-0.215332,1.667236,-61.889648,4.760742,3.90625,,,,,,,,,,,0.0,1.0,1.0,12.0,0.0,0.0,0.0,10.0,0.0,,,,,,,-32.542536230647634,11.615676414375901,10.175389883674198,3.9452987720039983,-2.3767961019893806,7.366578704364143,8.687981579078047,,9.188818674741942,,,,,,,,,
LBP05_S12,LBP05,-1620,31,12,30,-1620,1715818561.2,2024-05-16 00:16:01.200000+00:00,2024-05-16 09:16:01.200000+09:00,2024,5,16,0,16,1,200,,,,,,,,,-0.259766,-0.251221,1.62793,9.094238,51.879883,3.723145,,,,,,,,,,,0.0,1.0,1.0,12.0,0.0,0.0,0.0,10.0,0.0,,,,,,,-43.22221958656178,16.761182700990492,14.826080057852373,2.2164099885415274,-1.7063487939497608,7.959621906678238,8.436805102714686,,9.573244552622084,,,,,,,,,
LBP05_S12,LBP05,-1619,32,12,31,-1619,1715818561.24,2024-05-16 00:16:01.240000+00:00,2024-05-16 09:16:01.240000+09:00,2024,5,16,0,16,1,240,,,,,,,,,-0.364746,-0.089844,1.289062,-10.925293,84.289551,8.911133,,,,,,,,,,,0.0,1.0,1.0,12.0,0.0,0.0,0.0,10.0,0.0,,,,,,,-48.13830531565905,21.252451564846687,18.556138977051752,0.2908777759151653,-0.8562507313558932,8.701867465760309,8.748729769922408,,9.982153683331903,,,,,,,,,
LBP05_S12,LBP05,-1618,33,12,32,-1618,1715818561.28,2024-05-16 00:16:01.280000+00:00,2024-05-16 09:16:01.280000+09:00,2024,5,16,0,16,1,280,,,,,,,,,-0.518311,-0.0271,0.489502,-128.967285,27.22168,19.65332,,,,,,,,,,,0.0,1.0,1.0,12.0,0.0,0.0,0.0,10.0,0.0,,,,,,,-47.13384117713885,24.362644298770693,20.618152249482474,-1.5944758711703886,0.11825504059493452,9.526593555739607,9.659830347093582,,10.403524856226616,,,,,,,,,
LBP05_S12,LBP05,-1617,34,12,33,-1617,1715818561.32,2024-05-16 00:16:01.320000+00:00,2024-05-16 09:16:01.320000+09:00,2024,5,16,0,16,1,320,,,,,,,,,0.181152,-0.870361,1.215332,11.779785,-65.551758,37.353516,,,,,,,,,,,0.0,1.0,1.0,12.0,0.0,0.0,0.0,10.0,0.0,,,,,,,-40.867420197233784,25.617287458433303,20.592279434189543,-3.22917267905974,1.1429465389322666,10.35028473310719,10.902397765557579,,10.834036982292863,-2.394850923634232,,,,,,,,
LBP05_S12,LBP05,-1616,35,12,34,-1616,1715818561.36,2024-05-16 00:16:01.360000+00:00,2024-05-16 09:16:01.360000+09:00,2024,5,16,0,16,1,360,,,,,,,,,0.07373,-0.291504,1.63208,-76.35498,8.972168,67.993164,,,,,,,,,,,0.0,1.0,1.0,12.0,0.0,0.0,0.0,10.0,0.0,,,,,,,-30.573454467999806,24.765131303663857,18.45637607766733,-4.452110857779733,2.133551791078821,11.088539776213883,12.137917807591764,,11.271048202874459,-2.387055423187223,,,,,,,,
LBP05_S12,LBP05,-1615,36,12,35,-1615,1715818561.4,2024-05-16 00:16:01.400000+00:00,2024-05-16 09:16:01.400000+09:00,2024,5,16,0,16,1,400,,,,,,,,,-0.685547,-0.265625,2.064453,154.47998,59.204102,6.04248,,,,,,,,,,,0.0,1.0,1.0,12.0,0.0,0.0,0.0,10.0,0.0,,,,,,,-17.796235069036403,21.73793453633569,14.56775051916717,-5.163960260541189,3.0030691725322485,11.67124979698057,13.111177744618564,,11.700620378009141,-2.399112602452639,,,,,,,,
LBP05_S12,LBP05,-1614,37,12,36,-1614,1715818561.44,2024-05-16 00:16:01.440000+00:00,2024-05-16 09:16:01.440000+09:00,2024,5,16,0,16,1,440,,,,,,,,,-0.592285,0.261475,1.956787,-142.944336,-12.329102,-38.879395,,,,,,,,,,,0.0,1.0,1.0,12.0,0.0,0.0,0.0,10.0,0.0,,,,,,,-4.168435119486986,16.677234659022112,9.545559285227755,-5.330697665320669,3.670158558893133,12.05307216838968,13.680751081094986,,12.086767399043854,-2.39486256972667,,,,,,,,
LBP05_S12,LBP05,-1613,38,12,37,-1613,1715818561.48,2024-05-16 00:16:01.480000+00:00,2024-05-16 09:16:01.480000+09:00,2024,5,16,0,16,1,480,,,,,,,,,-0.367188,-0.208496,1.866455,-4.333496,31.37207,-32.409668,,,,,,,,,,,0.0,1.0,1.0,12.0,0.0,0.0,0.0,10.0,0.0,-0.14171878666666668,-0.13098308,1.0183821866666667,-4.5043945333333335,0.3491210933333329,2.30712888,8.726837902716266,10.026295496911448,4.096967361993496,-4.981624149212018,4.071210378769591,12.21695086286942,13.807433559426583,-2.394850923634232,12.375217891555256,-2.395473917835041,-0.22546921333333333,-0.07751291999999999,0.8480728133333333,1.1510549466666666,0.880949553404276,0.880949553404276,0.880949553404276,0.880949553404276
LBP05_S12,LBP05,-1612,39,12,38,-1612,1715818561.52,2024-05-16 00:16:01.520000+00:00,2024-05-16 09:16:01.520000+09:00,2024,5,16,0,16,1,520,,,,,,,,,-0.197266,-0.229248,1.577393,37.536621,52.490234,9.277344,,,,,,,,,,,0.0,1.0,1.0,12.0,0.0,0.0,0.0,10.0,0.0,-0.14733728,-0.14056641333333333,1.0323633066666666,-3.2804362,1.3419596399999996,2.0996093599999996,19.437016516056786,2.608270173196101,-1.1287022766176023,-4.204143488569747,4.175541185697434,12.171802771804716,13.537457271646396,-2.3792599227402143,12.519401064387086,-2.3934975187561176,-0.04992872000000001,-0.08868158666666667,0.5450296933333334,0.68364,0.5544498782663617,0.7176997158353189,0.7176997158353189,0.7176997158353189
LBP05_S12,LBP05,-1611,40,12,39,-1611,1715818561.56,2024-05-16 00:16:01.560000+00:00,2024-05-16 09:16:01.560000+09:00,2024,5,16,0,16,1,560,,,,,,,,,-0.389404,-0.172119,0.658203,-39.18457,62.194824,30.212402,,,,,,,,,,,0.0,1.0,1.0,12.0,0.0,0.0,0.0,10.0,0.0,-0.15475916,-0.13493816,1.0437988533333333,-3.9038085999999996,0.7454427066666663,1.5974934799999998,26.73397718767109,-4.412739374284674,-5.592222485206901,-3.1347844010629027,3.9990316107260475,11.948113872396439,12.983703330424863,-2.4232269609834702,12.50580716354337,-2.3887012126246923,-0.23464483999999997,-0.03718083999999999,-0.38559585333333335,0.6574215333333333,0.4529070300951319,0.6294354872552566,0.6294354872552566,0.6294354872552566
LBP05_S12,LBP05,-1610,41,12,40,-1610,1715818561.6,2024-05-16 00:16:01.600000+00:00,2024-05-16 09:16:01.600000+09:00,2024,5,16,0,16,1,600,,,,,,,,,-0.04541,-0.193359,0.124023,125.12207,-55.297852,10.375977,,,,,,,,,,,0.0,1.0,1.0,12.0,0.0,0.0,0.0,10.0,0.0,-0.15098637333333334,-0.14320965333333333,1.0483561466666667,-3.9860026133333326,1.083984373333333,1.745605453333333,29.75931135312132,-9.753679758978812,-8.829177023286986,-1.9444119469380499,3.608884420366895,11.59494679146496,12.298275313061822,-2.382112471548764,12.359231413723844,-2.381434374389527,0.10557637333333333,-0.05014934666666668,-0.9243331466666667,1.0800588666666666,0.9316936694021347,0.7050000327919761,0.7050000327919761,0.7050000327919761
LBP05_S12,LBP05,-1609,42,12,41,-1609,1715818561.64,2024-05-16 00:16:01.640000+00:00,2024-05-16 09:16:01.640000+09:00,2024,5,16,0,16,1,640,,,,,,,,,0.220947,0.231445,0.564209,69.702148,-90.148926,-10.437012,,,,,,,,,,,0.0,1.0,1.0,12.0,0.0,0.0,0.0,10.0,0.0,-0.15103845333333332,-0.13871096000000002,1.0480306266666666,-3.486328133333333,3.0305989466666663,1.9970702933333333,28.18001273780873,-12.390672172716119,-10.396543635501132,-0.8172114374257007,3.11325753345825,11.179085046044914,11.633234695036412,-2.3979193102685237,12.137441692276674,-2.378437328091771,0.3719854533333333,0.37015596000000006,-0.4838216266666666,1.22596304,0.7137730582233449,0.7067546378782499,0.7067546378782499,0.7067546378782499
LBP05_S12,LBP05,-1608,43,12,42,-1608,1715818561.68,2024-05-16 00:16:01.680000+00:00,2024-05-16 09:16:01.680000+09:00,2024,5,16,0,16,1,680,,,,,,,,,0.19873,-0.252441,0.87207,1.037598,-42.236328,-20.690918,,,,,,,,,,,0.0,1.0,1.0,12.0,0.0,0.0,0.0,10.0,0.0,-0.15447269333333333,-0.14605797333333334,1.04045576,-4.016927093333333,3.431803373333333,2.1582031066666665,22.26210507366602,-11.953746080588832,-9.873552130699048,0.0732727655209402,2.6351076902346966,10.784142960816952,11.101662075411905,-2.383615523361503,11.923991030250992,-2.3764214498632534,0.3532026933333333,-0.10638302666666669,-0.16838575999999994,0.6279714799999999,0.405491374891574,0.6565440940471372,0.6565440940471372,0.6565440940471372
LBP05_S12,LBP05,-1607,44,12,43,-1607,1715818561.72,2024-05-16 00:16:01.720000+00:00,2024-05-16 09:16:01.720000+09:00,2024,5,16,0,16,1,720,,,,,,,,,-0.087646,0.348633,0.781494,-1.403809,-2.624512,-28.381348,,,,,,,,,,,0.0,1.0,1.0,12.0,0.0,0.0,0.0,10.0,0.0,-0.15026697333333333,-0.14912762666666665,1.0444564133333334,-3.340657573333333,2.024739573333333,1.9124348666666662,12.796452213865456,-8.94397388089895,-6.939412504735672,0.5851308540755584,2.2773487349987387,10.506566460627525,10.76645875712041,-2.3599233758361384,11.816996065855028,-2.3745891591955344,0.06262097333333333,0.49776062666666665,-0.26296241333333337,0.8233440133333333,0.5664240978162013,0.6436698088712892,0.6436698088712892,0.6436698088712892
LBP05_S12,LBP05,-1606,45,12,44,-1606,1715818561.76,2024-05-16 00:16:01.760000+00:00,2024-05-16 09:16:01.760000+09:00,2024,5,16,0,16,1,760,,,,,,,,,-0.157959,-0.633301,1.242188,-76.293945,-21.118164,6.591797,,,,,,,,,,,0.0,1.0,1.0,12.0,0.0,0.0,0.0,10.0,0.0,-0.1439714,-0.15169924,1.0549316800000001,-1.5144857066666664,1.4331054533333332,1.9433593466666665,0.901418215120852,-4.637122150541646,-1.49702478385704,0.6211875826803925,2.0918638489770727,10.446685469273243,10.67216030939651,-2.33056650674337,11.911699426378775,-2.3777106273408144,-0.013987599999999989,-0.48160176,0.18725631999999992,0.6828456799999999,0.5169147294949139,0.6278254239492423,0.6278254239492423,0.6278254239492423
LBP05_S12,LBP05,-1605,46,12,45,-1605,1715818561.8,2024-05-16 00:16:01.800000+00:00,2024-05-16 09:16:01.800000+09:00,2024,5,16,0,16,1,800,,,,,,,,,-0.107422,-0.229004,1.459229,-42.602539,0.366211,26.306152,,,,,,,,,,,0.0,1.0,1.0,12.0,0.0,0.0,0.0,10.0,0.0,-0.14715825333333332,-0.14767905333333334,1.0706803733333332,-1.4721679999999997,2.3022460799999998,1.66585284,-12.191763718364069,-0.6769044454343172,6.2071161693569445,0.13351703394582976,2.0647876711597,10.694970116047521,10.893280530146844,-2.3544609577097235,12.281178680228184,-2.3740708922130374,0.03973625333333332,-0.08132494666666668,0.3885486266666669,0.5096098266666669,0.39895206737634525,0.6023950509966982,0.6023950509966982,0.6023950509966982
LBP05_S12,LBP05,-1604,47,12,46,-1604,1715818561.84,2024-05-16 00:16:01.840000+00:00,2024-05-16 09:16:01.840000+09:00,2024,5,16,0,16,1,840,,,,,,,,,-0.09375,0.10791,1.329834,3.662109,34.057617,24.719238,,,,,,,,,,,0.0,1.0,1.0,12.0,0.0,0.0,0.0,10.0,0.0,-0.15351568,-0.15286460000000002,1.0920052533333333,-0.9570312799999997,3.34960936,1.7569986666666666,-25.268276859539835,1.5024597270373445,15.5028360302187,-0.8772140404357636,2.124886060241194,11.31508355725627,11.546244460838171,-2.3582785458065953,12.962282919299009,-2.3741315186383156,0.05976567999999999,0.2607746,0.23782874666666665,0.5583690266666667,0.35796346357143755,0.5779518922541722,0.5779518922541722,0.5779518922541722
LBP05_S12,LBP05,-1603,48,12,47,-1603,1715818561.88,2024-05-16 00:16:01.880000+00:00,2024-05-16 09:16:01.880000+09:00,2024,5,16,0,16,1,880,,,,,,,,,-0.192383,-0.005615,1.11499,143.310547,128.173828,0.854492,,,,,,,,,,,0.0,1.0,1.0,12.0,0.0,0.0,0.0,10.0,0.0,-0.15841152,-0.15197592000000001,1.1094466533333334,-2.3388672266666664,4.03727212,2.219238253333333,-37.167076068039485,1.2046920015047327,25.275914457567488,-2.363897083157343,2.1730737403013833,12.326120135558968,12.737483915466958,-2.3765280169570406,13.951194684903598,-2.3718377960074797,-0.03397148,0.14636092,0.00554334666666656,0.18587574666666656,0.15035394590400228,0.539079351676884,0.539079351676884,0.539079351676884
LBP05_S12,LBP05,-1602,49,12,48,-1602,1715818561.92,2024-05-16 00:16:01.920000+00:00,2024-05-16 09:16:01.920000+09:00,2024,5,16,0,16,1,920,,,,,,,,,-0.431641,0.295898,0.438965,-10.498047,62.438965,-10.620117,,,,,,,,,,,0.0,1.0,1.0,12.0,0.0,0.0,0.0,10.0,0.0,-0.16473964,-0.1474479333333333,1.1182552533333332,-4.301757853333333,5.19042968,2.6920572666666667,-46.82886632974769,-1.273801216941597,34.03158502054608,-4.237051736347251,2.1221216916237196,13.68738353638081,14.484490876883855,-2.4104746041930123,15.208951813095325,-2.370524521592135,-0.26690136,0.4433459333333333,-0.6792902533333331,1.3895375466666664,0.853948008280784,0.5653184063938756,0.5653184063938756,0.5653184063938756
LBP05_S12,LBP05,-1601,50,12,49,-1601,1715818561.96,2024-05-16 00:16:01.960000+00:00,2024-05-16 09:16:01.960000+09:00,2024,5,16,0,16,1,960,,,,,,,,,-0.016846,0.102295,0.218506,-246.826172,-110.656738,21.972656,,,,,,,,,,,0.0,1.0,1.0,12.0,0.0,0.0,0.0,10.0,0.0,-0.16864589333333332,-0.15840821333333333,1.1154134533333333,-5.5607096799999995,6.246744786666667,3.2975260133333326,-53.46116492693228,-4.7971455036051704,40.077948116835024,-6.375498333424542,1.9302358714795127,15.290501461054212,16.678495868918947,-2.3868296097057007,16.673029270796015,-2.372611378704701,0.15179989333333332,0.26070321333333335,-0.8969074533333333,1.30941056,0.9462834421584383,0.5946234091449958,0.5946234091449958,0.5946234091449958
LBP05_S12,LBP05,-1600,51,12,50,-1600,1715818562.0,2024-05-16 00:16:02+00:00,2024-05-16 09:16:02+09:00,2024,5,16,0,16,2,0,0.0,16.0,2.0,40.541988,141.521576,30.476,3.0,10.0,0.181885,-0.978027,0.973877,-166.137695,-119.567871,52.978516,-531.0,63.0,548.0,250.0,0.0,1020.900024,28.549999,0.078287,-63.460594,3.607031,0.0,1.0,1.0,12.0,0.0,0.0,0.0,3.0,0.0,-0.16652349333333333,-0.15773438666666667,1.1010319466666665,-2.8735352,5.466308586666667,3.9355468533333338,-56.785374305544124,-7.899737072085299,41.84765109087958,-8.646913305646306,1.6142463885961007,16.964407504689397,19.10931770377008,-2.3827187358015514,18.268481286712078,-2.3775761280735717,0.34840849333333335,-0.8202926133333333,-0.1271549466666665,1.295856053333333,0.9002426507213683,0.6164533549718796,0.6164533549718796,0.6164533549718796
LBP05_S12,LBP05,-1599,52,12,51,-1599,1715818562.04,2024-05-16 00:16:02.040000+00:00,2024-05-16 09:16:02.040000+09:00,2024,5,16,0,16,2,40,,,,,,,,,-0.11084,0.037598,1.264893,-38.452148,-26.977539,89.84375,,,,,,,,,,,0.0,1.0,1.0,12.0,0.0,0.0,0.0,3.0,0.0,-0.15882817333333332,-0.15285157333333332,1.08758468,-1.7732747866666667,4.324544266666667,4.2423502399999995,-57.169599589655476,-9.406383413939512,38.310949217631084,-10.933697289232525,1.2379910520385202,18.49684547339464,21.5223523510823,-2.374982083960161,19.914146950947078,-2.3766830736872135,0.04798817333333333,0.19044957333333332,0.17730832000000007,0.4157460666666667,0.2645980822000439,0.5929963367870905,0.5929963367870905,0.5929963367870905
LBP05_S12,LBP05,-1598,53,12,52,-1598,1715818562.08,2024-05-16 00:16:02.080000+00:00,2024-05-16 09:16:02.080000+09:00,2024,5,16,0,16,2,80,,,,,,,,,-0.162109,-1.068359,1.744629,-31.005859,-24.353027,86.853027,,,,,,,,,,,0.0,1.0,1.0,12.0,0.0,0.0,0.0,3.0,0.0,-0.15303715999999998,-0.14864258666666666,1.0817936533333332,-0.4801432799999998,3.8590494666666664,4.33349608,-55.4618357910131,-8.855103156769482,29.35206952510183,-13.152170720873048,0.8837869257677409,19.670928254398714,23.679233357329156,-2.3704827792080536,21.524949534475166,-2.3765888907253263,-0.009071840000000025,-0.9197164133333334,0.6628353466666668,1.5916236000000001,1.1337156945312334,0.6267912966460994,0.6267912966460994,0.6267912966460994
LBP05_S12,LBP05,-1597,54,12,53,-1597,1715818562.12,2024-05-16 00:16:02.120000+00:00,2024-05-16 09:16:02.120000+09:00,2024,5,16,0,16,2,120,,,,,,,,,-0.337158,0.298584,1.62915,193.237305,36.92627,20.324707,,,,,,,,,,,0.0,1.0,1.0,12.0,0.0,0.0,0.0,3.0,0.0,-0.15344730666666667,-0.14594075999999997,1.08206384,-0.6306966666666664,2.600097653333333,4.170735666666667,-52.55355595115349,-6.5442497346469155,15.946288524384144,-15.254312958919188,0.6220169363818642,20.30877979537408,25.407233334127316,-2.3807919469618,23.015289777865537,-2.376942813924257,-0.18371069333333334,0.44452475999999996,0.5470861600000001,1.1753216133333333,0.7284608071554827,0.6327718560878279,0.6327718560878279,0.6327718560878279
LBP05_S12,LBP05,-1596,55,12,54,-1596,1715818562.16,2024-05-16 00:16:02.160000+00:00,2024-05-16 09:16:02.160000+09:00,2024,5,16,0,16,2,160,,,,,,,,,-0.196533,-0.080078,1.5,-53.344727,62.927246,-9.460449,,,,,,,,,,,0.0,1.0,1.0,12.0,0.0,0.0,0.0,3.0,0.0,-0.15079431999999998,-0.1435937466666667,1.09313156,-2.2867839066666664,1.7456054666666672,3.7459309866666666,-48.936011629178196,-3.250696242674213,0.028968666800042744,-17.211753424086318,0.4919890866748956,20.30993854204608,26.626680468557154,-2.380214000432078,24.306649019251953,-2.371645023925742,-0.04573868000000003,0.06351574666666669,0.40686844,0.5161228666666667,0.41432861884113215,0.6206361206852337,0.6206361206852337,0.6206361206852337
LBP05_S12,LBP05,-1595,56,12,55,-1595,1715818562.2,2024-05-16 00:16:02.200000+00:00,2024-05-16 09:16:02.200000+09:00,2024,5,16,0,16,2,200,,,,,,,,,-0.396729,0.056152,0.787109,-140.930176,94.665527,-70.007324,,,,,,,,,,,0.0,1.0,1.0,12.0,0.0,0.0,0.0,3.0,0.0,-0.15048833333333334,-0.15379557333333332,1.0987565600000002,-2.98095708,3.0688476533333335,3.0655924399999996,-44.54246776852656,0.1672631811220797,-15.928401190811014,-18.99345213482738,0.4986796139197788,19.672802494413638,27.34993717249686,-2.345530413846139,25.337185695118105,-2.3689315958019805,-0.24624066666666666,0.20994757333333333,-0.31164756000000027,0.7678358000000003,0.4492623410914313,0.6116164480750336,0.6116164480750336,0.6116164480750336
LBP05_S12,LBP05,-1594,57,12,56,-1594,1715818562.24,2024-05-16 00:16:02.240000+00:00,2024-05-16 09:16:02.240000+09:00,2024,5,16,0,16,2,240,,,,,,,,,-0.218506,-0.023438,0.035645,-172.729492,-52.124023,-46.936035,,,,,,,,,,,0.0,1.0,1.0,12.0,0.0,0.0,0.0,3.0,0.0,-0.15387374666666667,-0.15351562666666665,1.0875944533333333,-5.187174519999999,3.793131506666667,2.257486973333333,-38.96327642207674,3.0499309668576187,-29.49616835912427,-20.55198319171045,0.6206768525940836,18.492955760048666,27.654270296119044,-2.3573367161877252,26.069543228677077,-2.3642723819970883,-0.06463225333333333,0.13007762666666667,-1.0519494533333333,1.2466593333333333,1.061929926830615,0.6341321220128127,0.6341321220128127,0.6341321220128127
LBP05_S12,LBP05,-1593,58,12,57,-1593,1715818562.28,2024-05-16 00:16:02.280000+00:00,2024-05-16 09:16:02.280000+09:00,2024,5,16,0,16,2,280,,,,,,,,,0.231934,-0.97998,0.699707,-48.828125,-94.604492,-43.579102,,,,,,,,,,,0.0,1.0,1.0,12.0,0.0,0.0,0.0,3.0,0.0,-0.15364913333333333,-0.1463444,1.0661426266666667,-4.486490933333333,3.6474609333333334,1.5657552133333332,-31.856310364093606,4.9894471582393525,-38.825650497254564,-21.826235606274192,0.8202547389236576,16.939929740158483,27.640886349370636,-2.380067248946352,26.49528931796945,-2.358907899684943,0.3855831333333333,-0.8336355999999999,-0.36643562666666674,1.58565436,0.9888871193362283,0.6510252171234514,0.6510252171234514,0.6510252171234514
LBP05_S12,LBP05,-1592,59,12,58,-1592,1715818562.32,2024-05-16 00:16:02.320000+00:00,2024-05-16 09:16:02.320000+09:00,2024,5,16,0,16,2,320,,,,,,,,,0.172363,0.34375,0.815674,147.583008,-6.530762,-48.950195,,,,,,,,,,,0.0,1.0,1.0,12.0,0.0,0.0,0.0,3.0,0.0,-0.1484863733333333,-0.14809244000000002,1.0485742666666666,-4.042154986666666,2.6293945333333335,1.4127604266666665,-23.27946701376472,5.722562451338975,-42.99337159306234,-22.75741428682478,1.0491572369772166,15.22019487643599,27.398083290748037,-2.357496704207861,26.63560027807344,-2.3563843506701008,0.3208493733333333,0.49184244,-0.23290026666666663,1.04559208,0.6317403266904454,0.6501486311946785,0.6501486311946785,0.6501486311946785
LBP05_S12,LBP05,-1591,60,12,59,-1591,1715818562.36,2024-05-16 00:16:02.360000+00:00,2024-05-16 09:16:02.360000+09:00,2024,5,16,0,16,2,360,,,,,,,,,-0.1604,-0.042725,1.22168,-71.899414,15.625,-23.498535,,,,,,,,,,,0.0,1.0,1.0,12.0,0.0,0.0,0.0,3.0,0.0,-0.14330734666666667,-0.14228841333333334,1.0330274,-3.7280273733333327,1.4086914133333333,1.2540690266666665,-13.795756288653932,5.031822208924107,-42.08539676188399,-23.309244538370937,1.250430125334181,13.53677900596063,26.98386262758049,-2.3596953284680846,26.537619998177185,-2.3530001189839664,-0.01709265333333332,0.09956341333333334,0.18865260000000017,0.30530866666666684,0.21399727932690582,0.6311855289395579,0.6311855289395579,0.6311855289395579
LBP05_S12,LBP05,-1590,61,12,60,-1590,1715818562.4,2024-05-16 00:16:02.400000+00:00,2024-05-16 09:16:02.400000+09:00,2024,5,16,0,16,2,400,,,,,,,,,-0.414795,-0.108887,1.495117,-10.131836,12.390137,-52.612305,,,,,,,,,,,0.0,1.0,1.0,12.0,0.0,0.0,0.0,3.0,0.0,-0.13822270666666667,-0.14399414666666668,1.0255827333333334,-2.8727213866666665,0.9212239733333333,0.8203125199999999,-4.3814981355468685,2.7822801437873914,-37.04595323559835,-23.48450446379281,1.3617213310856766,12.054940876536696,26.432893039359758,-2.3361265977526275,26.266137918268658,-2.3501069526448766,-0.27657229333333333,0.035107146666666686,0.46953426666666664,0.7812137066666667,0.5460651726313798,0.6276388474267172,0.6276388474267172,0.6276388474267172
LBP05_S12,LBP05,-1589,62,12,61,-1589,1715818562.44,2024-05-16 00:16:02.440000+00:00,2024-05-16 09:16:02.440000+09:00,2024,5,16,0,16,2,440,,,,,,,,,-0.335205,-0.417969,1.586426,-43.395996,11.657715,-16.967773,,,,,,,,,,,0.0,1.0,1.0,12.0,0.0,0.0,0.0,3.0,0.0,-0.13866216,-0.14888346666666666,1.0324251866666667,-2.0035807599999997,0.4858398666666667,0.47932943999999983,3.7691568098691883,-0.9140442746384919,-29.367794662823876,-23.33373819139804,1.325159560100137,10.880229090023741,25.77981324400608,-2.321337260838711,25.89148449647238,-2.348998877501116,-0.19654283999999997,-0.2690855333333333,0.5540008133333332,1.0196291866666665,0.6464928564017894,0.62839300778572,0.62839300778572,0.62839300778572
LBP05_S12,LBP05,-1588,63,12,62,-1588,1715818562.48,2024-05-16 00:16:02.480000+00:00,2024-05-16 09:16:02.480000+09:00,2024,5,16,0,16,2,480,,,,,,,,,-0.33374,-0.232666,1.057617,-13.793945,74.34082,-8.605957,,,,,,,,,,,0.0,1.0,1.0,12.0,0.0,0.0,0.0,3.0,0.0,-0.14060550666666666,-0.14377604,1.0487077333333334,-2.309570346666666,0.08382163999999999,0.4842122533333332,9.500666235443822,-5.529246761948755,-20.718713193442984,-22.953711541980287,1.1039896896221868,10.051480562286022,25.082342958369036,-2.345247289059632,25.476393773037064,-2.3478987669433233,-0.19313449333333332,-0.08888996000000002,0.008909266666666582,0.29093371999999995,0.21279504819535336,0.6016668275773631,0.6124084708783982,0.6124084708783982
LBP05_S12,LBP05,-1587,64,12,63,-1587,1715818562.52,2024-05-16 00:16:02.520000+00:00,2024-05-16 09:16:02.520000+09:00,2024,5,16,0,16,2,520,,,,,,,,,-0.29541,0.234375,0.086914,34.606934,47.973633,-0.12207,,,,,,,,,,,0.0,1.0,1.0,12.0,0.0,0.0,0.0,3.0,0.0,-0.14414717333333332,-0.14688801333333334,1.0654753066666667,-3.9062500266666658,1.0603841333333335,-0.19694009333333345,12.009551578361135,-10.097640315101135,-12.59434165882773,-22.47332947884584,0.7000840770181413,9.547706895932913,24.42743053516478,-2.3469496301004584,25.065666145547205,-2.3416512384139816,-0.15126282666666668,0.38126301333333334,-0.9785613066666666,1.5110871466666667,1.0610486129166645,0.6219307769633753,0.6290247724353711,0.6290247724353711
LBP05_S12,LBP05,-1586,65,12,64,-1586,1715818562.56,2024-05-16 00:16:02.560000+00:00,2024-05-16 09:16:02.560000+09:00,2024,5,16,0,16,2,560,,,,,,,,,0.078857,-0.391846,0.268311,44.250488,-83.557129,7.446289,,,,,,,,,,,0.0,1.0,1.0,12.0,0.0,0.0,0.0,3.0,0.0,-0.14904626666666668,-0.15054686666666667,1.0681803733333333,-6.516113306666666,2.7669271066666665,-0.11067708000000015,11.168971187883164,-13.428039259639002,-6.0708463896758325,-22.026570631330515,0.16296250663258127,9.30487304034588,23.911859669471873,-2.3512823370411744,24.68143355198979,-2.3384828438607053,0.22790326666666666,-0.24129913333333336,-0.7998693733333333,1.2690717733333332,0.8660001068714801,0.6384545000344292,0.6374881772366606,0.6374881772366606
LBP05_S12,LBP05,-1585,66,12,65,-1585,1715818562.6,2024-05-16 00:16:02.600000+00:00,2024-05-16 09:16:02.600000+09:00,2024,5,16,0,16,2,600,,,,,,,,,0.21875,0.229492,0.454102,140.014648,-109.802246,-6.896973,,,,,,,,,,,0.0,1.0,1.0,12.0,0.0,0.0,0.0,3.0,0.0,-0.15377933333333332,-0.16077148,1.0575749066666666,-6.77164716,3.6214192933333336,-0.09765624000000017,7.739650580703588,-14.505941034472954,-1.7009899691721417,-21.716984608102372,-0.41727513474633693,9.236833441578995,23.603402954534012,-2.3344496624085367,24.32421917429367,-2.3357874971461756,0.3725293333333333,0.39026348,-0.6034729066666666,1.36626572,0.8094833148967331,0.6335660858542131,0.6434190440525253,0.6434190440525253
LBP05_S12,LBP05,-1584,67,12,66,-1584,1715818562.64,2024-05-16 00:16:02.640000+00:00,2024-05-16 09:16:02.640000+09:00,2024,5,16,0,16,2,640,,,,,,,,,0.297852,-0.108154,0.834229,-28.808594,-48.64502,-1.89209,,,,,,,,,,,0.0,1.0,1.0,12.0,0.0,0.0,0.0,3.0,0.0,-0.15055341333333333,-0.15361653333333333,1.0389941733333334,-3.7329101866666665,2.6057942933333336,-0.7299804533333335,3.313907575069577,-12.90671737672704,0.44606127004306445,-21.58442830509959,-0.9335438298154185,9.254675892380718,23.50336306176594,-2.346335610609796,23.97784356490584,-2.331769217040468,0.44840541333333334,0.04546253333333333,-0.20476517333333344,0.6986331200000001,0.49503841553353417,0.6248167001466207,0.6384730231018921,0.6384730231018921
LBP05_S12,LBP05,-1583,68,12,67,-1583,1715818562.68,2024-05-16 00:16:02.680000+00:00,2024-05-16 09:16:02.680000+09:00,2024,5,16,0,16,2,680,,,,,,,,,-0.114502,0.150146,1.172119,-20.263672,27.893066,-22.644043,,,,,,,,,,,0.0,1.0,1.0,12.0,0.0,0.0,0.0,3.0,0.0,-0.14327477333333336,-0.15503905333333334,1.0264713866666666,-1.9262695733333333,1.5714518533333335,-0.9554036266666668,-0.08245344717507815,-9.000646777619815,0.645424007868756,-21.587726442986593,-1.2935697009202112,9.280492852695469,23.533610074472065,-2.3175919636529345,23.615704052468892,-2.3349897341079497,0.02877277333333335,0.30518505333333334,0.14564761333333331,0.47960544,0.3393803419956098,0.6221722588307821,0.6288248720984637,0.6288248720984637
LBP05_S12,LBP05,-1582,69,12,68,-1582,1715818562.72,2024-05-16 00:16:02.720000+00:00,2024-05-16 09:16:02.720000+09:00,2024,5,16,0,16,2,720,,,,,,,,,-0.362549,-0.241699,1.525146,-86.730957,7.751465,-29.907227,,,,,,,,,,,0.0,1.0,1.0,12.0,0.0,0.0,0.0,3.0,0.0,-0.13809898666666667,-0.14693032,1.0198633066666665,-0.8374023866666664,1.2687174799999998,-1.3753255066666668,-0.6392773628509909,-3.831497748254483,-0.6498375818213653,-21.61329753750063,-1.4468296108503904,9.254499349422614,23.555757355173874,-2.3258127586750947,23.206634163263566,-2.3358956491594385,-0.22445001333333334,-0.09476868,0.5052826933333334,0.8245013866666667,0.5609541080841314,0.6219534592414994,0.6267039107230159,0.6267039107230159
LBP05_S12,LBP05,-1581,70,12,69,-1581,1715818562.76,2024-05-16 00:16:02.760000+00:00,2024-05-16 09:16:02.760000+09:00,2024,5,16,0,16,2,760,,,,,,,,,-0.170654,-0.651367,1.654053,-77.087402,2.563477,1.098633,,,,,,,,,,,0.0,1.0,1.0,12.0,0.0,0.0,0.0,3.0,0.0,-0.13976890666666666,-0.14661781333333332,1.0245149999999998,-2.2428385866666667,0.3165690399999999,-1.6300455600000001,2.5871270944413185,1.2759624663773477,-2.93263274567386,-21.50981245372298,-1.3957911121952966,9.13719403959566,23.411718850619277,-2.3327418613227895,22.719661841451813,-2.3359163900381112,-0.030885093333333336,-0.5047491866666667,0.6295380000000002,1.1651722800000002,0.8074922438481192,0.6335765598156275,0.6321823450601401,0.6321823450601401
LBP05_S12,LBP05,-1580,71,12,70,-1580,1715818562.8,2024-05-16 00:16:02.800000+00:00,2024-05-16 09:16:02.800000+09:00,2024,5,16,0,16,2,800,,,,,,,,,-0.134766,-0.058838,1.145508,5.737305,76.782227,32.531738,,,,,,,,,,,0.0,1.0,1.0,12.0,0.0,0.0,0.0,3.0,0.0,-0.13695965333333335,-0.15491208,1.0395605733333333,-1.7195638533333333,-0.4703775733333334,-1.9767252400000004,9.309770233488477,5.196005199872693,-5.692013363119056,-21.13742164438344,-1.1879509042003888,8.909513505070898,22.96913694548145,-2.295943796695553,22.127999857599555,-2.3331426015211703,0.0021936533333333508,0.09607408,0.10594742666666668,0.20421516000000003,0.143038100449083,0.623340001138537,0.6177957496304033,0.6177957496304033
LBP05_S12,LBP05,-1579,72,12,71,-1579,1715818562.84,2024-05-16 00:16:02.840000+00:00,2024-05-16 09:16:02.840000+09:00,2024,5,16,0,16,2,840,,,,,,,,,-0.354492,-0.265381,0.351074,67.199707,77.392578,22.827148,,,,,,,,,,,0.0,1.0,1.0,12.0,0.0,0.0,0.0,3.0,0.0,-0.14122072,-0.14198565333333332,1.0427116133333334,-1.2711589066666666,0.9366862266666666,-2.3933919066666665,18.10355283183673,7.362147582955574,-8.414436195655462,-20.41327953110997,-0.8934650008821658,8.572936057244679,22.158418119636625,-2.3535424315135267,21.412986531261424,-2.3291516750950323,-0.21327127999999998,-0.12339534666666666,-0.6916376133333334,1.02830424,0.734216343204954,0.6383901163238778,0.6211220523039618,0.6211220523039618
LBP05_S12,LBP05,-1578,73,12,72,-1578,1715818562.88,2024-05-16 00:16:02.880000+00:00,2024-05-16 09:16:02.880000+09:00,2024,5,16,0,16,2,880,,,,,,,,,-0.091064,0.196289,0.274414,54.992676,-68.786621,-19.65332,,,,,,,,,,,0.0,1.0,1.0,12.0,0.0,0.0,0.0,3.0,0.0,-0.14590496000000003,-0.14646808,1.03071292,-0.34993495999999996,2.3657226799999997,-2.5968424266666665,26.91506108814034,7.8682193223951105,-10.597015996207762,-19.33667708758436,-0.5787362279863615,8.149055417396369,20.991644066315793,-2.3543064395745184,20.568090970257494,-2.3207717863423425,0.05484096000000002,0.34275708,-0.7562989200000001,1.15389696,0.8321526321396903,0.6656620637733052,0.6269840128549542,0.6269840128549542
LBP05_S12,LBP05,-1577,74,12,73,-1577,1715818562.92,2024-05-16 00:16:02.920000+00:00,2024-05-16 09:16:02.920000+09:00,2024,5,16,0,16,2,920,,,,,,,,,0.258301,-0.09375,0.71167,76.599121,-60.180664,-40.039062,,,,,,,,,,,0.0,1.0,1.0,12.0,0.0,0.0,0.0,3.0,0.0,-0.13929687999999998,-0.14188800000000001,1.0037109733333334,-0.9025065733333336,1.5258789199999998,-2.4381510133333335,33.76783245776252,7.297137437700182,-11.81700133554517,-17.985963789273857,-0.2868507304783542,7.676375363974562,19.55770731704721,-2.3471570388871896,19.60209460623979,-2.3148761653970302,0.39759787999999996,0.048138000000000014,-0.29204097333333334,0.7377768533333333,0.49567052699346076,0.6513309645218124,0.6234349997235625,0.6234349997235625
LBP05_S12,LBP05,-1576,75,12,74,-1576,1715818562.96,2024-05-16 00:16:02.960000+00:00,2024-05-16 09:16:02.960000+09:00,2024,5,16,0,16,2,960,,,,,,,,,0.072266,-0.269043,1.113037,75.744629,25.146484,-32.775879,,,,,,,,,,,0.0,1.0,1.0,12.0,0.0,0.0,0.0,3.0,0.0,-0.13181316,-0.14089190666666668,0.9813737333333333,1.484374933333333,0.4809570533333332,-1.6471353866666667,37.37713408426498,6.3949594786242585,-11.842346119510957,-16.490878425903258,-0.031052351333383854,7.202681519194123,17.995239830949334,-2.3235444518717676,18.540345162577218,-2.3112786599402684,0.20407916,-0.1281510933333333,0.13166326666666672,0.46389352000000006,0.2746019338208894,0.6244637041883103,0.614255182199808,0.614255182199808
LBP05_S12,LBP05,-1575,76,12,75,-1575,1715818563.0,2024-05-16 00:16:03+00:00,2024-05-16 09:16:03+09:00,2024,5,16,0,16,3,0,0.0,16.0,3.0,40.54203,141.521378,29.434,3.0,10.0,-0.326172,-0.249512,1.570801,73.303223,21.362305,-13.061523,-524.0,77.0,534.0,156.0,0.0,1021.0,28.59,0.079278,-64.287384,3.607031,0.0,1.0,1.0,12.0,0.0,0.0,0.0,5.0,0.0,-0.12303710666666667,-0.13954750666666668,0.9624446933333334,0.37272127999999954,-1.0245768000000002,-0.9733072666666666,37.45272545966297,5.765583234738039,-10.71695596121436,-14.99276940751674,0.19957097805613772,6.774003280745549,16.453269691152684,-2.2945403981471557,17.423645111996926,-2.306287130619668,-0.20313489333333334,-0.10996449333333333,0.6083563066666665,0.9214556933333332,0.6507329487160679,0.6144833161080983,0.6151905095463788,0.6151905095463788
LBP05_S12,LBP05,-1574,77,12,76,-1574,1715818563.04,2024-05-16 00:16:03.040000+00:00,2024-05-16 09:16:03.040000+09:00,2024,5,16,0,16,3,40,,,,,,,,,-0.398438,-0.063477,1.73291,-36.621094,-46.020508,-21.911621,,,,,,,,,,,0.0,1.0,1.0,12.0,0.0,0.0,0.0,5.0,0.0,-0.11736328,-0.1421939866666667,0.95098636,0.49153638666666627,-1.8245442400000005,-0.8593749733333332,34.611237222679534,5.712382118201251,-8.754370700507343,-13.608319918609558,0.4280662627841878,6.423828452725255,15.054407451726627,-2.2625367230828988,16.304869211495912,-2.3068770843670237,-0.28107472,0.07871698666666668,0.7819236399999999,1.1417153466666665,0.8346280255322176,0.6372845138413853,0.6206764474460248,0.6206764474460248
LBP05_S12,LBP05,-1573,78,12,77,-1573,1715818563.08,2024-05-16 00:16:03.080000+00:00,2024-05-16 09:16:03.080000+09:00,2024,5,16,0,16,3,80,,,,,,,,,-0.044678,-0.428223,1.456299,26.245117,12.329102,19.226074,,,,,,,,,,,0.0,1.0,1.0,12.0,0.0,0.0,0.0,5.0,0.0,-0.11600912000000001,-0.14168292000000002,0.9558528933333332,2.0402017466666664,-2.5569661066666667,-0.88948564,29.97874922097183,6.251030976572877,-6.423046836321013,-12.409169949770686,0.6781075018471029,6.166906579272414,13.873646434295004,-2.258635754199812,15.243458921039286,-2.300301043636,0.07133112,-0.28654008,0.5004461066666668,0.8583173066666667,0.5810676826366148,0.6151785933656005,0.6197103800116489,0.6197103800116489
LBP05_S12,LBP05,-1572,79,12,78,-1572,1715818563.12,2024-05-16 00:16:03.120000+00:00,2024-05-16 09:16:03.120000+09:00,2024,5,16,0,16,3,120,,,,,,,,,-0.166504,-0.306641,1.264404,-33.447266,107.177734,24.536133,,,,,,,,,,,0.0,1.0,1.0,12.0,0.0,0.0,0.0,5.0,0.0,-0.11857748000000001,-0.13576821333333336,0.9713900133333334,0.061848879999999676,-2.040201773333333,-0.9521484,24.680964557347313,7.23453715746359,-4.168297370496202,-11.421931367476793,0.9674889881456465,6.000174684452566,12.938262918548178,-2.289837704107471,14.298146826613216,-2.297378065094359,-0.04792652,-0.17087278666666664,0.29301398666666667,0.5118132933333333,0.3425662810681111,0.5997428123221057,0.6131117109891837,0.6131117109891837
LBP05_S12,LBP05,-1571,80,12,79,-1571,1715818563.16,2024-05-16 00:16:03.160000+00:00,2024-05-16 09:16:03.160000+09:00,2024,5,16,0,16,3,160,,,,,,,,,-0.366211,-0.237061,0.219727,-33.081055,30.883789,8.422852,,,,,,,,,,,0.0,1.0,1.0,12.0,0.0,0.0,0.0,5.0,0.0,-0.12284830666666667,-0.14272458666666665,0.9794629333333332,-1.8611654400000006,-0.8699543733333335,-0.9936523066666666,19.44708505084047,8.490021815001443,-2.2527039456264317,-10.644047965443175,1.3070898607457042,5.910066526627509,12.244718344816356,-2.282826568116791,13.519028788999048,-2.294345630128613,-0.24336269333333332,-0.09433641333333334,-0.7597359333333332,1.09743504,0.8033202647667507,0.6153024781591304,0.6175351657281969,0.6175351657281969
LBP05_S12,LBP05,-1570,81,12,80,-1570,1715818563.2,2024-05-16 00:16:03.200000+00:00,2024-05-16 09:16:03.200000+09:00,2024,5,16,0,16,3,200,,,,,,,,,0.120117,-0.351074,0.522705,7.568359,-65.124512,-15.075684,,,,,,,,,,,0.0,1.0,1.0,12.0,0.0,0.0,0.0,5.0,0.0,-0.12760416,-0.14258461333333333,0.9757292133333334,-2.8483073733333337,0.2547201066666665,-0.8382161066666667,14.481770376936048,9.874419590164138,-0.6885469793808666,-10.064777150365734,1.7020666443522696,5.882524647452274,11.78137794047132,-2.3018433341691047,12.94099540065199,-2.290343156931008,0.24772116,-0.20848938666666667,-0.4530242133333334,0.9092347600000001,0.5568343877048848,0.6196053600236686,0.6161556025913034,0.6161556025913034
LBP05_S12,LBP05,-1569,82,12,81,-1569,1715818563.24,2024-05-16 00:16:03.240000+00:00,2024-05-16 09:16:03.240000+09:00,2024,5,16,0,16,3,240,,,,,,,,,0.324951,-0.061523,0.860352,178.222656,-20.202637,-8.728027,,,,,,,,,,,0.0,1.0,1.0,12.0,0.0,0.0,0.0,5.0,0.0,-0.1299023466666667,-0.14944008,0.9669499200000001,-2.3502604933333338,0.34261073333333314,-0.41341141333333337,9.617729963609799,11.22501625969193,0.7129130913773563,-9.680067951821341,2.151067294739947,5.911041171107368,11.544315215070352,-2.2877820242032914,12.580643172871246,-2.2900255756035772,0.45485334666666666,0.08791708000000001,-0.10659792000000012,0.6493683466666668,0.4753778460108545,0.5961432767908782,0.6130272080006267,0.6130272080006267
LBP05_S12,LBP05,-1568,83,12,82,-1568,1715818563.28,2024-05-16 00:16:03.280000+00:00,2024-05-16 09:16:03.280000+09:00,2024,5,16,0,16,3,280,,,,,,,,,-0.268555,0.162354,1.270752,-24.841309,20.812988,-15.808105,,,,,,,,,,,0.0,1.0,1.0,12.0,0.0,0.0,0.0,5.0,0.0,-0.12887044,-0.13731768,0.9532292133333332,-1.1930339333333335,-0.36132806666666684,-0.6746418800000001,4.614871625141835,12.274096250848045,2.209757811052005,-9.495473086815668,2.6420311447738687,5.999431483549449,11.538523122055098,-2.3250766541581096,12.437541786858478,-2.2894970053730734,-0.13968455999999999,0.29967168,0.3175227866666669,0.7568790266666668,0.45840551060058343,0.5749240124414523,0.6096658667527998,0.6096658667527998
LBP05_S12,LBP05,-1567,84,12,83,-1567,1715818563.32,2024-05-16 00:16:03.320000+00:00,2024-05-16 09:16:03.320000+09:00,2024,5,16,0,16,3,320,,,,,,,,,-0.369629,-0.387695,1.716309,31.005859,-0.12207,12.634277,,,,,,,,,,,0.0,1.0,1.0,12.0,0.0,0.0,0.0,5.0,0.0,-0.12546224,-0.135957,0.9381803733333334,-1.2687175333333338,-1.6577147866666666,-1.0611978666666668,-0.5930595787223373,12.633083360089365,3.983028012860326,-9.519195469964561,3.1473544791774435,6.158752604063862,11.766526940905525,-2.316832689229729,12.498664214632727,-2.2875040969314413,-0.24416675999999998,-0.251738,0.7781286266666667,1.2740333866666667,0.853506641433475,0.5837946650311735,0.6148539683417503,0.6148539683417503
LBP05_S12,LBP05,-1566,85,12,84,-1566,1715818563.36,2024-05-16 00:16:03.360000+00:00,2024-05-16 09:16:03.360000+09:00,2024,5,16,0,16,3,360,,,,,,,,,-0.225586,-0.088867,1.760498,-105.773926,-8.728027,13.366699,,,,,,,,,,,0.0,1.0,1.0,12.0,0.0,0.0,0.0,5.0,0.0,-0.12077474666666665,-0.1401432,0.9285644933333334,-0.7210287200000004,-2.8873697333333332,-1.4444986400000002,-5.835127067412618,11.89784067199805,6.036337154538956,-9.752600552661066,3.6232681060573655,6.40020609024542,12.214905947478762,-2.2835197198957196,12.74326483849693,-2.2866794990236996,-0.10481125333333335,0.051276199999999994,0.8319335066666665,0.9880209599999998,0.8400761912031793,0.6088378215062245,0.6195460979846967,0.6195460979846967
LBP05_S12,LBP05,-1565,86,12,85,-1565,1715818563.4,2024-05-16 00:16:03.400000+00:00,2024-05-16 09:16:03.400000+09:00,2024,5,16,0,16,3,400,,,,,,,,,-0.323242,-0.081299,1.392334,1.342773,89.660645,-11.047363,,,,,,,,,,,0.0,1.0,1.0,12.0,0.0,0.0,0.0,5.0,0.0,-0.11875652,-0.13557940000000002,0.9242871466666668,-3.382161533333334,-4.53938796,-1.49169916,-10.80425427675978,9.83365539339509,8.171212168539236,-10.184770723731457,4.016614321793169,6.72705457698699,12.849747413345252,-2.2913645848728477,13.145567107303815,-2.2860432558764785,-0.20448547999999997,0.05428040000000002,0.4680468533333332,0.7268127333333332,0.5136424147889512,0.6075409111925274,0.6173847983276407,0.6173847983276407
LBP05_S12,LBP05,-1564,87,12,86,-1564,1715818563.44,2024-05-16 00:16:03.440000+00:00,2024-05-16 09:16:03.440000+09:00,2024,5,16,0,16,3,440,,,,,,,,,-0.496582,-0.16333,0.690674,-40.649414,101.806641,-1.220703,,,,,,,,,,,0.0,1.0,1.0,12.0,0.0,0.0,0.0,5.0,0.0,-0.11620769333333335,-0.14235998666666666,0.9356999066666668,-4.723307360000001,-5.468749946666667,-1.2939452533333333,-15.19518262363387,6.531553949715372,10.038543183862176,-10.792578028676813,4.277876479781783,7.128596304341476,13.623393591598923,-2.2572510207778573,13.674232019242385,-2.2903563729429397,-0.38037430666666666,-0.020970013333333343,-0.2450259066666668,0.6463702266666668,0.45294817536796594,0.5997991239511744,0.6140960658684472,0.6140960658684472
LBP05_S12,LBP05,-1563,88,12,87,-1563,1715818563.48,2024-05-16 00:16:03.480000+00:00,2024-05-16 09:16:03.480000+09:00,2024,5,16,0,16,3,480,,,,,,,,,-0.118164,-0.064697,0.33252,-22.155762,-85.9375,26.855469,,,,,,,,,,,0.0,1.0,1.0,12.0,0.0,0.0,0.0,5.0,0.0,-0.11861329333333333,-0.15107418666666667,0.9519173466666666,-2.001953186666667,-3.936360626666667,-1.442057226666667,-18.757276196918163,2.4253581387187757,11.248122207672033,-11.54286907655354,4.374890805330534,7.578521192648358,14.484870712037505,-2.23870666978349,14.289734020785616,-2.291709762263918,0.00044929333333332266,0.08637718666666666,-0.6193973466666667,0.7062238266666667,0.6253913121387715,0.6163029745089111,0.6089849010431372,0.6143175412855124
LBP05_S12,LBP05,-1562,89,12,88,-1562,1715818563.52,2024-05-16 00:16:03.520000+00:00,2024-05-16 09:16:03.520000+09:00,2024,5,16,0,16,3,520,,,,,,,,,0.268799,-0.220459,0.67041,-13.916016,-81.542969,31.982422,,,,,,,,,,,0.0,1.0,1.0,12.0,0.0,0.0,0.0,5.0,0.0,-0.12280600000000003,-0.14305986666666667,0.9551042,0.7527668666666663,-1.6088866666666668,-1.7488606133333333,-21.230043090824754,-1.8635556239069517,11.5023292498998,-12.39207080018653,4.300348580374257,8.03861436264435,15.384269157190229,-2.2815917250300575,14.942243536252633,-2.286139773274944,0.39160500000000004,-0.07739913333333331,-0.2846942,0.7536983333333334,0.4903018349745299,0.5934731033912256,0.6077019401773005,0.6119326238564551
LBP05_S12,LBP05,-1561,90,12,89,-1561,1715818563.56,2024-05-16 00:16:03.560000+00:00,2024-05-16 09:16:03.560000+09:00,2024,5,16,0,16,3,560,,,,,,,,,0.134277,-0.043457,1.116943,91.552734,11.779785,28.381348,,,,,,,,,,,0.0,1.0,1.0,12.0,0.0,0.0,0.0,5.0,0.0,-0.12289714666666667,-0.14470374666666666,0.9454101866666668,1.9335936799999993,-0.11962885333333323,-2.8409830133333336,-22.2289088209084,-5.766823289975383,10.703816383149823,-13.281227153022867,4.069675648775242,8.466767017970342,16.26774103288519,-2.2764641366445773,15.572560406810151,-2.280234086639008,0.25717414666666666,0.10124674666666666,0.17153281333333326,0.5299537066666666,0.3252890275960142,0.5718446602202071,0.6051495801273181,0.606524254115692
LBP05_S12,LBP05,-1560,91,12,90,-1560,1715818563.6,2024-05-16 00:16:03.600000+00:00,2024-05-16 09:16:03.600000+09:00,2024,5,16,0,16,3,600,,,,,,,,,-0.322021,-0.128174,1.480225,-51.391602,-10.681152,12.756348,,,,,,,,,,,0.0,1.0,1.0,12.0,0.0,0.0,0.0,5.0,0.0,-0.12404298666666667,-0.12691078666666666,0.9234245066666666,2.660318933333333,-0.1627603733333333,-4.076334573333334,-21.2013212070789,-8.943273251057228,8.986751229834121,-14.129280001306023,3.7119447187329526,8.826237067163706,17.068027059856988,-2.3449745048337185,16.11704837735463,-2.2779036309291287,-0.1979780133333333,-0.0012632133333333462,0.5568004933333333,0.7560417199999999,0.5909515029573766,0.5631033877426328,0.598334736798423,0.6062358698349825
LBP05_S12,LBP05,-1559,92,12,91,-1559,1715818563.64,2024-05-16 00:16:03.640000+00:00,2024-05-16 09:16:03.640000+09:00,2024,5,16,0,16,3,640,,,,,,,,,-0.355225,0.209229,1.546143,-0.915527,-22.644043,-25.939941,,,,,,,,,,,0.0,1.0,1.0,12.0,0.0,0.0,0.0,5.0,0.0,-0.11783530666666667,-0.13180662666666668,0.90935876,-0.3922526800000001,-1.8066405866666666,-4.343261653333333,-17.549100627205707,-11.287675513234742,6.651978824916281,-14.831244026394252,3.260437698203563,9.092316220160358,17.699335230502676,-2.3013159174130777,16.51537143853255,-2.2818992023377698,-0.23738969333333335,0.34103562666666665,0.63678424,1.21520956,0.7603639480335701,0.5737164090426342,0.5992665545946275,0.6090381985295023
LBP05_S12,LBP05,-1558,93,12,92,-1558,1715818563.68,2024-05-16 00:16:03.680000+00:00,2024-05-16 09:16:03.680000+09:00,2024,5,16,0,16,3,680,,,,,,,,,-0.042725,-0.685791,1.260254,-73.791504,25.268555,-7.629395,,,,,,,,,,,0.0,1.0,1.0,12.0,0.0,0.0,0.0,5.0,0.0,-0.11228192,-0.13412433333333335,0.90295576,0.9847004533333332,-2.594401,-3.989257746666667,-10.91468233730964,-12.795120736615093,4.036871543717189,-15.267831319886637,2.748632868738959,9.253791081909045,18.06361827672526,-2.2693767642683667,16.71851917974973,-2.2880078433923203,0.06955692,-0.5516666666666667,0.35729824,0.9785218266666668,0.6609359337621878,0.5865786327132974,0.6043754457720398,0.6099649438015146
LBP05_S12,LBP05,-1557,94,12,93,-1557,1715818563.72,2024-05-16 00:16:03.720000+00:00,2024-05-16 09:16:03.720000+09:00,2024,5,16,0,16,3,720,,,,,,,,,-0.215332,-0.222412,0.467041,-72.021484,73.364258,-2.380371,,,,,,,,,,,0.0,1.0,1.0,12.0,0.0,0.0,0.0,5.0,0.0,-0.11029298666666666,-0.13494138666666666,0.9106055066666666,2.2526041066666664,-3.5937499599999994,-2.7604166,-1.5101113263820591,-13.394447781399064,1.3867767093478003,-15.32823577294192,2.2128549574829965,9.309262150282956,18.06969564648072,-2.2577758228703693,16.694779816441617,-2.2963928615716194,-0.10503901333333333,-0.08747061333333334,-0.44356450666666664,0.6360741333333333,0.46414843971879627,0.582706405978684,0.6023299326100916,0.6074067595193616
LBP05_S12,LBP05,-1556,95,12,94,-1556,1715818563.76,2024-05-16 00:16:03.760000+00:00,2024-05-16 09:16:03.760000+09:00,2024,5,16,0,16,3,760,,,,,,,,,-0.168945,0.240967,-0.029785,66.162109,-18.432617,3.78418,,,,,,,,,,,0.0,1.0,1.0,12.0,0.0,0.0,0.0,5.0,0.0,-0.11356121333333334,-0.13824216000000003,0.9314941733333332,4.90152988,-2.9622395466666664,-2.3738606133333335,9.69040771397703,-12.880444726361802,-1.2094876217923411,-14.940619464382838,1.6976371684285245,9.260882645411263,17.65978565292356,-2.2602151627969214,16.432512260707792,-2.2986908885838777,-0.05538378666666667,0.37920916000000005,-0.9612791733333331,1.39587212,1.0348548690216715,0.591800910985626,0.6126887354006267,0.6147765545107806
LBP05_S12,LBP05,-1555,96,12,95,-1555,1715818563.8,2024-05-16 00:16:03.800000+00:00,2024-05-16 09:16:03.800000+09:00,2024,5,16,0,16,3,800,,,,,,,,,0.048828,-0.085693,0.321533,-29.846191,-77.880859,-1.586914,,,,,,,,,,,0.0,1.0,1.0,12.0,0.0,0.0,0.0,5.0,0.0,-0.11986981333333332,-0.12609373333333332,0.9407357066666666,5.0602212799999995,-1.8782551733333332,-1.9767251866666666,21.02865422846158,-11.01179033014181,-3.79753852876848,-14.099473295244374,1.2571655552228522,9.108981104260524,16.832978025124472,-2.3313202989592643,15.939949236986545,-2.299549349203381,0.16869781333333334,0.040400733333333314,-0.6192027066666665,0.8283012533333332,0.6430421163661406,0.6118010716223083,0.6175705363804227,0.615255631830363
LBP05_S12,LBP05,-1554,97,12,96,-1554,1715818563.84,2024-05-16 00:16:03.840000+00:00,2024-05-16 09:16:03.840000+09:00,2024,5,16,0,16,3,840,,,,,,,,,0.264404,-0.239014,0.587891,2.929688,-84.350586,7.385254,,,,,,,,,,,0.0,1.0,1.0,12.0,0.0,0.0,0.0,5.0,0.0,-0.12299156000000001,-0.13286130666666665,0.93980472,3.09000644,-0.8374023066666666,-1.4371744133333335,30.528383114518427,-7.7258863541822205,-6.471778231595391,-12.878337970663637,0.9481301010555634,8.850109974996709,15.654871003770701,-2.3183374313233585,15.243222207348676,-2.2922691914934807,0.38739555999999997,-0.10615269333333335,-0.35191372,0.8454619733333333,0.5340290072026731,0.6037935781822171,0.6210918472530474,0.6139018547532349
LBP05_S12,LBP05,-1553,98,12,97,-1553,1715818563.88,2024-05-16 00:16:03.880000+00:00,2024-05-16 09:16:03.880000+09:00,2024,5,16,0,16,3,880,,,,,,,,,0.219727,-0.325684,0.974121,118.164062,16.296387,-4.394531,,,,,,,,,,,0.0,1.0,1.0,12.0,0.0,0.0,0.0,5.0,0.0,-0.1242318,-0.13305661333333332,0.9257877866666666,4.061686119999999,-0.9285481466666667,-1.3224283200000002,36.44317114294633,-3.325147054871899,-9.274246402360573,-11.420611124945783,0.8151242188606874,8.479140118902286,14.247477078956361,-2.3225568515764854,14.383877932179113,-2.2855315043963325,0.3439588,-0.19262738666666665,0.0483332133333334,0.5849194000000001,0.39717636599197975,0.5863945275363087,0.626028295654807,0.6103489778882962
LBP05_S12,LBP05,-1552,99,12,98,-1552,1715818563.92,2024-05-16 00:16:03.920000+00:00,2024-05-16 09:16:03.920000+09:00,2024,5,16,0,16,3,920,,,,,,,,,-0.279053,-0.314941,1.388672,118.469238,41.748047,-5.737305,,,,,,,,,,,0.0,1.0,1.0,12.0,0.0,0.0,0.0,5.0,0.0,-0.11887698666666666,-0.1320898133333333,0.9101758133333332,4.369303306666667,-2.13541664,-0.9391275333333334,37.79436641100834,1.5059676203118129,-12.123913958353244,-9.908836468505449,0.8753629236731599,7.994183560568157,12.761593599851992,-2.3045719951526373,13.416177758665663,-2.284974966393476,-0.16017601333333334,-0.18285118666666672,0.4784961866666667,0.8215233866666668,0.5367024430420546,0.5880358041782524,0.6196833843500323,0.6091611305520666
LBP05_S12,LBP05,-1551,100,12,99,-1551,1715818563.96,2024-05-16 00:16:03.960000+00:00,2024-05-16 09:16:03.960000+09:00,2024,5,16,0,16,3,960,,,,,,,,,-0.433105,0.043457,1.467041,113.586426,-4.882812,-24.169922,,,,,,,,,,,0.0,1.0,1.0,12.0,0.0,0.0,0.0,5.0,0.0,-0.11001305333333332,-0.12721350666666667,0.8966601866666667,4.862467373333332,-3.444010386666667,-0.9293619200000001,34.68108705073478,5.886235336376807,-14.800498567246162,-8.521592986476058,1.1108123371282321,7.40216361787831,11.342110795672715,-2.285048742839613,12.40313937493695,-2.2870594960402606,-0.3230919466666667,0.17067050666666667,0.5703808133333333,1.0641432666666666,0.6773854885259263,0.604147146366454,0.6143054252773821,0.610244056869112
LBP05_S12,LBP05,-1550,101,12,100,-1550,1715818564.0,2024-05-16 00:16:04+00:00,2024-05-16 09:16:04+09:00,2024,5,16,0,16,4,0,0.0,16.0,4.0,40.542084,141.521164,28.841,3.0,10.0,-0.259521,0.079346,1.689453,-29.35791,-6.591797,-47.119141,-523.0,67.0,542.0,208.0,0.0,1021.099976,28.65,0.080269,-65.114113,3.607031,0.0,1.0,1.0,12.0,0.0,0.0,0.0,6.0,0.0,-0.10323570666666666,-0.12255205333333334,0.8946614933333332,4.785156173333332,-4.29606116,-0.99039708,28.21187496439934,9.037303092517767,-16.977818351214204,-7.393117987900085,1.4723044608289428,6.723050883829742,10.10075676347829,-2.2721729277347156,11.410053141497297,-2.289635493613503,-0.15628529333333335,0.20189805333333333,0.7947915066666669,1.1529748533333335,0.8347942596361968,0.6115095988032592,0.6129964574556788,0.6137526537873477
LBP05_S12,LBP05,-1549,102,12,101,-1549,1715818564.04,2024-05-16 00:16:04.040000+00:00,2024-05-16 09:16:04.040000+09:00,2024,5,16,0,16,4,40,,,,,,,,,-0.191895,-0.392578,1.070312,-174.682617,93.688965,-2.624512,,,,,,,,,,,0.0,1.0,1.0,12.0,0.0,0.0,0.0,6.0,0.0,-0.10270185333333334,-0.13200844,0.9137467866666666,3.4895832533333335,-4.584960906666667,-1.0921223466666667,20.08143996251328,10.556109513810176,-18.28119838786411,-6.589860389399553,1.8945488413813498,5.991802948315177,9.105892478807066,-2.233939046441595,10.495822066423454,-2.282967209187932,-0.08919314666666667,-0.26056956,0.1565652133333333,0.5063279199999999,0.3168036916404341,0.5907966254475877,0.6140405696444866,0.6091842082158566
LBP05_S12,LBP05,-1548,103,12,102,-1548,1715818564.08,2024-05-16 00:16:04.080000+00:00,2024-05-16 09:16:04.080000+09:00,2024,5,16,0,16,4,80,,,,,,,,,-0.424072,-0.309326,0.297119,-7.751465,75.195312,5.371094,,,,,,,,,,,0.0,1.0,1.0,12.0,0.0,0.0,0.0,6.0,0.0,-0.10768232,-0.13006508000000003,0.9305436533333336,2.3600259599999998,-3.563639293333333,-1.3745116666666666,12.01102011169304,10.535893432018225,-18.34511939461701,-6.109419584931832,2.315984578662079,5.257998172530497,8.38661654159073,-2.263811384239798,9.704702917910543,-2.2823330697198045,-0.31638968,-0.17926091999999996,-0.6334246533333335,1.1290752533333335,0.7303859928148969,0.596769357854719,0.6059739756101598,0.6110205988915998
LBP05_S12,LBP05,-1547,104,12,103,-1547,1715818564.12,2024-05-16 00:16:04.120000+00:00,2024-05-16 09:16:04.120000+09:00,2024,5,16,0,16,4,120,,,,,,,,,-0.071533,0.24707,0.234863,91.796875,-79.162598,-16.845703,,,,,,,,,,,0.0,1.0,1.0,12.0,0.0,0.0,0.0,6.0,0.0,-0.11248374666666668,-0.13178708,0.9432422133333334,-0.5989584133333339,-1.8025715866666667,-1.4697265066666667,5.33337740961492,9.472975529822557,-16.86823048971105,-5.896084488547235,2.6949035998549813,4.583268952942055,7.939311809193616,-2.2786211193382173,9.061734548645285,-2.2739364602733794,0.040950746666666676,0.37885708,-0.7083792133333333,1.12818704,0.804369790955277,0.6152414982502057,0.6074921552861556,0.613906407728371
LBP05_S12,LBP05,-1546,105,12,104,-1546,1715818564.16,2024-05-16 00:16:04.160000+00:00,2024-05-16 09:16:04.160000+09:00,2024,5,16,0,16,4,160,,,,,,,,,0.250732,-0.322021,0.728027,73.608398,-72.814941,-13.000488,,,,,,,,,,,0.0,1.0,1.0,12.0,0.0,0.0,0.0,6.0,0.0,-0.11955081333333333,-0.13800128,0.9437174666666668,-1.257324293333334,-0.005696586666666501,-1.13118484,0.8632701127469342,7.9944499174839185,-13.67911315299092,-5.861553684037357,3.014681596554338,4.036104426822418,7.728923318527029,-2.285975138529346,8.573671320765236,-2.2685598351826597,0.37028281333333335,-0.18401972,-0.2156904666666668,0.7699930000000001,0.46636358842625253,0.6017632311965858,0.608532854677858,0.6117366603856927
LBP05_S12,LBP05,-1545,106,12,105,-1545,1715818564.2,2024-05-16 00:16:04.200000+00:00,2024-05-16 09:16:04.200000+09:00,2024,5,16,0,16,4,200,,,,,,,,,0.128418,0.356934,1.132324,90.759277,29.174805,-27.770996,,,,,,,,,,,0.0,1.0,1.0,12.0,0.0,0.0,0.0,6.0,0.0,-0.12210614666666667,-0.14736,0.9313183866666667,1.2491861199999992,-0.48502601333333323,-0.33691400000000005,-1.031136975888338,6.545790912135412,-8.816420746888648,-5.902799163072891,3.276513233039754,3.6834475969468725,7.690667274386036,-2.264637454703552,8.234517155829703,-2.2685898059883947,0.25052414666666667,0.504294,0.20100561333333344,0.9558237600000001,0.5978946755830588,0.6034056427117127,0.6115055013676907,0.6115360519102924
LBP05_S12,LBP05,-1544,107,12,106,-1544,1715818564.24,2024-05-16 00:16:04.240000+00:00,2024-05-16 09:16:04.240000+09:00,2024,5,16,0,16,4,240,,,,,,,,,-0.48999,-0.066406,1.637939,-116.333008,12.878418,-10.192871,,,,,,,,,,,0.0,1.0,1.0,12.0,0.0,0.0,0.0,6.0,0.0,-0.11522789333333333,-0.12608396,0.9192025066666667,4.494628826666665,-1.5535481466666665,0.3784180399999999,-0.3479890546804536,5.208743031046925,-2.598962471016397,-5.916718725260109,3.484862954281631,3.5794890981062166,7.743679518641597,-2.311996036642088,8.032106544134049,-2.266737412980588,-0.37476210666666665,0.05967795999999999,0.7187364933333333,1.15317656,0.8127670283372084,0.6169012100047668,0.6065222433978225,0.6144107801449625
LBP05_S12,LBP05,-1543,108,12,107,-1543,1715818564.28,2024-05-16 00:16:04.280000+00:00,2024-05-16 09:16:04.280000+09:00,2024,5,16,0,16,4,280,,,,,,,,,-0.307617,-0.64917,1.61792,-89.72168,-31.799316,-6.347656,,,,,,,,,,,0.0,1.0,1.0,12.0,0.0,0.0,0.0,6.0,0.0,-0.10603844000000001,-0.13499997333333336,0.9185091466666667,2.432454346666666,-1.4282226266666664,1.0449219466666666,2.5347708924921664,3.7394488207572354,4.3567063568456925,-5.815327889560423,3.6344409071119204,3.7537573523800445,7.817793386303775,-2.238590757112228,7.951518980396185,-2.2717731229641593,-0.20157855999999996,-0.5141700266666667,0.6994108533333333,1.41515944,0.8911679268996028,0.6342117066567277,0.60456785954909,0.6183087681274223
LBP05_S12,LBP05,-1542,109,12,108,-1542,1715818564.32,2024-05-16 00:16:04.320000+00:00,2024-05-16 09:16:04.320000+09:00,2024,5,16,0,16,4,320,,,,,,,,,-0.138428,0.099121,1.45166,45.410156,39.978027,6.103516,,,,,,,,,,,0.0,1.0,1.0,12.0,0.0,0.0,0.0,6.0,0.0,-0.10874025333333333,-0.13496090666666666,0.92530276,4.479166586666666,-1.9181314933333333,0.5558268933333333,6.818696804076684,1.7859841987828509,11.203107681307449,-5.542580017397356,3.7058802750632345,4.201881659632343,7.8809613210515055,-2.250805744245445,7.974119434117324,-2.274194076454584,-0.029687746666666667,0.23408190666666667,0.52635724,0.7901268933333333,0.5768254895817831,0.62314446058266,0.6034695628069167,0.617732611480955
LBP05_S12,LBP05,-1541,110,12,109,-1541,1715818564.36,2024-05-16 00:16:04.360000+00:00,2024-05-16 09:16:04.360000+09:00,2024,5,16,0,16,4,360,,,,,,,,,-0.277588,-0.627686,0.732178,-7.263184,116.149902,52.734375,,,,,,,,,,,0.0,1.0,1.0,12.0,0.0,0.0,0.0,6.0,0.0,-0.11087241333333334,-0.12810218666666667,0.9427474266666667,3.5449217999999987,-3.2234700266666665,-0.11800122666666663,11.354844449906034,-0.8493182213952123,17.01075783279165,-5.088386239401114,3.671907546207426,4.8823119729440085,7.950569146317393,-2.2853484508969637,8.075658762328182,-2.2738095657686346,-0.16671558666666667,-0.4995838133333333,-0.21056942666666667,0.8768688266666667,0.5672015134227115,0.6122294734714413,0.6105336474888329,0.6170404046582393
LBP05_S12,LBP05,-1540,111,12,110,-1540,1715818564.4,2024-05-16 00:16:04.400000+00:00,2024-05-16 09:16:04.400000+09:00,2024,5,16,0,16,4,400,,,,,,,,,-0.189941,0.077881,0.039307,113.037109,-3.78418,17.944336,,,,,,,,,,,0.0,1.0,1.0,12.0,0.0,0.0,0.0,6.0,0.0,-0.11171552000000001,-0.13782223999999998,0.9614127866666666,3.0086262266666663,-1.5681965866666667,-0.10579419999999994,14.879188046906105,-4.057917511635603,20.958902755929806,-4.4932187175248695,3.509590845742002,5.7206680831812005,8.076650646521735,-2.253648997656645,8.228002990449939,-2.268274188737475,-0.07822547999999999,0.21570324,-0.9221057866666666,1.2160345066666667,0.9502242868248949,0.629692748352879,0.6186168297727032,0.6215428895523833
LBP05_S12,LBP05,-1539,112,12,111,-1539,1715818564.44,2024-05-16 00:16:04.440000+00:00,2024-05-16 09:16:04.440000+09:00,2024,5,16,0,16,4,440,,,,,,,,,-0.031006,0.336182,0.281494,36.071777,-90.698242,20.446777,,,,,,,,,,,0.0,1.0,1.0,12.0,0.0,0.0,0.0,6.0,0.0,-0.12054690666666666,-0.13962562666666667,0.9624544533333335,0.8203124266666657,0.6559245066666666,0.44759121333333346,16.33084447635234,-7.478696077324604,22.508694323588504,-3.839984938470776,3.2104430026490176,6.621015856124741,8.300016841428437,-2.2842961462773097,8.405591657348241,-2.269411695722554,0.08954090666666667,0.47580762666666665,-0.6809604533333334,1.2463089866666668,0.8355343263832993,0.6449961943934923,0.6223976591723334,0.6243961087101288
LBP05_S12,LBP05,-1538,113,12,112,-1538,1715818564.48,2024-05-16 00:16:04.480000+00:00,2024-05-16 09:16:04.480000+09:00,2024,5,16,0,16,4,480,,,,,,,,,0.291016,-0.107666,0.446777,-87.70752,-81.542969,18.127441,,,,,,,,,,,0.0,1.0,1.0,12.0,0.0,0.0,0.0,6.0,0.0,-0.12152348000000002,-0.1396939866666667,0.9510254133333332,-0.6372071066666675,-0.5541991866666667,1.0229492933333335,15.1111089614503,-10.723550420984072,21.510314204603834,-3.235540580012764,2.7815009858096547,7.481428424308894,8.612621078802114,-2.2880209191440457,8.59373492885903,-2.2664636105613454,0.41253948,0.03202798666666669,-0.5042484133333333,0.94881588,0.652289105257611,0.646072106118246,0.6311875403135785,0.6213473027348401
LBP05_S12,LBP05,-1537,114,12,113,-1537,1715818564.52,2024-05-16 00:16:04.520000+00:00,2024-05-16 09:16:04.520000+09:00,2024,5,16,0,16,4,520,,,,,,,,,0.228271,-0.427734,0.718018,46.447754,-7.507324,17.822266,,,,,,,,,,,0.0,1.0,1.0,12.0,0.0,0.0,0.0,6.0,0.0,-0.11389652,-0.1345182,0.9401530133333333,-1.297200600000001,-1.5974934666666667,1.0302735066666668,11.192318475126058,-13.617749825960672,18.225424507768352,-2.7878478410077214,2.236790992771228,8.210445404619628,8.954705091302197,-2.274776012478721,8.79428511286845,-2.2698289602465307,0.34216752,-0.2932158,-0.2221350133333333,0.8575183333333334,0.502392357884941,0.6465557270346624,0.620014415212944,0.6206532024630877
LBP05_S12,LBP05,-1536,115,12,114,-1536,1715818564.56,2024-05-16 00:16:04.560000+00:00,2024-05-16 09:16:04.560000+09:00,2024,5,16,0,16,4,560,,,,,,,,,-0.287842,-0.133789,1.023193,76.965332,7.263184,27.954102,,,,,,,,,,,0.0,1.0,1.0,12.0,0.0,0.0,0.0,6.0,0.0,-0.10757164000000001,-0.13926429333333334,0.9359407733333333,-0.29459642666666763,-0.28971352000000017,1.0742188133333335,5.0731107239964315,-16.28289327557861,13.271912070125225,-2.584923412047864,1.5854752617480836,8.741321887424638,9.252365599744605,-2.230621368217752,9.024739580995004,-2.274634675560985,-0.18027035999999996,0.005475293333333353,0.08725222666666677,0.2729978800000001,0.20035052430654388,0.6415581869030835,0.6067014235616454,0.6172857823859065
LBP05_S12,LBP05,-1535,116,12,115,-1535,1715818564.6,2024-05-16 00:16:04.600000+00:00,2024-05-16 09:16:04.600000+09:00,2024,5,16,0,16,4,600,,,,,,,,,-0.238037,0.250244,1.289307,-23.254395,-16.540527,5.67627,,,,,,,,,,,0.0,1.0,1.0,12.0,0.0,0.0,0.0,6.0,0.0,-0.11470379999999998,-0.13513017333333335,0.9412858266666668,-0.11962897333333425,-0.1407877466666667,0.3971354800000001,-2.3788275913417247,-19.001126106993013,7.5082908324435245,-2.680076515701533,0.8254302174683631,9.04165352072238,9.466553943369052,-2.276012524554342,9.309354306801836,-2.2809659570895056,-0.12333320000000002,0.38537417333333335,0.34802117333333316,0.8567285466666665,0.5337069128116105,0.6392684032972529,0.6011858955199428,0.611979292298033
LBP05_S12,LBP05,-1534,117,12,116,-1534,1715818564.64,2024-05-16 00:16:04.640000+00:00,2024-05-16 09:16:04.640000+09:00,2024,5,16,0,16,4,640,,,,,,,,,-0.099365,-0.290283,1.169678,-74.523926,-2.380371,-13.549805,,,,,,,,,,,0.0,1.0,1.0,12.0,0.0,0.0,0.0,6.0,0.0,-0.11775393333333334,-0.13688472,0.9506998933333332,-0.8121745466666676,-1.9205728933333335,-0.15787754666666654,-10.149722460059056,-21.942728432470958,1.8789505241836701,-3.0860654141038952,-0.05227891983047528,9.116811541689726,9.62511223374948,-2.282515185029999,9.666288631155961,-2.283774747605846,0.018388933333333343,-0.15339828000000003,0.21897810666666684,0.3907653200000002,0.26799364987889973,0.619573591371066,0.5966450002068502,0.6060355668534404
LBP05_S12,LBP05,-1533,118,12,117,-1533,1715818564.68,2024-05-16 00:16:04.680000+00:00,2024-05-16 09:16:04.680000+09:00,2024,5,16,0,16,4,680,,,,,,,,,-0.157959,-0.241943,0.592041,-72.998047,42.114258,-9.033203,,,,,,,,,,,0.0,1.0,1.0,12.0,0.0,0.0,0.0,6.0,0.0,-0.11562502666666667,-0.13726232,0.9721386933333334,-0.3442383466666675,-1.7830403466666667,-0.22379551999999986,-17.30458125583283,-24.917345017795565,-2.7514319493442323,-3.7782486643372084,-1.0489727205422978,9.006754263715957,9.823295226397983,-2.2722442539640832,10.099151014110516,-2.283651949168052,-0.042333973333333316,-0.10468068,-0.3800976933333333,0.5271123466666666,0.39651540517459155,0.6089967702275623,0.5977877014704298,0.6059158872572139
LBP05_S12,LBP05,-1532,119,12,118,-1532,1715818564.72,2024-05-16 00:16:04.720000+00:00,2024-05-16 09:16:04.720000+09:00,2024,5,16,0,16,4,720,,,,,,,,,-0.26001,-0.165527,0.123047,35.949707,3.967285,3.479004,,,,,,,,,,,0.0,1.0,1.0,12.0,0.0,0.0,0.0,6.0,0.0,-0.12110028,-0.13611649333333334,0.9799577066666666,-0.48990892000000086,0.7584635599999999,0.10172532000000013,-23.130788150408847,-27.297887604787356,-5.740046623434908,-4.703480190353562,-2.140888224733792,8.77715239877856,10.18550600231704,-2.2988628973899927,10.597810895092564,-2.2830503433782936,-0.13890972000000001,-0.02941050666666667,-0.8569107066666666,1.0252309333333334,0.8685947544239686,0.6251746228157691,0.6039405143972265,0.6099448293453175
LBP05_S12,LBP05,-1531,120,12,119,-1531,1715818564.76,2024-05-16 00:16:04.760000+00:00,2024-05-16 09:16:04.760000+09:00,2024,5,16,0,16,4,760,,,,,,,,,-0.080566,0.275879,0.213135,10.498047,-73.913574,-13.000488,,,,,,,,,,,0.0,1.0,1.0,12.0,0.0,0.0,0.0,6.0,0.0,-0.1305176,-0.13253577333333333,0.9691601733333333,-2.798665426666667,0.32226565333333324,0.40120448000000014,-27.153227348040904,-28.187023480833645,-6.756420394272893,-5.7896092842751985,-3.2683691639671375,8.506895583007644,10.796716404385725,-2.3486612661821646,11.145311643092773,-2.283439122764451,0.04995160000000001,0.4084147733333333,-0.7560251733333333,1.2143915466666666,0.8607391312895997,0.6182099933064863,0.6050054521460562,0.61452915470258
LBP05_S12,LBP05,-1530,121,12,120,-1530,1715818564.8,2024-05-16 00:16:04.800000+00:00,2024-05-16 09:16:04.800000+09:00,2024,5,16,0,16,4,800,,,,,,,,,0.148193,-0.126953,0.330566,-48.278809,-96.862793,-2.685547,,,,,,,,,,,0.0,1.0,1.0,12.0,0.0,0.0,0.0,6.0,0.0,-0.12084637333333333,-0.14071286666666666,0.9662109600000001,-2.8450521333333345,-1.3395181999999999,1.1116536933333334,-29.06185590299085,-26.776460059286144,-5.810302652919886,-6.952083520394833,-4.339427566338584,8.274483476890849,11.645993890062982,-2.281736902820052,11.724453114551434,-2.286915548489409,0.26903937333333333,0.013759866666666648,-0.63564496,0.9184442,0.6903738360538287,0.6201032620939937,0.615952166858151,0.6184147782849465
LBP05_S12,LBP05,-1529,122,12,121,-1529,1715818564.84,2024-05-16 00:16:04.840000+00:00,2024-05-16 09:16:04.840000+09:00,2024,5,16,0,16,4,840,,,,,,,,,0.257812,-0.206055,0.608643,44.73877,-58.166504,-4.02832,,,,,,,,,,,0.0,1.0,1.0,12.0,0.0,0.0,0.0,6.0,0.0,-0.11571941333333333,-0.13434568,0.9627050933333333,-2.6855469200000006,-0.6795247200000003,1.367187546666667,-28.652996955549,-22.737319221752326,-3.22254289618667,-8.098203398616793,-5.248920335208677,8.145581761043381,12.628640670973986,-2.2830681618993687,12.320182713685986,-2.28663278846142,0.3735314133333333,-0.07170932,-0.35406209333333327,0.7993028266666665,0.5196420972719992,0.6195277856967668,0.611660681939492,0.6205704934009539
LBP05_S12,LBP05,-1528,123,12,122,-1528,1715818564.88,2024-05-16 00:16:04.880000+00:00,2024-05-16 09:16:04.880000+09:00,2024,5,16,0,16,4,880,,,,,,,,,-0.041016,0.33667,0.794189,-56.274414,4.272461,-2.685547,,,,,,,,,,,0.0,1.0,1.0,12.0,0.0,0.0,0.0,6.0,0.0,-0.11949545333333333,-0.13905597333333336,0.96423504,-1.2849935333333344,-0.20996092000000025,1.3720703600000002,-25.862084441910863,-16.446889811554442,0.4477162544111825,-9.132686776293227,-5.906795927670855,8.16349041121983,13.599219888622592,-2.2820048612464614,12.917476078775687,-2.290120576714876,0.07847945333333334,0.4757259733333334,-0.17004604,0.7242514666666667,0.5112630262586254,0.6240912521074327,0.6052428898218707,0.6253826144723489
LBP05_S12,LBP05,-1527,124,12,123,-1527,1715818564.92,2024-05-16 00:16:04.920000+00:00,2024-05-16 09:16:04.920000+09:00,2024,5,16,0,16,4,920,,,,,,,,,-0.240479,-0.212646,1.294922,-111.083984,-7.263184,4.211426,,,,,,,,,,,0.0,1.0,1.0,12.0,0.0,0.0,0.0,6.0,0.0,-0.12079102666666666,-0.14153969333333333,0.9714843866666668,-1.3175456133333343,-1.657714826666667,1.5022786933333334,-20.880708410394387,-8.935685587985356,4.504414713208971,-9.967915112709003,-6.264223351190269,8.343666999748187,14.429712571304284,-2.278663806340294,13.49684096691296,-2.2930524558121594,-0.11968797333333334,-0.07110630666666667,0.3234376133333331,0.5142318933333331,0.35212669243778927,0.616708222083262,0.6023720131307573,0.6186916635944422
LBP05_S12,LBP05,-1526,125,12,124,-1526,1715818564.96,2024-05-16 00:16:04.960000+00:00,2024-05-16 09:16:04.960000+09:00,2024,5,16,0,16,4,960,,,,,,,,,-0.197266,-0.55127,1.434814,-42.724609,4.272461,10.864258,,,,,,,,,,,0.0,1.0,1.0,12.0,0.0,0.0,0.0,6.0,0.0,-0.11709962666666666,-0.14100258666666668,0.9844563866666668,-1.1694336400000012,-2.4055989466666667,1.2703450933333336,-14.267405177434561,-1.5788825122739816,8.228061472669692,-10.538611319806385,-6.3273786516812285,8.672789458654975,15.043780314331219,-2.2653856254673324,14.031426236714486,-2.2897465306570814,-0.08016637333333333,-0.4102674133333334,0.45035761333333324,0.9407913999999999,0.6144656033855269,0.614191426677646,0.60916928652205,0.6142674257441368
LBP05_S12,LBP05,-1525,126,12,125,-1525,1715818565.0,2024-05-16 00:16:05+00:00,2024-05-16 09:16:05+09:00,2024,5,16,0,16,5,0,0.0,16.0,5.0,40.542137,141.520966,27.448,3.0,9.0,-0.132568,-0.376953,1.212891,40.466309,54.992676,29.968262,-519.0,72.0,538.0,191.0,0.0,1021.099976,28.700001,0.080269,-65.114113,3.607031,0.0,1.0,1.0,12.0,0.0,0.0,0.0,3.0,0.0,-0.11913413333333334,-0.14116534666666666,0.9866471333333334,-0.5086263466666677,-0.14078774666666694,0.7291667066666667,-6.940418055580719,4.329268045721377,10.982374075249338,-10.816228042029614,-6.154207929852373,9.11208442166495,15.423849934714571,-2.2731849242744513,14.48980691316834,-2.279405829360919,-0.013433866666666655,-0.23578765333333332,0.22624386666666652,0.4754653866666665,0.32705133150981414,0.5938817095525907,0.6026956541779249,0.6066248748213161
LBP05_S12,LBP05,-1524,127,12,126,-1524,1715818565.04,2024-05-16 00:16:05.040000+00:00,2024-05-16 09:16:05.040000+09:00,2024,5,16,0,16,5,40,,,,,,,,,-0.117676,-0.085693,0.537842,50.109863,84.716797,7.93457,,,,,,,,,,,0.0,1.0,1.0,12.0,0.0,0.0,0.0,3.0,0.0,-0.12461915999999999,-0.13486977333333333,0.9779752666666667,-0.765787800000001,-0.09114581333333358,0.49804692000000017,-0.008941778327403768,7.939959083157013,12.294872073315796,-10.816585713162711,-5.836609566526093,9.603879304597582,15.59804588464649,-2.3173930675645615,14.84463755555402,-2.277656747317475,0.00694315999999999,0.049176773333333326,-0.44013326666666663,0.49625319999999995,0.44292646673340114,0.5989266205563094,0.5948616230019486,0.6090025866150941
LBP05_S12,LBP05,-1523,128,12,127,-1523,1715818565.08,2024-05-16 00:16:05.080000+00:00,2024-05-16 09:16:05.080000+09:00,2024,5,16,0,16,5,80,,,,,,,,,-0.248047,0.266113,0.095703,23.498535,-27.587891,-5.79834,,,,,,,,,,,0.0,1.0,1.0,12.0,0.0,0.0,0.0,3.0,0.0,-0.12299806666666667,-0.13749998666666668,0.9694010533333335,-3.6002604533333344,-2.1329752400000004,0.4199219200000001,5.488716029218844,9.013016881821684,11.900287974337486,-10.597037071993958,-5.476088891253226,10.07989082357108,15.616944107770692,-2.3015630449369153,15.08235453646635,-2.2763686319752905,-0.12504893333333333,0.4036129866666667,-0.8736980533333335,1.4023599733333336,0.9705096429877695,0.6085315665632244,0.6026504622089717,0.6068265059278479
LBP05_S12,LBP05,-1522,129,12,128,-1522,1715818565.12,2024-05-16 00:16:05.120000+00:00,2024-05-16 09:16:05.120000+09:00,2024,5,16,0,16,5,120,,,,,,,,,0.128418,-0.068604,0.574219,-35.705566,-86.364746,0.305176,,,,,,,,,,,0.0,1.0,1.0,12.0,0.0,0.0,0.0,3.0,0.0,-0.11428713333333335,-0.13749673333333334,0.9607519600000001,-0.9326172133333341,-2.494303373333334,0.2872721733333335,8.811762523075467,7.839160096346436,9.75203745228749,-10.244566571070939,-5.162522487399368,10.46997232166258,15.531358700332333,-2.2658036458392137,15.208952386638662,-2.2738245380710707,0.24270513333333335,0.06889273333333334,-0.38653296000000004,0.6981308266666667,0.4615839247838366,0.5948201319163667,0.6050308150832862,0.603268147496226
LBP05_S12,LBP05,-1521,130,12,129,-1521,1715818565.16,2024-05-16 00:16:05.160000+00:00,2024-05-16 09:16:05.160000+09:00,2024,5,16,0,16,5,160,,,,,,,,,0.219971,-0.253906,1.019775,49.926758,3.845215,17.089844,,,,,,,,,,,0.0,1.0,1.0,12.0,0.0,0.0,0.0,3.0,0.0,-0.11064779999999999,-0.1389160133333333,0.9560644533333335,-1.367187533333334,-1.9791666533333334,0.7576497733333336,9.618277450824955,5.005841364056274,6.019046761073459,-9.85983547303794,-4.962288832837117,10.710734192105518,15.380523168924244,-2.245254253220545,15.250273443444744,-2.2733546088566348,0.3306188,-0.11498998666666671,0.06371054666666665,0.5093193333333333,0.35579561788139785,0.5903974130945726,0.596080322145579,0.6024877074834296
LBP05_S12,LBP05,-1520,131,12,130,-1520,1715818565.2,2024-05-16 00:16:05.200000+00:00,2024-05-16 09:16:05.200000+09:00,2024,5,16,0,16,5,200,,,,,,,,,-0.247559,-0.005127,1.36084,-45.837402,19.714355,22.155762,,,,,,,,,,,0.0,1.0,1.0,12.0,0.0,0.0,0.0,3.0,0.0,-0.11225912,-0.13547852000000002,0.9612955733333333,-0.5126953466666673,-1.6267903600000002,0.9497070666666669,7.938973732517345,1.1616593355402405,1.0791976337081755,-9.542276523737247,-4.915822459415507,10.753902097453844,15.194300313919792,-2.2642460823856068,15.247257819337033,-2.2770919572345085,-0.13529987999999998,0.13035152000000003,0.3995444266666668,0.6651958266666668,0.4415125424885688,0.584142127770793,0.5937738852412529,0.6023843768353914
LBP05_S12,LBP05,-1519,132,12,131,-1519,1715818565.24,2024-05-16 00:16:05.240000+00:00,2024-05-16 09:16:05.240000+09:00,2024,5,16,0,16,5,240,,,,,,,,,-0.463623,-0.270996,1.602295,25.939941,-4.760742,-17.944336,,,,,,,,,,,0.0,1.0,1.0,12.0,0.0,0.0,0.0,3.0,0.0,-0.11213217333333335,-0.13365886666666668,0.9743131466666667,0.7373046533333327,-1.4477539066666671,1.074218786666667,4.083440463574544,-3.10262688452042,-4.4981345000288036,-9.378938905194264,-5.039927534796323,10.573976717452693,15.005810480097246,-2.2701870084775213,15.247116951865499,-2.278556534659911,-0.35149082666666664,-0.13733713333333333,0.6279818533333333,1.1168098133333333,0.7326448645414794,0.5809372412189638,0.5989192256118653,0.597993909338203
LBP05_S12,LBP05,-1518,133,12,132,-1518,1715818565.28,2024-05-16 00:16:05.280000+00:00,2024-05-16 09:16:05.280000+09:00,2024,5,16,0,16,5,280,,,,,,,,,-0.241211,-0.068848,1.392822,-36.92627,-13.305664,-13.793945,,,,,,,,,,,0.0,1.0,1.0,12.0,0.0,0.0,0.0,3.0,0.0,-0.11309246666666667,-0.13866537333333334,0.9848697866666665,-0.760904973333334,-0.12207032000000065,1.0139974266666667,-1.4509024874616994,-7.245121661622458,-9.997817690603311,-9.436975004692732,-5.3297324012612215,10.17406400982856,14.86519839034575,-2.256563922204263,15.29255057098926,-2.274933541173504,-0.12811853333333334,0.06981737333333334,0.40795221333333354,0.6058881200000001,0.4332595441143982,0.5626209059075555,0.5984163062821416,0.5905855416685786
LBP05_S12,LBP05,-1517,134,12,133,-1517,1715818565.32,2024-05-16 00:16:05.320000+00:00,2024-05-16 09:16:05.320000+09:00,2024,5,16,0,16,5,320,,,,,,,,,-0.061768,-0.163818,0.74585,-0.183105,71.533203,-8.483887,,,,,,,,,,,0.0,1.0,1.0,12.0,0.0,0.0,0.0,3.0,0.0,-0.11714194666666666,-0.13857097333333332,0.9826562533333333,-0.5590820666666673,0.6282551999999996,0.8894857066666668,-8.02324182253795,-10.713083417413289,-14.640635644121968,-9.757904677594249,-5.758255737957753,9.588438584063681,14.84292313936511,-2.273964514195939,15.412564329097492,-2.2736383273364043,0.05537394666666666,-0.025247026666666672,-0.23680625333333327,0.3174272266666666,0.24450130458286115,0.5493279385075988,0.5862361995451293,0.5854223547071441
LBP05_S12,LBP05,-1516,135,12,134,-1516,1715818565.36,2024-05-16 00:16:05.360000+00:00,2024-05-16 09:16:05.360000+09:00,2024,5,16,0,16,5,360,,,,,,,,,-0.253418,-0.057373,0.17041,0.976562,8.789062,-14.892578,,,,,,,,,,,0.0,1.0,1.0,12.0,0.0,0.0,0.0,3.0,0.0,-0.12096030666666668,-0.13487630666666667,0.9804068933333334,-0.3247070800000006,0.27506509333333307,0.34423830666666677,-14.845803101774306,-12.932429773076217,-17.691978309229285,-10.351736801665222,-6.275552928880802,8.880759451694509,15.013624073254128,-2.3027591092460673,15.61801545990131,-2.275902322296296,-0.1324576933333333,0.07750330666666666,-0.8099968933333335,1.0199578933333333,0.824406920323396,0.5596161547836261,0.5859228141275337,0.5935611499204306
LBP05_S12,LBP05,-1515,136,12,135,-1515,1715818565.4,2024-05-16 00:16:05.400000+00:00,2024-05-16 09:16:05.400000+09:00,2024,5,16,0,16,5,400,,,,,,,,,-0.013184,-0.036377,0.324219,12.939453,-78.125,-23.864746,,,,,,,,,,,0.0,1.0,1.0,12.0,0.0,0.0,0.0,3.0,0.0,-0.11732424,-0.13487630666666667,0.9812630133333332,-2.310384160000001,-0.645345066666667,0.4939778933333334,-20.97427674888516,-13.405368516627636,-18.58046215315379,-11.190707871620628,-6.811767669545907,8.137540965568357,15.422441259999209,-2.287830698528479,15.902558252719022,-2.278977154954066,0.10414024,0.09849930666666668,-0.6570440133333333,0.8596835599999999,0.6724984300786472,0.5485071205137761,0.5890999344333276,0.5952469266863942
LBP05_S12,LBP05,-1514,137,12,136,-1514,1715818565.44,2024-05-16 00:16:05.440000+00:00,2024-05-16 09:16:05.440000+09:00,2024,5,16,0,16,5,440,,,,,,,,,0.32959,-0.052246,0.572754,-6.408691,-86.486816,-16.235352,,,,,,,,,,,0.0,1.0,1.0,12.0,0.0,0.0,0.0,3.0,0.0,-0.11385093333333335,-0.13267253333333334,0.9827278533333333,-4.45231124,-0.8935547066666671,0.6575521200000001,-25.359068909290702,-11.889685020875904,-17.008783093690095,-12.205070627992257,-7.2873550703809435,7.4571896418207535,16.052382075884093,-2.281163132700491,16.24729073574657,-2.2798963276321715,0.44344093333333334,0.08042653333333334,-0.40997385333333336,0.9338413200000001,0.6092510558353896,0.5394557896918598,0.592225992042676,0.5947503693455088
LBP05_S12,LBP05,-1513,138,12,137,-1513,1715818565.48,2024-05-16 00:16:05.480000+00:00,2024-05-16 09:16:05.480000+09:00,2024,5,16,0,16,5,480,,,,,,,,,0.174561,0.116943,0.907715,-19.592285,10.437012,-13.183594,,,,,,,,,,,0.0,1.0,1.0,12.0,0.0,0.0,0.0,3.0,0.0,-0.11445966666666668,-0.13135417333333335,0.98811848,-5.861816453333334,-0.655110706666667,0.5981445733333334,-27.009496500914146,-8.551148654484685,-13.038417033550257,-13.285450488028822,-7.6294010165603305,6.935652960478743,16.81708168885299,-2.288610906565916,16.626443791945047,-2.2812188699872062,0.2890206666666667,0.24829717333333334,-0.08040347999999997,0.61772132,0.38942156031976227,0.5289410878943458,0.5875065970062959,0.5971053895071676
LBP05_S12,LBP05,-1512,139,12,138,-1512,1715818565.52,2024-05-16 00:16:05.520000+00:00,2024-05-16 09:16:05.520000+09:00,2024,5,16,0,16,5,520,,,,,,,,,-0.255371,-0.474854,1.518311,-62.561035,26.306152,-7.751465,,,,,,,,,,,0.0,1.0,1.0,12.0,0.0,0.0,0.0,3.0,0.0,-0.11462244,-0.13158529333333333,0.9911262933333334,-6.5665690533333345,-0.2539062800000004,0.7413737466666667,-25.26400037185556,-3.9723592894027244,-7.128424889591321,-14.296010502903044,-7.788295388136439,6.6505159648950904,17.585870008370527,-2.2884435954381344,17.011747333388847,-2.2851787379655724,-0.14074856000000002,-0.34326870666666665,0.5271847066666666,1.0112019733333333,0.6446450783663046,0.5346311967136004,0.5905934618741313,0.5915533423798295
LBP05_S12,LBP05,-1511,140,12,139,-1511,1715818565.56,2024-05-16 00:16:05.560000+00:00,2024-05-16 09:16:05.560000+09:00,2024,5,16,0,16,5,560,,,,,,,,,-0.294678,-0.246094,1.528076,-40.466309,-6.958008,-13.73291,,,,,,,,,,,0.0,1.0,1.0,12.0,0.0,0.0,0.0,3.0,0.0,-0.11461592000000001,-0.13498373333333333,1.0022330666666666,-3.3862305200000007,-0.32470706666666693,1.0807292133333335,-20.0807333065751,1.014167198063327,-0.10982628375261835,-15.099239835166049,-7.747728700213906,6.6461229135449855,18.225951097101387,-2.2760025797982384,17.37437520520881,-2.281642034369916,-0.18006207999999999,-0.11111026666666668,0.5258429333333334,0.8170152800000001,0.5668144621913495,0.5492897542289926,0.595423970566038,0.5875642004507611
LBP05_S12,LBP05,-1510,141,12,140,-1510,1715818565.6,2024-05-16 00:16:05.600000+00:00,2024-05-16 09:16:05.600000+09:00,2024,5,16,0,16,5,600,,,,,,,,,-0.141357,0.100342,1.406494,-81.90918,22.277832,-14.038086,,,,,,,,,,,0.0,1.0,1.0,12.0,0.0,0.0,0.0,3.0,0.0,-0.11406253333333334,-0.13503581333333334,1.01065104,-2.5268555200000007,0.21891273333333308,1.6137695733333333,-12.209348699213558,5.592803508893293,6.917829126988005,-15.587613783134591,-7.5240165598581745,6.922836078624505,18.641625144195253,-2.2734378091666665,17.685378265087824,-2.2764016529071966,-0.02729446666666667,0.23537781333333335,0.39584295999999997,0.6585152400000001,0.4613451548480388,0.5463952839104498,0.5928318436038513,0.5829223583167785
LBP05_S12,LBP05,-1509,142,12,141,-1509,1715818565.64,2024-05-16 00:16:05.640000+00:00,2024-05-16 09:16:05.640000+09:00,2024,5,16,0,16,5,640,,,,,,,,,-0.232178,-0.574219,0.869873,-78.186035,86.120605,23.498535,,,,,,,,,,,0.0,1.0,1.0,12.0,0.0,0.0,0.0,3.0,0.0,-0.1151628,-0.13357096,1.01125,-2.6627604666666675,0.3361002399999997,1.92220056,-3.1166706728471287,9.204230495065804,12.76860730457782,-15.712280610048476,-7.1558473400555425,7.4335803708076185,18.79734104208203,-2.2834124320278697,17.917064818706997,-2.273864692787232,-0.1170152,-0.44064804,-0.14137699999999997,0.69904024,0.47733710134021806,0.5547690219689025,0.5871713066699843,0.5826863407942009
LBP05_S12,LBP05,-1508,143,12,142,-1508,1715818565.68,2024-05-16 00:16:05.680000+00:00,2024-05-16 09:16:05.680000+09:00,2024,5,16,0,16,5,680,,,,,,,,,-0.306152,-0.551758,0.242188,167.724609,-8.056641,36.92627,,,,,,,,,,,0.0,1.0,1.0,12.0,0.0,0.0,0.0,3.0,0.0,-0.11372398666666667,-0.12848958666666666,1.0123209733333334,-5.122070360000001,0.0911458133333332,1.9401042,5.368354502616785,11.653134074953165,16.407170696317507,-15.497546429943805,-6.689721977057416,8.089867198660318,18.71823380478375,-2.296162601987923,18.047068358688325,-2.2692691161659804,-0.19242801333333331,-0.4232684133333333,-0.7701329733333334,1.3858294,0.899605183764729,0.574892613112508,0.5919446916700352,0.5901560053511226
LBP05_S12,LBP05,-1507,144,12,143,-1507,1715818565.72,2024-05-16 00:16:05.720000+00:00,2024-05-16 09:16:05.720000+09:00,2024,5,16,0,16,5,720,,,,,,,,,0.15332,1.354004,0.616455,156.677246,-72.387695,23.742676,,,,,,,,,,,0.0,1.0,1.0,12.0,0.0,0.0,0.0,3.0,0.0,-0.11428713333333335,-0.14546876000000003,1.01664064,-5.001627653333335,0.4321288799999998,2.167154973333333,11.579903240693282,13.05260735527255,17.18471651810167,-15.034350300316074,-6.1676176828465135,8.777255859384384,18.46920185756473,-2.238597478239375,18.064063142722034,-2.266645612551323,0.26760713333333336,1.49947276,-0.4001856400000001,2.1672655333333335,1.574858940430892,0.6031431805527849,0.614158901684277,0.6036747364490793
LBP05_S12,LBP05,-1506,145,12,144,-1506,1715818565.76,2024-05-16 00:16:05.760000+00:00,2024-05-16 09:16:05.760000+09:00,2024,5,16,0,16,5,760,,,,,,,,,0.518555,-1.320068,1.602051,-231.750488,11.962891,51.086426,,,,,,,,,,,0.0,1.0,1.0,12.0,0.0,0.0,0.0,3.0,0.0,-0.11320966666666665,-0.14058594666666666,1.0180045733333334,-1.869303426666667,0.7763671599999998,2.091471373333333,14.49196941641655,13.662774112170093,14.999415637314968,-14.454671523659412,-5.62110671835971,9.377232484876982,18.123654672044243,-2.2503552946188727,17.97207845892911,-2.26325057112384,0.6317646666666666,-1.1794820533333334,0.5840464266666665,2.395293146666667,1.4599365522809415,0.6271110773924385,0.6226605353494624,0.6123739938948504
LBP05_S12,LBP05,-1505,146,12,145,-1505,1715818565.8,2024-05-16 00:16:05.800000+00:00,2024-05-16 09:16:05.800000+09:00,2024,5,16,0,16,5,800,,,,,,,,,-0.337402,-0.055908,1.655029,159.240723,40.039062,-4.150391,,,,,,,,,,,0.0,1.0,1.0,12.0,0.0,0.0,0.0,3.0,0.0,-0.11398766666666667,-0.13803711999999999,1.0219694133333332,-1.0904948266666674,1.0384114266666666,2.1533203333333333,13.952509358938627,13.735415463472366,10.321965483811203,-13.896571149301867,-5.071690099820815,9.79011110422943,17.739306796190935,-2.2624610973288326,17.79088011578075,-2.257403580537281,-0.22341433333333333,0.08212911999999999,0.6330595866666668,0.9386030400000002,0.6763309818138773,0.6265493632228406,0.6233263126584172,0.6194845656463809
LBP05_S12,LBP05,-1504,147,12,146,-1504,1715818565.84,2024-05-16 00:16:05.840000+00:00,2024-05-16 09:16:05.840000+09:00,2024,5,16,0,16,5,840,,,,,,,,,-0.514404,0.249023,1.659424,-2.868652,-20.507812,-27.709961,,,,,,,,,,,0.0,1.0,1.0,12.0,0.0,0.0,0.0,3.0,0.0,-0.11417321333333334,-0.14635417333333334,1.0228287866666668,-1.615397173333334,1.2052408533333332,2.2989909066666665,10.620587124910221,13.451932539178964,4.075428838589298,-13.471747664305457,-4.533612798253657,9.953128257773002,17.352417475697393,-2.235207366487977,17.55189093240252,-2.2493738819491704,-0.4002307866666666,0.39537717333333333,0.6365952133333332,1.4322031733333331,0.8495653344080063,0.6397462927082809,0.6296370392025238,0.621022552195755
LBP05_S12,LBP05,-1503,148,12,147,-1503,1715818565.88,2024-05-16 00:16:05.880000+00:00,2024-05-16 09:16:05.880000+09:00,2024,5,16,0,16,5,880,,,,,,,,,-0.154297,-0.532715,1.674316,14.770508,55.358887,-18.737793,,,,,,,,,,,0.0,1.0,1.0,12.0,0.0,0.0,0.0,3.0,0.0,-0.11534509333333334,-0.1397168,1.0200130266666665,-2.028808626666667,0.8292642933333334,1.68050132,5.679531143341042,12.958999069488513,-2.5834383820963165,-13.244566418571816,-4.015252835474116,9.84979072248915,16.987029529190103,-2.262375870419341,17.291109239609153,-2.2464016822134854,-0.03895190666666665,-0.3929982000000001,0.6543029733333334,1.08625308,0.7642494469406239,0.6498657495355608,0.6369785008214968,0.6201171763931007
LBP05_S12,LBP05,-1502,149,12,148,-1502,1715818565.92,2024-05-16 00:16:05.920000+00:00,2024-05-16 09:16:05.920000+09:00,2024,5,16,0,16,5,920,,,,,,,,,-0.404053,-0.229004,0.789795,-87.524414,106.628418,1.464844,,,,,,,,,,,0.0,1.0,1.0,12.0,0.0,0.0,0.0,3.0,0.0,-0.11454757333333333,-0.14103190666666665,1.02425456,-3.908691440000001,-0.1912435199999999,1.35335288,0.4464712752197543,12.433202129250795,-8.501812473825566,-13.226707567563025,-3.517924750304084,9.509718223536128,16.666023170441296,-2.2544931811633044,17.04174543220158,-2.2412593820699085,-0.2895054266666667,-0.08797209333333336,-0.2344595599999999,0.6119370799999999,0.38278422975651827,0.6510920510283098,0.633900136555786,0.6186120257632748
LBP05_S12,LBP05,-1501,150,12,149,-1501,1715818565.96,2024-05-16 00:16:05.960000+00:00,2024-05-16 09:16:05.960000+09:00,2024,5,16,0,16,5,960,,,,,,,,,-0.000977,-0.27417,0.255859,-33.569336,-65.612793,10.375977,,,,,,,,,,,0.0,1.0,1.0,12.0,0.0,0.0,0.0,3.0,0.0,-0.11025069333333332,-0.1466504,1.0290299466666666,-4.858398466666667,-0.23518883999999995,1.3777669466666667,-3.993198164810126,12.09150690280105,-12.722236557052346,-13.38643549415543,-3.034264474192042,9.000828761254034,16.413967665617783,-2.2175326739326477,16.829337472385358,-2.240417295290919,0.10927369333333331,-0.12751960000000004,-0.7731709466666665,1.00996424,0.7911986483862928,0.6581613728283406,0.6361763997529933,0.6254999819574801
LBP05_S12,LBP05,-1500,151,12,150,-1500,1715818566.0,2024-05-16 00:16:06+00:00,2024-05-16 09:16:06+09:00,2024,5,16,0,16,6,0,0.0,16.0,6.0,40.542191,141.520752,24.764999,3.0,9.0,0.24585,0.138672,0.755371,23.803711,-56.884766,-12.512207,-522.0,72.0,540.0,213.0,0.0,1021.400024,28.74,0.083242,-67.59491,3.607031,0.0,1.0,1.0,12.0,0.0,0.0,0.0,5.0,0.0,-0.10874028000000001,-0.15235678666666666,1.0363281333333334,-3.103841173333334,0.67057288,1.28499352,-7.0080763662882495,12.114738989511812,-14.607874557686122,-13.66675854880696,-2.5496749146115696,8.41651377894659,16.251733310412938,-2.1931408232855603,16.670662738936564,-2.239742566773775,0.35459028000000004,0.29102878666666665,-0.2809571333333334,0.9265762000000001,0.5379302297789511,0.6665965287591061,0.6302391191558484,0.6239959457049852
LBP05_S12,LBP05,-1499,152,12,151,-1499,1715818566.04,2024-05-16 00:16:06.040000+00:00,2024-05-16 09:16:06.040000+09:00,2024,5,16,0,16,6,40,,,,,,,,,0.075928,-0.419434,1.416992,38.574219,52.062988,-18.615723,,,,,,,,,,,0.0,1.0,1.0,12.0,0.0,0.0,0.0,5.0,0.0,-0.11493818666666668,-0.14173505333333333,1.0443717466666664,-2.3404948266666676,1.4737955333333335,1.03922528,-8.44440482498623,12.53231285506419,-13.91566375307667,-14.00453474180641,-2.048382400409002,7.859887228823522,16.18952411414836,-2.2536904346710154,16.575528447158614,-2.241104517399113,0.19086618666666666,-0.2776989466666666,0.3726202533333336,0.8411853866666669,0.5023867627502229,0.668974940599779,0.6339507805780442,0.6195660622012255
LBP05_S12,LBP05,-1498,153,12,152,-1498,1715818566.08,2024-05-16 00:16:06.080000+00:00,2024-05-16 09:16:06.080000+09:00,2024,5,16,0,16,6,80,,,,,,,,,-0.57959,-0.118164,1.857178,39.367676,23.498535,-31.555176,,,,,,,,,,,0.0,1.0,1.0,12.0,0.0,0.0,0.0,5.0,0.0,-0.11565758666666667,-0.14530601333333332,1.0540332133333334,-4.972330760000001,1.1971028133333335,0.7063802266666667,-8.499279597927588,13.159291676666886,-10.829231649903567,-14.344505925723514,-1.5220107333423267,7.42671796282738,16.224595730708025,-2.2447396005521596,16.549108480719855,-2.2404500569459063,-0.46393241333333335,0.027142013333333312,0.8031447866666666,1.2942192133333332,0.9279070650549671,0.6672708374824668,0.6379012020228456,0.6241905873001368
LBP05_S12,LBP05,-1497,154,12,153,-1497,1715818566.12,2024-05-16 00:16:06.120000+00:00,2024-05-16 09:16:06.120000+09:00,2024,5,16,0,16,6,120,,,,,,,,,-0.395264,-0.438232,1.970459,-85.388184,-26.306152,-17.089844,,,,,,,,,,,0.0,1.0,1.0,12.0,0.0,0.0,0.0,5.0,0.0,-0.11607750666666668,-0.15035809333333333,1.05809896,-4.702962266666669,1.5592447333333335,0.47851563999999996,-7.555017357087146,13.640281182360905,-5.939593444227088,-14.646706620006999,-0.9763994860478905,7.189134225058296,16.345122259402526,-2.230176610449485,16.592992899688433,-2.236261939335832,-0.27918649333333334,-0.2878739066666667,0.91236004,1.4794204400000002,0.9966028932268327,0.6886715962201868,0.6417458640682767,0.632911075462253
LBP05_S12,LBP05,-1496,155,12,154,-1496,1715818566.16,2024-05-16 00:16:06.160000+00:00,2024-05-16 09:16:06.160000+09:00,2024,5,16,0,16,6,160,,,,,,,,,-0.206543,-0.265381,1.827637,2.01416,41.19873,3.479004,,,,,,,,,,,0.0,1.0,1.0,12.0,0.0,0.0,0.0,5.0,0.0,-0.11749678666666666,-0.14798180000000002,1.0550325466666668,-3.9510091333333346,2.9825845733333334,0.7373047066666667,-6.058778147405755,13.578592736756871,-0.1497635662101373,-14.889057745903228,-0.4332557765776156,7.18314368240989,16.536907337556315,-2.2436080094474287,16.70486548801116,-2.233187795718011,-0.08904621333333335,-0.11739919999999995,0.7726044533333332,0.9790498666666665,0.7865300004323701,0.7059009715222255,0.6481491923083991,0.632687205271128
LBP05_S12,LBP05,-1495,156,12,155,-1495,1715818566.2,2024-05-16 00:16:06.200000+00:00,2024-05-16 09:16:06.200000+09:00,2024,5,16,0,16,6,200,,,,,,,,,-0.290527,-0.265137,1.109131,-3.356934,125.488281,9.338379,,,,,,,,,,,0.0,1.0,1.0,12.0,0.0,0.0,0.0,5.0,0.0,-0.12092126666666668,-0.14239261333333333,1.0486100266666667,-3.9656575733333344,2.298177013333333,1.05305992,-4.454849144274294,12.678449252843208,5.502806352342939,-15.0672517116742,0.0738821935361127,7.403255936503608,16.78796387841142,-2.276080603582213,16.878043567753185,-2.2404233150971353,-0.1696057333333333,-0.12274438666666668,0.060520973333333394,0.35287109333333333,0.2179336537823564,0.696957815973977,0.6405499718723849,0.6281685288188276
LBP05_S12,LBP05,-1494,157,12,156,-1494,1715818566.24,2024-05-16 00:16:06.240000+00:00,2024-05-16 09:16:06.240000+09:00,2024,5,16,0,16,6,240,,,,,,,,,-0.381348,0.207031,0.050537,5.065918,-52.91748,13.73291,,,,,,,,,,,0.0,1.0,1.0,12.0,0.0,0.0,0.0,5.0,0.0,-0.11581058666666669,-0.15049482666666666,1.0530891866666667,-2.9239909066666674,1.15315748,0.7991536666666668,-3.131546243165994,10.825233703782809,10.075238385878297,-15.192513561400839,0.5068915416874251,7.806265471938739,17.088217811309804,-2.228662761955909,17.10203909583299,-2.2467651252064744,-0.26553741333333336,0.35752582666666666,-1.0025521866666667,1.6256154266666667,1.09701673715744,0.7115326908786156,0.6462349660487896,0.6364570473674488
LBP05_S12,LBP05,-1493,158,12,157,-1493,1715818566.28,2024-05-16 00:16:06.280000+00:00,2024-05-16 09:16:06.280000+09:00,2024,5,16,0,16,6,280,,,,,,,,,0.456787,-0.450928,1.049561,-28.320312,-103.820801,37.475586,,,,,,,,,,,0.0,1.0,1.0,12.0,0.0,0.0,0.0,5.0,0.0,-0.10995446666666667,-0.14529952000000002,1.06265624,-1.0774739866666676,1.9669595599999998,0.22786460000000006,-2.3581359659394248,8.073041872068872,12.93744991280466,-15.286839000038416,0.82981321657018,8.323763468450926,17.425873718875856,-2.2204946943185995,17.364245754018732,-2.2475084159877294,0.5667414666666667,-0.30562848,-0.013095239999999952,0.8854651866666666,0.6440311662778847,0.719963555765155,0.6412922308363552,0.6389320561098127
LBP05_S12,LBP05,-1492,159,12,158,-1492,1715818566.32,2024-05-16 00:16:06.320000+00:00,2024-05-16 09:16:06.320000+09:00,2024,5,16,0,16,6,320,,,,,,,,,0.014893,0.089844,1.453369,42.96875,49.377441,31.799316,,,,,,,,,,,0.0,1.0,1.0,12.0,0.0,0.0,0.0,5.0,0.0,-0.11484378666666667,-0.150752,1.0802115866666666,-0.7950846533333341,3.98274732,-0.26855466666666666,-2.223402388762847,4.5827513797778465,13.90875722890978,-15.37577509558893,1.013123271761294,8.880113757607317,17.784749053668534,-2.2237517449850968,17.65190772625585,-2.2528509645633843,0.12973678666666666,0.24059599999999998,0.3731574133333333,0.7434901999999999,0.4625629947976992,0.7286860233737484,0.6390069809406735,0.633719474154669
LBP05_S12,LBP05,-1491,160,12,159,-1491,1715818566.36,2024-05-16 00:16:06.360000+00:00,2024-05-16 09:16:06.360000+09:00,2024,5,16,0,16,6,360,,,,,,,,,-0.508789,-0.442139,1.875244,-0.732422,26.489258,13.73291,,,,,,,,,,,0.0,1.0,1.0,12.0,0.0,0.0,0.0,5.0,0.0,-0.12537764,-0.14349938666666667,1.0963248666666665,-2.4096679866666673,4.582519453333333,-0.83577472,-2.60873020926687,0.5940261888575211,13.261382152210865,-15.480124303959604,1.0368843193155948,9.410569043695752,18.14574846303806,-2.2898878677238867,17.953441108445386,-2.2603529083700464,-0.38341136000000003,-0.29863961333333333,0.7789191333333334,1.4609701066666667,0.9180985273388057,0.7324336876543649,0.6460249212189955,0.6347597719698107
LBP05_S12,LBP05,-1490,161,12,160,-1490,1715818566.4,2024-05-16 00:16:06.400000+00:00,2024-05-16 09:16:06.400000+09:00,2024,5,16,0,16,6,400,,,,,,,,,-0.42041,-0.267578,1.936035,-1.098633,-18.920898,-1.281738,,,,,,,,,,,0.0,1.0,1.0,12.0,0.0,0.0,0.0,5.0,0.0,-0.12971682666666667,-0.15906579999999998,1.1134700533333333,-2.5040690266666674,4.89013664,-0.8430989333333333,-3.2263995137304877,-3.5325526327243635,11.583361370471682,-15.609180284508824,0.8955822140066202,9.873903498514618,18.491688591211002,-2.2565589243789494,18.258911919616345,-2.2624495009502246,-0.29069317333333333,-0.1085122,0.8225649466666667,1.22177032,0.8791419169031696,0.7406994271273458,0.6446032738205609,0.639633098664667
LBP05_S12,LBP05,-1489,162,12,161,-1489,1715818566.44,2024-05-16 00:16:06.440000+00:00,2024-05-16 09:16:06.440000+09:00,2024,5,16,0,16,6,440,,,,,,,,,-0.219727,-0.123047,1.663574,-29.541016,45.715332,-18.615723,,,,,,,,,,,0.0,1.0,1.0,12.0,0.0,0.0,0.0,5.0,0.0,-0.13187177333333333,-0.16019536,1.1158398399999998,-1.2898763200000007,6.5624999200000005,-0.3401692533333333,-3.7304864324763805,-7.2595685625843105,9.548731362031852,-15.75839974180788,0.6051994715032478,10.255852752995892,18.811590696005798,-2.2611233424835695,18.560289128667524,-2.259900456304835,-0.08785522666666667,0.037148360000000005,0.5477341600000003,0.672737746666667,0.5559777437400232,0.7385684946435311,0.6390121421676954,0.6410068262429611
LBP05_S12,LBP05,-1488,163,12,162,-1488,1715818566.48,2024-05-16 00:16:06.480000+00:00,2024-05-16 09:16:06.480000+09:00,2024,5,16,0,16,6,480,,,,,,,,,-0.270752,-0.076904,0.496826,27.404785,83.92334,-13.73291,,,,,,,,,,,0.0,1.0,1.0,12.0,0.0,0.0,0.0,5.0,0.0,-0.13750653333333332,-0.15478519999999998,1.10107748,-0.3499349200000008,6.722818933333333,-0.013834626666666737,-3.871020603304421,-9.905642935922245,7.684086124975755,-15.913240565940058,0.20897375406635804,10.563216197994922,19.101215453079185,-2.2981650863087046,18.852174280499888,-2.263220136425077,-0.13324546666666667,0.07788119999999998,-0.6042514800000001,0.8153781466666667,0.6236502920570536,0.7479376439130228,0.6384393659036843,0.6409836126418715
LBP05_S12,LBP05,-1487,164,12,163,-1487,1715818566.52,2024-05-16 00:16:06.520000+00:00,2024-05-16 09:16:06.520000+09:00,2024,5,16,0,16,6,520,,,,,,,,,-0.142578,0.251709,0.02002,-33.203125,-77.819824,14.648438,,,,,,,,,,,0.0,1.0,1.0,12.0,0.0,0.0,0.0,5.0,0.0,-0.1335091466666667,-0.14812178666666667,1.0941796933333334,-0.3963216400000009,4.42220044,0.15543619999999994,-3.6314730899132273,-10.83008759399191,6.222174162602914,-16.058499489536587,-0.22422974969331838,10.812103164499039,19.36045608129789,-2.305196048516109,19.132970317224054,-2.270007974763869,-0.009068853333333321,0.3998307866666667,-1.0741596933333335,1.4830593333333335,1.1461962959498815,0.7679996926163659,0.6513154446649831,0.6497288721215428
LBP05_S12,LBP05,-1486,165,12,164,-1486,1715818566.56,2024-05-16 00:16:06.560000+00:00,2024-05-16 09:16:06.560000+09:00,2024,5,16,0,16,6,560,,,,,,,,,0.255859,-0.240723,0.473877,-121.032715,-141.357422,22.521973,,,,,,,,,,,0.0,1.0,1.0,12.0,0.0,0.0,0.0,5.0,0.0,-0.12734052,-0.15356124,1.1065755199999998,-0.7690429866666676,3.387044186666666,0.5436198,-3.2821708030019106,-9.726658384154497,5.090415854560362,-16.189786321656662,-0.6132960850594983,11.015719798681454,19.59161544926587,-2.264573935249209,19.405649265277358,-2.277806436687333,0.38319952,-0.08716176,-0.6326985199999998,1.1030597999999998,0.7448130381140747,0.7751196356532749,0.6622046949411338,0.655322525595117
LBP05_S12,LBP05,-1485,166,12,165,-1485,1715818566.6,2024-05-16 00:16:06.600000+00:00,2024-05-16 09:16:06.600000+09:00,2024,5,16,0,16,6,600,,,,,,,,,0.331299,-0.12793,0.831543,148.681641,-37.780762,2.807617,,,,,,,,,,,0.0,1.0,1.0,12.0,0.0,0.0,0.0,5.0,0.0,-0.13071292,-0.16228845333333333,1.1279101599999999,0.8154296666666657,4.392089759999999,0.9440104266666667,-3.3042569994122584,-6.868277211676269,4.0192092855135435,-16.321956601633154,-0.888027173526549,11.176488170101996,19.801735968923218,-2.250590157128314,19.677167458972104,-2.2784334927081473,0.46201192,0.034358453333333344,-0.29636715999999985,0.7927375333333332,0.5499718275184746,0.7786647025600922,0.6625299932352711,0.6547761299225983
LBP05_S12,LBP05,-1484,167,12,166,-1484,1715818566.64,2024-05-16 00:16:06.640000+00:00,2024-05-16 09:16:06.640000+09:00,2024,5,16,0,16,6,640,,,,,,,,,-0.082275,0.102783,1.19458,-33.508301,15.991211,9.338379,,,,,,,,,,,0.0,1.0,1.0,12.0,0.0,0.0,0.0,5.0,0.0,-0.13897463999999998,-0.16859378666666666,1.1468424533333332,1.5478515333333323,4.75179028,1.2711588666666664,-4.193642679119669,-3.112662822077291,2.70846636317884,-16.48970230879794,-1.0125336864096406,11.28482682462915,20.007069329633467,-2.2618595631583345,19.956149480264422,-2.280419333985465,0.05669963999999998,0.27137678666666665,0.04773754666666674,0.3758139733333334,0.28131669498877465,0.7708238863060345,0.6627964541374685,0.6483888332153344
LBP05_S12,LBP05,-1483,168,12,167,-1483,1715818566.68,2024-05-16 00:16:06.680000+00:00,2024-05-16 09:16:06.680000+09:00,2024,5,16,0,16,6,680,,,,,,,,,-0.163574,-0.427979,1.652588,-9.70459,51.696777,6.774902,,,,,,,,,,,0.0,1.0,1.0,12.0,0.0,0.0,0.0,5.0,0.0,-0.14522464,-0.16680017333333333,1.1606803466666666,-0.10335289333333454,4.76969392,0.8821614666666668,-6.222365128775841,0.4063259952560748,0.9813870089023459,-16.738596913948975,-0.9962806465993976,11.324082304985243,20.233834086117504,-2.2883730777065185,20.24922833002316,-2.283642622347961,-0.01834936000000001,-0.2611788266666667,0.4919076533333333,0.77143584,0.5572469990222407,0.7571295589163349,0.6660110860144215,0.6470063140854684
LBP05_S12,LBP05,-1482,169,12,168,-1482,1715818566.72,2024-05-16 00:16:06.720000+00:00,2024-05-16 09:16:06.720000+09:00,2024,5,16,0,16,6,720,,,,,,,,,-0.205811,-0.085938,1.443359,21.728516,86.791992,6.958008,,,,,,,,,,,0.0,1.0,1.0,12.0,0.0,0.0,0.0,5.0,0.0,-0.14861330666666664,-0.16608402666666666,1.1576497466666669,0.5086262666666654,6.741536373333333,0.5240885466666666,-9.263736359185568,2.7760250443241405,-1.1261340526993469,-17.1091463683164,-0.885239644826432,11.27903694287727,20.511538534201595,-2.3017363642197344,20.557085221042495,-2.2825653459654967,-0.057197693333333355,0.08014602666666666,0.2857092533333332,0.4230529733333332,0.3021998331458819,0.7062231946249347,0.6546831875888597,0.6448469993311629
LBP05_S12,LBP05,-1481,170,12,169,-1481,1715818566.76,2024-05-16 00:16:06.760000+00:00,2024-05-16 09:16:06.760000+09:00,2024,5,16,0,16,6,760,,,,,,,,,-0.240967,-0.134521,0.761963,-46.203613,80.993652,-0.732422,,,,,,,,,,,0.0,1.0,1.0,12.0,0.0,0.0,0.0,5.0,0.0,-0.14455732,-0.1634049866666667,1.1397558666666667,0.47281898666666544,6.524251213333333,0.6966145866666666,-12.75146225586607,3.726508885898786,-3.3632024883871265,-17.61920485855104,-0.7361792893904806,11.144508843341784,20.860930399985502,-2.2961584279320295,20.87159560872498,-2.2804118727725404,-0.09640968,0.028883986666666694,-0.3777928666666668,0.5030865333333334,0.3909687470728069,0.663464482416609,0.6452877799045238,0.6362618510385113
LBP05_S12,LBP05,-1480,171,12,170,-1480,1715818566.8,2024-05-16 00:16:06.800000+00:00,2024-05-16 09:16:06.800000+09:00,2024,5,16,0,16,6,800,,,,,,,,,-0.254883,-0.078613,0.155518,-14.709473,-21.606445,-10.925293,,,,,,,,,,,0.0,1.0,1.0,12.0,0.0,0.0,0.0,5.0,0.0,-0.138265,-0.16274417333333333,1.1429882933333333,-0.533854186666668,6.366373613333334,0.87483724,-15.77939335951558,3.73635279007098,-5.3431898061184775,-18.250380592931663,-0.5867251777876414,10.930781251097045,21.281508804134194,-2.2764173371521257,21.175225372253344,-2.283800966892626,-0.11661800000000003,0.08413117333333332,-0.9874702933333332,1.1882194666666666,0.997885460594683,0.6763266615678414,0.6514380123953409,0.6409930956282253
LBP05_S12,LBP05,-1479,172,12,171,-1479,1715818566.84,2024-05-16 00:16:06.840000+00:00,2024-05-16 09:16:06.840000+09:00,2024,5,16,0,16,6,840,,,,,,,,,-0.021973,0.038086,0.419189,20.507812,-110.839844,-33.508301,,,,,,,,,,,0.0,1.0,1.0,12.0,0.0,0.0,0.0,5.0,0.0,-0.14638348,-0.16642256,1.1589127733333333,1.9498697599999988,6.278482986666666,0.6380208399999999,-17.30618639885181,3.756867303610871,-6.673621503449051,-18.942628048885734,-0.4364504856432066,10.663836390959084,21.742379193593187,-2.2933562261085285,21.44293053081045,-2.289612797453315,0.12441048000000002,0.20450856,-0.7397237733333333,1.0686428133333332,0.7774914658577344,0.6734437068258307,0.6565949997670557,0.6442392617436261
LBP05_S12,LBP05,-1478,173,12,172,-1478,1715818566.88,2024-05-16 00:16:06.880000+00:00,2024-05-16 09:16:06.880000+09:00,2024,5,16,0,16,6,880,,,,,,,,,0.492432,-0.325684,1.03833,-30.761719,-52.734375,6.835938,,,,,,,,,,,0.0,1.0,1.0,12.0,0.0,0.0,0.0,5.0,0.0,-0.14969077333333333,-0.17228518666666667,1.1860286666666666,1.282552053333332,5.43619784,0.88623048,-16.415999134383185,4.707255828804751,-7.089233323837731,-19.59926801426106,-0.24816025249101656,10.380267058005574,22.179784363272532,-2.287392322484062,21.645944410883097,-2.295641166710579,0.6421227733333333,-0.1533988133333333,-0.14769866666666664,0.9432202533333333,0.676511454522743,0.6699341871291153,0.659899968332338,0.6479637295907029
LBP05_S12,LBP05,-1477,174,12,173,-1477,1715818566.92,2024-05-16 00:16:06.920000+00:00,2024-05-16 09:16:06.920000+09:00,2024,5,16,0,16,6,920,,,,,,,,,-0.018555,-0.149658,1.498535,-42.175293,23.132324,6.530762,,,,,,,,,,,0.0,1.0,1.0,12.0,0.0,0.0,0.0,5.0,0.0,-0.15226889333333332,-0.17660485333333334,1.2087337466666668,1.3566080399999987,6.433919199999999,1.3199869866666665,-12.582785895160239,7.017807820219466,-6.54241409556176,-20.10257945006747,0.032552060317762116,10.118570494183103,22.505559958122767,-2.2836613165865476,21.75652805851943,-2.2952596200515893,0.13371389333333333,0.026946853333333326,0.2898012533333332,0.4504619999999998,0.32029721292652075,0.6674347064559154,0.6592633787421127,0.6450783265224959
LBP05_S12,LBP05,-1476,175,12,174,-1476,1715818566.96,2024-05-16 00:16:06.960000+00:00,2024-05-16 09:16:06.960000+09:00,2024,5,16,0,16,6,960,,,,,,,,,-0.47876,0.142334,1.871338,7.873535,13.000488,-28.625488,,,,,,,,,,,0.0,1.0,1.0,12.0,0.0,0.0,0.0,5.0,0.0,-0.1595800933333333,-0.17955733333333335,1.2201855733333333,1.3663736533333322,9.160969973333334,2.0100911600000004,-5.876221256465731,10.449898635254131,-5.224060512209134,-20.3376283003261,0.4505480057279274,9.909608073694738,22.6279130845495,-2.298464876450064,21.752820443880978,-2.293514983346019,-0.31917990666666674,0.3218913333333333,0.6511524266666666,1.2922236666666667,0.7934036337506539,0.6675229058704899,0.6628421393494152,0.6466252351254922
LBP05_S12,LBP05,-1475,176,12,175,-1475,1715818567.0,2024-05-16 00:16:07+00:00,2024-05-16 09:16:07+09:00,2024,5,16,0,16,7,0,0.0,16.0,7.0,40.542248,141.520523,22.853001,3.0,9.0,-0.271729,0.062012,1.915039,-82.214355,23.498535,-36.376953,-522.0,73.0,538.0,173.0,0.0,1021.400024,28.790001,0.083242,-67.59491,3.607031,0.0,1.0,1.0,12.0,0.0,0.0,0.0,6.0,0.0,-0.16712241333333333,-0.18416670666666665,1.21086916,2.1687825066666657,9.34244784,2.655436213333333,2.960418469308826,14.246105343901279,-3.5090440895736843,-20.219211561553745,1.0203922194839787,9.769246310111791,22.478787554494236,-2.308708462735203,21.622947687190198,-2.2950106534766177,-0.10460658666666667,0.24617870666666664,0.7041698399999998,1.0549551333333331,0.7532606833996773,0.676136124015319,0.6713663263872125,0.6455381207756719
LBP05_S12,LBP05,-1474,177,12,176,-1474,1715818567.04,2024-05-16 00:16:07.040000+00:00,2024-05-16 09:16:07.040000+09:00,2024,5,16,0,16,7,40,,,,,,,,,-0.191406,-0.647461,1.90332,63.842773,88.378906,22.827148,,,,,,,,,,,0.0,1.0,1.0,12.0,0.0,0.0,0.0,6.0,0.0,-0.16247072,-0.17416344,1.19960288,3.907877559999999,7.775878840000001,2.97851564,12.61128135897928,17.487585372150868,-1.8359133461357864,-19.714760307194574,1.7198956343700136,9.69580977626636,22.037208130359936,-2.3221432557309782,21.36761120512398,-2.2999584521172167,-0.02893527999999998,-0.47329755999999995,0.7037171199999999,1.2059499599999999,0.8485668009719248,0.689983325544187,0.6794791330719829,0.6526282955667585
LBP05_S12,LBP05,-1473,178,12,177,-1473,1715818567.08,2024-05-16 00:16:07.080000+00:00,2024-05-16 09:16:07.080000+09:00,2024,5,16,0,16,7,80,,,,,,,,,-0.382568,-0.313232,0.928467,56.70166,115.966797,45.349121,,,,,,,,,,,0.0,1.0,1.0,12.0,0.0,0.0,0.0,6.0,0.0,-0.15404624,-0.17835614666666666,1.1976985866666667,2.887369746666665,8.047688733333333,3.015136733333333,21.461874097079008,19.453566246853228,-0.5509666455351271,-18.856285343311413,2.4980382842441426,9.673771110444955,21.3396705624808,-2.2845576111166173,21.00080490026111,-2.3008336253412045,-0.22852176000000002,-0.13487585333333335,-0.2692315866666667,0.6326292,0.3780202876367131,0.6679878544474569,0.6676293459649619,0.6479300861643826
LBP05_S12,LBP05,-1472,179,12,178,-1472,1715818567.12,2024-05-16 00:16:07.120000+00:00,2024-05-16 09:16:07.120000+09:00,2024,5,16,0,16,7,120,,,,,,,,,-0.154053,0.356934,0.279785,81.604004,-70.373535,6.286621,,,,,,,,,,,0.0,1.0,1.0,12.0,0.0,0.0,0.0,6.0,0.0,-0.15961265333333333,-0.18493818666666664,1.2008073066666667,6.630045533333332,8.601074146666667,3.0053711066666664,27.96827381585739,19.810195616197294,0.22458990930115266,-17.73755439067712,3.2904461088920343,9.682754706817,20.474462387817137,-2.2842899971640307,20.548950503149896,-2.3076586175801728,0.005559653333333331,0.5418721866666666,-0.9210223066666667,1.4684541466666667,1.0686152094209072,0.6708683470952198,0.6797699716577033,0.6514533584105909
LBP05_S12,LBP05,-1471,180,12,179,-1471,1715818567.16,2024-05-16 00:16:07.160000+00:00,2024-05-16 09:16:07.160000+09:00,2024,5,16,0,16,7,160,,,,,,,,,0.358643,0.059082,0.80835,-110.839844,-91.186523,-11.657715,,,,,,,,,,,0.0,1.0,1.0,12.0,0.0,0.0,0.0,6.0,0.0,-0.16422528,-0.18006838666666666,1.2131673333333333,7.805175733333332,6.700032479999999,2.8076171999999997,31.007064824295345,18.578931091922588,0.6370332019778788,-16.497271797705306,4.033603352568938,9.708236034896116,19.562202833077713,-2.3111151292380216,20.048893935971886,-2.312763021687863,0.52286828,0.23915038666666666,-0.40481733333333325,1.166836,0.7031793647712408,0.6675343216687746,0.6867176465955,0.6546109020951909
LBP05_S12,LBP05,-1470,181,12,180,-1470,1715818567.2,2024-05-16 00:16:07.200000+00:00,2024-05-16 09:16:07.200000+09:00,2024,5,16,0,16,7,200,,,,,,,,,0.086182,-0.916504,1.456299,99.79248,54.748535,-10.742188,,,,,,,,,,,0.0,1.0,1.0,12.0,0.0,0.0,0.0,6.0,0.0,-0.1633594,-0.17376956,1.2281119866666668,5.727539013333334,7.003580666666667,2.43408204,30.117142766621694,15.979395268607957,1.0220759878404377,-15.292586087040437,4.6727791633132565,9.749119074409734,18.72814398347196,-2.325895323558113,19.544616806825637,-2.3116854650684897,0.24954139999999997,-0.74273444,0.22818701333333324,1.2204628533333333,0.8160849659992888,0.6914603741574519,0.6942090950657145,0.6575201059674073
LBP05_S12,LBP05,-1469,182,12,181,-1469,1715818567.24,2024-05-16 00:16:07.240000+00:00,2024-05-16 09:16:07.240000+09:00,2024,5,16,0,16,7,240,,,,,,,,,-0.40918,0.299805,1.740234,118.591309,38.696289,-15.869141,,,,,,,,,,,0.0,1.0,1.0,12.0,0.0,0.0,0.0,6.0,0.0,-0.17083661333333333,-0.19084313333333333,1.2249674533333332,2.953287706666666,9.427897066666668,2.3868815199999998,25.595780287351047,12.302707544388827,1.7402948708806378,-14.268754875546396,5.1648874650888095,9.818730869244959,18.074316144964502,-2.302107958348407,19.08202882473841,-2.312405961565167,-0.23834338666666666,0.49064813333333335,0.5152665466666668,1.2442580666666667,0.7503617626352059,0.6775941751765626,0.6945634330275889,0.6566880357580474
LBP05_S12,LBP05,-1468,183,12,182,-1468,1715818567.28,2024-05-16 00:16:07.280000+00:00,2024-05-16 09:16:07.280000+09:00,2024,5,16,0,16,7,280,,,,,,,,,-0.365967,-0.458008,1.915283,-31.311035,-12.145996,-1.708984,,,,,,,,,,,0.0,1.0,1.0,12.0,0.0,0.0,0.0,6.0,0.0,-0.17872398666666667,-0.17892582666666665,1.207819013333333,5.533040306666665,8.413899666666666,1.8310546933333334,18.43394624915949,7.901103681889529,3.002168395045388,-13.531397025580016,5.48093161236439,9.938817605046774,17.66124039216042,-2.355642244873744,18.701817541632636,-2.311567246669159,-0.18724301333333332,-0.2790821733333334,0.707463986666667,1.1737891733333337,0.7832318289911981,0.6831622016850951,0.7015628787251249,0.6552488877859353
