file_name,test_id,_program_index,program_index,session_id,index,_index,unixtime,datetime_utc,datetime_jst,rtc_year,rtc_month,rtc_day,rtc_hour,rtc_min,rtc_sec,rtc_msec,gps_hour,gps_min,gps_sec,latitude,longitude,altitude,fix_type,SIV,acc_x,acc_y,acc_z,gyro_x,gyro_y,gyro_z,mag_x,mag_y,mag_z,illuminance,atmopress,water_pressure,water_temp,depth,alt_wps,battery_level,behavior_class,camera_command,camera_recording,camera_count,play_audio,speaker_on,audio_file,prev_sd_write_time_ms,delay_occurred_counter,acc_x_ma,acc_y_ma,acc_z_ma,gyro_x_ma,gyro_y_ma,gyro_z_ma,gyro_x_lowpass,gyro_y_lowpass,gyro_z_lowpass,angle_x,angle_y,angle_z,combined_angle_change,gravity_adjusted_angle,smoothed_angle_change,smoothed_gravity_angle,acc_x_dy,acc_y_dy,acc_z_dy,ODBA,VeDBA,smoothed_VeDBA_1s,smoothed_VeDBA_2s,smoothed_VeDBA_3s
LBP05_S00,LBP05,-1650,1,0,0,-1650,1715758603.0,2024-05-15 07:36:43+00:00,2024-05-15 16:36:43+09:00,2024,5,15,7,36,43,0,7.0,36.0,42.0,40.558308,141.527023,7.922,3.0,9.0,-0.756104,0.14209,1.645752,124.328613,-14.831543,-2.197266,-559.0,18.0,553.0,196.0,0.0,1025.199951,22.370001,0.120899,-98.96167,4.035937,0.0,1.0,1.0,0.0,0.0,0.0,0.0,3.0,0.0,,,,,,,125.0177276342366,-16.558122287187754,-2.2483504742299196,5.000709105369465,-0.6623248914875102,-0.08993401896919678,5.045181259992248,,8.928979735473998,,,,,,,,,
LBP05_S00,LBP05,-1649,2,0,1,-1649,1715758603.04,2024-05-15 07:36:43.040000+00:00,2024-05-15 16:36:43.040000+09:00,2024,5,15,7,36,43,40,,,,,,,,,-0.011719,-0.126465,1.680908,-35.217285,-18.798828,-39.306641,,,,,,,,,,,0.0,1.0,1.0,0.0,0.0,0.0,0.0,3.0,0.0,,,,,,,78.98844119192574,-8.140346772224447,-11.29993345164719,8.160246753046495,-0.9879387623764881,-0.5419313570350843,8.237678050552216,,9.308963981261163,,,,,,,,,
LBP05_S00,LBP05,-1648,3,0,2,-1648,1715758603.08,2024-05-15 07:36:43.080000+00:00,2024-05-15 16:36:43.080000+09:00,2024,5,15,7,36,43,80,,,,,,,,,-0.705078,0.821533,0.199463,-121.21582,148.376465,-89.660645,,,,,,,,,,,0.0,1.0,1.0,0.0,0.0,0.0,0.0,3.0,0.0,,,,,,,40.44058116180131,0.004907390639662029,-17.92249218379505,9.777869999518547,-0.9877424667509017,-1.2588310443868864,9.907927760456278,,9.68221947590723,,,,,,,,,
LBP05_S00,LBP05,-1647,4,0,3,-1647,1715758603.12,2024-05-15 07:36:43.120000+00:00,2024-05-15 16:36:43.120000+09:00,2024,5,15,7,36,43,120,,,,,,,,,-0.220703,-0.925781,-0.049805,-63.598633,-88.623047,-13.549805,,,,,,,,,,,0.0,1.0,1.0,0.0,0.0,0.0,0.0,3.0,0.0,,,,,,,14.606589980510469,7.517543776464467,-20.352892698814994,10.362133598738966,-0.6870407156923231,-2.072946752339486,10.589756649761542,,10.112293599045005,,,,,,,,,
LBP05_S00,LBP05,-1646,5,0,4,-1646,1715758603.16,2024-05-15 07:36:43.160000+00:00,2024-05-15 16:36:43.160000+09:00,2024,5,15,7,36,43,160,,,,,,,,,0.808105,0.58252,1.00293,77.148438,-9.765625,-13.61084,,,,,,,,,,,0.0,1.0,1.0,0.0,0.0,0.0,0.0,3.0,0.0,,,,,,,3.454710006161187,14.103867909690635,-17.82879692301197,10.500321998985413,-0.12288599930469768,-2.786098629259965,10.864354956607704,,10.628105162683719,,,,,,,,,
LBP05_S00,LBP05,-1645,6,0,5,-1645,1715758603.2,2024-05-15 07:36:43.200000+00:00,2024-05-15 16:36:43.200000+09:00,2024,5,15,7,36,43,200,,,,,,,,,-0.659424,-0.596191,1.514893,-131.652832,98.815918,-22.155762,,,,,,,,,,,0.0,1.0,1.0,0.0,0.0,0.0,0.0,3.0,0.0,,,,,,,5.446953928234123,19.41355637680775,-10.706209002975912,10.718200156114777,0.6536562557676123,-3.2143469893790013,11.208885210196991,,11.223074316588109,,,,,,,,,
LBP05_S00,LBP05,-1644,7,0,6,-1644,1715758603.24,2024-05-15 07:36:43.240000+00:00,2024-05-15 16:36:43.240000+09:00,2024,5,15,7,36,43,240,,,,,,,,,-0.8125,-1.073975,1.744141,113.342285,-96.008301,20.935059,,,,,,,,,,,0.0,1.0,1.0,0.0,0.0,0.0,0.0,3.0,0.0,,,,,,,16.265247127182977,22.919357404930274,-0.3107411684043319,11.368810041202096,1.5704305519648232,-3.2267766361151744,11.921752443783628,,12.540205787357653,,,,,,,,,
LBP05_S00,LBP05,-1643,8,0,7,-1643,1715758603.28,2024-05-15 07:36:43.280000+00:00,2024-05-15 16:36:43.280000+09:00,2024,5,15,7,36,43,280,,,,,,,,,0.123779,-0.983643,1.458252,246.21582,-73.364258,90.942383,,,,,,,,,,,0.0,1.0,1.0,0.0,0.0,0.0,0.0,3.0,0.0,,,,,,,30.166658113692634,23.911252691409953,11.385240250512497,12.5754763657498,2.5268806596212214,-2.7713670260946746,13.122812461009431,,13.641917364248666,,,,,,,,,
LBP05_S00,LBP05,-1642,9,0,8,-1642,1715758603.32,2024-05-15 07:36:43.320000+00:00,2024-05-15 16:36:43.320000+09:00,2024,5,15,7,36,43,320,,,,,,,,,-0.307129,1.360107,0.8396,69.702148,197.753906,-43.151855,,,,,,,,,,,0.0,1.0,1.0,0.0,0.0,0.0,0.0,3.0,0.0,,,,,,,41.48009480377317,21.67016927815745,22.147944357148678,14.234680157900726,3.3936874307475193,-1.8854492518087276,14.75459767179344,,14.585587236277911,,,,,,,,,
LBP05_S00,LBP05,-1641,10,0,9,-1641,1715758603.36,2024-05-15 07:36:43.360000+00:00,2024-05-15 16:36:43.360000+09:00,2024,5,15,7,36,43,360,,,,,,,,,-0.298096,0.355957,0.203125,-98.449707,31.921387,-20.812988,,,,,,,,,,,0.0,1.0,1.0,0.0,0.0,0.0,0.0,3.0,0.0,,,,,,,45.80406023296915,15.787115173074488,29.85359059800631,16.066842567219492,4.025172037670499,-0.691305627888475,16.577796701727614,,15.356145479315154,,,,,,,,,
LBP05_S00,LBP05,-1640,11,0,10,-1640,1715758603.4,2024-05-15 07:36:43.400000+00:00,2024-05-15 16:36:43.400000+09:00,2024,5,15,7,36,43,400,,,,,,,,,0.107666,-1.12915,1.039551,-96.374512,-40.100098,17.272949,,,,,,,,,,,0.0,1.0,1.0,0.0,0.0,0.0,0.0,3.0,0.0,,,,,,,40.691554034657976,6.487803915052178,32.82912553862901,17.69450472860581,4.284684194272586,0.6218593936566852,18.21649596768769,,15.882640075071569,,,,,,,,,
LBP05_S00,LBP05,-1639,12,0,11,-1639,1715758603.44,2024-05-15 07:36:43.440000+00:00,2024-05-15 16:36:43.440000+09:00,2024,5,15,7,36,43,440,,,,,,,,,0.041748,0.15625,1.189697,169.921875,41.748047,83.618164,,,,,,,,,,,0.0,1.0,1.0,0.0,0.0,0.0,0.0,3.0,0.0,,,,,,,25.86925028011567,-5.206373366870631,30.17056095525365,18.72927473981044,4.076429259597761,1.8286818318668312,19.25479381946236,,16.071381145196593,,,,,,,,,
LBP05_S00,LBP05,-1638,13,0,12,-1638,1715758603.48,2024-05-15 07:36:43.480000+00:00,2024-05-15 16:36:43.480000+09:00,2024,5,15,7,36,43,480,,,,,,,,,-0.483398,-0.708984,1.600098,40.649414,-1.037598,87.768555,,,,,,,,,,,0.0,1.0,1.0,0.0,0.0,0.0,0.0,3.0,0.0,,,,,,,3.133335149768139,-17.571768032736212,22.002172933658297,18.854608145801166,3.3735585382883126,2.708768749213163,19.344626480748694,,15.845151061378676,,,,,,,,,
LBP05_S00,LBP05,-1637,14,0,13,-1637,1715758603.52,2024-05-15 07:36:43.520000+00:00,2024-05-15 16:36:43.520000+09:00,2024,5,15,7,36,43,520,,,,,,,,,-0.543701,0.006592,1.517334,124.511719,-102.783203,44.433594,,,,,,,,,,,0.0,1.0,1.0,0.0,0.0,0.0,0.0,3.0,0.0,,,,,,,-24.030463904812592,-28.504714983982307,9.571222817489316,17.893389589608663,2.2333699389290205,3.0916176619127356,18.295339080133996,,15.184495981753766,,,,,,,,,
LBP05_S00,LBP05,-1636,15,0,14,-1636,1715758603.56,2024-05-15 07:36:43.560000+00:00,2024-05-15 16:36:43.560000+09:00,2024,5,15,7,36,43,560,,,,,,,,,-0.146729,0.67627,1.079346,-115.783691,-65.979004,-45.349121,,,,,,,,,,,0.0,1.0,1.0,0.0,0.0,0.0,0.0,3.0,0.0,,,,,,,-51.146088002888725,-35.968759400947704,-4.927591507773945,15.847546069493115,0.7946195628911124,2.894514001601778,16.129300914171843,,14.181283133331018,,,,,,,,,
LBP05_S00,LBP05,-1635,16,0,15,-1635,1715758603.6,2024-05-15 07:36:43.600000+00:00,2024-05-15 16:36:43.600000+09:00,2024,5,15,7,36,43,600,,,,,,,,,-0.176514,-0.552246,0.360107,-247.009277,63.720703,-72.875977,,,,,,,,,,,0.0,1.0,1.0,0.0,0.0,0.0,0.0,3.0,0.0,,,,,,,-73.72629224777361,-38.44132790625506,-18.803826064970973,12.89849437958217,-0.7430335533590902,2.142360959002939,13.096295911447262,,13.014868622326059,,,,,,,,,
LBP05_S00,LBP05,-1634,17,0,16,-1634,1715758603.64,2024-05-15 07:36:43.640000+00:00,2024-05-15 16:36:43.640000+09:00,2024,5,15,7,36,43,640,,,,,,,,,-0.087402,-0.349854,0.019287,-182.556152,-41.870117,-49.865723,,,,,,,,,,,0.0,1.0,1.0,0.0,0.0,0.0,0.0,3.0,0.0,,,,,,,-88.28924525712729,-35.26077644026492,-29.471688046545342,9.366924569297078,-2.153464610969687,0.9634934371411252,9.659451605604435,,11.777355068751978,,,,,,,,,
LBP05_S00,LBP05,-1633,18,0,17,-1633,1715758603.68,2024-05-15 07:36:43.680000+00:00,2024-05-15 16:36:43.680000+09:00,2024,5,15,7,36,43,680,,,,,,,,,0.178223,-0.149414,0.149414,-89.294434,-121.398926,-30.273438,,,,,,,,,,,0.0,1.0,1.0,0.0,0.0,0.0,0.0,3.0,0.0,,,,,,,-93.05546416810343,-26.817865280931507,-35.00543599053509,5.64470600257294,-3.226179222206947,-0.4367240024802783,6.51626166476034,,10.488602281469438,,,,,,,,,
LBP05_S00,LBP05,-1632,19,0,18,-1632,1715758603.72,2024-05-15 07:36:43.720000+00:00,2024-05-15 16:36:43.720000+09:00,2024,5,15,7,36,43,720,,,,,,,,,0.537598,-0.418945,0.678711,21.30127,-70.678711,-29.541016,,,,,,,,,,,0.0,1.0,1.0,0.0,0.0,0.0,0.0,3.0,0.0,,,,,,,-88.08779327155658,-14.549784059855844,-34.49725312217255,2.121194271710677,-3.808170584601181,-1.8166141273671803,4.722469187565961,,9.172596949926257,,,,,,,,,
LBP05_S00,LBP05,-1631,20,0,19,-1631,1715758603.76,2024-05-15 07:36:43.760000+00:00,2024-05-15 16:36:43.760000+09:00,2024,5,15,7,36,43,760,,,,,,,,,-0.025879,-0.018066,1.008545,59.020996,60.913086,-5.67627,,,,,,,,,,,0.0,1.0,1.0,0.0,0.0,0.0,0.0,3.0,0.0,,,,,,,-74.92631266033273,-0.6917449479529854,-28.167817772813937,-0.875858234702632,-3.8358403825193004,-2.943326838279738,4.913651591678028,,7.880084591177149,,,,,,,,,
LBP05_S00,LBP05,-1630,21,0,20,-1630,1715758603.8,2024-05-15 07:36:43.800000+00:00,2024-05-15 16:36:43.800000+09:00,2024,5,15,7,36,43,800,,,,,,,,,-0.455566,0.387451,1.51001,-38.085938,25.024414,-17.883301,,,,,,,,,,,0.0,1.0,1.0,0.0,0.0,0.0,0.0,3.0,0.0,,,,,,,-56.006598639135355,12.211202967376371,-17.267803465566033,-3.116122180268046,-3.3473922638242457,-3.6340389769023793,5.8413604319468755,,6.6867789123011026,,,,,,,,,
LBP05_S00,LBP05,-1629,22,0,21,-1629,1715758603.84,2024-05-15 07:36:43.840000+00:00,2024-05-15 16:36:43.840000+09:00,2024,5,15,7,36,43,840,,,,,,,,,-0.269287,-0.328613,1.672607,-204.833984,30.090332,-2.563477,,,,,,,,,,,0.0,1.0,1.0,0.0,0.0,0.0,0.0,3.0,0.0,,,,,,,-34.15706997783914,21.920841039312023,-3.840832674315204,-4.482404979381612,-2.470558622251765,-3.7876722838749877,6.3672659466369375,,5.68278774443935,,,,,,,,,
LBP05_S00,LBP05,-1628,23,0,22,-1628,1715758603.88,2024-05-15 07:36:43.880000+00:00,2024-05-15 16:36:43.880000+09:00,2024,5,15,7,36,43,880,,,,,,,,,-0.257812,-0.361328,1.145752,-108.154297,126.464844,6.469727,,,,,,,,,,,0.0,1.0,1.0,0.0,0.0,0.0,0.0,3.0,0.0,,,,,,,-12.276255907295146,27.051808486905987,9.597027962837197,-4.973455215673418,-1.3884862827755253,-3.4037911653614996,6.184573165316902,,4.950827104641656,,,,,,,,,
LBP05_S00,LBP05,-1627,24,0,23,-1627,1715758603.92,2024-05-15 07:36:43.920000+00:00,2024-05-15 16:36:43.920000+09:00,2024,5,15,7,36,43,920,,,,,,,,,-0.331055,0.63623,-0.002686,296.508789,58.776855,-39.001465,,,,,,,,,,,0.0,1.0,1.0,0.0,0.0,0.0,0.0,3.0,0.0,,,,,,,6.906119272244677,27.354349363059903,20.437950704782562,-4.697210444783631,-0.29431230825312915,-2.5862731371701972,5.370215492642907,,4.506286299030169,,,,,,,,,
LBP05_S00,LBP05,-1626,25,0,24,-1626,1715758603.96,2024-05-15 07:36:43.960000+00:00,2024-05-15 16:36:43.960000+09:00,2024,5,15,7,36,43,960,,,,,,,,,0.253662,-0.807373,1.005371,-289.489746,-125.427246,22.644043,,,,,,,,,,,0.0,1.0,1.0,0.0,0.0,0.0,0.0,3.0,0.0,,,,,,,21.109009892438984,23.642285549096414,26.416498691461666,-3.852850049086072,0.6513791137107274,-1.5296131895117306,4.196244125411363,,4.225208280035612,,,,,,,,,
LBP05_S00,LBP05,-1625,26,0,25,-1625,1715758604.0,2024-05-15 07:36:44+00:00,2024-05-15 16:36:44+09:00,2024,5,15,7,36,44,0,7.0,36.0,43.0,40.558296,141.527039,7.991,3.0,10.0,-0.038086,0.346191,1.044922,306.396484,75.927734,70.800781,-563.0,36.0,553.0,207.0,0.0,1024.900024,22.370001,0.117926,-96.489326,4.035937,0.0,1.0,1.0,0.0,0.0,0.0,0.0,6.0,0.0,,,,,,,28.836450391936136,17.421734079274337,26.069841013872956,-2.6993920334086265,1.348248476881701,-0.48681954895681234,3.0563842328297497,,3.928536790563025,,,,,,,,,
LBP05_S00,LBP05,-1624,27,0,26,-1624,1715758604.04,2024-05-15 07:36:44.040000+00:00,2024-05-15 16:36:44.040000+09:00,2024,5,15,7,36,44,40,,,,,,,,,-0.546875,0.078369,1.419434,-180.419922,-16.662598,70.251465,,,,,,,,,,,0.0,1.0,1.0,0.0,0.0,0.0,0.0,6.0,0.0,,,,,,,29.690573672072052,10.393917139400273,19.139868695669225,-1.5117690865257445,1.7640051624577118,0.2787751988699567,2.339845207627489,,3.615482633367473,,,,,,,,,
LBP05_S00,LBP05,-1623,28,0,27,-1623,1715758604.08,2024-05-15 07:36:44.080000+00:00,2024-05-15 16:36:44.080000+09:00,2024,5,15,7,36,44,80,,,,,,,,,-0.644043,-0.758057,1.790283,120.239258,-71.899414,23.55957,,,,,,,,,,,0.0,1.0,1.0,0.0,0.0,0.0,0.0,6.0,0.0,,,,,,,24.5661182394057,4.027274312930932,6.779868971994769,-0.5291243569495164,1.9250961349749491,0.5499699577497474,2.070853608645475,,3.386982485443731,,,,,,,,,
LBP05_S00,LBP05,-1622,29,0,28,-1622,1715758604.12,2024-05-15 07:36:44.120000+00:00,2024-05-15 16:36:44.120000+09:00,2024,5,15,7,36,44,120,,,,,,,,,-0.236328,-0.072266,1.008057,54.748535,29.968262,15.014648,,,,,,,,,,,0.0,1.0,1.0,0.0,0.0,0.0,0.0,6.0,0.0,,,,,,,15.648455334456225,-0.6790352257526704,-8.56359102508651,0.09681385642873253,1.8979347259448422,0.20742631674628703,1.9116889976203915,,3.326490793478513,,,,,,,,,
LBP05_S00,LBP05,-1621,30,0,29,-1621,1715758604.16,2024-05-15 07:36:44.160000+00:00,2024-05-15 16:36:44.160000+09:00,2024,5,15,7,36,44,160,,,,,,,,,-0.694336,-0.167725,0.056152,48.522949,118.896484,-39.428711,,,,,,,,,,,0.0,1.0,1.0,0.0,0.0,0.0,0.0,6.0,0.0,,,,,,,6.146132724926896,-3.2285109117426374,-23.633455209405216,0.3426591654258084,1.7687942894751367,-0.7379118916299217,1.946936696952167,,3.4833543838513696,,,,,,,,,
LBP05_S00,LBP05,-1620,31,0,30,-1620,1715758604.2,2024-05-15 07:36:44.200000+00:00,2024-05-15 16:36:44.200000+09:00,2024,5,15,7,36,44,200,,,,,,,,,-0.014648,0.093994,0.275146,9.155273,-53.771973,-71.838379,,,,,,,,,,,0.0,1.0,1.0,0.0,0.0,0.0,0.0,6.0,0.0,,,,,,,-0.28914450144651727,-3.538534350693189,-35.11854015065681,0.3310933853679477,1.6272529154474091,-2.142653497656194,2.710818859991354,,3.885625354850363,,,,,,,,,
LBP05_S00,LBP05,-1619,32,0,31,-1619,1715758604.24,2024-05-15 07:36:44.240000+00:00,2024-05-15 16:36:44.240000+09:00,2024,5,15,7,36,44,240,,,,,,,,,0.433594,-0.488525,0.752197,-7.385254,-41.015625,-73.669434,,,,,,,,,,,0.0,1.0,1.0,0.0,0.0,0.0,0.0,6.0,0.0,,,,,,,-0.4275298609929017,-1.8417238463071137,-40.48374549351055,0.3139921909282316,1.5535839615951246,-3.762003317396616,4.082264467399517,,4.554159335358013,,,,,,,,,
LBP05_S00,LBP05,-1618,33,0,32,-1618,1715758604.28,2024-05-15 07:36:44.280000+00:00,2024-05-15 16:36:44.280000+09:00,2024,5,15,7,36,44,280,,,,,,,,,0.032227,0.559326,1.06958,86.730957,53.955078,-57.006836,,,,,,,,,,,0.0,1.0,1.0,0.0,0.0,0.0,0.0,6.0,0.0,,,,,,,7.5446223376936095,1.3599015881906522,-38.63323986997549,0.615777084435976,1.6079800251227507,-5.307332912195635,5.5796562456647125,,5.497706198847952,,,,,,,,,
LBP05_S00,LBP05,-1617,34,0,33,-1617,1715758604.32,2024-05-15 07:36:44.320000+00:00,2024-05-15 16:36:44.320000+09:00,2024,5,15,7,36,44,320,,,,,,,,,-0.667969,0.150146,1.798096,-191.894531,-33.813477,-61.523438,,,,,,,,,,,0.0,1.0,1.0,0.0,0.0,0.0,0.0,6.0,0.0,,,,,,,23.192444926886683,5.3093715805051245,-30.20400802449626,1.5434748815114432,1.8203548883429557,-6.515493233175485,6.938851396371477,,6.712672163393359,-2.36310006271788,,,,,,,,
LBP05_S00,LBP05,-1616,35,0,34,-1616,1715758604.36,2024-05-15 07:36:44.360000+00:00,2024-05-15 16:36:44.360000+09:00,2024,5,15,7,36,44,360,,,,,,,,,-0.693359,-0.542236,1.921631,-335.449219,-72.753906,-100.891113,,,,,,,,,,,0.0,1.0,1.0,0.0,0.0,0.0,0.0,6.0,0.0,,,,,,,43.53696665047817,9.04515472537357,-17.387555405995567,3.28495354753057,2.1821610773578985,-7.210995449415308,8.218953835401301,,8.18909038397399,-2.342313784938244,,,,,,,,
LBP05_S00,LBP05,-1615,36,0,35,-1615,1715758604.4,2024-05-15 07:36:44.400000+00:00,2024-05-15 16:36:44.400000+09:00,2024,5,15,7,36,44,400,,,,,,,,,-0.229004,-0.829102,1.483643,244.506836,36.987305,84.411621,,,,,,,,,,,0.0,1.0,1.0,0.0,0.0,0.0,0.0,6.0,0.0,,,,,,,63.61800784368801,11.540736081733927,-3.311710471887707,5.82967386127809,2.6437905206272556,-7.343463868290816,9.74172403790624,,9.86634721371145,-2.3400867683965276,,,,,,,,
LBP05_S00,LBP05,-1614,37,0,36,-1614,1715758604.44,2024-05-15 07:36:44.440000+00:00,2024-05-15 16:36:44.440000+09:00,2024,5,15,7,36,44,440,,,,,,,,,-0.572754,-0.585938,0.14209,281.555176,164.794922,110.534668,,,,,,,,,,,0.0,1.0,1.0,0.0,0.0,0.0,0.0,6.0,0.0,,,,,,,77.95005718512752,11.929290370825731,8.842671603072093,8.947676148683191,3.120962135460285,-6.989757004167933,11.775313842526897,,11.606514971310029,-2.330423690266799,,,,,,,,
LBP05_S00,LBP05,-1613,38,0,37,-1613,1715758604.48,2024-05-15 07:36:44.480000+00:00,2024-05-15 16:36:44.480000+09:00,2024,5,15,7,36,44,480,,,,,,,,,-0.111328,-0.192871,0.238037,178.161621,-58.59375,35.583496,,,,,,,,,,,0.0,1.0,1.0,0.0,0.0,0.0,0.0,6.0,0.0,-0.18585605333333333,-0.18321617333333332,0.9755924800000001,0.7967122000000004,2.412923146666666,-0.9847005733333337,82.43094250577026,9.736010051914908,16.70485543480301,12.244913848914003,3.5104025375368813,-6.321562786775813,14.22051325409952,-2.36310006271788,13.283886448221779,-2.330195271429335,0.07452805333333333,-0.009654826666666672,-0.7375554800000002,0.8217383600000001,0.7413742189270208,0.7413742189270208,0.7413742189270208,0.7413742189270208
LBP05_S00,LBP05,-1612,39,0,38,-1612,1715758604.52,2024-05-15 07:36:44.520000+00:00,2024-05-15 16:36:44.520000+09:00,2024,5,15,7,36,44,520,,,,,,,,,0.461182,0.514648,0.728516,414.733887,-14.953613,39.489746,,,,,,,,,,,0.0,1.0,1.0,0.0,0.0,0.0,0.0,6.0,0.0,-0.18224927999999999,-0.19585614666666665,0.9735319333333333,1.159667933333334,2.26318356,-0.2644857200000002,75.89542025091438,5.009122130873671,19.26281977415084,15.280730658950578,3.710767422771828,-5.5510499958097785,16.675871203426723,-2.3215275071586086,14.83912514986099,-2.3271012578874886,0.6434312799999999,0.7105041466666666,-0.24501593333333327,1.5989513599999998,0.9893698813387088,0.8653720501328648,0.8653720501328648,0.8653720501328648
LBP05_S00,LBP05,-1611,40,0,39,-1611,1715758604.56,2024-05-15 07:36:44.560000+00:00,2024-05-15 16:36:44.560000+09:00,2024,5,15,7,36,44,560,,,,,,,,,-0.089355,0.357178,0.839355,-50.65918,-2.807617,-0.061035,,,,,,,,,,,0.0,1.0,1.0,0.0,0.0,0.0,0.0,6.0,0.0,-0.18292635999999998,-0.1909049733333333,0.9606575866666667,4.411621053333334,2.172851533333333,0.5843098533333332,60.55727466573618,-1.7032187122804852,16.930868013674885,17.703021645580026,3.6426386742806085,-4.873815275262783,18.719504994326762,-2.3356327353130935,16.262874094054332,-2.321280029339943,0.09357135999999998,0.5480829733333333,-0.12130258666666671,0.76295692,0.5690912603459845,0.7666117868705714,0.7666117868705714,0.7666117868705714
LBP05_S00,LBP05,-1610,41,0,40,-1610,1715758604.6,2024-05-15 07:36:44.600000+00:00,2024-05-15 16:36:44.600000+09:00,2024,5,15,7,36,44,600,,,,,,,,,-0.147705,0.126465,1.17041,-69.458008,-53.527832,-51.513672,,,,,,,,,,,0.0,1.0,1.0,0.0,0.0,0.0,0.0,6.0,0.0,-0.17265617333333333,-0.19343426666666666,0.97089196,3.2421874533333335,-0.29296878666666704,1.8888345999999998,41.07415561804653,-9.485957751409423,11.174728611799225,19.345987870301887,3.2632003642242315,-4.426826130790814,20.112496435977143,-2.301434455877613,17.55532629796577,-2.317548262315089,0.024951173333333326,0.3198992666666667,0.19951803999999995,0.5443684799999999,0.3778432878191999,0.6694196621077285,0.6694196621077285,0.6694196621077285
LBP05_S00,LBP05,-1609,42,0,41,-1609,1715758604.64,2024-05-15 07:36:44.640000+00:00,2024-05-15 16:36:44.640000+09:00,2024,5,15,7,36,44,640,,,,,,,,,-0.1604,-0.241699,1.495605,-148.376465,-26.977539,-50.537109,,,,,,,,,,,0.0,1.0,1.0,0.0,0.0,0.0,0.0,6.0,0.0,-0.17352206666666664,-0.18344404,0.9890820666666665,0.4288736533333334,1.1051431999999997,2.077636693333333,22.62527500092197,-17.21271981314337,3.9002278872257112,20.250998870338766,2.5746915716984966,-4.270817015301786,20.855979236517005,-2.3292815960794795,18.684277230995043,-2.3202741949761143,0.013122066666666654,-0.058254959999999995,0.5065229333333335,0.5778999600000002,0.5100306961260378,0.6375418689113903,0.6375418689113903,0.6375418689113903
LBP05_S00,LBP05,-1608,43,0,42,-1608,1715758604.68,2024-05-15 07:36:44.680000+00:00,2024-05-15 16:36:44.680000+09:00,2024,5,15,7,36,44,680,,,,,,,,,-0.075195,-0.448486,0.909668,-224.487305,51.635742,-6.835938,,,,,,,,,,,0.0,1.0,1.0,0.0,0.0,0.0,0.0,6.0,0.0,-0.18667636,-0.20480797333333334,0.9949219066666668,-2.810872453333333,1.2394205466666663,2.546386693333333,8.862834035671169,-23.676606921998996,-3.1356353157876273,20.605512231765612,1.6276272948185366,-4.396242427933291,21.13204326205683,-2.3116311901782556,19.577128785369762,-2.315433328768248,0.11148136000000002,-0.24367802666666666,-0.08525390666666677,0.44041329333333346,0.2812033124085473,0.5781521094942498,0.5781521094942498,0.5781521094942498
LBP05_S00,LBP05,-1607,44,0,43,-1607,1715758604.72,2024-05-15 07:36:44.720000+00:00,2024-05-15 16:36:44.720000+09:00,2024,5,15,7,36,44,720,,,,,,,,,-0.292236,-0.456299,0.372803,-60.791016,48.828125,35.15625,,,,,,,,,,,0.0,1.0,1.0,0.0,0.0,0.0,0.0,6.0,0.0,-0.18106112,-0.20942711999999997,0.9935319333333332,0.0634765066666671,0.18147783999999972,3.532714826666666,0.6504452279876833,-27.722933223201743,-8.70127319011141,20.63153004088512,0.5187099658904668,-4.744293355537747,21.176340838304878,-2.286352658054675,20.15479273262249,-2.3038400999923407,-0.11117488,-0.24687188000000004,-0.6207289333333332,0.9787756933333333,0.677207492394234,0.5923028784799619,0.5923028784799619,0.5923028784799619
LBP05_S00,LBP05,-1606,45,0,44,-1606,1715758604.76,2024-05-15 07:36:44.760000+00:00,2024-05-15 16:36:44.760000+09:00,2024,5,15,7,36,44,760,,,,,,,,,0.012939,0.07666,0.149414,52.856445,-65.185547,4.577637,,,,,,,,,,,0.0,1.0,1.0,0.0,0.0,0.0,0.0,6.0,0.0,-0.1719856,-0.19673505333333333,0.9846452133333334,-0.6494141199999997,1.06852212,4.067382786666666,-3.8769368662975285,-28.447633996906447,-12.202784754704002,20.47645256623322,-0.619195393985791,-5.232404745725907,21.143475874515694,-2.2914258931411062,20.37152048827437,-2.3003823034775777,0.1849246,0.27339505333333336,-0.8352312133333335,1.2935508666666669,0.8980830376967203,0.6305253983820567,0.6305253983820567,0.6305253983820567
LBP05_S00,LBP05,-1605,46,0,45,-1605,1715758604.8,2024-05-15 07:36:44.800000+00:00,2024-05-15 16:36:44.800000+09:00,2024,5,15,7,36,44,800,,,,,,,,,0.148438,-0.293701,0.143555,168.701172,-102.905273,-7.141113,,,,,,,,,,,0.0,1.0,1.0,0.0,0.0,0.0,0.0,6.0,0.0,-0.17523754666666666,-0.18042319999999998,0.97796552,-1.91650396,1.6569010266666666,3.3414713199999997,-8.013258523679422,-25.47634216488521,-13.601870527252272,20.155922225286044,-1.6382490805811996,-5.776479566815998,21.03123336819902,-2.3420816562643165,20.234352830628957,-2.294025351046892,0.32367554666666665,-0.11327780000000001,-0.83441052,1.2713638666666667,0.9021300545760993,0.660703693514728,0.660703693514728,0.660703693514728
LBP05_S00,LBP05,-1604,47,0,46,-1604,1715758604.84,2024-05-15 07:36:44.840000+00:00,2024-05-15 16:36:44.840000+09:00,2024,5,15,7,36,44,840,,,,,,,,,0.215332,0.493652,0.324219,172.363281,-88.989258,-32.165527,,,,,,,,,,,0.0,1.0,1.0,0.0,0.0,0.0,0.0,6.0,0.0,-0.17204744,-0.2051009333333333,0.9790234533333332,-2.4015299999999997,-1.3509114666666668,4.101562453333333,-14.586456773565995,-19.225196294741632,-13.251259704825491,19.572463954343405,-2.407256932370865,-6.306529955009017,20.703829386274066,-2.2718655328974466,19.801545493791316,-2.293314053443072,0.38737944,0.6987529333333333,-0.6548044533333333,1.7409368266666665,1.0329992083645645,0.6979332449997118,0.6979332449997118,0.6979332449997118
LBP05_S00,LBP05,-1603,48,0,47,-1603,1715758604.88,2024-05-15 07:36:44.880000+00:00,2024-05-15 16:36:44.880000+09:00,2024,5,15,7,36,44,880,,,,,,,,,0.162842,-0.156494,0.766846,105.285645,-11.108398,-18.554688,,,,,,,,,,,0.0,1.0,1.0,0.0,0.0,0.0,0.0,6.0,0.0,-0.16930979999999998,-0.21266278666666666,0.98785484,-0.9903971866666665,-1.8684896000000004,4.288736933333333,-24.36619174015702,-10.965766770897362,-11.72585636976368,18.597816284737124,-2.8458876032067595,-6.7755642097995645,19.997152726626762,-2.247167774958813,19.16603319732664,-2.2854022968021264,0.3321518,0.056168786666666665,-0.22100883999999998,0.6093294266666667,0.4028953439753196,0.6711116176338578,0.6711116176338578,0.6711116176338578
LBP05_S00,LBP05,-1602,49,0,48,-1602,1715758604.92,2024-05-15 07:36:44.920000+00:00,2024-05-15 16:36:44.920000+09:00,2024,5,15,7,36,44,920,,,,,,,,,-0.197998,0.313477,1.185059,43.273926,3.173828,-2.197266,,,,,,,,,,,0.0,1.0,1.0,0.0,0.0,0.0,0.0,6.0,0.0,-0.17017568,-0.19647789333333332,0.9870019733333332,0.8780924000000001,-1.57307944,3.89078772,-35.50647230711067,-2.5652731501350434,-9.674664194952184,17.177557392452698,-2.948498529212161,-7.162550777597652,18.843148759945546,-2.28694954201098,18.431589733011215,-2.279354089318932,-0.02782232000000001,0.5099548933333333,0.1980570266666669,0.7358342400000003,0.5477724532475456,0.6608333539349985,0.6608333539349985,0.6608333539349985
LBP05_S00,LBP05,-1601,50,0,49,-1601,1715758604.96,2024-05-15 07:36:44.960000+00:00,2024-05-15 16:36:44.960000+09:00,2024,5,15,7,36,44,960,,,,,,,,,-0.014404,-0.273193,1.712158,-313.476562,43.701172,-2.624512,,,,,,,,,,,0.0,1.0,1.0,0.0,0.0,0.0,0.0,6.0,0.0,-0.17272125333333332,-0.2058105733333333,0.9856966399999999,0.13102209333333348,-1.7000325733333337,2.68798824,-44.2596463347543,4.064937868804341,-7.693043554058525,15.407171539062526,-2.7859010144599874,-7.470272519759993,17.34782841787262,-2.272063211006233,17.69294525983882,-2.2760085566057118,0.15831725333333332,-0.06738242666666672,0.7264613600000002,0.9521610400000002,0.746559342383142,0.6674276607387019,0.6674276607387019,0.6674276607387019
LBP05_S00,LBP05,-1600,51,0,50,-1600,1715758605.0,2024-05-15 07:36:45+00:00,2024-05-15 16:36:45+09:00,2024,5,15,7,36,45,0,7.0,36.0,44.0,40.558277,141.527054,8.071,3.0,10.0,-0.335693,-0.017578,1.723145,-96.679688,106.262207,-10.925293,-558.0,19.0,551.0,264.0,0.0,1025.599976,22.4,0.124863,-102.258217,4.035937,0.0,1.0,1.0,0.0,0.0,0.0,0.0,4.0,0.0,-0.16943349333333332,-0.19262698666666667,0.9793978133333333,1.35823564,-1.2654622533333335,1.8668619333333334,-46.61066771646718,7.609849991128579,-6.220188503266372,13.542744830403839,-2.481507014814844,-7.719080059890648,15.784423067600747,-2.2943214798394136,17.02897572468128,-2.2718012984472775,-0.1662595066666667,0.17504898666666666,0.7437471866666666,1.08505568,0.7819490066268079,0.6756077568735667,0.6756077568735667,0.6756077568735667
LBP05_S00,LBP05,-1599,52,0,51,-1599,1715758605.04,2024-05-15 07:36:45.040000+00:00,2024-05-15 16:36:45.040000+09:00,2024,5,15,7,36,45,40,,,,,,,,,-0.438232,-0.422852,0.942383,-184.020996,97.595215,7.080078,,,,,,,,,,,0.0,1.0,1.0,0.0,0.0,0.0,0.0,4.0,0.0,-0.16322581333333333,-0.20363285333333334,0.9757845333333334,0.8471679333333333,0.25797523999999983,1.9750976133333331,-40.07987039970879,7.801970004559823,-5.478848901926415,11.939550014415488,-2.1694282146324513,-7.938234015967705,14.500856271870257,-2.250164029670026,16.505354256262457,-2.264605556818436,-0.27500618666666665,-0.21921914666666667,-0.0334015333333334,0.5276268666666667,0.35327199068029835,0.6541187057940154,0.6541187057940154,0.6541187057940154
LBP05_S00,LBP05,-1598,53,0,52,-1598,1715758605.08,2024-05-15 07:36:45.080000+00:00,2024-05-15 16:36:45.080000+09:00,2024,5,15,7,36,45,80,,,,,,,,,-0.017334,-0.778809,0.148438,-149.291992,-55.969238,22.338867,,,,,,,,,,,0.0,1.0,1.0,0.0,0.0,0.0,0.0,4.0,0.0,-0.16443349333333332,-0.20472986666666665,0.9762695600000001,4.34244788,1.36555988,2.7954101066666666,-24.909876608366105,5.469706194789003,-5.47507369999712,10.943154950080844,-1.9506399668408911,-8.15723696396759,13.78760861890252,-2.25114911534631,16.175644875839765,-2.2672787412671864,0.14709949333333333,-0.5740791333333333,-0.8278315600000001,1.5490101866666668,1.0180914516877686,0.676867002412375,0.676867002412375,0.676867002412375
LBP05_S00,LBP05,-1597,54,0,53,-1597,1715758605.12,2024-05-15 07:36:45.120000+00:00,2024-05-15 16:36:45.120000+09:00,2024,5,15,7,36,45,120,,,,,,,,,0.195068,0.06543,0.323486,144.104004,-113.769531,-27.893066,,,,,,,,,,,0.0,1.0,1.0,0.0,0.0,0.0,0.0,4.0,0.0,-0.16443023999999998,-0.20392909333333334,0.9875456133333333,6.984049440000001,0.49723305333333323,3.9827473466666667,-4.169798097393081,2.1561349109794805,-6.06203328870686,10.776363026185122,-1.864394570401712,-8.399718295515864,13.789896106580974,-2.2528973309224756,16.0765320043434,-2.2722616748010673,0.35949823999999997,0.26935909333333335,-0.6640596133333334,1.2929169466666668,0.8017284301962039,0.684211792282012,0.684211792282012,0.684211792282012
LBP05_S00,LBP05,-1596,55,0,54,-1596,1715758605.16,2024-05-15 07:36:45.160000+00:00,2024-05-15 16:36:45.160000+09:00,2024,5,15,7,36,45,160,,,,,,,,,0.426758,-0.45752,0.851807,13.305664,-54.504395,-26.428223,,,,,,,,,,,0.0,1.0,1.0,0.0,0.0,0.0,0.0,4.0,0.0,-0.16416657333333334,-0.20509445333333332,1.0030501733333332,9.038899693333333,1.1108398266666666,4.852701773333334,17.208256680625457,-0.5006488491464516,-7.045945278483147,11.46469329341014,-1.88442052436757,-8.68155610665519,14.503780522940326,-2.249353311556763,16.220084607136208,-2.2699145378730567,0.5909245733333334,-0.25242554666666667,-0.15124317333333326,0.9945932933333332,0.6601401407724607,0.6828744783092592,0.6828744783092592,0.6828744783092592
LBP05_S00,LBP05,-1595,56,0,55,-1595,1715758605.2,2024-05-15 07:36:45.200000+00:00,2024-05-15 16:36:45.200000+09:00,2024,5,15,7,36,45,200,,,,,,,,,-0.203857,-0.295166,1.172119,237.731934,39.123535,-52.246094,,,,,,,,,,,0.0,1.0,1.0,0.0,0.0,0.0,0.0,4.0,0.0,-0.16845369333333332,-0.20141606666666664,1.0159798666666668,10.034993453333334,2.8426106666666664,5.6070963066666675,34.02418573708009,-1.3232008812433624,-8.28270471963586,12.825660722893343,-1.9373485596173046,-9.012864295440625,15.79501868401075,-2.2701242399758974,16.587429659647817,-2.2696450050657644,-0.03540330666666669,-0.09374993333333334,0.15613913333333307,0.2852923733333331,0.1855313264142281,0.6566985229463628,0.6566985229463628,0.6566985229463628
LBP05_S00,LBP05,-1594,57,0,56,-1594,1715758605.24,2024-05-15 07:36:45.240000+00:00,2024-05-15 16:36:45.240000+09:00,2024,5,15,7,36,45,240,,,,,,,,,-0.258545,0.010986,1.485352,64.147949,-21.118164,0.061035,,,,,,,,,,,0.0,1.0,1.0,0.0,0.0,0.0,0.0,4.0,0.0,-0.17688794666666666,-0.19930994666666668,1.0234050000000001,9.549967399999998,3.9664713466666663,6.572265586666666,42.403816746072266,0.14252908529595176,-9.705143414006653,14.521813392736233,-1.9316473962054665,-9.401070032000892,17.40673558204714,-2.2985973773849495,17.127959171957635,-2.267214064223218,-0.08165705333333337,0.21029594666666668,0.4619469999999999,0.7538999999999999,0.5140887961748556,0.6495680366077874,0.6495680366077874,0.6495680366077874
LBP05_S00,LBP05,-1593,58,0,57,-1593,1715758605.28,2024-05-15 07:36:45.280000+00:00,2024-05-15 16:36:45.280000+09:00,2024,5,15,7,36,45,280,,,,,,,,,0.032715,-0.625488,1.502197,-4.943848,40.527344,36.560059,,,,,,,,,,,0.0,1.0,1.0,0.0,0.0,0.0,0.0,4.0,0.0,-0.17797193333333333,-0.20120773333333333,1.0268522666666666,8.918456986666667,3.4619140533333335,7.164713506666667,40.84088694658068,3.692972688604873,-11.255632437065806,16.15544887059946,-1.7839284886612716,-9.851295329483523,19.006024011663108,-2.296997110297623,17.76715243419741,-2.2657052807031843,0.21068693333333333,-0.42428026666666674,0.4753447333333334,1.1103119333333336,0.6710851988144875,0.650592663379535,0.650592663379535,0.650592663379535
LBP05_S00,LBP05,-1592,59,0,58,-1592,1715758605.32,2024-05-15 07:36:45.320000+00:00,2024-05-15 16:36:45.320000+09:00,2024,5,15,7,36,45,320,,,,,,,,,-0.224609,0.491943,0.582275,139.099121,148.193359,9.521484,,,,,,,,,,,0.0,1.0,1.0,0.0,0.0,0.0,0.0,4.0,0.0,-0.17379550666666665,-0.2108106,1.02230148,8.872884079999999,3.3732096266666667,7.840983040000001,30.421503732316566,8.725492165786628,-12.764628904982551,17.372309019892125,-1.4349088020298064,-10.361880485682825,20.278674787873648,-2.2634781727308764,18.422119637428366,-2.2671542629646737,-0.05081349333333335,0.7027536,-0.4400264800000001,1.1935935733333336,0.830703278264199,0.6587795095106561,0.6587795095106561,0.6587795095106561
LBP05_S00,LBP05,-1591,60,0,59,-1591,1715758605.36,2024-05-15 07:36:45.360000+00:00,2024-05-15 16:36:45.360000+09:00,2024,5,15,7,36,45,360,,,,,,,,,-0.220215,0.203857,-0.44873,-220.947266,-33.447266,-10.192871,,,,,,,,,,,0.0,1.0,1.0,0.0,0.0,0.0,0.0,4.0,0.0,-0.17166985333333334,-0.20563808,1.0149154133333333,11.739908813333331,3.203124986666667,8.201497373333334,14.298370847785431,14.498581189139799,-13.862444929838299,17.944243853803542,-0.8549655544642144,-10.916378282876357,21.021278942988722,-2.269367882933311,19.01756444257692,-2.2675562808902425,-0.04854514666666665,0.40949508,-1.4636454133333334,1.9216856400000002,1.5206251174371672,0.696251057681374,0.696251057681374,0.696251057681374
LBP05_S00,LBP05,-1590,61,0,60,-1590,1715758605.4,2024-05-15 07:36:45.400000+00:00,2024-05-15 16:36:45.400000+09:00,2024,5,15,7,36,45,400,,,,,,,,,0.396973,-0.528809,0.034668,-98.571777,-164.123535,-46.691895,,,,,,,,,,,0.0,1.0,1.0,0.0,0.0,0.0,0.0,4.0,0.0,-0.17046542666666667,-0.2038998,1.0151758266666666,12.92399084,1.5820312266666667,8.470052053333333,-3.284034026361341,20.27201866458866,-13.995830904872122,17.81288249274909,-0.04408480788066793,-11.476211519071242,21.189718190698912,-2.270012071413944,19.49470978601032,-2.2666881495681204,0.5674384266666667,-0.3249092,-0.9805078266666666,1.8728554533333333,1.1785363611094788,0.7163462786575451,0.7163462786575451,0.7163462786575451
LBP05_S00,LBP05,-1589,62,0,61,-1589,1715758605.44,2024-05-15 07:36:45.440000+00:00,2024-05-15 16:36:45.440000+09:00,2024,5,15,7,36,45,440,,,,,,,,,0.143311,0.522949,2.138916,272.277832,130.981445,-53.649902,,,,,,,,,,,0.0,1.0,1.0,0.0,0.0,0.0,0.0,4.0,0.0,-0.16763338666666663,-0.215905,1.0306869066666666,8.62792964,0.8081054533333334,9.224446586666666,-18.058113400420247,25.338820487083137,-12.554212918688599,17.09055795673228,0.9694680116026575,-11.978380035818786,20.89278889426799,-2.235076194469692,19.81595885734368,-2.2636512512921203,0.31094438666666663,0.738854,1.1082290933333334,2.1580274800000003,1.3677585197051165,0.7424027682994478,0.7424027682994478,0.7424027682994478
LBP05_S00,LBP05,-1588,63,0,62,-1588,1715758605.48,2024-05-15 07:36:45.480000+00:00,2024-05-15 16:36:45.480000+09:00,2024,5,15,7,36,45,480,,,,,,,,,-1.56958,0.621094,1.249512,23.925781,75.195312,68.786621,,,,,,,,,,,0.0,1.0,1.0,0.0,0.0,0.0,0.0,4.0,0.0,-0.17265942666666664,-0.20843103999999998,1.0328158133333334,12.303059853333332,2.626139306666667,9.119466119999998,-26.657339914417392,29.046639080046592,-9.050378600839641,16.024264360155584,2.131333574804521,-12.340395179852372,20.33728065121208,-2.2656389379612025,19.971389024653924,-2.2573273554260376,-1.3969205733333334,0.82952504,0.21669618666666657,2.4431418000000003,1.6390412189767545,0.7783094483014372,0.7768888625562673,0.7768888625562673
LBP05_S00,LBP05,-1587,64,0,63,-1587,1715758605.52,2024-05-15 07:36:45.520000+00:00,2024-05-15 16:36:45.520000+09:00,2024,5,15,7,36,45,520,,,,,,,,,-0.205566,-0.84668,2.205811,-231.018066,-56.518555,-34.545898,,,,,,,,,,,0.0,1.0,1.0,0.0,0.0,0.0,0.0,4.0,0.0,-0.17407544,-0.21408533333333332,1.0339193333333334,7.9817708,1.7968749866666667,8.224283826666666,-27.31428649711814,30.873573340895565,-3.291194741034063,14.931692900270859,3.3662765084403437,-12.472042969493735,19.744344158066497,-2.2569175101781678,19.983037328875913,-2.248724260068555,-0.03149056,-0.6325946666666666,1.1718916666666668,1.8359768933333334,1.3321027535693344,0.7920187631906621,0.7974523400011958,0.7974523400011958
LBP05_S00,LBP05,-1586,65,0,64,-1586,1715758605.56,2024-05-15 07:36:45.560000+00:00,2024-05-15 16:36:45.560000+09:00,2024,5,15,7,36,45,560,,,,,,,,,-0.774902,-0.554932,0.543213,-213.256836,128.051758,24.353027,,,,,,,,,,,0.0,1.0,1.0,0.0,0.0,0.0,0.0,4.0,0.0,-0.16972647999999999,-0.21603194666666667,1.03131516,9.875488253333334,2.2094726533333335,7.469075493333333,-20.27522109331001,30.532548889120417,4.499258305840846,14.120684056538458,4.58757846400516,-12.292072637260102,19.27523395727434,-2.2406719983355403,19.898501811999946,-2.2433354580113063,-0.60517552,-0.3389000533333333,-0.48810215999999995,1.4321777333333332,0.8481358232932223,0.8031805457085518,0.7992624644044825,0.7992624644044825
LBP05_S00,LBP05,-1585,66,0,65,-1585,1715758605.6,2024-05-15 07:36:45.600000+00:00,2024-05-15 16:36:45.600000+09:00,2024,5,15,7,36,45,600,,,,,,,,,-0.114014,0.048584,0.193115,90.820312,10.498047,-33.752441,,,,,,,,,,,0.0,1.0,1.0,0.0,0.0,0.0,0.0,4.0,0.0,-0.16417634666666667,-0.20929366666666666,1.0231673733333333,7.8263346,3.37890624,7.25830076,-7.781294151253718,28.036477716309356,13.626949690644812,13.80943229048831,5.709037572657534,-11.74699464963431,19.007509397344347,-2.239755257215899,19.773431418047025,-2.240563738004716,0.05016234666666666,0.25787766666666667,-0.8300523733333333,1.1380923866666666,0.870634305816656,0.82289218642845,0.8017235623842125,0.8017235623842125
LBP05_S00,LBP05,-1584,67,0,66,-1584,1715758605.64,2024-05-15 07:36:45.640000+00:00,2024-05-15 16:36:45.640000+09:00,2024,5,15,7,36,45,640,,,,,,,,,0.2229,0.233887,1.157227,46.508789,-15.625,-27.22168,,,,,,,,,,,0.0,1.0,1.0,0.0,0.0,0.0,0.0,4.0,0.0,-0.16422842666666665,-0.21134118666666665,1.0241797333333333,6.148274706666666,2.99153644,7.308756493333334,6.521870856858361,23.68277645504956,22.980834501979846,14.070307124762644,6.656348630859517,-10.827761269555117,18.961037255149563,-2.2353584187241182,19.65118084668152,-2.235801450630747,0.38712842666666664,0.44522818666666664,0.13304726666666666,0.96540388,0.6048124768086122,0.8266834576557529,0.7951598595316925,0.7951598595316925
LBP05_S00,LBP05,-1583,68,0,67,-1583,1715758605.68,2024-05-15 07:36:45.680000+00:00,2024-05-15 16:36:45.680000+09:00,2024,5,15,7,36,45,680,,,,,,,,,-0.559082,-0.849609,1.871094,11.047363,46.691895,37.414551,,,,,,,,,,,0.0,1.0,1.0,0.0,0.0,0.0,0.0,4.0,0.0,-0.15713533333333332,-0.2129394933333333,1.0386165866666666,4.820963506666667,1.2768554533333334,8.001302066666668,18.657186105513837,17.964665483979495,31.229614419642594,14.816594568983199,7.374935250218697,-9.578576692769413,19.122507053883027,-2.210966156722799,19.548500029034265,-2.231593930853559,-0.4019466666666667,-0.6366695066666667,0.8324774133333335,1.8710935866666667,1.1224650672844028,0.8603339278507872,0.8057180920398445,0.8057180920398445
LBP05_S00,LBP05,-1582,69,0,68,-1582,1715758605.72,2024-05-15 07:36:45.720000+00:00,2024-05-15 16:36:45.720000+09:00,2024,5,15,7,36,45,720,,,,,,,,,-0.976807,0.0354,1.820312,205.810547,-37.719727,80.383301,,,,,,,,,,,0.0,1.0,1.0,0.0,0.0,0.0,0.0,4.0,0.0,-0.15935864,-0.21662113333333333,1.0479460266666667,3.578287733333334,1.68945312,9.130045560000001,25.508623726735404,11.454127755888626,37.15309030188281,15.836939518052615,7.833100360454242,-8.092453080694101,19.43331961911398,-2.209590152158385,19.451194014673362,-2.2228054115394187,-0.81744836,0.2520211333333333,0.7723659733333332,1.8418354666666665,1.1525127633464431,0.8793461386888757,0.8165554255181757,0.8165554255181757
LBP05_S00,LBP05,-1581,70,0,69,-1581,1715758605.76,2024-05-15 07:36:45.760000+00:00,2024-05-15 16:36:45.760000+09:00,2024,5,15,7,36,45,760,,,,,,,,,-0.145752,-2.69873,1.909912,120.727539,-4.150391,145.935059,,,,,,,,,,,0.0,1.0,1.0,0.0,0.0,0.0,0.0,4.0,0.0,-0.16697257333333332,-0.21196293333333333,1.0515235066666666,3.47737628,1.98404948,10.387369786666666,25.66912715027386,4.7101343092559445,40.010393616295445,16.86370460406357,8.02150573282448,-6.492037336042284,19.770575003459506,-2.24165068286741,19.319298335653013,-2.2162488550932906,0.021220573333333326,-2.4867670666666664,0.8583884933333334,3.366376133333333,2.6308347652556217,0.9486562077912316,0.8715335873284014,0.8715335873284014
LBP05_S00,LBP05,-1580,71,0,70,-1580,1715758605.8,2024-05-15 07:36:45.800000+00:00,2024-05-15 16:36:45.800000+09:00,2024,5,15,7,36,45,800,,,,,,,,,-0.251465,-0.505127,0.724121,106.323242,76.965332,34.484863,,,,,,,,,,,0.0,1.0,1.0,0.0,0.0,0.0,0.0,4.0,0.0,-0.16846346666666667,-0.22293949333333335,1.0512305333333334,2.097981746666667,1.0408528666666665,11.600748693333333,19.608360402786936,-1.7610094411635178,39.78345361887142,17.648039020175048,7.951065355177939,-4.900699191287426,19.96721247704389,-2.222389197674257,19.09879787724815,-2.2101745288701773,-0.08300153333333332,-0.28218750666666664,-0.32710953333333337,0.6922985733333333,0.43990872945644716,0.9301673547864456,0.8588387385674615,0.8588387385674615
LBP05_S00,LBP05,-1579,72,0,71,-1579,1715758605.84,2024-05-15 07:36:45.840000+00:00,2024-05-15 16:36:45.840000+09:00,2024,5,15,7,36,45,840,,,,,,,,,-0.191895,1.773682,-0.459229,-275.32959,-4.943848,-25.146484,,,,,,,,,,,0.0,1.0,1.0,0.0,0.0,0.0,0.0,4.0,0.0,-0.1612076,-0.22734703999999997,1.0411849599999998,5.1733398133333335,1.41682944,12.704264319999998,9.124821464503837,-7.5108805999313875,37.16625318496503,18.0130318787552,7.650630131180684,-3.4140490638888252,19.86598071779546,-2.1930009966978075,18.735473002301706,-2.204572073230921,-0.030687400000000004,2.00102904,-1.50041396,3.5321304000000002,2.5012598799015193,0.9888977816479237,0.9057650568912917,0.9057650568912917
LBP05_S00,LBP05,-1578,73,0,72,-1578,1715758605.88,2024-05-15 07:36:45.880000+00:00,2024-05-15 16:36:45.880000+09:00,2024,5,15,7,36,45,880,,,,,,,,,0.213135,-3.275635,1.589111,-285.766602,-88.378906,-11.108398,,,,,,,,,,,0.0,1.0,1.0,0.0,0.0,0.0,0.0,4.0,0.0,-0.15355786666666668,-0.22382490666666668,1.0299968133333333,9.580891906666666,2.4243164133333335,14.249674466666669,-3.5923327651724506,-12.162416846673112,33.29976882610002,17.8693385681483,7.164133457313759,-2.0820583108448245,19.364220507603005,-2.1777537448198054,18.187804746794573,-2.198724358200418,0.3666928666666667,-3.051810093333333,0.5591141866666667,3.9776171466666663,3.1241986457277897,1.0977499137180227,0.96738821213675,0.96738821213675
LBP05_S00,LBP05,-1577,74,0,73,-1577,1715758605.92,2024-05-15 07:36:45.920000+00:00,2024-05-15 16:36:45.920000+09:00,2024,5,15,7,36,45,920,,,,,,,,,-0.18457,0.961182,1.189209,104.736328,36.315918,22.644043,,,,,,,,,,,0.0,1.0,1.0,0.0,0.0,0.0,0.0,4.0,0.0,-0.15125642666666667,-0.2138672133333333,1.0241081333333333,6.3444010266666675,2.0491536533333337,13.153483066666666,-16.745197863913646,-15.455070074147356,29.38765374861636,17.199530653591754,6.545930654347865,-0.9065521609001701,18.425387367863024,-2.191351945716885,17.43972923849508,-2.1936767838525317,-0.033313573333333346,1.1750492133333332,0.16510086666666668,1.3734636533333333,1.1870588629455596,1.123321370105943,0.9733252567532044,0.9733252567532044
LBP05_S00,LBP05,-1576,75,0,74,-1576,1715758605.96,2024-05-15 07:36:45.960000+00:00,2024-05-15 16:36:45.960000+09:00,2024,5,15,7,36,45,960,,,,,,,,,-0.441162,-1.051758,1.710693,13.244629,-31.005859,46.386719,,,,,,,,,,,0.0,1.0,1.0,0.0,0.0,0.0,0.0,4.0,0.0,-0.14579093333333334,-0.21119468,1.03679368,2.1883137866666678,-0.07486978666666663,11.569824213333334,-29.127006147396457,-17.302771705695886,26.36556790169542,16.034450407695896,5.853819786120029,0.14807055516764667,17.07022937322569,-2.1799287361044106,16.513725521803906,-2.1888354884614913,-0.2953710666666667,-0.84056332,0.6738993200000001,1.8098337066666668,1.1171083454391026,1.1381433302281816,0.9771090222449385,0.9771090222449385
LBP05_S00,LBP05,-1575,76,0,75,-1575,1715758606.0,2024-05-15 07:36:46+00:00,2024-05-15 16:36:46+09:00,2024,5,15,7,36,46,0,7.0,36.0,45.0,40.558247,141.527069,7.521,3.0,10.0,-0.485596,-0.805908,1.491211,151.550293,-26.062012,51.818848,-562.0,21.0,548.0,261.0,0.0,1024.900024,22.459999,0.117926,-96.489326,4.035937,0.0,1.0,1.0,0.0,0.0,0.0,0.0,3.0,0.0,-0.14603182666666667,-0.20973309333333334,1.0472656933333333,-1.2532552266666652,0.6486002666666667,10.863444,-39.745404736004225,-17.826217872663914,24.724737434713525,14.444634218255727,5.140771071213472,1.1370600525561878,15.374260647879906,-2.1837307008233333,15.476226172194782,-2.180414809476237,-0.33956417333333333,-0.5961749066666666,0.44394530666666676,1.3796843866666668,0.8171999647955936,1.1395533685549328,0.9730087900026476,0.9730087900026476
LBP05_S00,LBP05,-1574,77,0,76,-1574,1715758606.04,2024-05-15 07:36:46.040000+00:00,2024-05-15 16:36:46.040000+09:00,2024,5,15,7,36,46,40,,,,,,,,,-0.0625,0.244873,0.715332,208.679199,-25.57373,24.353027,,,,,,,,,,,0.0,1.0,1.0,0.0,0.0,0.0,0.0,3.0,0.0,-0.15333326666666666,-0.22381837333333332,1.0507715466666667,-7.004394546666666,0.7218424533333334,10.213216133333333,-47.300213974902604,-17.333557008267324,24.487272212259793,12.552625659259622,4.447428790882779,2.1165509410465795,13.484354700078208,-2.1768812684190912,14.424256128939572,-2.173406452507714,0.09083326666666666,0.4686913733333333,-0.33543954666666675,0.8949641866666668,0.5834740570396962,1.148761451209309,0.9632704216785738,0.9632704216785738
LBP05_S00,LBP05,-1573,78,0,77,-1573,1715758606.08,2024-05-15 07:36:46.080000+00:00,2024-05-15 16:36:46.080000+09:00,2024,5,15,7,36,46,80,,,,,,,,,0.065186,0.631836,0.967041,-208.92334,-36.560059,8.178711,,,,,,,,,,,0.0,1.0,1.0,0.0,0.0,0.0,0.0,3.0,0.0,-0.15253899999999998,-0.23099285333333333,1.0510254533333334,-5.997721359999998,0.4451497466666666,10.266927066666668,-50.038468627013536,-16.243120970821405,25.278291982829845,10.55108691417908,3.7977039520499227,3.1276826203597734,11.64175197088811,-2.1604904132439287,13.46372124143915,-2.169355512417646,0.21772499999999997,0.8628288533333333,-0.08398445333333338,1.1645383066666666,0.8938295106849032,1.1437909735691942,0.9615767409226306,0.9615767409226306
LBP05_S00,LBP05,-1572,79,0,78,-1572,1715758606.12,2024-05-15 07:36:46.120000+00:00,2024-05-15 16:36:46.120000+09:00,2024,5,15,7,36,46,120,,,,,,,,,-0.285645,-0.176514,1.314453,-274.597168,16.235352,0.610352,,,,,,,,,,,0.0,1.0,1.0,0.0,0.0,0.0,0.0,3.0,0.0,-0.15167962666666665,-0.22932944000000002,1.0459050133333334,-5.650227866666665,0.9611002666666667,11.103515613333334,-46.20622015943203,-14.959181423545965,26.451763241839167,8.7028381078018,3.199336695108084,4.1857531500333405,10.173282452202256,-2.161177198247984,12.7013478779018,-2.167020452799081,-0.13396537333333333,0.05281544000000002,0.2685479866666667,0.45532880000000003,0.3047198928482569,1.1239106320752763,0.945937292158955,0.945937292158955
LBP05_S00,LBP05,-1571,80,0,79,-1571,1715758606.16,2024-05-15 07:36:46.160000+00:00,2024-05-15 16:36:46.160000+09:00,2024,5,15,7,36,46,160,,,,,,,,,-0.178467,-1.019775,1.440918,-165.83252,0.305176,21.54541,,,,,,,,,,,0.0,1.0,1.0,0.0,0.0,0.0,0.0,3.0,0.0,-0.14979812,-0.22838869333333334,1.0369662133333335,-6.215820306666664,1.0416666666666667,12.058919253333334,-34.85287450607051,-13.735665731534796,27.259295617984407,7.308723127558979,2.6499100658466923,5.276124974752717,9.395581507368263,-2.157443893014866,12.24519436509235,-2.1645139697685996,-0.02866887999999998,-0.7913863066666668,0.4039517866666664,1.2240069733333332,0.8889832602536191,1.1330643568545227,0.9446127797890636,0.9446127797890636
LBP05_S00,LBP05,-1570,81,0,80,-1570,1715758606.2,2024-05-15 07:36:46.200000+00:00,2024-05-15 16:36:46.200000+09:00,2024,5,15,7,36,46,200,,,,,,,,,-0.238281,-0.942627,1.410645,83.92334,19.470215,51.818848,,,,,,,,,,,0.0,1.0,1.0,0.0,0.0,0.0,0.0,3.0,0.0,-0.14876947999999998,-0.22943687999999998,1.0390462933333333,-3.575032546666665,0.4532877599999999,12.328287746666666,-16.474369734022517,-12.5855007170181,27.056208853937004,6.649748338198078,2.146490037165968,6.358373328910197,9.447512044491788,-2.152305627989027,12.197593894921349,-2.162860578079503,-0.08951152000000001,-0.71319012,0.3715987066666666,1.1743003466666666,0.8091588584911272,1.1580094581375986,0.9415342815777468,0.9415342815777468
LBP05_S00,LBP05,-1569,82,0,81,-1569,1715758606.24,2024-05-15 07:36:46.240000+00:00,2024-05-15 16:36:46.240000+09:00,2024,5,15,7,36,46,240,,,,,,,,,-0.131836,-0.12207,1.077637,59.875488,-29.47998,61.035156,,,,,,,,,,,0.0,1.0,1.0,0.0,0.0,0.0,0.0,3.0,0.0,-0.14582352,-0.22462242666666668,1.04855476,-3.123372386666665,0.007324213333333205,12.09798176,6.894383742390914,-11.289358030932169,25.50771698137758,6.9255236878937145,1.6949157159286814,7.378682008165301,10.260631842791227,-2.1524915957971285,12.639169668773656,-2.1626823605104644,0.013987520000000003,0.10255242666666668,0.029082239999999926,0.1456221866666666,0.10751012796192759,1.1417463114090816,0.9230004114973953,0.9230004114973953
LBP05_S00,LBP05,-1568,83,0,82,-1568,1715758606.28,2024-05-15 07:36:46.280000+00:00,2024-05-15 16:36:46.280000+09:00,2024,5,15,7,36,46,280,,,,,,,,,-0.120117,0.239746,0.957275,151.184082,-29.23584,36.499023,,,,,,,,,,,0.0,1.0,1.0,0.0,0.0,0.0,0.0,3.0,0.0,-0.14787754666666666,-0.22680666666666668,1.0616602266666666,-3.592122386666665,1.1555989599999998,12.266438786666667,32.14725973660066,-9.514999999204933,22.722906487099934,8.211414077357741,1.3143157159604841,8.287598267649297,11.7404868722295,-2.1544031486341555,13.611085379154606,-2.1612862368234365,0.027760546666666663,0.46655266666666667,-0.10438522666666661,0.5986984399999999,0.47889280039614435,1.1340586154723478,0.9133458982125855,0.9133458982125855
LBP05_S00,LBP05,-1567,84,0,83,-1567,1715758606.32,2024-05-15 07:36:46.320000+00:00,2024-05-15 16:36:46.320000+09:00,2024,5,15,7,36,46,320,,,,,,,,,-0.067871,-0.490723,0.918945,33.325195,-27.832031,13.85498,,,,,,,,,,,0.0,1.0,1.0,0.0,0.0,0.0,0.0,3.0,0.0,-0.15135737333333335,-0.22605146666666665,1.0745606133333334,-6.479492173333332,2.6985677066666667,12.408854146666668,55.839628042462266,-6.9981006179013825,19.247706484164457,10.444999199056232,1.0343916912444289,9.057506527015876,13.863852239768573,-2.166287115412068,15.100886758731335,-2.1631735586881127,0.08348637333333335,-0.2646715333333334,-0.1556156133333334,0.5037735200000002,0.31817795995712844,1.113557602740065,0.9006827505901289,0.9006827505901289
LBP05_S00,LBP05,-1566,85,0,84,-1566,1715758606.36,2024-05-15 07:36:46.360000+00:00,2024-05-15 16:36:46.360000+09:00,2024,5,15,7,36,46,360,,,,,,,,,-0.092773,-0.211182,0.865479,7.385254,-6.896973,-6.774902,,,,,,,,,,,0.0,1.0,1.0,0.0,0.0,0.0,0.0,3.0,0.0,-0.15740554666666667,-0.2367871333333333,1.0867578800000002,-8.560384093333333,4.140625,12.761230439999999,74.85933839527236,-3.6977904401801003,15.902111238922744,13.439372734867126,0.8864800736372249,9.693590976572786,16.59422467151566,-2.1633948192134467,17.036157886947127,-2.163527201512353,0.06463254666666668,0.02560513333333328,-0.22127888000000018,0.31151656000000016,0.2319425180420595,1.0620102987642606,0.8867506624120441,0.8867506624120441
LBP05_S00,LBP05,-1565,86,0,85,-1565,1715758606.4,2024-05-15 07:36:46.400000+00:00,2024-05-15 16:36:46.400000+09:00,2024,5,15,7,36,46,400,,,,,,,,,0.042725,0.084717,0.975586,43.762207,-17.944336,-12.573242,,,,,,,,,,,0.0,1.0,1.0,0.0,0.0,0.0,0.0,3.0,0.0,-0.16344721333333334,-0.23603844,1.09281256,-10.569661439999999,4.382324213333333,12.787272119999999,86.88173940822392,0.14873444987782006,13.520628066606012,16.914642311196083,0.8924294516323377,10.234416099237027,19.79001838640297,-2.1819485251329467,19.293311855243406,-2.163816111562352,0.20617221333333335,0.32075544,-0.11722656000000009,0.6441542133333334,0.3989149034691393,1.030825440458647,0.8767948305968829,0.8767948305968829
LBP05_S00,LBP05,-1564,87,0,86,-1564,1715758606.44,2024-05-15 07:36:46.440000+00:00,2024-05-15 16:36:46.440000+09:00,2024,5,15,7,36,46,440,,,,,,,,,-0.14917,-0.543701,1.091797,113.891602,32.226562,-6.591797,,,,,,,,,,,0.0,1.0,1.0,0.0,0.0,0.0,0.0,3.0,0.0,-0.16450190666666667,-0.24797854666666666,1.09415044,-11.830240866666665,4.31640624,12.571614573333333,90.63133032504791,4.096619042812641,12.700454708651263,20.539895524198,1.0562942133448434,10.742434287583077,23.20351180388769,-2.1629200315488113,21.726279267299354,-2.167442572683698,0.015331906666666673,-0.29572245333333336,-0.00235344000000004,0.31340780000000007,0.2961289844769581,0.9879602590495208,0.8651815136744844,0.8651815136744844
LBP05_S00,LBP05,-1563,88,0,87,-1563,1715758606.48,2024-05-15 07:36:46.480000+00:00,2024-05-15 16:36:46.480000+09:00,2024,5,15,7,36,46,480,,,,,,,,,-0.236816,0.279785,1.127686,132.69043,31.555176,26.184082,,,,,,,,,,,0.0,1.0,1.0,0.0,0.0,0.0,0.0,3.0,0.0,-0.16776362666666667,-0.24387048000000003,1.0859408133333333,-7.907714826666667,3.6848958266666667,12.181803373333334,86.01972155146385,7.651686457535902,13.65129039548331,23.980684386256552,1.3623616716462794,11.288485903402409,26.53976576665541,-2.1793636318906935,24.198337972534723,-2.1706492553262082,-0.06905237333333333,0.5236554800000001,0.04174518666666671,0.6344530400000001,0.5298357789040217,0.9435920414466115,0.8609507448740242,0.8586061071103576
LBP05_S00,LBP05,-1562,89,0,88,-1562,1715758606.52,2024-05-15 07:36:46.520000+00:00,2024-05-15 16:36:46.520000+09:00,2024,5,15,7,36,46,520,,,,,,,,,-0.078125,-0.818848,1.246338,86.181641,11.474609,52.55127,,,,,,,,,,,0.0,1.0,1.0,0.0,0.0,0.0,0.0,3.0,0.0,-0.16570633333333334,-0.24892908,1.0791048666666667,-7.118326799999998,2.1614583333333335,12.091471346666665,74.1633849028644,10.440153298525221,16.182899521388578,26.94721978237113,1.7799678035872883,11.935801884257952,29.525993734360185,-2.164713626490384,26.59314909176097,-2.177004617883541,0.08758133333333334,-0.56991892,0.16723313333333323,0.8247333866666666,0.600370707319149,0.914322759596604,0.8531707613936331,0.8536400417297574
LBP05_S00,LBP05,-1561,90,0,89,-1561,1715758606.56,2024-05-15 07:36:46.560000+00:00,2024-05-15 16:36:46.560000+09:00,2024,5,15,7,36,46,560,,,,,,,,,-0.237305,0.593994,1.115723,146.362305,17.089844,16.174316,,,,,,,,,,,0.0,1.0,1.0,0.0,0.0,0.0,0.0,3.0,0.0,-0.16335282666666665,-0.24773116,1.0816048666666667,-5.085449199999999,0.8504231733333333,11.807454426666666,57.216162796982005,12.314165574183804,19.799612754215982,29.235866294250407,2.2725344265546403,12.727786394426591,31.96712119033107,-2.1603329935148556,28.81151782483844,-2.1832066457439363,-0.07395217333333334,0.84172516,0.034118133333333356,0.9497954666666667,0.8456560860893158,0.9142235701084478,0.8587020579084998,0.8534894010572962
LBP05_S00,LBP05,-1560,91,0,90,-1560,1715758606.6,2024-05-15 07:36:46.600000+00:00,2024-05-15 16:36:46.600000+09:00,2024,5,15,7,36,46,600,,,,,,,,,-0.17627,-0.492188,1.205811,-48.88916,-1.403809,16.174316,,,,,,,,,,,0.0,1.0,1.0,0.0,0.0,0.0,0.0,3.0,0.0,-0.16514644,-0.23506839999999996,1.09242192,-2.994791653333332,1.5413411333333333,11.408691413333335,37.96736255279677,13.356711499292969,23.83709397183341,30.754560796362277,2.8068028865263592,13.681270153299927,33.77718616505128,-2.188570239202496,30.771785582427764,-2.1891166144253194,-0.011123560000000005,-0.25711960000000006,0.11338907999999992,0.38163223999999996,0.2812317651946167,0.8906474684835662,0.856769827456008,0.8428920374302096
LBP05_S00,LBP05,-1559,92,0,91,-1559,1715758606.64,2024-05-15 07:36:46.640000+00:00,2024-05-15 16:36:46.640000+09:00,2024,5,15,7,36,46,640,,,,,,,,,-0.067627,-0.437256,1.182129,-28.442383,4.150391,15.380859,,,,,,,,,,,0.0,1.0,1.0,0.0,0.0,0.0,0.0,3.0,0.0,-0.17000646666666666,-0.24426110666666664,1.1037956266666666,-5.443522119999999,3.1306966,11.554361986666668,19.25497516978183,13.801585113369924,27.590698798467304,31.52475980315355,3.3588662910611564,14.78489810523862,34.981218895144885,-2.1845584222222274,32.415943045119604,-2.195178272169156,0.10237946666666665,-0.19299489333333333,0.07833337333333334,0.37370773333333335,0.23208770201256937,0.8757384774917244,0.8512109675737388,0.8317865040589798
LBP05_S00,LBP05,-1558,93,0,92,-1558,1715758606.68,2024-05-15 07:36:46.680000+00:00,2024-05-15 16:36:46.680000+09:00,2024,5,15,7,36,46,680,,,,,,,,,-0.143311,0.126465,1.119141,-14.587402,8.483887,26.306152,,,,,,,,,,,0.0,1.0,1.0,0.0,0.0,0.0,0.0,3.0,0.0,-0.17871414666666666,-0.23883141333333333,1.1058138533333335,-4.635416653333332,3.946126293333333,11.868489600000002,3.354131264520607,13.918491092788589,30.421706192831387,31.658925053734375,3.9156059347727,16.001766352951876,35.68859806449197,-2.2179567742074826,33.71467327500882,-2.2010693240924026,0.03540314666666666,0.3652964133333333,0.013327146666666456,0.4140267066666664,0.36724986756481454,0.845529869502941,0.852931898676864,0.8234912069787269
LBP05_S00,LBP05,-1557,94,0,93,-1557,1715758606.72,2024-05-15 07:36:46.720000+00:00,2024-05-15 16:36:46.720000+09:00,2024,5,15,7,36,46,720,,,,,,,,,-0.094971,-0.260986,1.235596,-15.075684,13.61084,42.84668,,,,,,,,,,,0.0,1.0,1.0,0.0,0.0,0.0,0.0,3.0,0.0,-0.1774902,-0.23191734666666666,1.1024675066666667,-8.282877599999999,3.23486328,12.632649760000001,-8.461066305068625,13.915796192390776,31.84962184042378,31.32048240153163,4.472237782468331,17.275751226568826,36.047539570543286,-2.2283073940160203,34.667508809426316,-2.2050523240595927,0.08251919999999999,-0.029068653333333333,0.1331284933333332,0.24471634666666653,0.15930348619053147,0.8058014984167045,0.8425738185527901,0.811838790824548
LBP05_S00,LBP05,-1556,95,0,94,-1556,1715758606.76,2024-05-15 07:36:46.760000+00:00,2024-05-15 16:36:46.760000+09:00,2024,5,15,7,36,46,760,,,,,,,,,-0.107178,-0.1604,1.26709,11.657715,23.071289,38.757324,,,,,,,,,,,0.0,1.0,1.0,0.0,0.0,0.0,0.0,3.0,0.0,-0.1764615466666667,-0.23348309333333334,1.0980241466666667,-10.202636706666665,3.45458984,12.768554706666665,-16.051305025576116,13.890704339464664,31.63225465433336,30.678430200508586,5.027865956046917,18.54104141274216,36.196902247408865,-2.2224945060272794,35.29838545472941,-2.2137502586417197,0.0692835466666667,0.07308309333333335,0.16906585333333335,0.3114324933333334,0.1967856984976527,0.7084395357463857,0.8285478717688086,0.8012344271637394
LBP05_S00,LBP05,-1555,96,0,95,-1555,1715758606.8,2024-05-15 07:36:46.800000+00:00,2024-05-15 16:36:46.800000+09:00,2024,5,15,7,36,46,800,,,,,,,,,-0.142334,-0.332764,1.168701,-41.503906,18.371582,32.836914,,,,,,,,,,,0.0,1.0,1.0,0.0,0.0,0.0,0.0,3.0,0.0,-0.18014644,-0.22837242666666663,1.0927669866666665,-11.708984359999999,3.009440093333333,12.260742200000001,-20.234168480420376,13.82695740987083,29.817431167666275,29.86906346129177,5.580944252441751,19.73373865944881,36.23159301332143,-2.2425651025713074,35.6482841511739,-2.221251140424803,0.03781244,-0.10439157333333338,0.0759340133333335,0.21813802666666687,0.1345115444215447,0.6962236483449896,0.8131955015657176,0.7899340393206514
LBP05_S00,LBP05,-1554,97,0,96,-1554,1715758606.84,2024-05-15 07:36:46.840000+00:00,2024-05-15 16:36:46.840000+09:00,2024,5,15,7,36,46,840,,,,,,,,,-0.109863,0.059326,1.118652,10.192871,17.333984,24.475098,,,,,,,,,,,0.0,1.0,1.0,0.0,0.0,0.0,0.0,3.0,0.0,-0.18123367999999998,-0.24026044,1.0997591733333334,-12.375488266666666,1.42171224,12.044270853333334,-22.38868048656096,13.620995097539613,26.743756788315707,28.97351624182933,6.125784056343335,20.803488930981437,36.190814102779804,-2.221830550781283,35.766893110482826,-2.21992636876705,0.07137067999999998,0.29958644,0.018892826666666585,0.38984994666666656,0.308549425368113,0.6085152301636534,0.7987065059057886,0.7819109624214424
LBP05_S00,LBP05,-1553,98,0,97,-1553,1715758606.88,2024-05-15 07:36:46.880000+00:00,2024-05-15 16:36:46.880000+09:00,2024,5,15,7,36,46,880,,,,,,,,,-0.16748,-0.230957,1.165283,-19.348145,4.882812,26.611328,,,,,,,,,,,0.0,1.0,1.0,0.0,0.0,0.0,0.0,3.0,0.0,-0.18235346666666666,-0.24306968000000004,1.1214909333333332,-9.627278626666666,2.238769533333333,12.21110028,-23.977699666568228,13.116631024724489,22.97919457989616,28.0144082551666,6.650449297332314,21.722656714177283,36.06812111083035,-2.219193631562594,35.70521529593548,-2.2171901783245684,0.014873466666666668,0.012112680000000042,0.04379206666666691,0.07077821333333362,0.04780880808391529,0.48545963665789843,0.7916047751879605,0.7698765008749257
LBP05_S00,LBP05,-1552,99,0,98,-1552,1715758606.92,2024-05-15 07:36:46.920000+00:00,2024-05-15 16:36:46.920000+09:00,2024,5,15,7,36,46,920,,,,,,,,,-0.118652,-0.26416,1.160645,-25.695801,0.732422,17.578125,,,,,,,,,,,0.0,1.0,1.0,0.0,0.0,0.0,0.0,3.0,0.0,-0.19068680000000002,-0.23712891999999997,1.1361133333333333,-7.380371079999998,4.444986973333334,12.844238306666666,-26.116832797628252,12.140817113010351,19.20562969369126,26.96973494326147,7.136081981852729,22.490881901924933,35.83476018739119,-2.2516929723116483,35.5105754901149,-2.2104898220072835,0.07203480000000002,-0.02703108000000004,0.02453166666666662,0.12359754666666668,0.08075576986476475,0.4412075129346666,0.7822644415203049,0.7587616503747617
LBP05_S00,LBP05,-1551,100,0,99,-1551,1715758606.96,2024-05-15 07:36:46.960000+00:00,2024-05-15 16:36:46.960000+09:00,2024,5,15,7,36,46,960,,,,,,,,,-0.123291,-0.246826,1.165039,-13.85498,10.925293,14.770508,,,,,,,,,,,0.0,1.0,1.0,0.0,0.0,0.0,0.0,3.0,0.0,-0.19399084,-0.24999024,1.12079432,-11.176757799999999,2.3600260399999997,13.549804706666666,-29.28719409533019,10.545478371068974,16.07332981334451,25.798247179448264,7.557901116695488,23.133815094458715,35.466108154775924,-2.235341811345692,35.224418820804004,-2.2025586013383154,0.07069984,0.0031642400000000126,0.044244680000000036,0.11810876000000005,0.08346299478874217,0.39986169890865214,0.7690025145684168,0.7480426240956185
LBP05_S00,LBP05,-1550,101,0,100,-1550,1715758607.0,2024-05-15 07:36:47+00:00,2024-05-15 16:36:47+09:00,2024,5,15,7,36,47,0,7.0,36.0,46.0,40.558231,141.5271,7.685,3.0,10.0,-0.144287,-0.077881,1.127686,-17.700195,13.73291,3.662109,-553.0,0.0,541.0,159.0,0.0,1025.300049,22.530001,0.121891,-99.786659,4.035937,1.0,1.0,1.0,0.0,0.0,0.0,0.0,4.0,0.0,-0.17333654666666665,-0.2543066533333333,1.1155111066666665,-12.31689452,0.8707682399999999,12.955729186666666,-33.24769778765316,8.260241083910607,14.057345961902895,24.468339267942138,7.888310760051913,23.69610893293483,34.963275758140625,-2.175322522624963,34.88212468762492,-2.195703562130722,0.029049546666666648,0.1764256533333333,0.012174893333333436,0.21765009333333338,0.1792152765344249,0.37434231137820545,0.7569478399665692,0.7391546967899749
LBP05_S00,LBP05,-1549,102,0,101,-1549,1715758607.04,2024-05-15 07:36:47.040000+00:00,2024-05-15 16:36:47.040000+09:00,2024,5,15,7,36,47,40,,,,,,,,,-0.220703,-0.067627,1.224121,-38.391113,14.282227,13.61084,,,,,,,,,,,1.0,1.0,1.0,0.0,0.0,0.0,0.0,4.0,0.0,-0.1694791333333333,-0.25902670666666666,1.0996745066666667,-8.954264319999998,1.4827474133333332,13.962402359999999,-37.15824347440125,5.346833377879753,13.349205551090467,22.98200952896609,8.102184095167102,24.23007715497845,34.36444074967139,-2.1571965177974137,34.513528703903205,-2.1874303003089697,-0.0512238666666667,0.19139970666666667,0.12444649333333335,0.36707006666666675,0.2339757721032968,0.36036237998074944,0.7545619155950292,0.7313827133332568
LBP05_S00,LBP05,-1548,103,0,102,-1548,1715758607.08,2024-05-15 07:36:47.080000+00:00,2024-05-15 16:36:47.080000+09:00,2024,5,15,7,36,47,80,,,,,,,,,-0.227783,-0.252686,1.179199,-33.447266,15.808105,7.751465,,,,,,,,,,,1.0,1.0,1.0,0.0,0.0,0.0,0.0,4.0,0.0,-0.16062172000000002,-0.2486132933333333,1.1013932533333333,-2.650553386666666,0.39143881333333297,13.9770508,-39.88068049684812,2.0298751085108426,13.811380159340835,21.386782309092162,8.183379099507535,24.782532361352082,33.742200006286154,-2.150953211034636,34.14320594380543,-2.1769603366673866,-0.06716127999999999,-0.004072706666666731,0.07780574666666684,0.14903973333333356,0.10286378704475471,0.3287237510351435,0.7362573623021689,0.7218596992985824
LBP05_S00,LBP05,-1547,104,0,103,-1547,1715758607.12,2024-05-15 07:36:47.120000+00:00,2024-05-15 16:36:47.120000+09:00,2024,5,15,7,36,47,120,,,,,,,,,-0.240234,-0.22583,1.083984,-71.105957,0.915527,18.798828,,,,,,,,,,,1.0,1.0,1.0,0.0,0.0,0.0,0.0,4.0,0.0,-0.15982744,-0.24842124,1.1075976799999998,-1.1718749999999996,0.6770833466666663,14.46126304,-40.380435354882415,-1.3238599238602915,15.008501118917945,19.771564894896866,8.130424702553123,25.3828724061088,33.18597287743428,-2.1489951873263387,33.79030043281978,-2.172811126577358,-0.08040656000000002,0.022591239999999985,-0.023613679999999748,0.12661147999999975,0.08679392201596602,0.3200067122018519,0.7219586721385641,0.7123811056077972
LBP05_S00,LBP05,-1546,105,0,104,-1546,1715758607.16,2024-05-15 07:36:47.160000+00:00,2024-05-15 16:36:47.160000+09:00,2024,5,15,7,36,47,160,,,,,,,,,-0.162354,-0.287598,1.138916,-51.025391,-9.70459,12.512207,,,,,,,,,,,1.0,1.0,1.0,0.0,0.0,0.0,0.0,4.0,0.0,-0.16332026666666669,-0.2512044533333333,1.0987304933333333,-2.3819986933333324,0.7690429866666663,14.619140653333334,-38.1160587807823,-4.2882230138025905,16.311392558785464,18.246922543665573,7.9588957820010195,26.035328108460217,32.773960915618105,-2.1539441139513453,33.46811325290381,-2.16379559862865,0.0009662666666666875,-0.03639354666666672,0.04018550666666676,0.07754532000000017,0.05422452264710754,0.28661636269759144,0.709840359776057,0.7027023323289635
LBP05_S00,LBP05,-1545,106,0,105,-1545,1715758607.2,2024-05-15 07:36:47.200000+00:00,2024-05-15 16:36:47.200000+09:00,2024,5,15,7,36,47,200,,,,,,,,,-0.181396,-0.182129,0.974854,-84.04541,-22.827148,12.817383,,,,,,,,,,,1.0,1.0,1.0,0.0,0.0,0.0,0.0,4.0,0.0,-0.15554032,-0.23584638666666663,1.0791178533333334,-3.789062493333333,0.1831054799999996,13.887532573333331,-33.29317597901038,-6.5024702884380545,17.053417169774125,16.915195504505157,7.698796970463498,26.717464795251182,32.54563317610422,-2.159832484353782,33.18369800319125,-2.150895081028444,-0.025855679999999992,0.05371738666666662,-0.10426385333333343,0.18383692000000004,0.12010422528151721,0.25905417736920705,0.7085318177534028,0.6942588815021888
LBP05_S00,LBP05,-1544,107,0,106,-1544,1715758607.24,2024-05-15 07:36:47.240000+00:00,2024-05-15 16:36:47.240000+09:00,2024,5,15,7,36,47,240,,,,,,,,,-0.137451,-0.13916,1.020508,-14.953613,-18.920898,20.629883,,,,,,,,,,,1.0,1.0,1.0,0.0,0.0,0.0,0.0,4.0,0.0,-0.14325516,-0.23934898666666668,1.05927736,-7.9915364533333335,0.6095377733333329,12.655436213333333,-26.88832812295817,-7.790771968358054,16.70660360540321,15.83966237958683,7.387166091729176,27.38572893946731,32.48758650180202,-2.117130914365452,32.93771141673153,-2.1523718931935467,0.005804160000000003,0.10018898666666667,-0.038769360000000086,0.14476250666666676,0.10758524339986744,0.2590571819867246,0.700401746697903,0.6858778295292985
LBP05_S00,LBP05,-1543,108,0,107,-1543,1715758607.28,2024-05-15 07:36:47.280000+00:00,2024-05-15 16:36:47.280000+09:00,2024,5,15,7,36,47,280,,,,,,,,,-0.07959,-0.263916,1.047607,-16.723633,-16.784668,33.996582,,,,,,,,,,,1.0,1.0,1.0,0.0,0.0,0.0,0.0,4.0,0.0,-0.14131505333333336,-0.20558597333333334,1.03816408,-9.62727864,0.11067710666666632,10.633951826666667,-20.418643474226307,-8.222292174078211,15.036861557460716,15.022916640617778,7.058274404766047,27.98720340176574,32.539066000973875,-2.17770153066231,32.724904833061245,-2.152062160173375,0.06172505333333336,-0.058330026666666646,0.00944291999999991,0.12949799999999992,0.0854490664551889,0.24331943262908642,0.6886890240507171,0.6774210863874097
LBP05_S00,LBP05,-1542,109,0,108,-1542,1715758607.32,2024-05-15 07:36:47.320000+00:00,2024-05-15 16:36:47.320000+09:00,2024,5,15,7,36,47,320,,,,,,,,,-0.123779,-0.18042,1.044678,38.757324,-5.615234,21.240234,,,,,,,,,,,1.0,1.0,1.0,0.0,0.0,0.0,0.0,4.0,0.0,-0.13566401333333333,-0.20443688,1.0389909066666667,-11.5633138,-1.3216145600000002,10.10823568,-15.525117321890205,-8.078132505183062,12.19384507449566,14.40191194774217,6.735149104558725,28.474957204745568,32.61288838823155,-2.1615376928245675,32.53574128072573,-2.1541502213609593,0.011885013333333333,0.02401687999999999,0.005687093333333282,0.041588986666666605,0.02739355941548952,0.23168805660742084,0.6726228296737431,0.6683929262905776
LBP05_S00,LBP05,-1541,110,0,109,-1541,1715758607.36,2024-05-15 07:36:47.360000+00:00,2024-05-15 16:36:47.360000+09:00,2024,5,15,7,36,47,360,,,,,,,,,-0.119629,-0.278076,1.08252,-4.882812,2.807617,15.014648,,,,,,,,,,,1.0,1.0,1.0,0.0,0.0,0.0,0.0,4.0,0.0,-0.13280918666666666,-0.22715824000000004,1.0542090133333333,-7.048339840000001,-1.3395182000000003,10.260416666666666,-13.510392034912401,-7.731038734608434,8.698162162964222,13.861496266345673,6.425907555174388,28.82288369126414,32.621955657650304,-2.1063366353436344,32.3593797022471,-2.1558584361063318,0.013180186666666663,-0.05091775999999995,0.02831098666666665,0.09240893333333326,0.05973146214538825,0.224799614371554,0.6434049565679074,0.660055098014616
LBP05_S00,LBP05,-1540,111,0,110,-1540,1715758607.4,2024-05-15 07:36:47.400000+00:00,2024-05-15 16:36:47.400000+09:00,2024,5,15,7,36,47,400,,,,,,,,,-0.056396,-0.082275,1.041992,1.77002,8.850098,2.197266,,,,,,,,,,,1.0,1.0,1.0,0.0,0.0,0.0,0.0,4.0,0.0,-0.13441726666666665,-0.19009444,1.04452152,-2.6578776,-0.47281898666666716,10.474446613333333,-14.986942417317177,-7.483870407916352,5.3135175529751155,13.262018569652986,6.126552738857733,29.035424393383142,32.50340989354339,-2.190090644275988,32.18751724848827,-2.1558415911868654,0.07802126666666664,0.10781944,-0.002529519999999952,0.18837022666666658,0.1331117882293492,0.2141674897619624,0.6224964651103048,0.6529342424769773
LBP05_S00,LBP05,-1539,112,0,111,-1539,1715758607.44,2024-05-15 07:36:47.440000+00:00,2024-05-15 16:36:47.440000+09:00,2024,5,15,7,36,47,440,,,,,,,,,-0.162842,-0.385498,1.093506,-30.151367,5.493164,-8.239746,,,,,,,,,,,1.0,1.0,1.0,0.0,0.0,0.0,0.0,4.0,0.0,-0.1321842,-0.2024382,1.0405924800000002,-3.42529296,-0.9456380000000003,10.029296866666668,-19.73912221820468,-7.434444578199446,2.8300780549738485,12.472453680924799,5.829174955729756,29.148627515582096,32.2363749129686,-2.1540991875956954,32.01761747044365,-2.1540077078291193,-0.030657799999999985,-0.1830598,0.052913519999999936,0.2666311199999999,0.19300422709275147,0.21004249946659415,0.5990013792580574,0.6468018422718542
LBP05_S00,LBP05,-1538,113,0,112,-1538,1715758607.48,2024-05-15 07:36:47.480000+00:00,2024-05-15 16:36:47.480000+09:00,2024,5,15,7,36,47,480,,,,,,,,,-0.129395,-0.083252,1.023438,-79.956055,-4.333496,-17.39502,,,,,,,,,,,1.0,1.0,1.0,0.0,0.0,0.0,0.0,4.0,0.0,-0.12748693333333333,-0.1875618933333333,1.0291601866666666,-3.851725253333333,-0.5973307066666672,9.167480453333335,-26.81304278195865,-7.4268235410204735,1.821724000869743,11.399931969646453,5.532102014088937,29.221496475616885,31.850564482930977,-2.1718338229104783,31.853789611843762,-2.1564561274884886,-0.0019080666666666801,0.1043098933333333,-0.005722186666666573,0.11194014666666656,0.10448415184066909,0.19302843438406003,0.5683102379153357,0.6383099747107028
LBP05_S00,LBP05,-1537,114,0,113,-1537,1715758607.52,2024-05-15 07:36:47.520000+00:00,2024-05-15 16:36:47.520000+09:00,2024,5,15,7,36,47,520,,,,,,,,,-0.086426,-0.541748,0.991455,-16.601562,-9.460449,-9.277344,,,,,,,,,,,1.0,1.0,1.0,0.0,0.0,0.0,0.0,4.0,0.0,-0.11994136,-0.17856450666666668,1.0214290666666666,-6.6967773333333325,-0.31494137333333383,8.439127586666666,-34.77210491729407,-7.114560395922403,2.4560336816359896,10.00904777295469,5.247519598252041,29.319737822882324,31.422357092647978,-2.1660773347800633,31.70475145716959,-2.1539588331752357,0.033515359999999994,-0.36318349333333333,-0.029974066666666577,0.4266729199999999,0.365956245824922,0.18365185592429095,0.5489873077604475,0.6299977929038524
LBP05_S00,LBP05,-1536,115,0,114,-1536,1715758607.56,2024-05-15 07:36:47.560000+00:00,2024-05-15 16:36:47.560000+09:00,2024,5,15,7,36,47,560,,,,,,,,,-0.029785,-0.180908,0.858398,24.841309,-23.55957,3.967285,,,,,,,,,,,1.0,1.0,1.0,0.0,0.0,0.0,0.0,4.0,0.0,-0.11961584000000001,-0.18301762666666668,1.0251920933333334,-9.711914053333333,0.2075195599999995,8.144531240000001,-42.03034326041285,-6.114250513001034,4.422478972560832,8.327834042538175,5.002949577732,29.496636981784757,31.05533637802976,-2.1537756647566852,31.580125970668586,-2.1540095513217876,0.08983084000000002,0.0021096266666666696,-0.1667940933333334,0.25873456000000006,0.18945791065739917,0.15740392890701427,0.5358137495077311,0.6249360149080045
LBP05_S00,LBP05,-1535,116,0,115,-1535,1715758607.6,2024-05-15 07:36:47.600000+00:00,2024-05-15 16:36:47.600000+09:00,2024,5,15,7,36,47,600,,,,,,,,,-0.083252,0.251221,0.786377,-43.395996,-14.831543,11.230469,,,,,,,,,,,1.0,1.0,1.0,0.0,0.0,0.0,0.0,4.0,0.0,-0.12187495999999998,-0.19179041333333333,1.0260124,-6.70491536,1.0229492533333329,8.041992173333334,-47.19537388383081,-4.188391095023461,7.004924789320676,6.440019087184942,4.835413933931061,29.776833973357583,30.84663539565804,-2.141493650776321,31.487020850273296,-2.158569901264012,0.03862295999999997,0.4430114133333334,-0.23963539999999994,0.7212697733333333,0.5051494534451355,0.16636063643703505,0.5285040524603006,0.6266334304496838
LBP05_S00,LBP05,-1534,117,0,116,-1534,1715758607.64,2024-05-15 07:36:47.640000+00:00,2024-05-15 16:36:47.640000+09:00,2024,5,15,7,36,47,640,,,,,,,,,-0.019287,-0.171143,0.825195,-190.795898,-20.935059,21.118164,,,,,,,,,,,1.0,1.0,1.0,0.0,0.0,0.0,0.0,4.0,0.0,-0.11986324000000001,-0.18853194666666667,1.019821,-4.2415364533333335,0.6884765866666662,8.111979146666666,-49.37033267093225,-1.3821954471683846,9.275098370561,4.465205780347652,4.780126116044326,30.147837908180023,30.84930791580316,-2.141615110959143,31.427942354312613,-2.1526824493095016,0.10057624000000001,0.017388946666666683,-0.19462600000000008,0.31259118666666674,0.2197663199735433,0.165867781155474,0.5208031293235993,0.6227632387676505
LBP05_S00,LBP05,-1533,118,0,117,-1533,1715758607.68,2024-05-15 07:36:47.680000+00:00,2024-05-15 16:36:47.680000+09:00,2024,5,15,7,36,47,680,,,,,,,,,0.001953,-0.5271,1.065674,-26.428223,7.507324,13.366699,,,,,,,,,,,1.0,1.0,1.0,0.0,0.0,0.0,0.0,4.0,0.0,-0.11805659999999998,-0.18105473333333333,1.0126172266666666,-2.3087564933333327,0.4069010666666662,7.938639306666667,-48.347405338466395,1.9437358550451653,10.345250200502225,2.5313095668089964,4.857875550246133,30.561647916200112,31.048684454232138,-2.1527285875297846,31.399864572614455,-2.1526822714188323,0.12000959999999998,-0.3460452666666667,0.05305677333333336,0.51911164,0.3700873570808778,0.1659812807361165,0.5057555751195287,0.6239483593632816
LBP05_S00,LBP05,-1532,119,0,118,-1532,1715758607.72,2024-05-15 07:36:47.720000+00:00,2024-05-15 16:36:47.720000+09:00,2024,5,15,7,36,47,720,,,,,,,,,-0.071289,-0.095215,1.085938,-26.916504,15.380859,17.883301,,,,,,,,,,,1.0,1.0,1.0,0.0,0.0,0.0,0.0,4.0,0.0,-0.11482744000000002,-0.17241541333333332,1.0039778933333334,-2.9109700399999996,-0.2693684666666671,7.59928384,-44.61440797133224,5.200771952047132,9.604667501088269,0.7467332479557067,5.065906428328018,30.945834616243644,31.36663352322147,-2.1620448742900806,31.393879213523256,-2.1512770076266206,0.04353844000000001,0.07720041333333333,0.08196010666666664,0.20269895999999998,0.12071851001931098,0.16443788168926768,0.4851196900529861,0.6165285062649493
LBP05_S00,LBP05,-1531,120,0,119,-1531,1715758607.76,2024-05-15 07:36:47.760000+00:00,2024-05-15 16:36:47.760000+09:00,2024,5,15,7,36,47,760,,,,,,,,,-0.141113,-0.087158,1.132324,17.700195,20.935059,17.211914,,,,,,,,,,,1.0,1.0,1.0,0.0,0.0,0.0,0.0,4.0,0.0,-0.11335608000000001,-0.17407232,0.99843752,-2.36572264,-0.3613281066666671,7.23958332,-39.15298587677711,7.74651844046823,6.876058832458379,-0.8193861871153776,5.375767165946748,31.22087696954198,31.690904453697488,-2.151940134765879,31.395314340478357,-2.1502269595307952,-0.027756919999999977,0.08691432,0.13388648000000014,0.24855772000000012,0.16201893455932623,0.16304721113173465,0.43574337343906017,0.6067143182231174
LBP05_S00,LBP05,-1530,121,0,120,-1530,1715758607.8,2024-05-15 07:36:47.800000+00:00,2024-05-15 16:36:47.800000+09:00,2024,5,15,7,36,47,800,,,,,,,,,-0.112549,-0.237061,1.111084,-47.851562,12.817383,3.540039,,,,,,,,,,,1.0,1.0,1.0,0.0,0.0,0.0,0.0,4.0,0.0,-0.11132157333333334,-0.17913090666666667,0.99455732,-1.2882486799999988,-0.3613281066666671,6.806640613333333,-33.11199859878726,9.079576979725838,2.454735004091648,-2.143866131066868,5.738950245135781,31.319066369705645,31.91262493393652,-2.1312161247308854,31.384917249708593,-2.151873883363433,-0.0012274266666666561,-0.05793009333333332,0.11652668,0.17568419999999996,0.13013788626550363,0.162872264805493,0.4295479565752413,0.5964210893123094
LBP05_S00,LBP05,-1529,122,0,121,-1529,1715758607.84,2024-05-15 07:36:47.840000+00:00,2024-05-15 16:36:47.840000+09:00,2024,5,15,7,36,47,840,,,,,,,,,-0.238281,-0.311523,1.239014,16.296387,19.165039,-5.737305,,,,,,,,,,,1.0,1.0,1.0,0.0,0.0,0.0,0.0,4.0,0.0,-0.11138993333333334,-0.17019536000000002,0.9921419600000001,-0.878906226666666,-0.24739581333333377,6.19140624,-27.50042143887028,8.985245971543836,-2.9736892150058623,-3.2438829886216793,6.098360083997535,31.20011880110541,31.955597095987034,-2.154097408689003,31.341971461296644,-2.150850659902848,-0.12689106666666666,-0.14132763999999998,0.24687203999999996,0.5150907466666665,0.3114813778727961,0.16298954290568035,0.3857523865346668,0.5868008515724191
LBP05_S00,LBP05,-1528,123,0,122,-1528,1715758607.88,2024-05-15 07:36:47.880000+00:00,2024-05-15 16:36:47.880000+09:00,2024,5,15,7,36,47,880,,,,,,,,,-0.290283,-0.100342,1.220947,-45.410156,7.019043,-16.601562,,,,,,,,,,,1.0,1.0,1.0,0.0,0.0,0.0,0.0,4.0,0.0,-0.11028317333333333,-0.16709965333333335,0.9907161733333334,-1.6910807066666658,-0.29459633333333374,5.563964826666667,-23.011933967038736,7.587129687702241,-8.509378415623384,-4.164360347303229,6.401845271505624,30.859743664480476,31.790710892018964,-2.1577811849883606,31.24953792381707,-2.1525818554948843,-0.1799998266666667,0.06675765333333335,0.2302308266666666,0.47698830666666664,0.2997711717731047,0.1730680374532479,0.32926383705557316,0.5854258626097228
LBP05_S00,LBP05,-1527,124,0,123,-1527,1715758607.92,2024-05-15 07:36:47.920000+00:00,2024-05-15 16:36:47.920000+09:00,2024,5,15,7,36,47,920,,,,,,,,,-0.2771,-0.582031,1.2854,-51.269531,-1.77002,-18.371582,,,,,,,,,,,1.0,1.0,1.0,0.0,0.0,0.0,0.0,4.0,0.0,-0.11094723999999999,-0.16895838666666665,0.9883073200000001,-2.4910481599999987,-0.026041640000000435,5.019531226666667,-20.00558953611688,5.296731782338438,-13.256195157766694,-4.9645839287479046,6.613714542799162,30.329495858169807,31.43670836219903,-2.155576853821809,31.10046463481546,-2.1487174333278305,-0.16615276,-0.41307261333333334,0.29709268,0.8763180533333333,0.53525674591847,0.19124807649539613,0.3162277947150314,0.585258986512002
LBP05_S00,LBP05,-1526,125,0,124,-1526,1715758607.96,2024-05-15 07:36:47.960000+00:00,2024-05-15 16:36:47.960000+09:00,2024,5,15,7,36,47,960,,,,,,,,,-0.259033,0.034912,1.096436,-19.287109,-3.662109,-31.860352,,,,,,,,,,,1.0,1.0,1.0,0.0,0.0,0.0,0.0,4.0,0.0,-0.10912106666666667,-0.1608236266666667,0.9840006800000002,-5.866699213333333,-0.7869465866666671,5.19368488,-18.58657291398699,2.6871342352780383,-16.520344005187834,-5.7080468453073845,6.721199912210284,29.668682097962293,30.951365470332117,-2.1702449030830615,30.90154251175964,-2.1447368792820827,-0.14991193333333336,0.1957356266666667,0.11243531999999978,0.45808287999999986,0.2709755053244349,0.19874857691682382,0.299305137912738,0.5789178686845525
LBP05_S00,LBP05,-1525,126,0,125,-1525,1715758608.0,2024-05-15 07:36:48+00:00,2024-05-15 16:36:48+09:00,2024,5,15,7,36,48,0,7.0,36.0,47.0,40.558258,141.527145,8.435,3.0,10.0,-0.181396,-0.396973,1.210449,-37.475586,-7.995605,-17.700195,-549.0,21.0,556.0,125.0,0.0,1025.400024,22.59,0.122881,-100.61058,4.035937,1.0,1.0,1.0,0.0,0.0,0.0,0.0,4.0,0.0,-0.10489256,-0.16861985333333332,0.9821419466666667,-8.435058586666665,-1.3419596133333338,5.02115884,-18.696268836697165,0.3374381572814592,-17.93794061036291,-6.455897598775271,6.734697438501542,28.951164473547777,30.417177511538547,-2.1312614161704713,30.673513841059684,-2.1418442891162917,-0.07650344,-0.2283531466666667,0.22830705333333345,0.5331636400000002,0.33184642008940124,0.20485382265902286,0.2895980670186141,0.5729165008640538
LBP05_S00,LBP05,-1524,127,0,126,-1524,1715758608.04,2024-05-15 07:36:48.040000+00:00,2024-05-15 16:36:48.040000+09:00,2024,5,15,7,36,48,40,,,,,,,,,-0.261719,-0.333008,1.129883,-31.555176,-0.732422,-14.221191,,,,,,,,,,,1.0,1.0,1.0,0.0,0.0,0.0,0.0,4.0,0.0,-0.10482745333333332,-0.1583333866666667,0.97972332,-9.758300773333334,-1.3761392933333338,4.714355453333333,-20.1395151954281,-1.3032598877505377,-17.504460255140998,-7.261478206592395,6.682567042991521,28.250986063342136,29.92497254100736,-2.1589270668795058,30.44647601004927,-2.139895628935119,-0.15689154666666666,-0.17467461333333334,0.15015968000000002,0.48172584,0.27870074893388924,0.20664282173224657,0.28350260085649803,0.5719222176407682
LBP05_S00,LBP05,-1523,128,0,127,-1523,1715758608.08,2024-05-15 07:36:48.080000+00:00,2024-05-15 16:36:48.080000+09:00,2024,5,15,7,36,48,80,,,,,,,,,-0.151855,0.170898,0.959717,7.507324,-4.150391,-7.568359,,,,,,,,,,,1.0,1.0,1.0,0.0,0.0,0.0,0.0,4.0,0.0,-0.10251299999999999,-0.17139328,0.9792285199999999,-11.417643226666666,-1.3338215866666672,4.78597004,-22.53176073673769,-1.9984056713879115,-15.510897792313045,-8.162748636061902,6.6026308161360046,27.630550151649615,29.55795156421608,-2.1140843658592456,30.252260899704357,-2.1367284268353623,-0.049342,0.34229128,-0.019511519999999893,0.41114479999999987,0.3463793480286444,0.21638344417160216,0.27255359760337283,0.5629660562586467
LBP05_S00,LBP05,-1522,129,0,128,-1522,1715758608.12,2024-05-15 07:36:48.120000+00:00,2024-05-15 16:36:48.120000+09:00,2024,5,15,7,36,48,120,,,,,,,,,-0.169434,-0.624023,1.176514,-39.550781,5.432129,-16.967773,,,,,,,,,,,1.0,1.0,1.0,0.0,0.0,0.0,0.0,4.0,0.0,-0.10063148,-0.1650456133333333,0.97804688,-10.363769533333334,-1.1059570000000003,5.086263013333334,-25.209978555872993,-1.7423508650373947,-12.41873720204252,-9.171147778296822,6.5329367815345085,27.133800663567914,29.377412292663283,-2.122239333832607,30.116539474238984,-2.1328499150235816,-0.06880252,-0.45897738666666665,0.1984671200000001,0.7262470266666667,0.5047605629908181,0.23310210981059626,0.276554411006224,0.5590064846959082
LBP05_S00,LBP05,-1521,130,0,129,-1521,1715758608.16,2024-05-15 07:36:48.160000+00:00,2024-05-15 16:36:48.160000+09:00,2024,5,15,7,36,48,160,,,,,,,,,-0.226318,-0.050293,1.003174,73.913574,6.652832,-2.868652,,,,,,,,,,,1.0,1.0,1.0,0.0,0.0,0.0,0.0,4.0,0.0,-0.10067705333333334,-0.16482750666666668,0.9779361999999999,-9.626464839999999,-0.8683268000000004,5.269368493333333,-27.192292298400016,-0.7245284533043481,-8.71862357448587,-10.258839470232823,6.5039556434023345,26.78505572058848,29.410617746697902,-2.1230142331079667,30.053368269916632,-2.1295900347236625,-0.12564094666666664,0.11453450666666667,0.025237800000000088,0.26541325333333343,0.1718742192579006,0.23780809767502795,0.26221223018630974,0.5524962724090473
LBP05_S00,LBP05,-1520,131,0,130,-1520,1715758608.2,2024-05-15 07:36:48.200000+00:00,2024-05-15 16:36:48.200000+09:00,2024,5,15,7,36,48,200,,,,,,,,,-0.112061,0.223389,0.921143,-35.827637,-14.221191,5.065918,,,,,,,,,,,1.0,1.0,1.0,0.0,0.0,0.0,0.0,4.0,0.0,-0.10031572000000001,-0.16857425333333334,0.9787044266666667,-8.651529946666667,-0.800781226666667,5.007324226666666,-27.2724415765885,0.7404287887801732,-4.815010719788525,-11.349737133296363,6.533572794953542,26.59245529179694,29.64224662383239,-2.111729522919162,30.06379203759375,-2.123760797191717,-0.011745279999999983,0.3919632533333334,-0.05756142666666664,0.46126996,0.3963413445577326,0.2488575824460766,0.2539558799076418,0.5553070726509607
LBP05_S00,LBP05,-1519,132,0,131,-1519,1715758608.24,2024-05-15 07:36:48.240000+00:00,2024-05-15 16:36:48.240000+09:00,2024,5,15,7,36,48,240,,,,,,,,,-0.181396,-0.106445,1.1521,-79.833984,-4.638672,10.253906,,,,,,,,,,,1.0,1.0,1.0,0.0,0.0,0.0,0.0,4.0,0.0,-0.1004036,-0.16459638666666665,0.9774772133333333,-8.752441399999999,-0.9318033600000005,4.275716146666666,-24.282240754450818,2.297852582727204,-0.9673855599571901,-12.321026763474396,6.62548689826263,26.553759869398654,30.013445992537886,-2.122425387691435,30.1384128176989,-2.121011477949706,-0.0809924,0.05815138666666665,0.17462278666666664,0.3137665733333333,0.20108324209701897,0.2525975023939626,0.2558273421903436,0.5511336652632562
LBP05_S00,LBP05,-1518,133,0,132,-1518,1715758608.28,2024-05-15 07:36:48.280000+00:00,2024-05-15 16:36:48.280000+09:00,2024,5,15,7,36,48,280,,,,,,,,,-0.243652,-0.242188,1.10791,-117.919922,7.141113,-1.525879,,,,,,,,,,,1.0,1.0,1.0,0.0,0.0,0.0,0.0,4.0,0.0,-0.10014969333333333,-0.16547854666666667,0.97713216,-9.414062493333333,-1.2068684666666671,3.3846028666666665,-17.45913832867925,3.6397528225750113,2.698227130136025,-13.019392296621566,6.77107701116563,26.661688954604095,30.43349663736526,-2.1189960668705496,30.262171372065154,-2.1144699917456875,-0.1435023066666667,-0.07670945333333332,0.13077783999999992,0.3509895999999999,0.20875846254563782,0.2575298782375806,0.2504246554333335,0.5449693087796716
LBP05_S00,LBP05,-1517,134,0,133,-1517,1715758608.32,2024-05-15 07:36:48.320000+00:00,2024-05-15 16:36:48.320000+09:00,2024,5,15,7,36,48,320,,,,,,,,,-0.306152,-0.399658,1.106689,89.111328,29.11377,-6.713867,,,,,,,,,,,1.0,1.0,1.0,0.0,0.0,0.0,0.0,4.0,0.0,-0.10003901333333334,-0.16378257333333335,0.9764811200000001,-9.782714839999999,-1.3354492000000004,2.709147133333333,-6.775468057201615,4.576979524567054,6.116904527458121,-13.29041101890963,6.954156192148313,26.90636513570242,30.804996318975466,-2.1229780508226193,30.41861382004679,-2.1122996980179187,-0.20611298666666664,-0.23587542666666667,0.13020787999999994,0.5721962933333332,0.3392254002752888,0.27000315187197255,0.2508456042396967,0.5384162704064861
LBP05_S00,LBP05,-1516,135,0,134,-1516,1715758608.36,2024-05-15 07:36:48.360000+00:00,2024-05-15 16:36:48.360000+09:00,2024,5,15,7,36,48,360,,,,,,,,,-0.304199,-0.006836,1.181152,-14.831543,27.832031,2.319336,,,,,,,,,,,1.0,1.0,1.0,0.0,0.0,0.0,0.0,4.0,0.0,-0.09914384000000001,-0.16649416,0.9747819066666666,-10.694986973333332,-1.6943359200000003,2.2924804666666665,6.908576983107597,5.070886129249158,9.186708837887899,-13.014067939585326,7.156991637318279,27.273833489217935,31.055603147103298,-2.1119525277636058,30.59133777205965,-2.1082533868513167,-0.20505516,0.15965816,0.20637009333333334,0.5710834133333333,0.33185382643510364,0.2808880464435612,0.25284383040755753,0.5225659865264586
LBP05_S00,LBP05,-1515,136,0,135,-1515,1715758608.4,2024-05-15 07:36:48.400000+00:00,2024-05-15 16:36:48.400000+09:00,2024,5,15,7,36,48,400,,,,,,,,,-0.228027,-0.083252,1.131348,69.946289,1.342773,0.793457,,,,,,,,,,,1.0,1.0,1.0,0.0,0.0,0.0,0.0,4.0,0.0,-0.09728512,-0.16648113333333334,0.97262696,-10.448404933333332,-1.9620768000000002,2.1826171866666666,21.9176669012515,5.198542365760591,11.695258665885277,-12.137361263535265,7.364933331948702,27.741643835853345,31.163385312590083,-2.1037682237503605,30.7624888394996,-2.1027839395817893,-0.13074188,0.08322913333333333,0.15872103999999998,0.37269205333333333,0.2218397988640311,0.28443716686894843,0.24930232831545543,0.509810032363186
LBP05_S00,LBP05,-1514,137,0,136,-1514,1715758608.44,2024-05-15 07:36:48.440000+00:00,2024-05-15 16:36:48.440000+09:00,2024,5,15,7,36,48,440,,,,,,,,,-0.104492,-0.44165,0.98999,-12.451172,-25.390625,-0.732422,,,,,,,,,,,1.0,1.0,1.0,0.0,0.0,0.0,0.0,4.0,0.0,-0.0960514,-0.16837566666666667,0.9698144533333334,-9.409179666666665,-2.0874023200000003,2.1818033866666666,36.02434125931537,5.053007017314503,13.314625782788772,-10.69638761316265,7.567053612641282,28.274228867164897,31.162558084669936,-2.093512204839322,30.9109384920296,-2.097548105957062,-0.008440600000000006,-0.2732743333333333,0.020175546666666655,0.30189047999999996,0.2741480579366496,0.2876829201027044,0.24886270978464925,0.4952285595396065
LBP05_S00,LBP05,-1513,138,0,137,-1513,1715758608.48,2024-05-15 07:36:48.480000+00:00,2024-05-15 16:36:48.480000+09:00,2024,5,15,7,36,48,480,,,,,,,,,-0.020508,0.297363,0.853271,-61.584473,-36.499023,24.230957,,,,,,,,,,,1.0,1.0,1.0,0.0,0.0,0.0,0.0,4.0,0.0,-0.09438473333333333,-0.16585613333333335,0.9658072933333334,-8.266601546666665,-2.313639293333334,2.21679688,46.851674510777855,4.627183294360375,13.679348623389412,-8.822320632731534,7.7521409444156975,28.821402812100473,31.12237604403237,-2.0923814285815627,31.0134474731537,-2.0895403556605805,0.07387673333333333,0.4632191333333333,-0.11253629333333337,0.64963216,0.48238382490636533,0.30279890702533224,0.2479136707046961,0.47980646095200125
LBP05_S00,LBP05,-1512,139,0,138,-1512,1715758608.52,2024-05-15 07:36:48.520000+00:00,2024-05-15 16:36:48.520000+09:00,2024,5,15,7,36,48,520,,,,,,,,,0.08374,-1.200684,1.018066,21.179199,-10.620117,40.95459,,,,,,,,,,,1.0,1.0,1.0,0.0,0.0,0.0,0.0,4.0,0.0,-0.09277341333333333,-0.16717774666666668,0.9627701733333334,-7.180989573333333,-2.4641926800000005,2.1435546933333334,52.384157487851525,3.75968170157089,12.522523634010511,-6.726954333217473,7.902528212478533,29.322303757460894,31.10465181279189,-2.0817762221665856,31.049523948156825,-2.081794693270946,0.1765134133333333,-1.0335062533333335,0.05529582666666655,1.2653154933333333,1.049928468617,0.3301577959370154,0.2569048259306531,0.4760441371526367
LBP05_S00,LBP05,-1511,140,0,139,-1511,1715758608.56,2024-05-15 07:36:48.560000+00:00,2024-05-15 16:36:48.560000+09:00,2024,5,15,7,36,48,560,,,,,,,,,-0.110596,0.226074,0.672119,259.521484,46.203613,25.45166,,,,,,,,,,,1.0,1.0,1.0,0.0,0.0,0.0,0.0,4.0,0.0,-0.08986325333333334,-0.16723633333333335,0.9574706933333332,-6.514485666666666,-2.614746066666667,1.862792973333333,51.52093292092033,2.1981750566438287,9.811361074170524,-4.66611701638066,7.990455214744286,29.714758200427713,31.12212842109738,-2.0683197604126913,31.007235498071406,-2.072903648581665,-0.020732746666666663,0.3933103333333333,-0.2853516933333332,0.6993947733333332,0.48636247180402664,0.34203397838288047,0.24971895364494734,0.47122049246611414
LBP05_S00,LBP05,-1510,141,0,140,-1510,1715758608.6,2024-05-15 07:36:48.600000+00:00,2024-05-15 16:36:48.600000+09:00,2024,5,15,7,36,48,600,,,,,,,,,-0.054443,0.062988,0.658447,201.721191,31.921387,2.563477,,,,,,,,,,,1.0,1.0,1.0,0.0,0.0,0.0,0.0,4.0,0.0,-0.08677081333333332,-0.16498046666666666,0.9539615866666667,-6.010742173333333,-2.7880859066666672,1.534016933333333,44.49652994916492,-0.23663388316228195,5.81633738800766,-2.886255818414063,7.980989859417795,29.94741169594802,31.126743149132434,-2.0593711866718873,30.88622097135285,-2.0638724534774355,0.03232781333333332,0.22796846666666665,-0.29551458666666675,0.5558108666666668,0.3746245857415619,0.3368129836747375,0.25158681005588623,0.46460702953177957
LBP05_S00,LBP05,-1509,142,0,141,-1509,1715758608.64,2024-05-15 07:36:48.640000+00:00,2024-05-15 16:36:48.640000+09:00,2024,5,15,7,36,48,640,,,,,,,,,-0.039062,0.025146,0.492188,-44.250488,-8.728027,-15.380859,,,,,,,,,,,1.0,1.0,1.0,0.0,0.0,0.0,0.0,4.0,0.0,-0.08371742666666666,-0.16601562666666667,0.9517773466666667,-4.970703106666667,-2.8767903333333336,1.1686197999999999,32.92282538618736,-3.475199001886989,1.0776651000461308,-1.5693428029665684,7.841981899342315,29.990518299949866,31.038535803778874,-2.0423478847266203,30.696153524406505,-2.0556548695719883,0.044655426666666664,0.19116162666666667,-0.4595893466666667,0.6954064,0.49975918421788074,0.348012698244511,0.2569402396999925,0.46320631896390313
LBP05_S00,LBP05,-1508,143,0,142,-1508,1715758608.68,2024-05-15 07:36:48.680000+00:00,2024-05-15 16:36:48.680000+09:00,2024,5,15,7,36,48,680,,,,,,,,,0.024414,0.302246,0.400146,-94.482422,2.746582,-17.456055,,,,,,,,,,,1.0,1.0,1.0,0.0,0.0,0.0,0.0,4.0,0.0,-0.08200518666666666,-0.16289062666666668,0.9491569066666666,-4.081217426666666,-2.8336588266666674,0.8862304799999998,19.320558807665638,-7.116058254526308,-3.7155778859592123,-0.7965204506599428,7.557339569161263,29.841895184511497,30.794261387396524,-2.041539442974202,30.451986616003705,-2.0468029040584086,0.10641918666666667,0.46513662666666666,-0.5490109066666666,1.12056672,0.7273857988692082,0.3623046359160443,0.26414295832608037,0.4579385953850339
LBP05_S00,LBP05,-1507,144,0,143,-1507,1715758608.72,2024-05-15 07:36:48.720000+00:00,2024-05-15 16:36:48.720000+09:00,2024,5,15,7,36,48,720,,,,,,,,,-0.05542,-0.227295,0.332275,-109.375,-5.737305,-12.023926,,,,,,,,,,,1.0,1.0,1.0,0.0,0.0,0.0,0.0,4.0,0.0,-0.0808496,-0.16364584,0.9494140666666667,-2.596842426666666,-2.640787733333334,0.7600911599999999,6.293061775348534,-10.490724802035379,-7.878614437758734,-0.5447979796460014,7.137710577079847,29.526750607001148,30.38211181812131,-2.034067603929812,30.16926490413716,-2.0394047321703583,0.025429599999999997,-0.06364916000000001,-0.6171390666666667,0.7062178266666668,0.6209335775516333,0.38231323861733707,0.2733755601533024,0.4508508729077697
LBP05_S00,LBP05,-1506,145,0,144,-1506,1715758608.76,2024-05-15 07:36:48.760000+00:00,2024-05-15 16:36:48.760000+09:00,2024,5,15,7,36,48,760,,,,,,,,,-0.000244,-0.166504,0.326416,-1.953125,-41.564941,-5.67627,,,,,,,,,,,1.0,1.0,1.0,0.0,0.0,0.0,0.0,4.0,0.0,-0.07881834666666666,-0.16468100000000002,0.9491341200000001,-2.8588867066666666,-2.5903320133333336,0.43701173333333326,-4.270315864749696,-12.857262018953463,-10.857980615577183,-0.7156106142359893,6.623420096321709,29.09243138237806,29.845457879917696,-2.0216405767213135,29.86240590609583,-2.028913125853611,0.07857434666666667,-0.0018229999999999913,-0.62271812,0.7031154666666667,0.6276584327955994,0.400938818546788,0.2819930148392613,0.42414185514163616
LBP05_S00,LBP05,-1505,146,0,145,-1505,1715758608.8,2024-05-15 07:36:48.800000+00:00,2024-05-15 16:36:48.800000+09:00,2024,5,15,7,36,48,800,,,,,,,,,0.172363,-0.418945,0.786133,-38.879395,-30.456543,-4.943848,,,,,,,,,,,1.0,1.0,1.0,0.0,0.0,0.0,0.0,4.0,0.0,-0.07802408000000001,-0.1630078266666667,0.9482617333333332,-2.076822906666666,-2.4023437333333337,0.059407573333333255,-11.58780363354317,-13.647581443613317,-12.302172512061427,-1.179122759577716,6.077516838577177,28.600344481895604,29.26271084312661,-2.021592384695888,29.546258699056388,-2.024661153719391,0.25038708,-0.2559371733333333,-0.16212873333333322,0.6684529866666665,0.3930435760791088,0.41145504613933226,0.2871636554724126,0.4235169864299383
LBP05_S00,LBP05,-1504,147,0,146,-1504,1715758608.84,2024-05-15 07:36:48.840000+00:00,2024-05-15 16:36:48.840000+09:00,2024,5,15,7,36,48,840,,,,,,,,,0.022217,0.06958,0.682129,63.293457,-6.286621,-13.73291,,,,,,,,,,,1.0,1.0,1.0,0.0,0.0,0.0,0.0,4.0,0.0,-0.07587238666666667,-0.16556968,0.9475260533333333,-1.5380859199999997,-2.3543294133333337,-0.12125648000000012,-15.8443962986318,-12.67520835664233,-12.080673611074394,-1.812898611522988,5.5705085043114835,28.11711753745263,28.72088900064193,-2.004992549703522,29.238229085958086,-2.019160931680135,0.09808938666666667,0.23514968,-0.2653970533333333,0.59863612,0.3679028345891907,0.413711904407988,0.2883507236568342,0.39507222582577395
LBP05_S00,LBP05,-1503,148,0,147,-1503,1715758608.88,2024-05-15 07:36:48.880000+00:00,2024-05-15 16:36:48.880000+09:00,2024,5,15,7,36,48,880,,,,,,,,,0.092529,-0.49585,0.862549,43.518066,-23.376465,4.943848,,,,,,,,,,,1.0,1.0,1.0,0.0,0.0,0.0,0.0,4.0,0.0,-0.07601886666666667,-0.16007489333333336,0.9456510533333333,-0.8463541599999995,-2.298990866666667,-0.2262369466666668,-17.670482850317477,-10.229167398940847,-10.27561271436212,-2.519717925535687,5.16134180835385,27.706093028878144,28.295158925367026,-2.018399709701058,28.957677444456124,-2.018411028705945,0.16854786666666666,-0.33577510666666666,-0.08310205333333331,0.5874250266666666,0.3847846889925741,0.4171124450967668,0.2950902412750074,0.3585467064026377
LBP05_S00,LBP05,-1502,149,0,148,-1502,1715758608.92,2024-05-15 07:36:48.920000+00:00,2024-05-15 16:36:48.920000+09:00,2024,5,15,7,36,48,920,,,,,,,,,-0.01709,0.0354,0.894531,47.180176,0.854492,-10.742188,,,,,,,,,,,1.0,1.0,1.0,0.0,0.0,0.0,0.0,4.0,0.0,-0.07304686666666668,-0.17214846666666667,0.9505664266666668,-2.331542973333333,-2.9134114400000004,0.19287111999999984,-17.558472052271256,-7.02377605182736,-7.16850982721458,-3.2220568076265375,4.8803907662807555,27.41935263578956,28.036061832378508,-1.976860158999118,28.72199904780814,-2.017507127257431,0.05595686666666668,0.20754846666666665,-0.05603542666666683,0.31954076000000015,0.22214298544980202,0.4045878946780201,0.29791798558670807,0.34568116136936095
LBP05_S00,LBP05,-1501,150,0,149,-1501,1715758608.96,2024-05-15 07:36:48.960000+00:00,2024-05-15 16:36:48.960000+09:00,2024,5,15,7,36,48,960,,,,,,,,,-0.088867,0.063965,0.853271,-18.737793,-4.882812,-18.249512,,,,,,,,,,,1.0,1.0,1.0,0.0,0.0,0.0,0.0,4.0,0.0,-0.07339192,-0.15143557333333332,0.9563118666666668,3.806152333333334,-1.359049466666667,0.2205403866666665,-15.523639505654515,-4.021837652719719,-3.228459997841641,-3.843002387852718,4.719517260171966,27.290214235875897,27.96065635070297,-2.0258000390704893,28.54198253813352,-2.0189331591548223,-0.015475080000000002,0.21540057333333332,-0.10304086666666679,0.3339165200000001,0.23927871885471325,0.4033200232192312,0.30103430006802756,0.33397676634823575
LBP05_S00,LBP05,-1500,151,0,150,-1500,1715758609.0,2024-05-15 07:36:49+00:00,2024-05-15 16:36:49+09:00,2024,5,15,7,36,49,0,7.0,36.0,48.0,40.558289,141.527206,9.297,3.0,10.0,0.080322,-0.131104,0.911377,-61.828613,-4.882812,-2.807617,-548.0,15.0,553.0,126.0,0.0,1024.699951,22.66,0.115944,-94.839767,4.035937,1.0,1.0,1.0,0.0,0.0,0.0,0.0,4.0,0.0,-0.07541665333333335,-0.16474286666666665,0.9690625066666666,1.137695306666667,-0.4980468666666671,0.30843101333333317,-11.160546997159685,-2.1822556856491104,0.911215349772143,-4.289424267739106,4.632227032746002,27.326662849866782,28.0464470181494,-2.0043689662793276,28.41945284325265,-2.021533562374368,0.15573865333333337,0.033638866666666656,-0.05768550666666661,0.24706302666666663,0.1694512294794228,0.39682421559483205,0.30083901912692745,0.3253401165440202
LBP05_S00,LBP05,-1499,152,0,151,-1499,1715758609.04,2024-05-15 07:36:49.040000+00:00,2024-05-15 16:36:49.040000+09:00,2024,5,15,7,36,49,40,,,,,,,,,-0.038086,-0.089111,0.997559,-17.456055,13.61084,2.258301,,,,,,,,,,,1.0,1.0,1.0,0.0,0.0,0.0,0.0,4.0,0.0,-0.07894203999999999,-0.15928062666666667,0.9792057333333334,-1.0522461066666664,0.5037434933333329,0.17415366666666657,-4.039186973766387,-2.1990853670933537,4.511462268340595,-4.450991746689762,4.544263618062268,27.507121340600406,28.23301938875931,-2.034848854984721,28.34784001541368,-2.0221709987703513,0.04085603999999999,0.07016962666666668,0.01835326666666659,0.12937893333333325,0.08324562996553485,0.3890060108360979,0.2978244162841722,0.3186704041830313
LBP05_S00,LBP05,-1498,153,0,152,-1498,1715758609.08,2024-05-15 07:36:49.080000+00:00,2024-05-15 16:36:49.080000+09:00,2024,5,15,7,36,49,80,,,,,,,,,-0.104248,-0.026123,1.028564,16.601562,24.597168,0.488281,,,,,,,,,,,1.0,1.0,1.0,0.0,0.0,0.0,0.0,4.0,0.0,-0.08258135999999999,-0.16776045333333334,0.9875651199999999,-2.0100911599999995,1.9938151066666663,0.2978515866666665,5.77105892008268,-4.301635942330391,6.838139921469369,-4.220149389886455,4.372198180369052,27.78064693745918,28.437477420916604,-2.0325004284890618,28.313965894290305,-2.024415751973106,-0.02166664,0.14163745333333333,0.04099888000000018,0.20430297333333353,0.1490352966142457,0.381112248779522,0.2987478464755621,0.3087398146620892
LBP05_S00,LBP05,-1497,154,0,153,-1497,1715758609.12,2024-05-15 07:36:49.120000+00:00,2024-05-15 16:36:49.120000+09:00,2024,5,15,7,36,49,120,,,,,,,,,-0.134766,0.067871,0.850098,-89.84375,-8.850098,5.859375,,,,,,,,,,,1.0,1.0,1.0,0.0,0.0,0.0,0.0,4.0,0.0,-0.08652993333333334,-0.1690006933333333,0.9868652533333335,-2.3868815199999993,2.8491210933333333,0.28076173333333315,17.308509694943965,-8.17448926039646,7.320011343308286,-3.5278090020886963,4.045218609953194,28.073447391191515,28.581946721375143,-2.048327922903723,28.29945816809834,-2.023618945269051,-0.04823606666666666,0.2368716933333333,-0.1367672533333335,0.42187501333333344,0.2777412443523936,0.372031476033985,0.3025667929222906,0.308380099348811
LBP05_S00,LBP05,-1496,155,0,154,-1496,1715758609.16,2024-05-15 07:36:49.160000+00:00,2024-05-15 16:36:49.160000+09:00,2024,5,15,7,36,49,160,,,,,,,,,-0.042969,-0.458984,0.900635,-20.874023,-20.812988,8.544922,,,,,,,,,,,1.0,1.0,1.0,0.0,0.0,0.0,0.0,4.0,0.0,-0.08777342666666667,-0.17180668000000002,0.9797363466666666,-1.397298186666666,1.4811197999999997,0.15055339999999984,28.66518479826495,-13.026724974773213,5.722938250716325,-2.381201610158098,3.524149610962265,28.302364921220168,28.620160931109016,-2.047644608916776,28.282409819604872,-2.029102313485538,0.04480442666666667,-0.28717731999999996,-0.07910134666666668,0.4110830933333333,0.30122296196636683,0.37720542574232363,0.3075067617086758,0.30054329537164765
LBP05_S00,LBP05,-1495,156,0,155,-1495,1715758609.2,2024-05-15 07:36:49.200000+00:00,2024-05-15 16:36:49.200000+09:00,2024,5,15,7,36,49,200,,,,,,,,,0.003906,-0.294678,0.762695,38.757324,-31.25,26.367188,,,,,,,,,,,1.0,1.0,1.0,0.0,0.0,0.0,0.0,4.0,0.0,-0.08515298666666667,-0.17518884,0.9788444133333333,-0.8146158933333328,0.061848973333332724,0.1586914266666665,37.364813022262425,-17.79233187609626,2.287422801199622,-0.8866090892676011,2.812456335918415,28.39386183326815,28.54658256473691,-2.0279667486557167,28.24131162779894,-2.0312090245499435,0.08905898666666667,-0.11948915999999998,-0.21614941333333326,0.4246975599999999,0.2625447225673052,0.3718535608627066,0.31035557165439154,0.2932551068926634
LBP05_S00,LBP05,-1494,157,0,156,-1494,1715758609.24,2024-05-15 07:36:49.240000+00:00,2024-05-15 16:36:49.240000+09:00,2024,5,15,7,36,49,240,,,,,,,,,-0.021484,-0.246338,0.662109,100.769043,-36.376953,34.057617,,,,,,,,,,,1.0,1.0,1.0,0.0,0.0,0.0,0.0,4.0,0.0,-0.08419596,-0.17340824,0.9794205733333333,-0.9073893333333327,-0.38655597333333386,0.009765639999999833,41.10182470643918,-21.397413603464155,-2.2341716453122062,0.7574638989899662,1.9565597917798487,28.304494967455664,28.382147789408144,-2.0274400817310667,28.16175058934247,-2.0335390655739363,0.06271196,-0.07292976000000001,-0.3173115733333334,0.4529532933333334,0.33156926032425654,0.377073001591796,0.3148352519928794,0.29624256199082777
LBP05_S00,LBP05,-1493,158,0,157,-1493,1715758609.28,2024-05-15 07:36:49.280000+00:00,2024-05-15 16:36:49.280000+09:00,2024,5,15,7,36,49,280,,,,,,,,,0.032471,-0.139648,0.66626,231.994629,-29.23584,4.02832,,,,,,,,,,,1.0,1.0,1.0,0.0,0.0,0.0,0.0,4.0,0.0,-0.08468098666666667,-0.18243493333333333,0.98461264,-1.4713541733333328,-0.7609049333333338,-0.22867837333333352,38.58628553869377,-23.009921029804637,-6.693667823850587,2.300915320537717,1.0361629505876633,28.036748254501642,28.150081663447384,-2.010431642660511,28.043122398661627,-2.0334455099103654,0.11715198666666667,0.04278693333333333,-0.3183526400000001,0.47829156000000006,0.34191184980779415,0.3823991370822823,0.31996450765993145,0.29441614931631643
LBP05_S00,LBP05,-1492,159,0,158,-1492,1715758609.32,2024-05-15 07:36:49.320000+00:00,2024-05-15 16:36:49.320000+09:00,2024,5,15,7,36,49,320,,,,,,,,,-0.072998,0.179443,0.737793,64.025879,-19.287109,-32.287598,,,,,,,,,,,1.0,1.0,1.0,0.0,0.0,0.0,0.0,4.0,0.0,-0.08782552,-0.17902997333333331,0.9902311333333332,-1.0888671999999995,-0.8601887866666671,-0.5607096266666668,30.12653510914026,-22.204073181608695,-9.825062275927687,3.5059767249033276,0.1480000233233154,27.643745763464533,27.86557834744384,-2.031693841163987,27.90097524191206,-2.0321436366195265,0.01482752000000001,0.3584729733333333,-0.2524381333333332,0.6257386266666665,0.4386886585274445,0.3863776674123685,0.3281904096421705,0.2960229586305873
LBP05_S00,LBP05,-1491,160,0,159,-1491,1715758609.36,2024-05-15 07:36:49.360000+00:00,2024-05-15 16:36:49.360000+09:00,2024,5,15,7,36,49,360,,,,,,,,,-0.009766,0.020996,0.758545,-53.527832,-10.437012,-53.833008,,,,,,,,,,,1.0,1.0,1.0,0.0,0.0,0.0,0.0,4.0,0.0,-0.08765625333333332,-0.17187502666666668,0.9886393333333333,-0.8683268399999994,-0.4663085733333339,-0.7055663866666668,17.644623671256678,-19.011882160469046,-10.620233962684653,4.211761671753595,-0.6124752630954464,27.218936404957148,27.549674432643627,-2.0468671497145414,27.762569195155777,-2.0248187697263185,0.07789025333333333,0.19287102666666667,-0.2300943333333333,0.5008556133333333,0.3101766057005202,0.38551057858298515,0.33319931251327317,0.29706607979936683
LBP05_S00,LBP05,-1490,161,0,160,-1490,1715758609.4,2024-05-15 07:36:49.400000+00:00,2024-05-15 16:36:49.400000+09:00,2024,5,15,7,36,49,400,,,,,,,,,-0.00708,-0.054688,0.794922,-16.235352,2.197266,-53.405762,,,,,,,,,,,1.0,1.0,1.0,0.0,0.0,0.0,0.0,4.0,0.0,-0.08646485333333333,-0.17809246666666667,0.9789616000000001,-2.5374349199999995,-0.26529945333333377,-0.7983398266666668,4.069171249646352,-13.87535338592998,-8.671464817907504,4.374528521739449,-1.1674893985326458,26.872077812240846,27.250836633584754,-2.0276693765192606,27.657487473380332,-2.0171327082980097,0.07938485333333332,0.12340446666666667,-0.18403960000000008,0.3868289200000001,0.23537457742967766,0.386051969725611,0.3352445682972797,0.29488554211884066
LBP05_S00,LBP05,-1489,162,0,161,-1489,1715758609.44,2024-05-15 07:36:49.440000+00:00,2024-05-15 16:36:49.440000+09:00,2024,5,15,7,36,49,440,,,,,,,,,-0.012207,0.066406,0.768799,-139.282227,-24.841309,6.469727,,,,,,,,,,,1.0,1.0,1.0,0.0,0.0,0.0,0.0,4.0,0.0,-0.08455404,-0.1713248933333333,0.9648372533333333,-2.8100586266666663,-0.6722004933333339,-1.1124674266666668,-7.647021356790726,-7.53559207962855,-4.337335320063308,4.06864766746782,-1.4689130817177878,26.698584399438314,27.04673748195083,-2.0339132983490096,27.608233402978378,-2.011791703900245,0.07234704,0.2377308933333333,-0.19603825333333325,0.5061161866666666,0.316513931149658,0.3877466046541314,0.3377147623784179,0.29515734140780997
LBP05_S00,LBP05,-1488,163,0,162,-1488,1715758609.48,2024-05-15 07:36:49.480000+00:00,2024-05-15 16:36:49.480000+09:00,2024,5,15,7,36,49,480,,,,,,,,,0.080322,-0.304932,0.988281,-59.936523,-10.070801,13.244629,,,,,,,,,,,1.0,1.0,1.0,0.0,0.0,0.0,0.0,4.0,0.0,-0.08131185333333332,-0.17096681333333333,0.9537434933333333,-4.644368533333333,-1.7635090933333337,-1.085611946666667,-15.463812332732346,-0.8930965343461943,1.348463315734669,3.450095174158526,-1.5046369430916355,26.752522932067702,27.016005853420975,-2.0194816955806725,27.625368769123533,-2.009883626811545,0.16163385333333333,-0.13396518666666665,0.03453750666666666,0.33013654666666664,0.21275575937860386,0.37696148203302093,0.33988019452917656,0.2909296078141377
LBP05_S00,LBP05,-1487,164,0,163,-1487,1715758609.52,2024-05-15 07:36:49.520000+00:00,2024-05-15 16:36:49.520000+09:00,2024,5,15,7,36,49,520,,,,,,,,,-0.073242,-0.047363,1.064941,-13.061523,8.911133,29.541016,,,,,,,,,,,1.0,1.0,1.0,0.0,0.0,0.0,0.0,4.0,0.0,-0.07416993333333334,-0.1757617333333333,0.9499967466666668,-5.273437546666667,-2.4300130000000006,-1.0530598666666668,-18.768832458794474,5.141625603754457,6.9972005856195505,2.699341875806747,-1.2989719189414572,27.032410955492484,27.197886253812307,-1.9750792539716426,27.708448670409602,-2.0109600714879425,0.0009279333333333389,0.1283987333333333,0.11494425333333314,0.24427091999999978,0.17233478220090398,0.341857734576377,0.33600776525669623,0.2852224621458945
LBP05_S00,LBP05,-1486,165,0,164,-1486,1715758609.56,2024-05-15 07:36:49.560000+00:00,2024-05-15 16:36:49.560000+09:00,2024,5,15,7,36,49,560,,,,,,,,,-0.063721,-0.385498,1.078613,21.911621,20.263672,21.54541,,,,,,,,,,,1.0,1.0,1.0,0.0,0.0,0.0,0.0,4.0,0.0,-0.07185222666666667,-0.17222982666666667,0.9502083333333333,-3.8745117599999994,-1.9767252400000006,-0.9773762800000001,-18.309666786994455,9.796229737201267,11.29276076386119,1.966955204326969,-0.9071227294534066,27.484121386046933,27.569343713354556,-1.9707839946336891,27.850244604573266,-2.0092691288158444,0.008131226666666672,-0.21326817333333334,0.12840466666666672,0.34980406666666675,0.2490726581257349,0.33236614202924536,0.3372000602060629,0.2772680164397134
LBP05_S00,LBP05,-1485,166,0,165,-1485,1715758609.6,2024-05-15 07:36:49.600000+00:00,2024-05-15 16:36:49.600000+09:00,2024,5,15,7,36,49,600,,,,,,,,,-0.035156,-0.016113,1.117188,30.151367,15.686035,38.696289,,,,,,,,,,,1.0,1.0,1.0,0.0,0.0,0.0,0.0,4.0,0.0,-0.07434571999999999,-0.17640625333333335,0.9591829333333332,-4.723307333333333,-1.6455077866666674,-1.018880186666667,-15.64335244725588,12.56551166462039,13.373039434277066,1.3412211064367336,-0.4045022628685909,28.019042963418016,28.05404186071736,-1.9745567046780674,28.040227136763328,-2.00564233645897,0.03918971999999999,0.16029325333333336,0.15800506666666692,0.35748804000000023,0.2284630436420745,0.3265196803452659,0.33166633201000173,0.2765644334856795
LBP05_S00,LBP05,-1484,167,0,166,-1484,1715758609.64,2024-05-15 07:36:49.640000+00:00,2024-05-15 16:36:49.640000+09:00,2024,5,15,7,36,49,640,,,,,,,,,-0.071045,-0.420898,1.173828,26.855469,21.972656,29.11377,,,,,,,,,,,1.0,1.0,1.0,0.0,0.0,0.0,0.0,4.0,0.0,-0.07753255999999999,-0.16767253333333335,0.9666731599999999,-5.369466186666666,-1.389160133333334,-1.233723946666667,-12.387351164652348,13.292776849178763,13.041186025885587,0.8457270598506397,0.12720881109855964,28.54069040445344,28.55350145085967,-2.0083593108440705,28.265089155508928,-2.0044939628887612,0.0064875599999999894,-0.2532254666666667,0.20715484000000017,0.46686786666666685,0.32722828902576623,0.3196184445375813,0.3338155713910462,0.27783297464585544
LBP05_S00,LBP05,-1483,168,0,167,-1483,1715758609.68,2024-05-15 07:36:49.680000+00:00,2024-05-15 16:36:49.680000+09:00,2024,5,15,7,36,49,680,,,,,,,,,-0.116211,-0.154541,1.176758,58.532715,13.549805,6.652832,,,,,,,,,,,1.0,1.0,1.0,0.0,0.0,0.0,0.0,4.0,0.0,-0.07998373333333333,-0.16727865333333333,0.97138344,-6.159667999999999,-0.8707682000000005,-1.468912746666667,-9.595698243095695,12.177962600224369,10.749910861291912,0.46189913012681183,0.6143273151075344,28.970686838905117,28.980880676308118,-2.021196089424483,28.50747527425515,-2.001724838183954,-0.03622726666666666,0.01273765333333332,0.20537455999999998,0.25433947999999995,0.20893389518642386,0.29888036839026993,0.33059250215315705,0.2757220950141435
LBP05_S00,LBP05,-1482,169,0,168,-1482,1715758609.72,2024-05-15 07:36:49.720000+00:00,2024-05-15 16:36:49.720000+09:00,2024,5,15,7,36,49,720,,,,,,,,,-0.101562,0.037354,1.143555,-22.644043,3.78418,-12.023926,,,,,,,,,,,1.0,1.0,1.0,0.0,0.0,0.0,0.0,4.0,0.0,-0.08077149333333333,-0.17182618666666669,0.97760088,-6.279296906666666,0.013834653333332766,-1.6186523333333336,-7.489410987700258,9.705521656062803,7.380852360644404,0.1623226906188015,1.0025481813500465,29.265920933330893,29.28353768908042,-2.0147844144430085,28.745939838059904,-1.997706608921558,-0.020790506666666667,0.20918018666666668,0.1659541200000001,0.39592481333333346,0.26782338509983156,0.2847559606921979,0.33353459965476745,0.2771690269996009
LBP05_S00,LBP05,-1481,170,0,169,-1481,1715758609.76,2024-05-15 07:36:49.760000+00:00,2024-05-15 16:36:49.760000+09:00,2024,5,15,7,36,49,760,,,,,,,,,-0.088135,-0.226562,1.241211,-37.963867,2.441406,-28.076172,,,,,,,,,,,1.0,1.0,1.0,0.0,0.0,0.0,0.0,4.0,0.0,-0.08237957333333333,-0.17730470666666667,0.9770865466666667,-5.387369826666665,0.6233724133333327,-1.5096028533333334,-5.598705126574387,6.509487069621096,3.910544951757289,-0.061625514444173995,1.2629276641348903,29.422342731401184,29.449499754544284,-2.0105992261457972,28.957968780226658,-1.9948411343764778,-0.005755426666666674,-0.04925729333333334,0.26412445333333334,0.31913717333333336,0.26873989791483066,0.27039921929696714,0.33566901892187756,0.2781284163251632
LBP05_S00,LBP05,-1480,171,0,170,-1480,1715758609.8,2024-05-15 07:36:49.800000+00:00,2024-05-15 16:36:49.800000+09:00,2024,5,15,7,36,49,800,,,,,,,,,-0.134033,-0.205566,1.119873,-69.152832,8.728027,-17.822266,,,,,,,,,,,1.0,1.0,1.0,0.0,0.0,0.0,0.0,4.0,0.0,-0.08177736,-0.17340821333333334,0.9692089466666666,-2.026367226666666,0.2970377866666661,-1.5999348800000002,-3.195046618916321,3.2116554923138594,1.0918292342527887,-0.18942737920082683,1.3913938838274447,29.466015900771296,29.499456821040795,-2.0161856408171723,29.12508051222547,-1.993423803251197,-0.05225564000000002,-0.03215778666666666,0.15066405333333333,0.23507748,0.16267892341031137,0.26118463319021523,0.3363198396647737,0.2785039813783468
LBP05_S00,LBP05,-1479,172,0,171,-1479,1715758609.84,2024-05-15 07:36:49.840000+00:00,2024-05-15 16:36:49.840000+09:00,2024,5,15,7,36,49,840,,,,,,,,,-0.042725,-0.144043,0.991211,-58.227539,-9.58252,-6.774902,,,,,,,,,,,1.0,1.0,1.0,0.0,0.0,0.0,0.0,4.0,0.0,-0.07712893333333333,-0.1677767066666667,0.95790036,-1.8562825866666663,-1.1612955466666672,-1.687011706666667,0.22670199844706582,0.2753563759037774,-0.7339162403147866,-0.1803592992629442,1.4024081388635958,29.436659251158705,29.470598669413025,-2.006222051300937,29.237392459566223,-1.9913912573018386,0.03440393333333333,0.023733706666666687,0.03331063999999995,0.09144827999999997,0.05344640491327195,0.2486063760031785,0.3311591402055833,0.2751026077722823
LBP05_S00,LBP05,-1478,173,0,172,-1478,1715758609.88,2024-05-15 07:36:49.880000+00:00,2024-05-15 16:36:49.880000+09:00,2024,5,15,7,36,49,880,,,,,,,,,-0.028076,-0.22998,1.003662,-0.854492,-15.197754,18.371582,,,,,,,,,,,1.0,1.0,1.0,0.0,0.0,0.0,0.0,4.0,0.0,-0.07081057333333333,-0.1656152533333333,0.9459863066666666,-1.2044271199999996,-2.9191080400000007,-1.7757161333333336,4.658186516328113,-2.086966159615933,-1.6401804656647783,0.005968161390180332,1.3189294924789585,29.371052032532113,29.400651491468516,-1.9792994029567115,29.295750773554296,-1.9893987142239342,0.04273457333333333,-0.0643647466666667,0.057675693333333444,0.16477501333333347,0.09641343253368251,0.23707152574482282,0.3270919854207948,0.2757506694316125
LBP05_S00,LBP05,-1477,174,0,173,-1477,1715758609.92,2024-05-15 07:36:49.920000+00:00,2024-05-15 16:36:49.920000+09:00,2024,5,15,7,36,49,920,,,,,,,,,-0.026123,-0.40625,0.949707,52.246094,-8.666992,17.51709,,,,,,,,,,,1.0,1.0,1.0,0.0,0.0,0.0,0.0,4.0,0.0,-0.06504885333333332,-0.16714194666666665,0.9393001066666666,-2.9020182666666656,-3.8175455333333335,-1.8863932133333337,9.604964036983176,-3.9251267438656776,-1.9627040092511026,0.3901667228695074,1.1619244227243315,29.292543872162067,29.318175675479836,-1.9464245085208431,29.311176963223666,-1.9821678168651218,0.03892585333333332,-0.23910805333333335,0.010406893333333334,0.2884408,0.2424792499481878,0.23788497632475827,0.32123643550138914,0.2779069824993915
LBP05_S00,LBP05,-1476,175,0,174,-1476,1715758609.96,2024-05-15 07:36:49.960000+00:00,2024-05-15 16:36:49.960000+09:00,2024,5,15,7,36,49,960,,,,,,,,,0.001709,-0.057861,0.864502,71.838379,-6.04248,17.39502,,,,,,,,,,,1.0,1.0,1.0,0.0,0.0,0.0,0.0,4.0,0.0,-0.06340172000000001,-0.15794273333333333,0.9355989333333334,-2.1923828533333327,-3.651529906666667,-2.3624674266666665,14.381222473032645,-5.472152549877769,-2.0810940843403167,0.9654156217908132,0.9430383207292208,29.209300108788455,29.240461033342665,-1.9566106833808792,29.302380803752946,-1.9758394872935565,0.06511072000000001,0.10008173333333334,-0.07109693333333345,0.2362893866666668,0.13896234430710827,0.23387232134285407,0.31859617228104264,0.27864697382630305
LBP05_S00,LBP05,-1475,176,0,175,-1475,1715758610.0,2024-05-15 07:36:50+00:00,2024-05-15 16:36:50+09:00,2024,5,15,7,36,50,0,7.0,36.0,49.0,40.558319,141.527252,8.525,3.0,10.0,-0.023438,-0.177002,0.899902,63.720703,2.441406,-1.831055,-545.0,16.0,555.0,123.0,0.0,1024.800049,22.709999,0.116936,-95.665085,4.035937,1.0,1.0,1.0,0.0,0.0,0.0,0.0,3.0,0.0,-0.0635124,-0.15933921333333334,0.93642576,-3.48470056,-3.284505173333334,-2.9833984133333336,18.482725972439987,-6.991944168893442,-2.2384221616060325,1.7047246606884126,0.663360553973483,29.119763222324213,29.1771613341249,-1.954231245184486,29.29222795879058,-1.9686041493462234,0.040074399999999996,-0.017662786666666652,-0.036523760000000016,0.09426094666666666,0.05702557858303393,0.2293752953069985,0.3130997554509153,0.27701777785361786
LBP05_S00,LBP05,-1474,177,0,176,-1474,1715758610.04,2024-05-15 07:36:50.040000+00:00,2024-05-15 16:36:50.040000+09:00,2024,5,15,7,36,50,40,,,,,,,,,-0.002441,-0.072021,0.82666,11.59668,2.990723,-7.446289,,,,,,,,,,,1.0,1.0,1.0,0.0,0.0,0.0,0.0,3.0,0.0,-0.06604169333333333,-0.15035809333333333,0.93759764,-5.5916341466666655,-3.0802408533333336,-3.3837890400000004,21.821852164978658,-8.600012707438319,-2.4668187050573107,2.577598747287559,0.3193600456759503,29.02109047412192,29.137084590740418,-1.988433880065027,29.30383520069331,-1.9605402424074583,0.06360069333333333,0.07833709333333333,-0.11093764000000006,0.25287542666666674,0.1499630232862945,0.23204399103982887,0.3105250009379634,0.27589760786939116
LBP05_S00,LBP05,-1473,178,0,177,-1473,1715758610.08,2024-05-15 07:36:50.080000+00:00,2024-05-15 16:36:50.080000+09:00,2024,5,15,7,36,50,80,,,,,,,,,0.00415,-0.083496,0.916016,4.333496,2.807617,-16.906738,,,,,,,,,,,1.0,1.0,1.0,0.0,0.0,0.0,0.0,3.0,0.0,-0.06312502666666665,-0.16085938666666666,0.9432584533333332,-9.078776066666666,-3.46679684,-3.33658852,24.700408047799073,-10.121874158176178,-2.6270227442093406,3.565615069199522,-0.08551492065109684,28.916009564353544,29.135142573001808,-1.9488871158363557,29.356731894341102,-1.95168093843963,0.06727502666666665,0.07736338666666666,-0.027242453333333194,0.17188086666666652,0.10608097884708513,0.23032581832914245,0.3057190335543322,0.27594050376008883
LBP05_S00,LBP05,-1472,179,0,178,-1472,1715758610.12,2024-05-15 07:36:50.120000+00:00,2024-05-15 16:36:50.120000+09:00,2024,5,15,7,36,50,120,,,,,,,,,-0.01123,-0.303467,0.920166,6.896973,-5.737305,-8.605957,,,,,,,,,,,1.0,1.0,1.0,0.0,0.0,0.0,0.0,3.0,0.0,-0.06298179999999999,-0.15922526666666664,0.9459114533333334,-10.566406266666664,-3.649902306666667,-2.9134114400000004,27.542956412706083,-11.049609233526972,-2.5186528956132075,4.667333325707765,-0.5274992899921758,28.815263448529016,29.195576094373216,-1.9515011187273583,29.463470551289582,-1.948383764336017,0.05175179999999999,-0.14424173333333334,-0.025745453333333335,0.22173898666666667,0.15539226108652673,0.2254318589985078,0.29873166751624636,0.2768551482810297
LBP05_S00,LBP05,-1471,180,0,179,-1471,1715758610.16,2024-05-15 07:36:50.160000+00:00,2024-05-15 16:36:50.160000+09:00,2024,5,15,7,36,50,160,,,,,,,,,-0.033936,-0.053223,0.942383,15.686035,-6.469727,-8.666992,,,,,,,,,,,1.0,1.0,1.0,0.0,0.0,0.0,0.0,3.0,0.0,-0.06224613333333334,-0.1637207066666667,0.9544856666666668,-8.319498719999999,-2.9402668933333342,-2.5268554533333334,30.52959370003639,-10.629924736729805,-1.9974810046260774,5.88851707370922,-0.952696279461368,28.735364208343974,29.34797130492056,-1.9382458466724657,29.62730607597004,-1.9534638739579997,0.02831013333333334,0.1104977066666667,-0.012102666666666817,0.15091050666666686,0.11470693687998244,0.21797121799505242,0.297588321868688,0.27766158047080136
LBP05_S00,LBP05,-1470,181,0,180,-1470,1715758610.2,2024-05-15 07:36:50.200000+00:00,2024-05-15 16:36:50.200000+09:00,2024,5,15,7,36,50,200,,,,,,,,,-0.094727,-0.23877,0.994141,27.282715,-8.361816,3.356934,,,,,,,,,,,1.0,1.0,1.0,0.0,0.0,0.0,0.0,3.0,0.0,-0.06223310666666666,-0.16502603999999998,0.9604915333333334,-6.431477879999999,-2.7962239200000005,-2.3396809733333335,33.30335690024827,-8.075908545862854,-1.0477682411976788,7.220651349719152,-1.2757326212958822,28.693453478696068,29.615529240068206,-1.9355465714295192,29.841831644133446,-1.9570348208597452,-0.03249389333333334,-0.07374396000000003,0.03364946666666668,0.13988732000000004,0.0873287544133704,0.21096257926889503,0.2914080700658008,0.27722457419255936
LBP05_S00,LBP05,-1469,182,0,181,-1469,1715758610.24,2024-05-15 07:36:50.240000+00:00,2024-05-15 16:36:50.240000+09:00,2024,5,15,7,36,50,240,,,,,,,,,0.014893,-0.216797,0.999512,-34.606934,-15.136719,-3.601074,,,,,,,,,,,1.0,1.0,1.0,0.0,0.0,0.0,0.0,3.0,0.0,-0.06116865333333333,-0.17150390666666668,0.9731738266666667,-6.536458346666666,-2.6302082933333337,-2.3193359200000003,34.891196383219075,-2.852959998426751,0.21228450800859613,8.616299205047914,-1.3898510212329522,28.70194485901641,29.999565605890865,-1.917629011622653,30.09316755580864,-1.9630930151313197,0.07606165333333333,-0.04529309333333331,0.026338173333333215,0.14769291999999984,0.09236091590082314,0.20139424549195767,0.28923362354187687,0.27702158315923875
