file_name,test_id,_program_index,program_index,session_id,index,_index,unixtime,datetime_utc,datetime_jst,rtc_year,rtc_month,rtc_day,rtc_hour,rtc_min,rtc_sec,rtc_msec,gps_hour,gps_min,gps_sec,latitude,longitude,altitude,fix_type,SIV,acc_x,acc_y,acc_z,gyro_x,gyro_y,gyro_z,mag_x,mag_y,mag_z,illuminance,atmopress,water_pressure,water_temp,depth,alt_wps,battery_level,behavior_class,camera_command,camera_recording,camera_count,play_audio,speaker_on,audio_file,prev_sd_write_time_ms,delay_occurred_counter,acc_x_ma,acc_y_ma,acc_z_ma,gyro_x_ma,gyro_y_ma,gyro_z_ma,gyro_x_lowpass,gyro_y_lowpass,gyro_z_lowpass,angle_x,angle_y,angle_z,combined_angle_change,gravity_adjusted_angle,smoothed_angle_change,smoothed_gravity_angle,acc_x_dy,acc_y_dy,acc_z_dy,ODBA,VeDBA,smoothed_VeDBA_1s,smoothed_VeDBA_2s,smoothed_VeDBA_3s
LBP05_S05,LBP05,-1650,1,5,0,-1650,1715800270.0,2024-05-15 19:11:10+00:00,2024-05-16 04:11:10+09:00,2024,5,15,19,11,10,0,19.0,11.0,10.0,40.895325,141.738144,9.188,3.0,11.0,-0.204102,0.117676,0.033203,-30.822754,0.366211,-8.483887,-577.0,36.0,554.0,2.0,0.0,1020.599976,17.07,0.075314,-60.978813,3.88125,0.0,1.0,1.0,5.0,0.0,0.0,0.0,5.0,0.0,,,,,,,-30.497476091033057,1.1675267804451432,-8.328064486684875,-1.2198990436413224,0.04670107121780573,-0.333122579467395,1.2654269317826747,,1.7374602284428096,,,,,,,,,
LBP05_S05,LBP05,-1649,2,5,1,-1649,1715800270.04,2024-05-15 19:11:10.040000+00:00,2024-05-16 04:11:10.040000+09:00,2024,5,15,19,11,10,40,,,,,,,,,0.160645,-0.174072,0.435547,2.624512,-99.243164,-2.075195,,,,,,,,,,,0.0,1.0,1.0,5.0,0.0,0.0,0.0,5.0,0.0,,,,,,,-15.922177721277817,2.2489491742435592,-5.196489090909581,-1.8567861524924352,0.1366590381875481,-0.5409821431037782,1.93881205586389,,1.6274532254016396,,,,,,,,,
LBP05_S05,LBP05,-1648,3,5,2,-1648,1715800270.08,2024-05-15 19:11:10.080000+00:00,2024-05-16 04:11:10.080000+09:00,2024,5,15,19,11,10,80,,,,,,,,,0.439453,-0.208252,0.860596,15.319824,-10.314941,5.981445,,,,,,,,,,,0.0,1.0,1.0,5.0,0.0,0.0,0.0,5.0,0.0,,,,,,,-3.23331044829698,3.268731380171469,-2.3092180271385496,-1.9861185704243143,0.26740829339440686,-0.6333508641893202,2.101739158014093,,1.5206625577910078,,,,,,,,,
LBP05_S05,LBP05,-1647,4,5,3,-1647,1715800270.12,2024-05-15 19:11:10.120000+00:00,2024-05-16 04:11:10.120000+09:00,2024,5,15,19,11,10,120,,,,,,,,,-0.181152,-0.257568,1.46875,50.537109,77.758789,-2.075195,,,,,,,,,,,0.0,1.0,1.0,5.0,0.0,0.0,0.0,5.0,0.0,,,,,,,6.28068413471099,4.017304738107649,0.16503263859218836,-1.7348912050358747,0.42810048291871283,-0.6267495586456326,1.893655862623555,,1.4548642679893018,,,,,,,,,
LBP05_S05,LBP05,-1646,5,5,4,-1646,1715800270.16,2024-05-15 19:11:10.160000+00:00,2024-05-16 04:11:10.160000+09:00,2024,5,15,19,11,10,160,,,,,,,,,-0.676758,-0.274658,1.794434,31.921387,-18.859863,-3.662109,,,,,,,,,,,0.0,1.0,1.0,5.0,0.0,0.0,0.0,5.0,0.0,,,,,,,12.11822978806851,4.242493026487031,2.1390642317970157,-1.2501620135131342,0.5978002039781941,-0.541186989373752,1.487667133929835,,1.434520226771199,,,,,,,,,
LBP05_S05,LBP05,-1645,6,5,5,-1645,1715800270.2,2024-05-15 19:11:10.200000+00:00,2024-05-16 04:11:10.200000+09:00,2024,5,15,19,11,10,200,,,,,,,,,-0.242188,-0.333008,1.670166,38.879395,-43.395996,17.211914,,,,,,,,,,,0.0,1.0,1.0,5.0,0.0,0.0,0.0,5.0,0.0,,,,,,,14.601772142642599,3.759767825510208,3.612424585029683,-0.6660911278074302,0.7481909169986024,-0.39669000597256465,1.077418210195789,,1.4504218269664904,,,,,,,,,
LBP05_S05,LBP05,-1644,7,5,6,-1644,1715800270.24,2024-05-15 19:11:10.240000+00:00,2024-05-16 04:11:10.240000+09:00,2024,5,15,19,11,10,240,,,,,,,,,-0.188232,-0.091064,0.885254,-48.583984,113.586426,10.986328,,,,,,,,,,,0.0,1.0,1.0,5.0,0.0,0.0,0.0,5.0,0.0,,,,,,,14.647134495988546,2.5587203362038666,4.649075459364047,-0.08020574796788837,0.850539730446757,-0.21072698759800276,0.8799185521272178,,1.5168048271498331,,,,,,,,,
LBP05_S05,LBP05,-1643,8,5,7,-1643,1715800270.28,2024-05-15 19:11:10.280000+00:00,2024-05-16 04:11:10.280000+09:00,2024,5,15,19,11,10,280,,,,,,,,,-0.225098,0.091064,0.032227,-48.339844,10.192871,-19.287109,,,,,,,,,,,0.0,1.0,1.0,5.0,0.0,0.0,0.0,5.0,0.0,,,,,,,13.372653023493017,0.8417299385092145,5.3361023974739865,0.4547003729718323,0.8842089279871256,0.0027171083009567,0.9942762393773595,,1.5501997760478428,,,,,,,,,
LBP05_S05,LBP05,-1642,9,5,8,-1642,1715800270.32,2024-05-15 19:11:10.320000+00:00,2024-05-16 04:11:10.320000+09:00,2024,5,15,19,11,10,320,,,,,,,,,0.088867,-0.325684,0.378174,-4.882812,-98.144531,-1.953125,,,,,,,,,,,0.0,1.0,1.0,5.0,0.0,0.0,0.0,5.0,0.0,,,,,,,11.723871391709675,-1.035853581052963,5.740754625333585,0.9236552286402193,0.8427747847450071,0.2323472933143001,1.2717678970263757,,1.601788153218195,,,,,,,,,
LBP05_S05,LBP05,-1641,10,5,9,-1641,1715800270.36,2024-05-15 19:11:10.360000+00:00,2024-05-16 04:11:10.360000+09:00,2024,5,15,19,11,10,360,,,,,,,,,0.470215,-0.172607,0.810303,42.907715,-31.25,12.268066,,,,,,,,,,,0.0,1.0,1.0,5.0,0.0,0.0,0.0,5.0,0.0,,,,,,,10.26776855171542,-2.699283247993994,5.887712711327512,1.334365970708836,0.7348034548252473,0.4678558017674006,1.5935362287241137,,1.7077955482181086,,,,,,,,,
LBP05_S05,LBP05,-1640,11,5,10,-1640,1715800270.4,2024-05-15 19:11:10.400000+00:00,2024-05-16 04:11:10.400000+09:00,2024,5,15,19,11,10,400,,,,,,,,,-0.22168,-0.230957,1.507324,50.048828,77.209473,19.165039,,,,,,,,,,,0.0,1.0,1.0,5.0,0.0,0.0,0.0,5.0,0.0,,,,,,,9.201731800040044,-3.885676848152605,5.76909896434988,1.702435242710438,0.5793763808991431,0.6986197603413957,1.9292569336161023,,1.8856620619922477,,,,,,,,,
LBP05_S05,LBP05,-1639,12,5,11,-1639,1715800270.44,2024-05-15 19:11:10.440000+00:00,2024-05-16 04:11:10.440000+09:00,2024,5,15,19,11,10,440,,,,,,,,,-0.774658,-0.270752,1.779785,37.719727,-34.667969,8.850098,,,,,,,,,,,0.0,1.0,1.0,5.0,0.0,0.0,0.0,5.0,0.0,,,,,,,8.49710544513895,-4.500266979688106,5.3774931157400525,2.042319460515996,0.3993657017116189,0.9137194849709979,2.2727615448439877,,2.131214869819323,,,,,,,,,
LBP05_S05,LBP05,-1638,13,5,12,-1638,1715800270.48,2024-05-15 19:11:10.480000+00:00,2024-05-16 04:11:10.480000+09:00,2024,5,15,19,11,10,480,,,,,,,,,-0.27124,-0.057617,1.631348,26.123047,-57.922363,5.187988,,,,,,,,,,,0.0,1.0,1.0,5.0,0.0,0.0,0.0,5.0,0.0,,,,,,,8.04140153030907,-4.58515827549859,4.735662736883709,2.3639755217283587,0.21595937069167528,1.1031459944463462,2.617622929717615,,2.4153662513888703,,,,,,,,,
LBP05_S05,LBP05,-1637,14,5,13,-1637,1715800270.52,2024-05-15 19:11:10.520000+00:00,2024-05-16 04:11:10.520000+09:00,2024,5,15,19,11,10,520,,,,,,,,,-0.16748,-0.232666,0.952393,-40.95459,104.003906,7.751465,,,,,,,,,,,0.0,1.0,1.0,5.0,0.0,0.0,0.0,5.0,0.0,,,,,,,7.687587207180063,-4.243933298414663,3.9013544733114087,2.6714790100155614,0.04620203875508877,1.2592001733788025,2.953729812622688,,2.6953297468767374,,,,,,,,,
LBP05_S05,LBP05,-1636,15,5,14,-1636,1715800270.56,2024-05-15 19:11:10.560000+00:00,2024-05-16 04:11:10.560000+09:00,2024,5,15,19,11,10,560,,,,,,,,,-0.214355,0.075439,0.040527,-59.875488,13.244629,-17.883301,,,,,,,,,,,0.0,1.0,1.0,5.0,0.0,0.0,0.0,5.0,0.0,,,,,,,7.219943143687182,-3.579716293877978,2.946382289380879,2.9602767357630486,-0.09698661300003034,1.3770554649540376,3.266332271671229,,2.939925924480399,,,,,,,,,
LBP05_S05,LBP05,-1635,16,5,15,-1635,1715800270.6,2024-05-15 19:11:10.600000+00:00,2024-05-16 04:11:10.600000+09:00,2024,5,15,19,11,10,600,,,,,,,,,0.083008,-0.27417,0.375,27.282715,-94.543457,-2.380371,,,,,,,,,,,0.0,1.0,1.0,5.0,0.0,0.0,0.0,5.0,0.0,,,,,,,6.3250714399740176,-2.6863715474827226,1.929041232710102,3.2132795933620093,-0.20444147489933923,1.4542171142624416,3.532946288466543,,3.128586238555698,,,,,,,,,
LBP05_S05,LBP05,-1634,17,5,16,-1634,1715800270.64,2024-05-15 19:11:10.640000+00:00,2024-05-16 04:11:10.640000+09:00,2024,5,15,19,11,10,640,,,,,,,,,0.473633,-0.041992,0.770996,27.770996,-26.794434,7.141113,,,,,,,,,,,0.0,1.0,1.0,5.0,0.0,0.0,0.0,5.0,0.0,,,,,,,4.654337803546768,-1.6891638734539924,0.883572897540227,3.39945310550388,-0.27200802983749894,1.4895600301640506,3.7214323678226884,,3.245744611888779,,,,,,,,,
LBP05_S05,LBP05,-1633,18,5,17,-1633,1715800270.68,2024-05-15 19:11:10.680000+00:00,2024-05-16 04:11:10.680000+09:00,2024,5,15,19,11,10,680,,,,,,,,,-0.065918,-0.292236,1.462402,12.817383,61.828613,10.192871,,,,,,,,,,,0.0,1.0,1.0,5.0,0.0,0.0,0.0,5.0,0.0,,,,,,,1.9849045302692492,-0.7821412074413192,-0.1632106830400812,3.47884928671465,-0.30329367813515173,1.4830316028424473,3.7939111942560304,,3.282190638438383,,,,,,,,,
LBP05_S05,LBP05,-1632,19,5,18,-1632,1715800270.72,2024-05-15 19:11:10.720000+00:00,2024-05-16 04:11:10.720000+09:00,2024,5,15,19,11,10,720,,,,,,,,,-0.718262,-0.197754,1.735107,31.433105,-18.920898,0.732422,,,,,,,,,,,0.0,1.0,1.0,5.0,0.0,0.0,0.0,5.0,0.0,,,,,,,-1.6022431579839416,-0.2053228986391827,-1.1601362023593342,3.4147595603952925,-0.31150659408071907,1.4366261547480739,3.7177296730629914,,3.2384084351843385,,,,,,,,,
LBP05_S05,LBP05,-1631,20,5,19,-1631,1715800270.76,2024-05-15 19:11:10.760000+00:00,2024-05-16 04:11:10.760000+09:00,2024,5,15,19,11,10,760,,,,,,,,,-0.192871,-0.251221,1.589355,20.141602,-47.851562,0.12207,,,,,,,,,,,0.0,1.0,1.0,5.0,0.0,0.0,0.0,5.0,0.0,,,,,,,-5.6389152700834915,-0.15698123531993846,-2.009840069907368,3.189202949591953,-0.31778584349351663,1.356232551951779,3.4801393694771097,,3.126512899082173,,,,,,,,,
LBP05_S05,LBP05,-1630,21,5,20,-1630,1715800270.8,2024-05-15 19:11:10.800000+00:00,2024-05-16 04:11:10.800000+09:00,2024,5,15,19,11,10,800,,,,,,,,,-0.153564,-0.048096,0.823975,-17.333984,110.168457,2.563477,,,,,,,,,,,0.0,1.0,1.0,5.0,0.0,0.0,0.0,5.0,0.0,,,,,,,-9.349706855167241,-0.6911934064362469,-2.5763666357457047,2.8152146753852634,-0.3454335797509665,1.253177886521951,3.100840666946908,,2.9681987740258657,,,,,,,,,
LBP05_S05,LBP05,-1629,22,5,21,-1629,1715800270.84,2024-05-15 19:11:10.840000+00:00,2024-05-16 04:11:10.840000+09:00,2024,5,15,19,11,10,840,,,,,,,,,-0.219971,0.070068,0.052002,-86.486816,13.61084,-16.723633,,,,,,,,,,,0.0,1.0,1.0,5.0,0.0,0.0,0.0,5.0,0.0,,,,,,,-11.879328636279132,-1.6665867562908083,-2.723060895119328,2.340041529934098,-0.41209705000259883,1.1442554507171778,2.6372218103400273,,2.7882186930183646,,,,,,,,,
LBP05_S05,LBP05,-1628,23,5,22,-1628,1715800270.88,2024-05-15 19:11:10.880000+00:00,2024-05-16 04:11:10.880000+09:00,2024,5,15,19,11,10,880,,,,,,,,,0.053955,-0.230469,0.345459,-22.033691,-91.73584,-10.742188,,,,,,,,,,,0.0,1.0,1.0,5.0,0.0,0.0,0.0,5.0,0.0,,,,,,,-12.570395840831717,-2.7887501418238947,-2.3632031855955073,1.8372256963008295,-0.5236470556755546,1.0497273232933575,2.179800897177167,,2.6103611990154785,,,,,,,,,
LBP05_S05,LBP05,-1627,24,5,23,-1627,1715800270.92,2024-05-15 19:11:10.920000+00:00,2024-05-16 04:11:10.920000+09:00,2024,5,15,19,11,10,920,,,,,,,,,0.466797,-0.211182,0.789551,-11.352539,-42.053223,3.112793,,,,,,,,,,,0.0,1.0,1.0,5.0,0.0,0.0,0.0,5.0,0.0,,,,,,,-11.165483425568452,-3.7328831011623715,-1.4978189045977768,1.3906063592780915,-0.6729623797220494,0.9898145671094464,1.834774451601039,,2.459437530787259,,,,,,,,,
LBP05_S05,LBP05,-1626,25,5,24,-1626,1715800270.96,2024-05-15 19:11:10.960000+00:00,2024-05-16 04:11:10.960000+09:00,2024,5,15,19,11,10,960,,,,,,,,,-0.016846,-0.159912,1.344971,32.348633,63.598633,2.807617,,,,,,,,,,,0.0,1.0,1.0,5.0,0.0,0.0,0.0,5.0,0.0,,,,,,,-7.854185324393313,-4.273431871503899,-0.2218476397957802,1.076438946302359,-0.8438996545822054,0.9809406615176152,1.6831910211081553,,2.36224548370198,,,,,,,,,
LBP05_S05,LBP05,-1625,26,5,25,-1625,1715800271.0,2024-05-15 19:11:11+00:00,2024-05-16 04:11:11+09:00,2024,5,15,19,11,11,0,19.0,11.0,11.0,40.895252,141.738144,9.418,3.0,13.0,-0.679688,-0.25708,1.693604,5.737305,-14.648438,0.610352,-575.0,42.0,553.0,1.0,0.0,1020.700012,17.08,0.076305,-61.806309,3.88125,0.0,1.0,1.0,5.0,0.0,0.0,0.0,6.0,0.0,,,,,,,-3.178034676482734,-4.341159344089334,1.3026995658025156,0.9493175592430496,-1.0175460283457787,1.0330486441497158,1.7331454783915328,,2.3437011792784266,,,,,,,,,
LBP05_S05,LBP05,-1624,27,5,26,-1624,1715800271.04,2024-05-15 19:11:11.040000+00:00,2024-05-16 04:11:11.040000+09:00,2024,5,15,19,11,11,40,,,,,,,,,-0.19873,-0.439697,1.662598,26.245117,-73.852539,5.187988,,,,,,,,,,,0.0,1.0,1.0,5.0,0.0,0.0,0.0,6.0,0.0,,,,,,,2.1255977458646886,-3.9859819741447744,2.8915734226620935,1.0343414690776371,-1.1769853073115697,1.1487115810561994,1.9428574277938224,,2.420650203668216,,,,,,,,,
LBP05_S05,LBP05,-1623,28,5,27,-1623,1715800271.08,2024-05-15 19:11:11.080000+00:00,2024-05-16 04:11:11.080000+09:00,2024,5,15,19,11,11,80,,,,,,,,,-0.120361,-0.057373,0.911377,-17.76123,98.937988,22.521973,,,,,,,,,,,0.0,1.0,1.0,5.0,0.0,0.0,0.0,6.0,0.0,,,,,,,7.259486666752017,-3.287008838341056,4.380262554150522,1.3247209357477179,-1.3084656608452119,1.3239220832222203,2.2846745119738325,,2.596717194528363,,,,,,,,,
LBP05_S05,LBP05,-1622,29,5,28,-1622,1715800271.12,2024-05-15 19:11:11.120000+00:00,2024-05-16 04:11:11.120000+09:00,2024,5,15,19,11,11,120,,,,,,,,,-0.37915,0.133545,0.100586,-25.45166,47.851562,-11.71875,,,,,,,,,,,0.0,1.0,1.0,5.0,0.0,0.0,0.0,6.0,0.0,,,,,,,11.455510444890155,-2.2761091689935493,5.64759273438246,1.782941353543324,-1.399510027604954,1.5498257925975187,2.745809202210206,,2.8600653134350784,,,,,,,,,
LBP05_S05,LBP05,-1621,30,5,29,-1621,1715800271.16,2024-05-15 19:11:11.160000+00:00,2024-05-16 04:11:11.160000+09:00,2024,5,15,19,11,11,160,,,,,,,,,0.044189,-0.276855,0.28125,2.685547,-79.284668,0.061035,,,,,,,,,,,0.0,1.0,1.0,5.0,0.0,0.0,0.0,6.0,0.0,,,,,,,14.04753650718834,-0.9303329021964498,6.617901175167422,2.3448428138308577,-1.436723343692812,1.8145418396042157,3.2946963252415724,,3.1850347540365647,,,,,,,,,
LBP05_S05,LBP05,-1620,31,5,30,-1620,1715800271.2,2024-05-15 19:11:11.200000+00:00,2024-05-16 04:11:11.200000+09:00,2024,5,15,19,11,11,200,,,,,,,,,0.316406,-0.050293,0.677002,22.827148,-70.678711,7.751465,,,,,,,,,,,0.0,1.0,1.0,5.0,0.0,0.0,0.0,6.0,0.0,,,,,,,14.574015548697993,0.758085124040121,7.252205057107142,2.9278034357787774,-1.4063999387312072,2.1046300418885013,3.8703309108448014,,3.5389314294022007,,,,,,,,,
LBP05_S05,LBP05,-1619,32,5,31,-1619,1715800271.24,2024-05-15 19:11:11.240000+00:00,2024-05-16 04:11:11.240000+09:00,2024,5,15,19,11,11,240,,,,,,,,,0.182617,-0.251465,1.162598,38.330078,49.804688,8.056641,,,,,,,,,,,0.0,1.0,1.0,5.0,0.0,0.0,0.0,6.0,0.0,,,,,,,12.915964658068235,2.692421082804916,7.543625808481172,3.444442022101507,-1.2987030954190106,2.406375074227748,4.397891718941501,,3.8931035335570963,,,,,,,,,
LBP05_S05,LBP05,-1618,33,5,32,-1618,1715800271.28,2024-05-15 19:11:11.280000+00:00,2024-05-16 04:11:11.280000+09:00,2024,5,15,19,11,11,280,,,,,,,,,-0.622314,-0.259766,1.650635,58.532715,45.654297,16.052246,,,,,,,,,,,0.0,1.0,1.0,5.0,0.0,0.0,0.0,6.0,0.0,,,,,,,9.412736886325451,4.645554162111269,7.523293254119688,3.8209514975545247,-1.1128809289345598,2.7073068043925357,4.813282086244326,,4.229715194527264,,,,,,,,,
LBP05_S05,LBP05,-1617,34,5,33,-1617,1715800271.32,2024-05-15 19:11:11.320000+00:00,2024-05-16 04:11:11.320000+09:00,2024,5,15,19,11,11,320,,,,,,,,,-0.416748,-0.438721,1.750732,10.070801,-60.60791,15.380859,,,,,,,,,,,0.0,1.0,1.0,5.0,0.0,0.0,0.0,6.0,0.0,,,,,,,4.864187067477175,6.327176017937784,7.268086028273341,4.015518980253612,-0.8597938882170484,2.9980302455234695,5.084468857615898,,4.539535718809234,-2.192537247284596,,,,,,,,
LBP05_S05,LBP05,-1616,35,5,34,-1616,1715800271.36,2024-05-15 19:11:11.360000+00:00,2024-05-16 04:11:11.360000+09:00,2024,5,15,19,11,11,360,,,,,,,,,-0.061768,-0.030273,1.332764,10.803223,44.921875,7.69043,,,,,,,,,,,0.0,1.0,1.0,5.0,0.0,0.0,0.0,6.0,0.0,,,,,,,0.35773565274983454,7.499263761107662,6.89518401123981,4.029828406363605,-0.559823337772742,3.273837605973062,5.222157774764516,,4.817883370965037,-2.199633622150163,,,,,,,,
LBP05_S05,LBP05,-1615,36,5,35,-1615,1715800271.4,2024-05-15 19:11:11.400000+00:00,2024-05-16 04:11:11.400000+09:00,2024,5,15,19,11,11,400,,,,,,,,,-0.438965,0.095947,0.249268,-33.630371,114.013672,-13.366699,,,,,,,,,,,0.0,1.0,1.0,5.0,0.0,0.0,0.0,6.0,0.0,,,,,,,-3.055188152906538,8.06539185289469,6.536921536871089,3.9076208802473436,-0.23720766365695434,3.5353144674479053,5.274866519940488,,5.063756808987955,-2.2076092157490765,,,,,,,,
LBP05_S05,LBP05,-1614,37,5,36,-1614,1715800271.44,2024-05-15 19:11:11.440000+00:00,2024-05-16 04:11:11.440000+09:00,2024,5,15,19,11,11,440,,,,,,,,,-0.058105,-0.43335,0.282959,-144.165039,-71.655273,2.258301,,,,,,,,,,,0.0,1.0,1.0,5.0,0.0,0.0,0.0,6.0,0.0,,,,,,,-4.711292403832964,8.078332025722865,6.30611173192871,3.719169184094025,0.0859256173719603,3.7875589367250537,5.308974037495492,,5.281021254730357,-2.21805696629946,,,,,,,,
LBP05_S05,LBP05,-1613,38,5,37,-1613,1715800271.48,2024-05-15 19:11:11.480000+00:00,2024-05-16 04:11:11.480000+09:00,2024,5,15,19,11,11,480,,,,,,,,,0.343262,-0.169922,0.622314,18.188477,-76.660156,15.686035,,,,,,,,,,,0.0,1.0,1.0,5.0,0.0,0.0,0.0,6.0,0.0,-0.12483396,-0.17562498666666668,0.9618490133333334,-0.6884764666666663,-2.4552408533333328,3.4993489600000007,-4.546579400887989,7.6598818023931,6.271863604226648,3.5373060080585055,0.3923208894676843,4.03843348089412,5.382879754793535,-2.192537247284596,5.479267535443381,-2.228249570550092,0.46809596,0.005702986666666687,-0.33953501333333336,0.81333396,0.578299556548774,0.578299556548774,0.578299556548774,0.578299556548774
LBP05_S05,LBP05,-1612,39,5,38,-1612,1715800271.52,2024-05-15 19:11:11.520000+00:00,2024-05-16 04:11:11.520000+09:00,2024,5,15,19,11,11,520,,,,,,,,,0.172852,-0.206055,1.064697,69.152832,46.691895,7.873535,,,,,,,,,,,0.0,1.0,1.0,5.0,0.0,0.0,0.0,6.0,0.0,-0.13070634666666667,-0.17837238666666666,0.9828711466666665,-0.06917307999999968,-1.756998666666666,3.4236653733333333,-3.0489350812655904,6.890903847220399,6.458399822515976,3.415348604807882,0.6679570433565003,4.296769473794758,5.529285723768233,-2.2067299970157297,5.673082323713663,-2.2309235762890802,0.3035583466666667,-0.027682613333333328,0.08182585333333348,0.4130668133333335,0.31560967536767826,0.4469546159582261,0.4469546159582261,0.4469546159582261
LBP05_S05,LBP05,-1611,40,5,39,-1611,1715800271.56,2024-05-15 19:11:11.560000+00:00,2024-05-16 04:11:11.560000+09:00,2024,5,15,19,11,11,560,,,,,,,,,-0.510254,-0.333252,1.615723,47.485352,48.583984,15.625,,,,,,,,,,,0.0,1.0,1.0,5.0,0.0,0.0,0.0,6.0,0.0,-0.1388574,-0.18286782666666668,1.0012565599999999,-0.9122720399999997,-1.0327148133333328,3.3528645866666666,-0.9769429092714174,5.7588003637803435,6.860574930405395,3.376270888437025,0.898309057907714,4.571192471010974,5.7534307054707625,-2.2235604029469043,5.879384191078341,-2.231295532586676,-0.37139659999999997,-0.15038417333333332,0.6144664400000002,1.1362472133333335,0.7335665204785342,0.5424919174649955,0.5424919174649955,0.5424919174649955
LBP05_S05,LBP05,-1610,41,5,40,-1610,1715800271.6,2024-05-15 19:11:11.600000+00:00,2024-05-16 04:11:11.600000+09:00,2024,5,15,19,11,11,600,,,,,,,,,-0.482178,-0.418457,1.761963,10.864258,-48.88916,9.277344,,,,,,,,,,,0.0,1.0,1.0,5.0,0.0,0.0,0.0,6.0,0.0,-0.14712888,-0.18351561333333333,1.0083659333333332,-0.936686093333333,-0.2897135199999995,3.3862304800000005,0.9905510046170188,4.204074106180438,7.457262044845874,3.415892928621706,1.0664720221549315,4.869482952804809,6.042975368268817,-2.2494002179506096,6.113215519735084,-2.227629899931013,-0.33504912,-0.2349413866666667,0.7535970666666667,1.3235875733333333,0.8575336185073068,0.6212523427255733,0.6212523427255733,0.6212523427255733
LBP05_S05,LBP05,-1609,42,5,41,-1609,1715800271.64,2024-05-15 19:11:11.640000+00:00,2024-05-16 04:11:11.640000+09:00,2024,5,15,19,11,11,640,,,,,,,,,-0.145996,0.034424,1.376465,14.770508,11.169434,3.723145,,,,,,,,,,,0.0,1.0,1.0,5.0,0.0,0.0,0.0,6.0,0.0,-0.14966794666666666,-0.17918944,0.9935482266666665,-1.724446506666666,-0.022786439999999478,3.42122396,2.481381588333666,2.229125720024876,8.208010908033158,3.5151481921550527,1.1556370509559266,5.197803389126135,6.380354526071743,-2.2690199875526207,6.383306461752829,-2.2248861308460555,0.0036719466666666756,0.21361344000000002,0.3829167733333335,0.6002021600000003,0.43848539341803394,0.5846989528640655,0.5846989528640655,0.5846989528640655
LBP05_S05,LBP05,-1608,43,5,42,-1608,1715800271.68,2024-05-15 19:11:11.680000+00:00,2024-05-16 04:11:11.680000+09:00,2024,5,15,19,11,11,680,,,,,,,,,-0.347656,-0.122803,0.628418,-14.770508,119.567871,2.01416,,,,,,,,,,,0.0,1.0,1.0,5.0,0.0,0.0,0.0,6.0,0.0,-0.14233395999999998,-0.17946938666666665,0.9735319466666668,-2.9264321866666663,-0.7503255066666661,3.45377604,3.440103341481978,-0.008750123340069733,9.03449765975672,3.652752325814332,1.155287046022324,5.559183295516404,6.751429968947144,-2.2442936049840214,6.689355472898886,-2.225241615418736,-0.20532204000000004,0.05666638666666665,-0.3451139466666667,0.6071023733333334,0.4055512984462763,0.5548410104611006,0.5548410104611006,0.5548410104611006
LBP05_S05,LBP05,-1607,44,5,43,-1607,1715800271.72,2024-05-15 19:11:11.720000+00:00,2024-05-16 04:11:11.720000+09:00,2024,5,15,19,11,11,720,,,,,,,,,-0.096924,-0.262939,0.23877,-103.69873,-55.664062,2.868652,,,,,,,,,,,0.0,1.0,1.0,5.0,0.0,0.0,0.0,6.0,0.0,-0.13579098666666664,-0.17511392,0.9580338933333333,-3.20800772,-1.4770507733333327,3.0973307333333335,3.9706809853646354,-2.188499614040383,9.80372363175652,3.8115795652289175,1.0677470614607085,5.951332240786665,7.147487531262679,-2.2335272703722517,7.022412306292945,-2.231377145406516,0.038866986666666645,-0.08782507999999997,-0.7192638933333333,0.84595596,0.7256475973794566,0.5792419514494371,0.5792419514494371,0.5792419514494371
LBP05_S05,LBP05,-1606,45,5,44,-1606,1715800271.76,2024-05-15 19:11:11.760000+00:00,2024-05-16 04:11:11.760000+09:00,2024,5,15,19,11,11,760,,,,,,,,,0.232422,-0.104492,0.602051,24.658203,-92.956543,6.347656,,,,,,,,,,,0.0,1.0,1.0,5.0,0.0,0.0,0.0,6.0,0.0,-0.12852862666666667,-0.17723632,0.9601074533333334,-2.528482986666666,-2.9532877599999994,2.84098308,4.152172566242339,-3.9240711872859073,10.334111818419517,3.977666467878611,0.9107842139692722,6.364696713523446,7.560471061331938,-2.2019704713413715,7.368055040220247,-2.236541167496548,0.36095062666666666,0.07274432,-0.35805645333333336,0.7917514,0.5135966459751926,0.5710362882651566,0.5710362882651566,0.5710362882651566
LBP05_S05,LBP05,-1605,46,5,45,-1605,1715800271.8,2024-05-15 19:11:11.800000+00:00,2024-05-16 04:11:11.800000+09:00,2024,5,15,19,11,11,800,,,,,,,,,0.284668,-0.266846,1.047607,34.667969,19.836426,19.470215,,,,,,,,,,,0.0,1.0,1.0,5.0,0.0,0.0,0.0,6.0,0.0,-0.13079425333333333,-0.17997394666666666,0.9802018533333334,-1.5161131866666662,-2.3974609333333325,2.9524739600000003,3.958881154746942,-4.926356161567976,10.435147317239181,4.136021714068489,0.7137299675065532,6.782102606213013,7.975775940117946,-2.202935978166395,7.710628012330818,-2.23755584961317,0.4154622533333333,-0.08687205333333337,0.06740514666666653,0.5697394533333332,0.4297663218451571,0.555339625329601,0.555339625329601,0.555339625329601
LBP05_S05,LBP05,-1604,47,5,46,-1604,1715800271.84,2024-05-15 19:11:11.840000+00:00,2024-05-16 04:11:11.840000+09:00,2024,5,15,19,11,11,840,,,,,,,,,-0.416504,-0.301758,1.568359,34.545898,52.490234,14.709473,,,,,,,,,,,0.0,1.0,1.0,5.0,0.0,0.0,0.0,6.0,0.0,-0.13938799999999998,-0.18167641333333337,0.9986784133333333,-1.7333983466666663,-1.805013026666666,2.8881836,3.321474482955481,-5.135982097498966,9.971507651168046,4.268880693386708,0.5082906836065946,7.180962912259735,8.369464148956064,-2.2284409765728577,8.036764087731234,-2.233769515448504,-0.27711600000000003,-0.12008158666666666,0.5696805866666668,0.9668781733333335,0.6447858836367789,0.5642842511603189,0.5642842511603189,0.5642842511603189
LBP05_S05,LBP05,-1603,48,5,47,-1603,1715800271.88,2024-05-15 19:11:11.880000+00:00,2024-05-16 04:11:11.880000+09:00,2024,5,15,19,11,11,880,,,,,,,,,-0.596924,-0.380371,1.753662,11.169434,-72.814941,14.099121,,,,,,,,,,,0.0,1.0,1.0,5.0,0.0,0.0,0.0,6.0,0.0,-0.14695310666666667,-0.18156574666666667,1.0072005466666665,-1.6918944399999993,-1.3924153733333327,2.753092453333333,2.255681741007392,-4.754994758511651,8.925478707565745,4.359107963027004,0.31809089326612855,7.537982060562365,8.713448088734122,-2.2538925471623994,8.337290491774086,-2.22441230263311,-0.44997089333333334,-0.19880525333333335,0.7464614533333336,1.3952376000000002,0.8939810036643069,0.5942566832061359,0.5942566832061359,0.5942566832061359
LBP05_S05,LBP05,-1602,49,5,48,-1602,1715800271.92,2024-05-15 19:11:11.920000+00:00,2024-05-16 04:11:11.920000+09:00,2024,5,15,19,11,11,920,,,,,,,,,-0.062256,-0.144287,1.428955,36.499023,-35.03418,12.695312,,,,,,,,,,,0.0,1.0,1.0,5.0,0.0,0.0,0.0,6.0,0.0,-0.14759437333333333,-0.18067708000000002,0.9953190399999999,-2.6505532933333327,-0.9765625066666659,2.555338546666667,0.9418320206782416,-4.170350399084389,7.427433561070634,4.396781243854133,0.151276877302753,7.8350794030051905,8.98571306304125,-2.258370217916052,8.607528147108201,-2.2175978232322078,0.08533837333333333,0.03639008000000002,0.43363596000000004,0.5553644133333334,0.44344900686629957,0.581689376844483,0.581689376844483,0.581689376844483
LBP05_S05,LBP05,-1601,50,5,49,-1601,1715800271.96,2024-05-15 19:11:11.960000+00:00,2024-05-16 04:11:11.960000+09:00,2024,5,15,19,11,11,960,,,,,,,,,-0.237061,0.128906,0.60083,-20.996094,122.86377,9.887695,,,,,,,,,,,0.0,1.0,1.0,5.0,0.0,0.0,0.0,6.0,0.0,-0.13883136,-0.17898112,0.9732422133333334,-3.982747306666666,-1.0286458399999994,2.3331705733333337,-0.3159494026118383,-3.810926593752349,5.735689065535774,4.38414326774966,-0.0011601864473409773,8.064506965626622,9.179160426576471,-2.233707224113122,8.846643558976284,-2.2147878017952474,-0.09822964000000001,0.30788711999999996,-0.3724122133333334,0.7785289733333334,0.49308660241001906,0.5748737788110627,0.5748737788110627,0.5748737788110627
LBP05_S05,LBP05,-1600,51,5,50,-1600,1715800272.0,2024-05-15 19:11:12+00:00,2024-05-16 04:11:12+09:00,2024,5,15,19,11,12,0,19.0,11.0,12.0,40.895176,141.738144,9.808,3.0,13.0,-0.182861,-0.184326,0.084473,-96.435547,-15.991211,-9.765625,-577.0,33.0,550.0,2.0,0.0,1020.0,17.120001,0.069368,-56.014488,3.88125,0.0,1.0,1.0,5.0,0.0,0.0,0.0,5.0,0.0,-0.13265622666666668,-0.17927409333333333,0.9577734533333334,-4.129231679999999,-1.6056315199999995,2.1744791733333333,-1.2307668126927562,-3.9996807062949347,4.16820898897305,4.334912595241949,-0.16114741469913837,8.231235325185544,9.304336122272984,-2.2115368763039482,9.056917001876545,-2.2172154010767224,-0.050204773333333313,-0.005051906666666661,-0.8733004533333334,0.9285571333333333,0.8747569507118109,0.5962940053754018,0.5962940053754018,0.5962940053754018
LBP05_S05,LBP05,-1599,52,5,51,-1599,1715800272.04,2024-05-15 19:11:12.040000+00:00,2024-05-16 04:11:12.040000+09:00,2024,5,15,19,11,12,40,,,,,,,,,0.139648,-0.152344,0.428711,10.192871,-83.618164,-6.774902,,,,,,,,,,,0.0,1.0,1.0,5.0,0.0,0.0,0.0,5.0,0.0,-0.12331704,-0.1801041733333333,0.9583724000000001,-3.0436196933333326,-3.395182293333333,2.0735677066666667,-1.6794550406445923,-4.86193682987252,3.0099960420975354,4.267734393616165,-0.3556248878940392,8.351635166869446,9.385618566500261,-2.1754478593986843,9.243354264579345,-2.220441470863791,0.26296504,0.027760173333333305,-0.5296614000000002,0.8203866133333335,0.59199868085635,0.5960076504074651,0.5960076504074651,0.5960076504074651
LBP05_S05,LBP05,-1598,53,5,52,-1598,1715800272.08,2024-05-15 19:11:12.080000+00:00,2024-05-16 04:11:12.080000+09:00,2024,5,15,19,11,12,80,,,,,,,,,0.416992,-0.144775,0.886475,38.452148,-10.925293,2.746582,,,,,,,,,,,0.0,1.0,1.0,5.0,0.0,0.0,0.0,5.0,0.0,-0.12473632,-0.18186197333333334,0.9790397200000001,-2.041829333333333,-2.7197265599999993,2.1704101600000003,-1.7514985778059957,-6.315384615086031,2.431797669789491,4.197674450503926,-0.6082402724974805,8.448907073661026,9.453806522288287,-2.176148810974996,9.413299173586875,-2.2193006568762503,0.5417283199999999,0.037086973333333356,-0.09256472000000004,0.6713800133333333,0.5508295958549505,0.5931840219979329,0.5931840219979329,0.5931840219979329
LBP05_S05,LBP05,-1597,54,5,53,-1597,1715800272.12,2024-05-15 19:11:12.120000+00:00,2024-05-16 04:11:12.120000+09:00,2024,5,15,19,11,12,120,,,,,,,,,-0.265381,-0.286865,1.498535,-10.620117,54.626465,4.150391,,,,,,,,,,,0.0,1.0,1.0,5.0,0.0,0.0,0.0,5.0,0.0,-0.13399087999999998,-0.18339517333333333,0.99883464,-2.34863272,-1.7586263066666659,2.0345052133333335,-1.665545544845786,-8.113202598200719,2.4506015837449295,4.131052628710094,-0.9327683764255092,8.546931137010823,9.538641649943516,-2.2054270560026445,9.575373564236042,-2.2140116543016033,-0.13139012,-0.10346982666666665,0.49970035999999995,0.7345603066666666,0.5269438475285332,0.5892875411467917,0.5892875411467917,0.5892875411467917
LBP05_S05,LBP05,-1596,55,5,54,-1596,1715800272.16,2024-05-15 19:11:12.160000+00:00,2024-05-16 04:11:12.160000+09:00,2024,5,15,19,11,12,160,,,,,,,,,-0.700928,-0.272705,1.690186,25.32959,-38.208008,4.394531,,,,,,,,,,,0.0,1.0,1.0,5.0,0.0,0.0,0.0,5.0,0.0,-0.14230468000000002,-0.18637369333333334,1.01016928,-2.9093423599999992,-1.2093098933333326,1.8758138133333333,-1.6127222848714216,-9.895900263389517,2.9421249453719964,4.0665437373152375,-1.32860438696109,8.664616134825703,9.663205490334558,-2.226246464156123,9.737578490456892,-2.205148603342465,-0.5586233199999999,-0.08633130666666664,0.68001672,1.3249713466666666,0.8842713653840403,0.6056755313821944,0.6056755313821944,0.6056755313821944
LBP05_S05,LBP05,-1595,56,5,55,-1595,1715800272.2,2024-05-15 19:11:12.200000+00:00,2024-05-16 04:11:12.200000+09:00,2024,5,15,19,11,12,200,,,,,,,,,-0.175049,-0.117676,1.491455,46.325684,-50.964355,10.620117,,,,,,,,,,,0.0,1.0,1.0,5.0,0.0,0.0,0.0,5.0,0.0,-0.14451170666666668,-0.18574543999999998,1.0001269733333333,-3.5441079866666665,-0.22623697333333287,1.7000325600000001,-1.6335862784216444,-11.239963107253013,3.6924983541480705,4.0012002861783715,-1.7782029112512105,8.812316068991626,9.840148567145935,-2.2351966760370847,9.90522780119149,-2.1985075193983805,-0.030537293333333326,0.06806943999999998,0.49132802666666664,0.58993476,0.4969599629086837,0.5999536593572729,0.5999536593572729,0.5999536593572729
LBP05_S05,LBP05,-1594,57,5,56,-1594,1715800272.24,2024-05-15 19:11:12.240000+00:00,2024-05-16 04:11:12.240000+09:00,2024,5,15,19,11,12,240,,,,,,,,,-0.158691,-0.04248,0.68335,-7.751465,84.289551,17.211914,,,,,,,,,,,0.0,1.0,1.0,5.0,0.0,0.0,0.0,5.0,0.0,-0.1375911333333333,-0.18379557333333332,0.9783138266666667,-4.63053376,-0.211588546666666,1.4998372400000002,-1.6107381235248122,-11.721366155599497,4.463624110335788,3.936770761237379,-2.2470575574751903,8.990861033405057,10.068913239031378,-2.217032836697447,10.07969627287424,-2.196687751265823,-0.02109986666666669,0.14131557333333333,-0.29496382666666665,0.4573792666666667,0.32774830996013266,0.5863433918874158,0.5863433918874158,0.5863433918874158
LBP05_S05,LBP05,-1593,58,5,57,-1593,1715800272.28,2024-05-15 19:11:12.280000+00:00,2024-05-16 04:11:12.280000+09:00,2024,5,15,19,11,12,280,,,,,,,,,-0.225586,0.06543,-0.022705,-67.626953,-4.638672,-13.366699,,,,,,,,,,,0.0,1.0,1.0,5.0,0.0,0.0,0.0,5.0,0.0,-0.13217446666666666,-0.18271809333333336,0.9642871466666666,-4.994303293333332,-0.849609386666666,1.4225260400000002,-1.3852460239284925,-11.011343537246491,5.048845078013551,3.8813609202802395,-2.68751129896505,9.1928148365256,10.334191995225783,-2.2010025214159286,10.258486640026584,-2.201521190342805,-0.09341153333333335,0.24814809333333337,-0.9869921466666666,1.3285517733333334,1.021986638056647,0.6070883083716649,0.6070883083716649,0.6070883083716649
LBP05_S05,LBP05,-1592,59,5,58,-1592,1715800272.32,2024-05-15 19:11:12.320000+00:00,2024-05-16 04:11:12.320000+09:00,2024,5,15,19,11,12,320,,,,,,,,,0.13208,-0.158203,0.324707,-53.588867,-101.501465,-6.835938,,,,,,,,,,,0.0,1.0,1.0,5.0,0.0,0.0,0.0,5.0,0.0,-0.12502604,-0.18494465333333332,0.9672428666666667,-4.138183506666666,-2.1875000133333327,1.3810221333333335,-0.921154759542197,-8.999464207710865,5.308760562319607,3.8445147298985516,-3.0474898672734843,9.405165259018384,10.607762325249743,-2.169739708324671,10.436354559414898,-2.2070685830537267,0.25710604000000004,0.02674165333333331,-0.6425358666666667,0.9263835600000001,0.6925828266572643,0.6109744228391921,0.6109744228391921,0.6109744228391921
LBP05_S05,LBP05,-1591,60,5,59,-1591,1715800272.36,2024-05-15 19:11:12.360000+00:00,2024-05-16 04:11:12.360000+09:00,2024,5,15,19,11,12,360,,,,,,,,,0.490479,-0.411621,0.72876,9.70459,-45.837402,17.333984,,,,,,,,,,,0.0,1.0,1.0,5.0,0.0,0.0,0.0,5.0,0.0,-0.12710285333333335,-0.18902668,0.9877051066666667,-2.3120116399999997,-1.575520853333333,1.7089843733333334,-0.3981774309768063,-5.900345292056827,5.190621637312492,3.828587632659479,-3.2835036789557575,9.612790124510884,10.855653533922455,-2.167296384672274,10.606779755635703,-2.2081856593753626,0.6175818533333334,-0.22259432,-0.2589451066666667,1.09912128,0.7056969215814313,0.6150927923497242,0.6150927923497242,0.6150927923497242
LBP05_S05,LBP05,-1590,61,5,60,-1590,1715800272.4,2024-05-15 19:11:12.400000+00:00,2024-05-16 04:11:12.400000+09:00,2024,5,15,19,11,12,400,,,,,,,,,0.047852,0.015381,1.14624,44.98291,54.748535,20.507812,,,,,,,,,,,0.0,1.0,1.0,5.0,0.0,0.0,0.0,5.0,0.0,-0.13623697333333332,-0.1914648266666667,1.0073763333333332,-2.4235025333333327,-1.0262044399999994,1.9034830800000002,-0.15194353300422744,-2.2681297864287666,4.736183312416761,3.82250989133931,-3.374228870412908,9.802237457007553,11.049020839100484,-2.193339194978378,10.763113423858908,-2.2064004172243363,0.18408897333333332,0.2068458266666667,0.13886366666666672,0.5297984666666667,0.30976937232794427,0.6023709831821501,0.6023709831821501,0.6023709831821501
LBP05_S05,LBP05,-1589,62,5,61,-1589,1715800272.44,2024-05-15 19:11:12.440000+00:00,2024-05-16 04:11:12.440000+09:00,2024,5,15,19,11,12,440,,,,,,,,,-0.534668,-0.319824,1.574951,19.53125,10.070801,7.629395,,,,,,,,,,,0.0,1.0,1.0,5.0,0.0,0.0,0.0,5.0,0.0,-0.1450944,-0.19106768,1.0170801066666666,-1.710611906666666,-0.899251306666666,1.90104168,-0.4891512491490509,1.1328438721144647,4.071969348855179,3.802943841373348,-3.3289151155283294,9.96511623096176,11.173522238023692,-2.2237822501685036,10.899118238396179,-2.201171010470917,-0.3895736,-0.12875632,0.5578708933333334,1.0762008133333334,0.6925068327355578,0.6059764171642864,0.6059764171642864,0.6059764171642864
LBP05_S05,LBP05,-1588,63,5,62,-1588,1715800272.48,2024-05-15 19:11:12.480000+00:00,2024-05-16 04:11:12.480000+09:00,2024,5,15,19,11,12,480,,,,,,,,,-0.28833,-0.542236,1.699707,65.490723,-37.475586,-2.13623,,,,,,,,,,,0.0,1.0,1.0,5.0,0.0,0.0,0.0,5.0,0.0,-0.14696614666666666,-0.19036781333333333,1.0088411733333333,-2.4446613866666658,-0.3271484399999993,1.9832356933333335,-1.5013142948361298,3.56992032819877,3.3698051947969567,3.7428912695799026,-3.1861183024003785,10.099908438753639,11.232485716171425,-2.231622738084214,11.009113925966416,-2.1959155239237056,-0.14136385333333332,-0.35186818666666675,0.6908658266666667,1.1840978666666668,0.7880929832660314,0.6143681542329766,0.6129809004758919,0.6129809004758919
LBP05_S05,LBP05,-1587,64,5,63,-1587,1715800272.52,2024-05-15 19:11:12.520000+00:00,2024-05-16 04:11:12.520000+09:00,2024,5,15,19,11,12,520,,,,,,,,,-0.194824,-0.058105,0.941406,-21.850586,95.88623,2.01416,,,,,,,,,,,0.0,1.0,1.0,5.0,0.0,0.0,0.0,5.0,0.0,-0.14089192000000003,-0.18842445333333332,0.9870703333333334,-3.800455666666666,-0.5289713466666659,1.8432617333333334,-3.0101034404977742,4.592336386333305,2.778718602342337,3.622487131959992,-3.0024248469470463,10.211057182847332,11.24289361215158,-2.2165978192190012,11.088256112234049,-2.1956352253291933,-0.053932079999999966,0.13031945333333333,-0.04566433333333342,0.22991586666666672,0.1482466205652022,0.6076736320408777,0.595768519738459,0.595768519738459
LBP05_S05,LBP05,-1586,65,5,64,-1586,1715800272.56,2024-05-15 19:11:12.560000+00:00,2024-05-16 04:11:12.560000+09:00,2024,5,15,19,11,12,560,,,,,,,,,-0.472168,0.26709,0.075684,-39.245605,54.80957,-27.893066,,,,,,,,,,,0.0,1.0,1.0,5.0,0.0,0.0,0.0,5.0,0.0,-0.13592122666666667,-0.18497393333333334,0.9700000133333333,-2.9174803999999996,-0.7226562399999994,1.5991211066666668,-4.691797712979727,4.175039218816261,2.3542027868369884,3.4348152234408027,-2.835423278194396,10.305225294320811,11.226542172566617,-2.2083940426458617,11.133354125800672,-2.200113076932892,-0.3362467733333333,0.45206393333333333,-0.8943160133333333,1.68262672,1.0569885638465106,0.6206105137755967,0.6122406641708895,0.6122406641708895
LBP05_S05,LBP05,-1585,66,5,65,-1585,1715800272.6,2024-05-15 19:11:12.600000+00:00,2024-05-16 04:11:12.600000+09:00,2024,5,15,19,11,12,600,,,,,,,,,0.03125,-0.264404,0.30542,-118.530273,-91.369629,-8.972168,,,,,,,,,,,0.0,1.0,1.0,5.0,0.0,0.0,0.0,5.0,0.0,-0.12915690666666668,-0.18567705333333334,0.9680306133333333,-2.548014266666666,-2.2224934799999994,1.227213546666667,-6.304466472440075,2.689279254687366,2.025454820274967,3.1826365645431998,-2.727852108006901,10.38624348713181,11.200196712518624,-2.1829026085028898,11.14414952299185,-2.2068893081007666,0.16040690666666668,-0.07872694666666663,-0.6626106133333333,0.9017444666666665,0.6862806515849045,0.6137603950987006,0.6147937671851658,0.6147937671851658
LBP05_S05,LBP05,-1584,67,5,66,-1584,1715800272.64,2024-05-15 19:11:12.640000+00:00,2024-05-16 04:11:12.640000+09:00,2024,5,15,19,11,12,640,,,,,,,,,0.398438,-0.60791,0.829102,5.004883,-60.60791,17.944336,,,,,,,,,,,0.0,1.0,1.0,5.0,0.0,0.0,0.0,5.0,0.0,-0.12647135999999998,-0.18926754666666668,0.9847949333333332,-1.2263996799999992,-1.8074544133333326,1.3094075600000001,-7.862271326708546,0.7186694031233989,1.629472871609087,2.868145711474858,-2.6991053318819653,10.451422401996174,11.168870114733751,-2.1644779712253364,11.124522852639318,-2.2112428897592338,0.52490936,-0.4186424533333333,-0.15569293333333323,1.0992447466666664,0.689225383628969,0.623789994707138,0.6172748210666259,0.6172748210666259
LBP05_S05,LBP05,-1583,68,5,67,-1583,1715800272.68,2024-05-15 19:11:12.680000+00:00,2024-05-16 04:11:12.680000+09:00,2024,5,15,19,11,12,680,,,,,,,,,0.010254,0.247314,1.166992,75.073242,51.696777,33.02002,,,,,,,,,,,0.0,1.0,1.0,5.0,0.0,0.0,0.0,5.0,0.0,-0.13574544,-0.18875647999999998,1.0050813866666666,-1.2792968133333327,-1.0196939999999992,1.1669922000000001,-9.630084159478404,-1.175177562699099,1.0038167886404021,2.4829423450957218,-2.7461124343899295,10.49157507354179,11.125613857902128,-2.1981995354708017,11.082931138052512,-2.2111627279531683,0.14599943999999998,0.43607048,0.16191061333333345,0.7439805333333334,0.48753291859906256,0.6270692595132494,0.613089598406382,0.613089598406382
LBP05_S05,LBP05,-1582,69,5,68,-1582,1715800272.72,2024-05-15 19:11:12.720000+00:00,2024-05-16 04:11:12.720000+09:00,2024,5,15,19,11,12,720,,,,,,,,,-0.533936,-0.269287,1.737305,-1.89209,-1.647949,5.371094,,,,,,,,,,,0.0,1.0,1.0,5.0,0.0,0.0,0.0,5.0,0.0,-0.1427832,-0.19175778666666665,1.01863608,-1.5616861333333327,-0.41097003999999926,0.97819012,-11.936829940432625,-2.6130061064709853,0.08889451647534494,2.0054691474784168,-2.850632678648769,10.495130854200804,11.058742460915967,-2.214518224361659,11.031510961096224,-2.205534113525787,-0.39115279999999997,-0.07752921333333335,0.71866892,1.1873509333333334,0.8218858244561054,0.6309187885963154,0.6196144804704358,0.6196144804704358
LBP05_S05,LBP05,-1581,70,5,69,-1581,1715800272.76,2024-05-15 19:11:12.760000+00:00,2024-05-16 04:11:12.760000+09:00,2024,5,15,19,11,12,760,,,,,,,,,-0.324463,-0.498047,1.824463,-20.324707,-59.326172,-1.403809,,,,,,,,,,,0.0,1.0,1.0,5.0,0.0,0.0,0.0,5.0,0.0,-0.14713866666666667,-0.18918617333333332,1.01486004,-2.619628839999999,0.44352214666666745,0.6022135466666668,-14.930528053762199,-3.4262090831986147,-1.022085957872281,1.4082480253279288,-2.9876810419767135,10.454247415885913,10.963607505834217,-2.235058696351021,10.98378454376688,-2.2016690815311337,-0.17732433333333333,-0.3088608266666667,0.8096029599999999,1.2957881199999999,0.8844749189672307,0.645753919515997,0.6276405543642781,0.6276405543642781
LBP05_S05,LBP05,-1580,71,5,70,-1580,1715800272.8,2024-05-15 19:11:12.800000+00:00,2024-05-16 04:11:12.800000+09:00,2024,5,15,19,11,12,800,,,,,,,,,-0.164062,-0.148438,1.12915,5.554199,74.401855,-14.404297,,,,,,,,,,,0.0,1.0,1.0,5.0,0.0,0.0,0.0,5.0,0.0,-0.14256185333333335,-0.18256833333333336,0.9937369866666665,-4.374999933333333,0.07486980000000078,-0.021158853333333193,-18.425009382902218,-3.5863021341100545,-2.117270182744712,0.6712476500118401,-3.1311331273411156,10.369556608576124,10.852754135575179,-2.236875011563049,10.951740102927108,-2.2012513033862606,-0.021500146666666664,0.034130333333333374,0.13541301333333355,0.1910434933333336,0.1412933832143112,0.6342150019707631,0.6133362258010437,0.6133362258010437
LBP05_S05,LBP05,-1579,72,5,71,-1579,1715800272.84,2024-05-15 19:11:12.840000+00:00,2024-05-16 04:11:12.840000+09:00,2024,5,15,19,11,12,840,,,,,,,,,-0.456543,0.217041,0.11084,-13.85498,85.021973,-28.015137,,,,,,,,,,,0.0,1.0,1.0,5.0,0.0,0.0,0.0,5.0,0.0,-0.13640950666666668,-0.17988929333333334,0.9750976666666666,-5.9025064533333325,-0.31982421333333266,-0.18880207999999982,-21.916069637385014,-3.119252781869503,-2.9639478235862082,-0.2053951354835606,-3.255903238615896,10.250998695632676,10.757605092155625,-2.2229806321078454,10.943590619087749,-2.206179714701013,-0.3201334933333333,0.39693029333333335,-0.8642576666666666,1.5813214533333333,1.0034841432287809,0.6485629323544433,0.624483309156122,0.624483309156122
LBP05_S05,LBP05,-1578,73,5,72,-1578,1715800272.88,2024-05-15 19:11:12.880000+00:00,2024-05-16 04:11:12.880000+09:00,2024,5,15,19,11,12,880,,,,,,,,,-0.074707,-0.233154,0.359619,-84.533691,-80.383301,-5.859375,,,,,,,,,,,0.0,1.0,1.0,5.0,0.0,0.0,0.0,5.0,0.0,-0.12942057333333334,-0.18919268,0.9709505333333334,-5.135091093333332,-1.0937499999999993,0.3059895866666668,-24.74568978528247,-2.082867770755956,-3.4130029723105966,-1.1952227268948592,-3.3392179494461343,10.114478576740252,10.718283946608558,-2.1753365938104032,10.96308828198761,-2.2142502021442496,0.05471357333333335,-0.04396132,-0.6113315333333333,0.7100064266666667,0.6153473949004163,0.6374175880038875,0.6242295337601301,0.6242295337601301
LBP05_S05,LBP05,-1577,74,5,73,-1577,1715800272.92,2024-05-15 19:11:12.920000+00:00,2024-05-16 04:11:12.920000+09:00,2024,5,15,19,11,12,920,,,,,,,,,0.297363,-0.173584,0.580078,-61.340332,-114.318848,6.835938,,,,,,,,,,,0.0,1.0,1.0,5.0,0.0,0.0,0.0,5.0,0.0,-0.1268391866666667,-0.18422197333333334,0.9872884133333334,-3.7736002133333324,-1.4436848933333326,1.0164388,-26.3249121514284,-0.6262874999142486,-3.4551949423286628,-2.2482192129519953,-3.364269449442704,9.976270779047105,10.765629438858145,-2.1779474992724723,11.010235264660652,-2.21978988456976,0.42420218666666665,0.010637973333333356,-0.4072104133333334,0.8420505733333334,0.5881164700775914,0.6432042865323392,0.6232535050119534,0.6232535050119534
LBP05_S05,LBP05,-1576,75,5,74,-1576,1715800272.96,2024-05-15 19:11:12.960000+00:00,2024-05-16 04:11:12.960000+09:00,2024,5,15,19,11,12,960,,,,,,,,,0.218262,-0.303223,1.229736,6.347656,47.607422,14.526367,,,,,,,,,,,0.0,1.0,1.0,5.0,0.0,0.0,0.0,5.0,0.0,-0.13516926666666665,-0.1854914933333333,1.008460293333333,-2.2721353733333327,-0.9895833333333328,0.7926432266666668,-26.309375665286353,0.9362087096175588,-3.2090498115181054,-3.3005942395634493,-3.3268211010580018,9.84790878658638,10.90609776416888,-2.2042162611971277,11.082521663667023,-2.2227338601009206,0.3534312666666667,-0.11773150666666671,0.22127570666666685,0.6924384800000003,0.43328663293533604,0.6408122877533519,0.6182543767994109,0.6182543767994109
LBP05_S05,LBP05,-1575,76,5,75,-1575,1715800273.0,2024-05-15 19:11:13+00:00,2024-05-16 04:11:13+09:00,2024,5,15,19,11,13,0,19.0,11.0,13.0,40.895111,141.738159,10.072,3.0,13.0,-0.644531,-0.088379,1.609863,15.625,52.734375,-14.160156,-573.0,39.0,554.0,1.0,0.0,1020.799988,17.190001,0.077296,-62.633232,3.88125,0.0,1.0,1.0,5.0,0.0,0.0,0.0,5.0,0.0,-0.14313802666666667,-0.18508458666666666,1.0233854266666669,-2.9907226133333324,-0.5664062533333327,0.1814778666666668,-24.661288132845552,2.140548848001195,-2.8597370354164546,-4.287045764877272,-3.2411991471379538,9.733519305169722,11.118701874125037,-2.2321867216504176,11.175825099008001,-2.2181795840938228,-0.5013929733333333,0.09670558666666666,0.5864775733333332,1.1845761333333331,0.7776264065883695,0.6369270659884143,0.6223408391016918,0.6223408391016918
LBP05_S05,LBP05,-1574,77,5,76,-1574,1715800273.04,2024-05-15 19:11:13.040000+00:00,2024-05-16 04:11:13.040000+09:00,2024,5,15,19,11,13,40,,,,,,,,,-0.450684,-0.51123,1.814453,-60.60791,-44.921875,-7.385254,,,,,,,,,,,0.0,1.0,1.0,5.0,0.0,0.0,0.0,5.0,0.0,-0.14667969333333333,-0.18455723999999998,1.0230989733333333,-4.090983026666666,0.31982421333333394,-0.1953124933333332,-21.604492092835322,2.5145270314290604,-2.5860260469920573,-5.151225448590685,-3.1406180658807914,9.63007826329004,11.363846743732354,-2.245182845657699,11.284590237510368,-2.213843214215884,-0.30400430666666667,-0.32667276,0.7913540266666668,1.4220310933333336,0.9085014618146995,0.6495871772267482,0.629494854669517,0.629494854669517
LBP05_S05,LBP05,-1573,78,5,77,-1573,1715800273.08,2024-05-15 19:11:13.080000+00:00,2024-05-16 04:11:13.080000+09:00,2024,5,15,19,11,13,80,,,,,,,,,-0.180908,-0.256836,1.393799,13.48877,45.410156,8.483887,,,,,,,,,,,0.0,1.0,1.0,5.0,0.0,0.0,0.0,5.0,0.0,-0.14470704,-0.17888016,1.0031835999999998,-5.0724283466666655,0.05371093333333396,-0.8471679599999998,-17.530489094668773,1.776921862018489,-2.5042464151758366,-5.852445012377435,-3.069541191400052,9.529908406683006,11.597083684632556,-2.2535963597259054,11.401541546931709,-2.213197387641256,-0.036200960000000004,-0.07795584,0.39061540000000017,0.5047722000000001,0.39996001451668556,0.6435523939732177,0.6238964439340821,0.6238964439340821
LBP05_S05,LBP05,-1572,79,5,78,-1572,1715800273.12,2024-05-15 19:11:13.120000+00:00,2024-05-16 04:11:13.120000+09:00,2024,5,15,19,11,13,120,,,,,,,,,-0.371582,0.066895,0.357422,-8.544922,97.77832,0.549316,,,,,,,,,,,0.0,1.0,1.0,5.0,0.0,0.0,0.0,5.0,0.0,-0.13834961333333334,-0.17448562666666664,0.9853971466666667,-6.027831999999998,-0.36865234666666613,-1.2150065066666664,-12.910341034815024,-0.023077103722010536,-2.64192295748351,-6.368858653770037,-3.0704642755489324,9.424231488383667,11.781606450979677,-2.243957979673264,11.517640002335344,-2.21937414395624,-0.23323238666666668,0.24138062666666665,-0.6279751466666667,1.10258816,0.7120496737947738,0.6509566270238671,0.6259953303593366,0.6259953303593366
LBP05_S05,LBP05,-1571,80,5,79,-1571,1715800273.16,2024-05-15 19:11:13.160000+00:00,2024-05-16 04:11:13.160000+09:00,2024,5,15,19,11,13,160,,,,,,,,,-0.126709,-0.295654,0.293213,-58.227539,-73.425293,-1.220703,,,,,,,,,,,0.0,1.0,1.0,5.0,0.0,0.0,0.0,5.0,0.0,-0.12987305333333335,-0.18398758666666667,0.9807487066666668,-6.260579399999999,-0.6331380266666661,-1.2198893199999998,-8.232096398333837,-2.5109834541860776,-2.944089782644617,-6.69814250970339,-3.1709036137163755,9.306467897077882,11.896641859243996,-2.189515936280045,11.622880762148895,-2.2275964082442803,0.003164053333333361,-0.1116664133333333,-0.6875357066666667,0.8023661733333334,0.6965520418761687,0.6434478540835523,0.6276361841155421,0.6276361841155421
LBP05_S05,LBP05,-1570,81,5,80,-1570,1715800273.2,2024-05-15 19:11:13.200000+00:00,2024-05-16 04:11:13.200000+09:00,2024,5,15,19,11,13,200,,,,,,,,,0.248535,-0.006348,0.507812,17.76123,-97.900391,-9.521484,,,,,,,,,,,0.0,1.0,1.0,5.0,0.0,0.0,0.0,5.0,0.0,-0.12794922666666667,-0.17960606666666665,0.9925976666666668,-5.191243453333333,-1.304524746666666,-1.3883463466666666,-3.9535220251768113,-5.139291747338521,-3.3092438732152303,-6.8562833907104626,-3.3764752836099166,9.174098142149273,11.940405520598853,-2.193511312783663,11.707796282231813,-2.234388997193352,0.3764842266666667,0.17325806666666665,-0.4847856666666668,1.0345279600000001,0.6377898346628877,0.6490810489537204,0.627866948900709,0.627866948900709
LBP05_S05,LBP05,-1569,82,5,81,-1569,1715800273.24,2024-05-15 19:11:13.240000+00:00,2024-05-16 04:11:13.240000+09:00,2024,5,15,19,11,13,240,,,,,,,,,0.356445,-0.250244,1.040771,2.380371,2.868652,-8.239746,,,,,,,,,,,0.0,1.0,1.0,5.0,0.0,0.0,0.0,5.0,0.0,-0.13611329333333333,-0.18189773333333334,1.01398764,-4.372558559999998,-1.1108398533333328,-1.7887369733333331,-0.45307331677249196,-7.398247702204427,-3.6422881304360697,-6.874406323381362,-3.6724051916980938,9.02840661693183,11.927118186369045,-2.2165223663615636,11.76487257017547,-2.2371095130972694,0.49255829333333334,-0.06834626666666668,0.026783359999999812,0.5876879199999998,0.49799822577154507,0.6558910455861771,0.6249809772756165,0.6249809772756165
LBP05_S05,LBP05,-1568,83,5,82,-1568,1715800273.28,2024-05-15 19:11:13.280000+00:00,2024-05-16 04:11:13.280000+09:00,2024,5,15,19,11,13,280,,,,,,,,,-0.39502,-0.114258,1.539307,27.587891,51.879883,-10.925293,,,,,,,,,,,0.0,1.0,1.0,5.0,0.0,0.0,0.0,5.0,0.0,-0.14351563999999997,-0.18363275999999998,1.0302083466666667,-4.779459599999998,-0.9594726666666662,-2.3022460799999998,2.0221368600393106,-8.958906131734187,-3.9021729738198987,-6.79352084897979,-4.030761436967461,8.872319697979034,11.879268500644889,-2.2371041569602417,11.789242903926061,-2.2350366225579226,-0.25150436,0.06937475999999998,0.5090986533333333,0.8299777733333332,0.5720565874543188,0.6378938435620839,0.62383044706211,0.62383044706211
LBP05_S05,LBP05,-1567,84,5,83,-1567,1715800273.32,2024-05-15 19:11:13.320000+00:00,2024-05-16 04:11:13.320000+09:00,2024,5,15,19,11,13,320,,,,,,,,,-0.555664,-0.453369,1.763916,-21.179199,-53.710938,-6.774902,,,,,,,,,,,0.0,1.0,1.0,5.0,0.0,0.0,0.0,5.0,0.0,-0.15001304,-0.18290684000000001,1.0314876533333335,-5.231933559999999,-0.16438803999999968,-2.7400716,3.3902647562942168,-9.680043668849509,-4.1215325728910965,-6.657910258728021,-4.417963183721442,8.707458395063389,11.818037036993656,-2.2601701421528757,11.778744055690595,-2.2306153379858724,-0.40565096000000006,-0.27046216,0.7324283466666666,1.4085414666666667,0.8798600822526579,0.6453849337858997,0.6292778861087174,0.6292778861087174
LBP05_S05,LBP05,-1566,85,5,84,-1566,1715800273.36,2024-05-15 19:11:13.360000+00:00,2024-05-16 04:11:13.360000+09:00,2024,5,15,19,11,13,360,,,,,,,,,-0.097168,-0.164307,1.449463,46.020508,-0.305176,2.13623,,,,,,,,,,,0.0,1.0,1.0,5.0,0.0,0.0,0.0,5.0,0.0,-0.14906577333333335,-0.17726881333333333,1.0121289333333334,-5.943196573333332,0.016276026666666894,-3.31542968,3.725144256078491,-9.514165971641978,-4.3875994532645475,-6.508904488484881,-4.798529822587121,8.531954416932807,11.755252964998068,-2.272142150687844,11.733861520455942,-2.2282522865558554,0.05189777333333334,0.012961813333333322,0.4373340666666665,0.5021936533333332,0.4405933196827325,0.6347807897099517,0.6253469576415094,0.6253469576415094
LBP05_S05,LBP05,-1565,86,5,85,-1565,1715800273.4,2024-05-15 19:11:13.400000+00:00,2024-05-16 04:11:13.400000+09:00,2024,5,15,19,11,13,400,,,,,,,,,-0.269775,-0.164307,0.616211,-21.850586,108.398438,4.333496,,,,,,,,,,,0.0,1.0,1.0,5.0,0.0,0.0,0.0,5.0,0.0,-0.14232424,-0.17379225333333334,0.99214196,-6.831054653333332,0.0577799333333337,-3.7597656133333333,3.199247831242344,-8.409627681292962,-4.7924024378338785,-6.380934575235187,-5.13491492983884,8.340258319419451,11.689464753561603,-2.2593918806895927,11.657883190756738,-2.233186341431923,-0.12745076,0.009485253333333332,-0.37593096000000004,0.5128669733333333,0.3970613969424587,0.6382724706945324,0.6206880686476512,0.6206880686476512
LBP05_S05,LBP05,-1564,87,5,86,-1564,1715800273.44,2024-05-15 19:11:13.440000+00:00,2024-05-16 04:11:13.440000+09:00,2024,5,15,19,11,13,440,,,,,,,,,-0.117432,-0.143555,0.124023,-62.194824,-38.574219,-7.8125,,,,,,,,,,,0.0,1.0,1.0,5.0,0.0,0.0,0.0,5.0,0.0,-0.13548830666666667,-0.17806960000000002,0.98517256,-8.011067666666664,-0.3084309999999996,-3.9453124799999992,2.0074632626665636,-6.297173590662841,-5.37538900483977,-6.300636044728525,-5.3868018734653536,8.125242759225861,11.607550081238264,-2.2244539402642287,11.557000015135177,-2.240288720085805,0.018056306666666674,0.034514600000000034,-0.86114956,0.9137204666666667,0.8620300763382879,0.6450534004386416,0.625514908801464,0.625514908801464
LBP05_S05,LBP05,-1563,88,5,87,-1563,1715800273.48,2024-05-15 19:11:13.480000+00:00,2024-05-16 04:11:13.480000+09:00,2024,5,15,19,11,13,480,,,,,,,,,0.191895,-0.07959,0.471191,15.136719,-101.196289,-6.713867,,,,,,,,,,,0.0,1.0,1.0,5.0,0.0,0.0,0.0,5.0,0.0,-0.13191408000000002,-0.17898430666666665,0.9948437866666667,-6.954752559999998,-1.2255859599999996,-4.137369773333333,0.3204085814680184,-3.188215154368518,-6.084540685076232,-6.287819701469804,-5.514330479640094,7.881861131822812,11.4920952022779,-2.2093835140054074,11.439676313692425,-2.2476568829758143,0.32380908,0.09939430666666665,-0.5236527866666667,0.9468561733333334,0.6236535813029213,0.6384758243601172,0.6264219892965469,0.6254784121838455
LBP05_S05,LBP05,-1562,89,5,88,-1562,1715800273.52,2024-05-15 19:11:13.520000+00:00,2024-05-16 04:11:13.520000+09:00,2024,5,15,19,11,13,520,,,,,,,,,0.532959,-0.294922,0.997314,40.466309,-30.212402,0.183105,,,,,,,,,,,0.0,1.0,1.0,5.0,0.0,0.0,0.0,5.0,0.0,-0.13680666666666666,-0.18134433333333333,1.0166666933333335,-6.073404906666665,-0.9383138266666663,-4.23990884,-1.697114298533544,0.6765061478908692,-6.772357688125236,-6.3557042734111455,-5.487270233724459,7.610966824297803,11.332781098633157,-2.2203274653730913,11.314875760432367,-2.250030277029217,0.6697656666666666,-0.11357766666666669,-0.01935269333333345,0.8026960266666667,0.6796031646116304,0.6597300861219741,0.633701859081426,0.6265192728074567
LBP05_S05,LBP05,-1561,90,5,89,-1561,1715800273.56,2024-05-15 19:11:13.560000+00:00,2024-05-16 04:11:13.560000+09:00,2024,5,15,19,11,13,560,,,,,,,,,-0.320801,-0.056396,1.590576,15.258789,63.903809,-10.620117,,,,,,,,,,,0.0,1.0,1.0,5.0,0.0,0.0,0.0,5.0,0.0,-0.14240561333333335,-0.18151034666666666,1.03462568,-6.31184892,-0.7161458533333332,-4.528808586666666,-3.8177264419366077,4.749971497190414,-7.228598175260787,-6.50841333108861,-5.297271373836843,7.321822897287372,11.136858562251962,-2.2388564850407224,11.189707670709797,-2.246725627640885,-0.17839538666666666,0.12511434666666665,0.55595032,0.8594600533333333,0.5971258427114662,0.6413355772765725,0.6309730455260846,0.6259646797867777
LBP05_S05,LBP05,-1560,91,5,90,-1560,1715800273.6,2024-05-15 19:11:13.600000+00:00,2024-05-16 04:11:13.600000+09:00,2024,5,15,19,11,13,600,,,,,,,,,-0.611084,-0.38916,1.859619,4.272461,-22.460938,-12.573242,,,,,,,,,,,0.0,1.0,1.0,5.0,0.0,0.0,0.0,5.0,0.0,-0.14900392,-0.17999668,1.0383952,-7.026367146666667,0.60139972,-4.78678384,-5.699538048858752,8.26435560261758,-7.239911308725109,-6.73639485304296,-4.9666971497321395,7.032226444938368,10.931573764383222,-2.264535099322479,11.067855283126121,-2.2415748923796572,-0.46208007999999995,-0.20916332,0.8212237999999998,1.4924671999999997,0.9652335595350322,0.6524936935945775,0.633127044346639,0.6322474368191527
LBP05_S05,LBP05,-1559,92,5,91,-1559,1715800273.64,2024-05-15 19:11:13.640000+00:00,2024-05-16 04:11:13.640000+09:00,2024,5,15,19,11,13,640,,,,,,,,,-0.149902,-0.265381,1.621094,-14.282227,14.404297,-4.760742,,,,,,,,,,,0.0,1.0,1.0,5.0,0.0,0.0,0.0,5.0,0.0,-0.151084,-0.17304356,1.01914064,-7.07845048,1.08479816,-5.248209626666666,-6.916658770807542,10.462278672992046,-6.6593580177622425,-7.013061203875261,-4.548206002812457,6.7658521242278775,10.753881171941527,-2.290203995261659,10.949703467449044,-2.2388582789249845,0.0011819999999999886,-0.09233743999999997,0.60195336,0.6954727999999999,0.6089954413335482,0.6492844959027607,0.6365372453049494,0.631824673264869
LBP05_S05,LBP05,-1558,93,5,92,-1558,1715800273.68,2024-05-15 19:11:13.680000+00:00,2024-05-16 04:11:13.680000+09:00,2024,5,15,19,11,13,680,,,,,,,,,-0.231445,-0.245117,0.709229,-34.790039,135.559082,-2.990723,,,,,,,,,,,0.0,1.0,1.0,5.0,0.0,0.0,0.0,5.0,0.0,-0.14202149333333333,-0.17287754666666666,1.0015234400000002,-8.183593706666665,0.7242838399999999,-5.406087226666667,-7.079846111032987,10.862724023016456,-5.466143928653634,-7.2962550483165804,-4.113697041891799,6.547206367081732,10.6312629680443,-2.260838097494271,10.833715166223687,-2.2408062285591948,-0.08942350666666668,-0.07223945333333334,-0.29229444000000016,0.4539574000000002,0.31408779316836866,0.6423466908855331,0.6347079751993912,0.6261508004060029
LBP05_S05,LBP05,-1557,94,5,93,-1557,1715800273.72,2024-05-15 19:11:13.720000+00:00,2024-05-16 04:11:13.720000+09:00,2024,5,15,19,11,13,720,,,,,,,,,-0.199219,-0.051514,0.099121,-50.048828,-17.822266,-14.282227,,,,,,,,,,,0.0,1.0,1.0,5.0,0.0,0.0,0.0,5.0,0.0,-0.13492838666666665,-0.17629550666666666,0.9937304666666668,-8.855794226666667,1.0172525866666666,-5.595703106666667,-5.985874441875594,9.429454722407328,-3.7980057682902544,-7.535690025991604,-3.7365188529955056,6.395286136350122,10.56635613976797,-2.227123648269556,10.717705964898727,-2.247885390825874,-0.06429061333333336,0.12478150666666665,-0.8946094666666667,1.0836815866666667,0.9055549708429619,0.6456934567410072,0.6383061226686614,0.6310526279575286
LBP05_S05,LBP05,-1556,95,5,94,-1556,1715800273.76,2024-05-15 19:11:13.760000+00:00,2024-05-16 04:11:13.760000+09:00,2024,5,15,19,11,13,760,,,,,,,,,0.213379,-0.17041,0.537354,-7.141113,-95.703125,-5.67627,,,,,,,,,,,0.0,1.0,1.0,5.0,0.0,0.0,0.0,5.0,0.0,-0.1332487066666667,-0.17648105333333333,1.0033496,-8.120930946666666,0.82275388,-5.834960919999999,-3.706689642354204,6.564018017405893,-1.9441311198936662,-7.683957611685773,-3.47395813229927,6.317520891554375,10.536729089161302,-2.2206347980755696,10.59896215299357,-2.2561899066876694,0.3466277066666667,0.006071053333333326,-0.46599559999999995,0.81869436,0.580809369704836,0.6335468347705114,0.6396503771432542,0.6301863648842063
LBP05_S05,LBP05,-1555,96,5,95,-1555,1715800273.8,2024-05-15 19:11:13.800000+00:00,2024-05-16 04:11:13.800000+09:00,2024,5,15,19,11,13,800,,,,,,,,,0.382568,-0.215088,1.045654,46.875,9.82666,-0.549316,,,,,,,,,,,0.0,1.0,1.0,5.0,0.0,0.0,0.0,5.0,0.0,-0.13914714666666667,-0.17983717333333332,1.0273046799999999,-7.42431636,0.68196612,-6.027018213333333,-0.5641001429209266,2.9450605944490964,-0.2938717835316412,-7.706521617402609,-3.356155708521306,6.30576602021311,10.50794659679084,-2.2322257461428623,10.473228674875964,-2.259887728404274,0.5217151466666667,-0.03525082666666668,0.018349320000000224,0.5753152933333336,0.5232265404072766,0.6488241610582302,0.6415195815144966,0.6283734865032413
LBP05_S05,LBP05,-1554,97,5,96,-1554,1715800273.84,2024-05-15 19:11:13.840000+00:00,2024-05-16 04:11:13.840000+09:00,2024,5,15,19,11,13,840,,,,,,,,,-0.375732,-0.236084,1.58667,50.476074,59.509277,7.873535,,,,,,,,,,,0.0,1.0,1.0,5.0,0.0,0.0,0.0,5.0,0.0,-0.14512045333333334,-0.183011,1.04542968,-6.966959586666666,0.9342447733333332,-6.368815079999999,2.9884145772748547,-0.6839152421788602,0.7526014855397338,-7.586985034311615,-3.38351231820846,6.335870079634699,10.447667068984684,-2.243933436606331,10.333650318801379,-2.2607341126660927,-0.23061154666666667,-0.05307299999999998,0.54124032,0.8249248666666666,0.590711023071937,0.6323132362519562,0.6404380843031997,0.6277457787793863
LBP05_S05,LBP05,-1553,98,5,97,-1553,1715800273.88,2024-05-15 19:11:13.880000+00:00,2024-05-16 04:11:13.880000+09:00,2024,5,15,19,11,13,880,,,,,,,,,-0.631104,-0.41333,1.820801,-30.395508,-50.537109,3.845215,,,,,,,,,,,0.0,1.0,1.0,5.0,0.0,0.0,0.0,5.0,0.0,-0.15188478666666666,-0.17759433333333333,1.0495670400000001,-6.877441359999998,2.7514648266666666,-6.748860653333333,6.493537890036741,-3.678122297835834,0.8914953904791145,-7.327243518710145,-3.5306372101218937,6.371529895253864,10.332003189028294,-2.2801751366722014,10.171135136467752,-2.257500085384885,-0.47921921333333334,-0.23573566666666665,0.7712339599999998,1.4861888399999996,0.9380960398721859,0.6452231820508271,0.6413203850273572,0.6328334879776288
LBP05_S05,LBP05,-1552,99,5,98,-1552,1715800273.92,2024-05-15 19:11:13.920000+00:00,2024-05-16 04:11:13.920000+09:00,2024,5,15,19,11,13,920,,,,,,,,,-0.19751,-0.181396,1.517334,42.114258,-32.531738,2.929688,,,,,,,,,,,0.0,1.0,1.0,5.0,0.0,0.0,0.0,5.0,0.0,-0.15849286666666668,-0.17667636,1.0354947733333333,-7.92561844,2.963053373333333,-7.106933560000001,9.547958220687905,-5.5727040568521655,0.009703243991806854,-6.945325189882629,-3.75354537239598,6.371918025013536,10.14534297958161,-2.303372623991045,9.977004524853905,-2.2563288301274693,-0.039017133333333315,-0.004719639999999997,0.4818392266666667,0.525576,0.4834393985289284,0.6410360991888805,0.64212019286061,0.6304239058897466
LBP05_S05,LBP05,-1551,100,5,99,-1551,1715800273.96,2024-05-15 19:11:13.960000+00:00,2024-05-16 04:11:13.960000+09:00,2024,5,15,19,11,13,960,,,,,,,,,-0.157227,-0.107422,0.727051,-22.705078,106.506348,8.972168,,,,,,,,,,,0.0,1.0,1.0,5.0,0.0,0.0,0.0,5.0,0.0,-0.15097984,-0.17817376000000001,1.0193652133333335,-8.028971306666666,2.0678710799999998,-7.364095026666666,11.77703214935277,-6.105539603811018,-1.7641935788784626,-6.474243903908518,-3.997766956548421,6.301350281858397,9.879523781075884,-2.2758347022067675,9.7473942180794,-2.2603094547199847,-0.006247160000000002,0.07075176000000001,-0.2923142133333335,0.36931313333333354,0.30081961017834064,0.6357374182786008,0.6382748530159763,0.6251920916721052
LBP05_S05,LBP05,-1550,101,5,100,-1550,1715800274.0,2024-05-15 19:11:14+00:00,2024-05-16 04:11:14+09:00,2024,5,15,19,11,14,0,19.0,11.0,14.0,40.895046,141.73819,9.991,3.0,13.0,-0.224121,-0.111328,0.060791,-95.947266,-29.785156,-9.887695,-575.0,40.0,553.0,2.0,0.0,1020.700012,17.27,0.076305,-61.806309,3.88125,0.0,1.0,1.0,5.0,0.0,0.0,0.0,6.0,0.0,-0.14244468,-0.1690364,1.0059472399999998,-7.711588493333332,2.3299153466666667,-7.7343749866666665,12.787984714866719,-5.221835465548577,-4.070838243072797,-5.96272451531385,-4.206640375170364,6.1385167521354855,9.53579020363736,-2.272998941940664,9.487529915997461,-2.268748363717421,-0.08167632,0.05770840000000001,-0.9451562399999998,1.0845409599999998,0.9504323219936491,0.642649654894812,0.6397883604416131,0.6302739702708794
LBP05_S05,LBP05,-1549,102,5,101,-1549,1715800274.04,2024-05-15 19:11:14.040000+00:00,2024-05-16 04:11:14.040000+09:00,2024,5,15,19,11,14,40,,,,,,,,,0.174072,-0.180908,0.382324,92.468262,-88.378906,-13.122559,,,,,,,,,,,0.0,1.0,1.0,5.0,0.0,0.0,0.0,6.0,0.0,-0.14010744,-0.17157872,1.0104459466666667,-7.185872346666665,2.091471346666667,-8.216145813333332,12.189851561688286,-3.0855994244665417,-6.393231344834046,-5.475130452846319,-4.330064352149026,5.8827874983421236,9.128729348605274,-2.25786372244958,9.213588475770845,-2.277684060859923,0.31417944,-0.009329280000000023,-0.6281219466666667,0.9516306666666666,0.7023766339139955,0.6344046617787837,0.641995919502766,0.631383242019235
LBP05_S05,LBP05,-1548,103,5,102,-1548,1715800274.08,2024-05-15 19:11:14.080000+00:00,2024-05-16 04:11:14.080000+09:00,2024,5,15,19,11,14,80,,,,,,,,,0.386963,-0.110107,0.763672,9.94873,-13.549805,-5.371094,,,,,,,,,,,0.0,1.0,1.0,5.0,0.0,0.0,0.0,6.0,0.0,-0.14235353333333334,-0.17755202666666667,1.03244464,-6.313476519999999,1.4314778666666665,-8.329264306666666,9.722782247579243,-0.08437920050981376,-8.174433221032208,-5.086219162943149,-4.333439520169418,5.555810169500835,8.689956851905833,-2.2491255449201155,8.95054493972131,-2.282621230942627,0.5293165333333334,0.06744502666666667,-0.26877264,0.8655342,0.5974642718143528,0.6423048320706906,0.642928613021954,0.6308693182282519
LBP05_S05,LBP05,-1547,104,5,103,-1547,1715800274.12,2024-05-15 19:11:14.120000+00:00,2024-05-16 04:11:14.120000+09:00,2024,5,15,19,11,14,120,,,,,,,,,-0.177734,-0.135742,1.35791,73.669434,78.979492,-5.554199,,,,,,,,,,,0.0,1.0,1.0,5.0,0.0,0.0,0.0,6.0,0.0,-0.14919923999999998,-0.17931309333333334,1.0515852666666665,-4.779459599999999,1.7919921866666664,-8.47412108,5.44551208234171,3.219475251692301,-8.951491963982837,-4.86839867964948,-4.204660510101726,5.197750490941521,8.27025307202292,-2.266929894194712,8.726343193365526,-2.2837070657403813,-0.02853476000000002,0.04357109333333334,0.30632473333333343,0.3784305866666668,0.3107209599532312,0.6262516835170288,0.638604155270448,0.6260909845226545
LBP05_S05,LBP05,-1546,105,5,104,-1546,1715800274.16,2024-05-15 19:11:14.160000+00:00,2024-05-16 04:11:14.160000+09:00,2024,5,15,19,11,14,160,,,,,,,,,-0.651367,-0.238525,1.802734,-1.281738,-20.202637,-10.620117,,,,,,,,,,,0.0,1.0,1.0,5.0,0.0,0.0,0.0,6.0,0.0,-0.15520510666666668,-0.17238601333333334,1.0550715866666667,-5.2270507466666665,3.711751293333333,-8.500162746666666,-0.14255989338791403,6.217812739943523,-8.476625378811816,-4.8741010753849965,-3.955948000503985,4.8586854757890485,7.938086068341922,-2.3050238880499316,8.565292101330808,-2.2794395745004117,-0.4961618933333334,-0.06613898666666665,0.7476624133333334,1.3099632933333334,0.899750006537836,0.6343796021034954,0.6389137280935239,0.6301153819052308
LBP05_S05,LBP05,-1545,106,5,105,-1545,1715800274.2,2024-05-15 19:11:14.200000+00:00,2024-05-16 04:11:14.200000+09:00,2024,5,15,19,11,14,200,,,,,,,,,-0.211426,-0.275391,1.693604,1.647949,-25.024414,-6.408691,,,,,,,,,,,0.0,1.0,1.0,5.0,0.0,0.0,0.0,6.0,0.0,-0.16227868,-0.17423496,1.0405077866666665,-6.463216106666667,3.946126293333333,-8.920084626666666,-6.15483789607151,8.429779238307683,-6.801114369784099,-5.120294591227857,-3.6187568309716776,4.5866409009976845,7.76853219452467,-2.3215827175678823,8.483981074093773,-2.2780381454136927,-0.049147319999999994,-0.10115604,0.6530962133333336,0.8033995733333336,0.6627085840412837,0.6353763520786313,0.6422287005161759,0.6305877471535795
LBP05_S05,LBP05,-1544,107,5,106,-1544,1715800274.24,2024-05-15 19:11:14.240000+00:00,2024-05-16 04:11:14.240000+09:00,2024,5,15,19,11,14,240,,,,,,,,,-0.144043,-0.058594,0.879395,-41.015625,113.891602,-20.141602,,,,,,,,,,,0.0,1.0,1.0,5.0,0.0,0.0,0.0,6.0,0.0,-0.15524742666666666,-0.17669916,1.0226366933333333,-6.397298133333333,3.092447906666666,-9.11051432,-11.561403421946286,9.641419727695839,-4.299955470382946,-5.582750728105709,-3.233100041863844,4.414642682182366,7.817231708489338,-2.2933051374333746,8.490509945927606,-2.27785698356285,0.011204426666666656,0.11810515999999999,-0.14324169333333325,0.2725512799999999,0.1859907274692881,0.622896052146541,0.639393548866359,0.6242363611580894
LBP05_S05,LBP05,-1543,108,5,107,-1543,1715800274.28,2024-05-15 19:11:14.280000+00:00,2024-05-16 04:11:14.280000+09:00,2024,5,15,19,11,14,280,,,,,,,,,-0.279053,0.236572,0.066406,-73.120117,18.005371,-30.700684,,,,,,,,,,,0.0,1.0,1.0,5.0,0.0,0.0,0.0,6.0,0.0,-0.14744794666666666,-0.16857416,1.0077083066666668,-4.5483398,3.508300773333333,-9.51904296,-15.524962789676099,9.94368661169385,-1.6171010503342473,-6.203749239692753,-2.83535257739609,4.349958640168996,8.08998572547047,-2.2910334846497404,8.585654539756424,-2.280561102880171,-0.13160505333333333,0.40514616000000003,-0.9413023066666668,1.4780535200000002,1.0332053685311564,0.6413420033896144,0.6396179234758492,0.6299964880224989
LBP05_S05,LBP05,-1542,109,5,108,-1542,1715800274.32,2024-05-15 19:11:14.320000+00:00,2024-05-16 04:11:14.320000+09:00,2024,5,15,19,11,14,320,,,,,,,,,0.044678,-0.237793,0.352783,-104.492188,-90.209961,2.807617,,,,,,,,,,,0.0,1.0,1.0,5.0,0.0,0.0,0.0,6.0,0.0,-0.1418848,-0.17274733333333334,1.0096256266666668,-4.7835285999999995,3.208821613333333,-9.361979159999999,-17.667351644966594,9.644564973488276,0.477686310950605,-6.910443305491417,-2.4495699784565588,4.36906609260702,8.534832059234393,-2.260697711591347,8.764380739937934,-2.287930640016296,0.1865628,-0.06504566666666667,-0.6568426266666667,0.9084510933333334,0.6859146107951901,0.6335841845313158,0.6394845591586078,0.6307731286165641
LBP05_S05,LBP05,-1541,110,5,109,-1541,1715800274.36,2024-05-15 19:11:14.360000+00:00,2024-05-16 04:11:14.360000+09:00,2024,5,15,19,11,14,360,,,,,,,,,0.462402,-0.728027,1.021729,68.359375,-13.122559,44.799805,,,,,,,,,,,0.0,1.0,1.0,5.0,0.0,0.0,0.0,6.0,0.0,-0.145293,-0.17648757333333334,1.0297721066666665,-3.825683559999999,2.3022460933333333,-9.372558586666665,-18.131436172167938,9.094289988501282,1.2987210541318577,-7.635700752378135,-2.0857983789165075,4.421014934772295,9.066413508705546,-2.2618204113395786,9.016800607286367,-2.2904845836502923,0.607695,-0.5515394266666667,-0.00804310666666641,1.167277533333333,0.8207031398487803,0.6487885773379577,0.6417846835239547,0.6333749095923479
LBP05_S05,LBP05,-1540,111,5,110,-1540,1715800274.4,2024-05-15 19:11:14.400000+00:00,2024-05-16 04:11:14.400000+09:00,2024,5,15,19,11,14,400,,,,,,,,,-0.245361,0.46875,1.474609,68.481445,87.768555,39.916992,,,,,,,,,,,0.0,1.0,1.0,5.0,0.0,0.0,0.0,6.0,0.0,-0.14958988,-0.17819981333333335,1.0477376,-3.0761718399999993,2.4275716133333334,-9.527994786666666,-17.41637276972179,8.516157735604356,0.4560716531638878,-8.332355663167007,-1.7451520694923333,4.43925780089885,9.601078921975695,-2.271187323432242,9.328464191446368,-2.287750935385461,-0.09577111999999999,0.6469498133333333,0.4268714,1.1695923333333333,0.7809835853179306,0.6641454648729765,0.6512089677837544,0.6353696214264773
LBP05_S05,LBP05,-1539,112,5,111,-1539,1715800274.44,2024-05-15 19:11:14.440000+00:00,2024-05-16 04:11:14.440000+09:00,2024,5,15,19,11,14,440,,,,,,,,,-0.682861,-0.528564,1.87085,-31.555176,-37.597656,-14.526367,,,,,,,,,,,0.0,1.0,1.0,5.0,0.0,0.0,0.0,6.0,0.0,-0.15399742666666666,-0.17831374666666666,1.05464516,-2.7197265333333327,4.298502613333333,-9.274902346666666,-16.099651941711926,7.9298508445998195,-2.0199879192588033,-8.976341740835485,-1.4279580357083406,4.358458284128497,10.080175286893466,-2.2849049156227883,9.680895263166654,-2.2812665904043383,-0.5288635733333333,-0.3502502533333334,0.8162048399999999,1.6953186666666666,1.0337128518105942,0.6710127758918688,0.6580330881652552,0.6406808644982657
LBP05_S05,LBP05,-1538,113,5,112,-1538,1715800274.48,2024-05-15 19:11:14.480000+00:00,2024-05-16 04:11:14.480000+09:00,2024,5,15,19,11,14,480,,,,,,,,,-0.254395,-0.139404,1.741699,-35.705566,-44.921875,-30.151367,,,,,,,,,,,0.0,1.0,1.0,5.0,0.0,0.0,0.0,6.0,0.0,-0.16333337333333334,-0.17492506666666666,1.03947264,-3.2495116799999995,4.6370442800000005,-9.334309893333332,-14.61530788205093,7.190836943190463,-5.702279702239216,-9.560954056117522,-1.1403245579807222,4.1303670960389285,10.477218853720919,-2.3228209162813678,10.054011511638357,-2.277038686615735,-0.09106162666666665,0.035521066666666656,0.70222636,0.8288090533333333,0.7089963516881923,0.6744264867072797,0.6564511555336984,0.6424234884334579
LBP05_S05,LBP05,-1537,114,5,113,-1537,1715800274.52,2024-05-15 19:11:14.520000+00:00,2024-05-16 04:11:14.520000+09:00,2024,5,15,19,11,14,520,,,,,,,,,-0.092773,-0.166504,1.043213,-13.366699,113.15918,-20.385742,,,,,,,,,,,0.0,1.0,1.0,5.0,0.0,0.0,0.0,6.0,0.0,-0.15578129333333335,-0.17762037333333333,1.0214029866666667,-3.7019856399999997,2.9923502666666666,-9.382324213333334,-13.190430889766539,6.107688465003733,-9.924861367204741,-10.088571291708183,-0.8960170193805729,3.733372641350739,10.794451745507242,-2.2924693305346686,10.43096429771567,-2.274321942796889,0.06300829333333335,0.011116373333333318,0.02181001333333321,0.09593467999999988,0.06759656401375441,0.6499462226833645,0.6548381544026693,0.6391166469487388
LBP05_S05,LBP05,-1536,115,5,114,-1536,1715800274.56,2024-05-15 19:11:14.560000+00:00,2024-05-16 04:11:14.560000+09:00,2024,5,15,19,11,14,560,,,,,,,,,-0.362305,0.092529,0.12207,-26.123047,28.625488,-33.26416,,,,,,,,,,,0.0,1.0,1.0,5.0,0.0,0.0,0.0,6.0,0.0,-0.1451335066666667,-0.17057936,1.0046451733333333,-2.080891893333333,2.4796549599999995,-9.558919266666667,-11.920044160620757,4.571750120747484,-13.99647046076462,-10.565373058133012,-0.7131470145506735,3.173513822920154,11.054721909941957,-2.2776874054016196,10.803130321528604,-2.2761753137950733,-0.2171714933333333,0.26310836000000004,-0.8825751733333332,1.3628550266666666,0.9462179469883685,0.6639099068544408,0.6526227420655065,0.6419519993022033
LBP05_S05,LBP05,-1535,116,5,115,-1535,1715800274.6,2024-05-15 19:11:14.600000+00:00,2024-05-16 04:11:14.600000+09:00,2024,5,15,19,11,14,600,,,,,,,,,-0.005371,-0.088867,0.427979,-60.791016,-80.566406,-18.310547,,,,,,,,,,,0.0,1.0,1.0,5.0,0.0,0.0,0.0,6.0,0.0,-0.13862634666666668,-0.17016594666666668,0.9998242133333334,-1.5494791333333329,2.3022461066666664,-9.963378906666668,-10.883942831517514,2.6340850366024813,-17.376049864229273,-11.000730771393712,-0.6077836130865742,2.4784718283509832,11.292842911727522,-2.256739267756658,11.17206680080595,-2.281044590659683,0.1332553466666667,0.08129894666666668,-0.5718452133333334,0.7863995066666667,0.5927676223922901,0.6490112693687311,0.6507524814816543,0.6384217860206698
LBP05_S05,LBP05,-1534,117,5,116,-1534,1715800274.64,2024-05-15 19:11:14.640000+00:00,2024-05-16 04:11:14.640000+09:00,2024,5,15,19,11,14,640,,,,,,,,,0.489746,-0.678223,1.027832,-2.685547,-8.666992,3.356934,,,,,,,,,,,0.0,1.0,1.0,5.0,0.0,0.0,0.0,6.0,0.0,-0.14073246666666667,-0.17483717333333335,1.01596028,-0.5354817333333327,1.8302409066666663,-10.290527333333333,-10.211564981718507,0.4974503949240208,-19.756156297274988,-11.409193370662452,-0.5878855972896134,1.6882255764599838,11.548394193206356,-2.251026099547342,11.547650329263357,-2.2841386269631805,0.6304784666666667,-0.5033858266666666,0.01187172000000003,1.1457360133333334,0.8068713188328067,0.6569263044687014,0.653105400185731,0.6433335983595334
LBP05_S05,LBP05,-1533,118,5,117,-1533,1715800274.68,2024-05-15 19:11:14.680000+00:00,2024-05-16 04:11:14.680000+09:00,2024,5,15,19,11,14,680,,,,,,,,,-0.203369,0.205811,1.51709,65.429688,69.213867,-10.620117,,,,,,,,,,,0.0,1.0,1.0,5.0,0.0,0.0,0.0,6.0,0.0,-0.14568038666666666,-0.17619785333333332,1.0348372266666666,-0.2978515199999994,2.185058613333333,-10.297037746666666,-10.055917757580625,-1.5536602320153472,-21.05675741992174,-11.811430080965676,-0.6500320065702273,0.8459552796631141,11.859513586243597,-2.26386604646128,11.944066717024327,-2.283728779976672,-0.05768861333333333,0.38200885333333334,0.4822527733333335,0.9219502400000001,0.6179210932805762,0.6690796364731897,0.6557131636793614,0.6461651956239908
LBP05_S05,LBP05,-1532,119,5,118,-1532,1715800274.72,2024-05-15 19:11:14.720000+00:00,2024-05-16 04:11:14.720000+09:00,2024,5,15,19,11,14,720,,,,,,,,,-0.709229,-0.434814,1.843018,-42.297363,-41.137695,-27.160645,,,,,,,,,,,0.0,1.0,1.0,5.0,0.0,0.0,0.0,6.0,0.0,-0.14983402666666668,-0.17552728,1.0461165333333333,-0.4785155733333327,3.5937500266666658,-10.226236973333332,-10.506413282914705,-3.2326534432429797,-21.369833189191137,-12.231686612282264,-0.7793381442999465,-0.008838047904531354,12.256492297363746,-2.2792314215731886,12.37569907989028,-2.278186349751284,-0.5593949733333333,-0.25928671999999997,0.7969014666666667,1.61558316,1.0075734647828134,0.6731603762307838,0.6594269164858955,0.6499242071893688
LBP05_S05,LBP05,-1531,120,5,119,-1531,1715800274.76,2024-05-15 19:11:14.760000+00:00,2024-05-16 04:11:14.760000+09:00,2024,5,15,19,11,14,760,,,,,,,,,-0.322754,-0.234619,1.818604,-5.859375,-81.604004,-32.165527,,,,,,,,,,,0.0,1.0,1.0,5.0,0.0,0.0,0.0,6.0,0.0,-0.15894209333333334,-0.17458001333333337,1.0393782533333336,-0.6713866666666661,5.187174506666666,-10.021972653333332,-11.511862358528528,-4.3040319151190065,-20.897396453433405,-12.692161106623406,-0.9514994209047067,-0.8447339060418676,12.755778301479005,-2.310513179985676,12.854156399057564,-2.275953745334807,-0.16381190666666665,-0.06003898666666663,0.7792257466666666,1.0030766399999997,0.7985184938083482,0.6818687411949241,0.6577077879827179,0.6537231651604775
LBP05_S05,LBP05,-1530,121,5,120,-1530,1715800274.8,2024-05-15 19:11:14.800000+00:00,2024-05-16 04:11:14.800000+09:00,2024,5,15,19,11,14,800,,,,,,,,,-0.202637,-0.212402,1.143555,0.732422,79.467773,-13.366699,,,,,,,,,,,0.0,1.0,1.0,5.0,0.0,0.0,0.0,6.0,0.0,-0.15559573333333335,-0.17388990666666668,1.0212467333333333,-1.0742187066666662,3.9982096666666664,-10.105794266666667,-12.87150719466282,-4.60152291032083,-19.901813009907375,-13.207021394409919,-1.13556033731754,-1.6408064264381625,13.35691420654976,-2.3021276864672156,13.386753209596645,-2.277029677869917,-0.047041266666666665,-0.03851209333333333,0.12230826666666683,0.20786162666666683,0.1365846777553189,0.6664030666888459,0.657613613873538,0.6498140765726129
LBP05_S05,LBP05,-1529,122,5,121,-1529,1715800274.84,2024-05-15 19:11:14.840000+00:00,2024-05-16 04:11:14.840000+09:00,2024,5,15,19,11,14,840,,,,,,,,,-0.345459,0.121094,0.116455,-18.798828,66.040039,-28.442383,,,,,,,,,,,0.0,1.0,1.0,5.0,0.0,0.0,0.0,6.0,0.0,-0.14443688000000002,-0.16865553333333336,1.0048795466666667,-0.22216793333333282,3.5546875333333334,-10.211588546666666,-14.30142142131105,-4.023932299045545,-18.663940813777963,-13.77907825126236,-1.2965176292793619,-2.387364058989281,14.04433916450316,-2.280806445757702,13.976040834556844,-2.2814359160459348,-0.20102212,0.28974953333333336,-0.8884245466666667,1.3791962,0.955857133632454,0.6810089111112667,0.6566610736816115,0.653961693239222
LBP05_S05,LBP05,-1528,123,5,122,-1528,1715800274.88,2024-05-15 19:11:14.880000+00:00,2024-05-16 04:11:14.880000+09:00,2024,5,15,19,11,14,880,,,,,,,,,-0.091309,-0.119629,0.254639,-55.419922,-69.702148,-19.226074,,,,,,,,,,,0.0,1.0,1.0,5.0,0.0,0.0,0.0,6.0,0.0,-0.13927737333333334,-0.16720045333333333,0.9988671733333334,0.0846354533333339,3.7483724266666667,-10.37516276,-15.537885449641525,-2.54172702254324,-17.439480662487814,-14.400593669248021,-1.3981867101810914,-3.0849432854887935,14.793542482380467,-2.2673966140274913,14.619715468001553,-2.2902491858010836,0.04796837333333334,0.04757145333333333,-0.7442281733333334,0.8397680000000001,0.7472881519170244,0.6733765955930602,0.6592998888219435,0.6520057885492583
LBP05_S05,LBP05,-1527,124,5,123,-1527,1715800274.92,2024-05-15 19:11:14.920000+00:00,2024-05-16 04:11:14.920000+09:00,2024,5,15,19,11,14,920,,,,,,,,,0.450439,-0.465088,0.90625,-52.001953,-62.5,-1.220703,,,,,,,,,,,0.0,1.0,1.0,5.0,0.0,0.0,0.0,6.0,0.0,-0.14141930666666666,-0.16880526666666665,1.01119464,0.4842122800000006,3.0444336133333327,-10.494791666666666,-16.420070145080437,-0.24052262218024903,-16.41420135609791,-15.057396475051238,-1.4078076150683014,-3.74151133973271,15.57902493718006,-2.270143286369898,15.310519403989199,-2.2971153505025805,0.5918583066666666,-0.2962827333333333,-0.10494464000000003,0.99308568,0.6701440820499236,0.6808447829338999,0.6609404410613903,0.6550283895517066
LBP05_S05,LBP05,-1526,125,5,124,-1526,1715800274.96,2024-05-15 19:11:14.960000+00:00,2024-05-16 04:11:14.960000+09:00,2024,5,15,19,11,14,960,,,,,,,,,0.031006,0.060303,1.326172,58.227539,54.077148,-4.516602,,,,,,,,,,,0.0,1.0,1.0,5.0,0.0,0.0,0.0,6.0,0.0,-0.14861005333333333,-0.17079745333333332,1.03335936,1.4965820666666674,2.812500026666666,-10.460611973333332,-16.905467410196277,2.62236404607601,-15.671810266200175,-15.733615171459089,-1.302913053225261,-4.368383750380717,16.380690015332767,-2.288446730752717,16.03631918607065,-2.2997043474978005,0.17961605333333333,0.23110045333333332,0.29281263999999996,0.7035291466666667,0.41401520296926847,0.6853726066455371,0.660555012462069,0.6539741042258299
LBP05_S05,LBP05,-1525,126,5,125,-1525,1715800275.0,2024-05-15 19:11:15+00:00,2024-05-16 04:11:15+09:00,2024,5,15,19,11,15,0,19.0,11.0,15.0,40.894978,141.738205,10.17,3.0,13.0,-0.549805,-0.361328,1.721191,-30.334473,5.554199,-17.456055,-577.0,54.0,549.0,1.0,0.0,1020.400024,17.34,0.073332,-59.324638,3.88125,0.0,1.0,1.0,5.0,0.0,0.0,0.0,5.0,0.0,-0.15213870666666668,-0.17044914666666666,1.0470344933333333,1.5356445600000006,3.872070333333333,-10.426432293333335,-17.01335134603526,5.612231071400567,-15.19310513324203,-16.4141492253005,-1.0784238103692383,-4.976107955710399,17.18571916132952,-2.3008016495168344,16.780818634071007,-2.297940936126537,-0.3976662933333333,-0.19087885333333332,0.6741565066666666,1.2627016533333333,0.8056427328439847,0.6795810230795506,0.6611153389871812,0.6530525813209256
LBP05_S05,LBP05,-1524,127,5,126,-1524,1715800275.04,2024-05-15 19:11:15.040000+00:00,2024-05-16 04:11:15.040000+09:00,2024,5,15,19,11,15,40,,,,,,,,,-0.280273,-0.164795,1.775635,-7.69043,-66.955566,-28.442383,,,,,,,,,,,0.0,1.0,1.0,5.0,0.0,0.0,0.0,5.0,0.0,-0.16304365333333332,-0.16884106666666668,1.0433886666666665,0.6331380400000006,5.957031266666666,-10.25309244,-16.741333718225484,8.20341909212397,-14.89473189519924,-17.08380257402952,-0.7502870466842795,-5.571897231518368,17.985140527653428,-2.3391587970988335,17.525087844610216,-2.297805627477049,-0.11722934666666668,0.004046066666666681,0.7322463333333336,0.8535217466666669,0.7415819462847488,0.6811492355743806,0.6577769486765823,0.6550470248599709
LBP05_S05,LBP05,-1523,128,5,127,-1523,1715800275.08,2024-05-15 19:11:15.080000+00:00,2024-05-16 04:11:15.080000+09:00,2024,5,15,19,11,15,80,,,,,,,,,-0.077881,-0.03125,1.169189,-15.136719,87.890625,-16.601562,,,,,,,,,,,0.0,1.0,1.0,5.0,0.0,0.0,0.0,5.0,0.0,-0.16142581333333333,-0.16946281333333332,1.0236783866666668,-0.3727213333333328,4.968261733333332,-10.339355466666667,-16.015712847767844,9.938547923774939,-14.693553257632226,-17.724431087940232,-0.3527451297332819,-6.159639361823657,18.767552946120066,-2.3325276934762496,18.24957846965027,-2.301106225788909,0.08354481333333333,0.13821281333333332,0.14551061333333326,0.3672682399999999,0.21738412130847823,0.6659460295541457,0.654125430812418,0.6506010851993513
LBP05_S05,LBP05,-1522,129,5,128,-1522,1715800275.12,2024-05-15 19:11:15.120000+00:00,2024-05-16 04:11:15.120000+09:00,2024,5,15,19,11,15,120,,,,,,,,,-0.421387,0.234619,0.054443,-14.526367,90.881348,-30.456543,,,,,,,,,,,0.0,1.0,1.0,5.0,0.0,0.0,0.0,5.0,0.0,-0.15088545333333334,-0.16757153333333336,1.0051757866666668,0.052897160000000554,4.235839866666667,-10.365397133333333,-14.705296333441016,10.593580744471026,-14.564259768439555,-18.312642941277872,0.07099810004555912,-6.742209752561239,19.51449011817824,-2.305121391525387,18.936040255926436,-2.3058502361231232,-0.2705015466666667,0.4021905333333333,-0.9507327866666668,1.6234248666666669,1.0671556322744007,0.6962034164469926,0.6612275499820106,0.6578039089959629
LBP05_S05,LBP05,-1521,130,5,129,-1521,1715800275.16,2024-05-15 19:11:15.160000+00:00,2024-05-16 04:11:15.160000+09:00,2024,5,15,19,11,15,160,,,,,,,,,-0.02124,-0.260254,0.368896,-57.556152,-65.246582,-7.446289,,,,,,,,,,,0.0,1.0,1.0,5.0,0.0,0.0,0.0,5.0,0.0,-0.14423832,-0.16426424,0.9963151066666668,1.2312825866666675,4.168294293333332,-10.419921879999999,-12.68223365131783,10.266765525205148,-14.55907313125175,-18.819932287330584,0.48166872105376507,-7.324572677811309,20.200772781482634,-2.2928790662730405,19.568919800275438,-2.3132184556571582,0.12299832000000001,-0.09598975999999998,-0.6274191066666668,0.8464071866666667,0.6465271503642196,0.6860745022000478,0.6602270521517717,0.6546339861290319
LBP05_S05,LBP05,-1520,131,5,130,-1520,1715800275.2,2024-05-15 19:11:15.200000+00:00,2024-05-16 04:11:15.200000+09:00,2024,5,15,19,11,15,200,,,,,,,,,0.356934,-0.374023,0.906982,-4.089355,-28.991699,-3.601074,,,,,,,,,,,0.0,1.0,1.0,5.0,0.0,0.0,0.0,5.0,0.0,-0.14514001333333335,-0.1626106,1.0066634133333332,1.524251333333334,2.8336588799999998,-10.584309893333332,-9.887560487115428,9.339384124729296,-14.7796718990924,-19.215434706815202,0.8552440860429369,-7.915759553775005,20.79960631194182,-2.3007745999723346,20.136208566603226,-2.3189564930185242,0.5020740133333333,-0.2114124,-0.09968141333333325,0.8131678266666666,0.5538139596493854,0.6817187172243717,0.6585475346515015,0.655392039418908
LBP05_S05,LBP05,-1519,132,5,131,-1519,1715800275.24,2024-05-15 19:11:15.240000+00:00,2024-05-16 04:11:15.240000+09:00,2024,5,15,19,11,15,240,,,,,,,,,-0.032715,-0.056396,1.404785,47.363281,69.702148,-0.732422,,,,,,,,,,,0.0,1.0,1.0,5.0,0.0,0.0,0.0,5.0,0.0,-0.15128909333333335,-0.16501945333333334,1.0285807333333334,2.4381510666666673,2.545572946666667,-10.590006506666667,-6.366437016171141,8.32672616337662,-15.318628697762097,-19.470092187462047,1.1883131325780016,-8.528504701685488,21.28924541490373,-2.3138124288763104,20.6299857781817,-2.3205125235775923,0.11857409333333335,0.10862345333333334,0.3762042666666665,0.6034018133333332,0.4091314220175288,0.6906443450063016,0.6567701985764213,0.6564771475796732
LBP05_S05,LBP05,-1518,133,5,132,-1518,1715800275.28,2024-05-15 19:11:15.280000+00:00,2024-05-16 04:11:15.280000+09:00,2024,5,15,19,11,15,280,,,,,,,,,-0.667969,-0.186279,1.773926,-15.380859,-15.197754,-27.770996,,,,,,,,,,,0.0,1.0,1.0,5.0,0.0,0.0,0.0,5.0,0.0,-0.1552734666666667,-0.16901685333333333,1.0428678400000002,2.2078450800000007,3.2397461199999995,-10.616048173333333,-2.2692287476318986,7.696219330448889,-16.20255309264811,-19.560861337367324,1.4961619057959572,-9.176606825391413,21.658160345142132,-2.3148367173696287,21.04685530230512,-2.316258171631105,-0.5126955333333334,-0.017262146666666672,0.7310581599999997,1.2610158399999998,0.8930849483168316,0.6850395281977285,0.6631907657936715,0.6547584583831423
LBP05_S05,LBP05,-1517,134,5,133,-1517,1715800275.32,2024-05-15 19:11:15.320000+00:00,2024-05-16 04:11:15.320000+09:00,2024,5,15,19,11,15,320,,,,,,,,,-0.315918,-0.39624,1.684082,-19.287109,-82.580566,-32.470703,,,,,,,,,,,0.0,1.0,1.0,5.0,0.0,0.0,0.0,5.0,0.0,-0.16234702666666667,-0.16651685333333333,1.0388476666666666,1.5030924800000005,4.841308626666667,-10.53222656,2.1600243730283464,7.731347944674408,-17.362134246521933,-19.47446036244619,1.8054158235829334,-9.871092195252292,21.907820380670053,-2.343825481710249,21.388171973905383,-2.311998477477655,-0.1535709733333333,-0.22972314666666666,0.6452343333333335,1.0285284533333334,0.7019146051173842,0.6856795279706163,0.659631856250966,0.6548828820959439
LBP05_S05,LBP05,-1516,135,5,134,-1516,1715800275.36,2024-05-15 19:11:15.360000+00:00,2024-05-16 04:11:15.360000+09:00,2024,5,15,19,11,15,360,,,,,,,,,-0.016846,-0.005371,1.039062,16.418457,90.454102,-11.169434,,,,,,,,,,,0.0,1.0,1.0,5.0,0.0,0.0,0.0,5.0,0.0,-0.15940106666666667,-0.16282545333333334,1.0182942799999999,-0.13346350666666618,3.9526367599999994,-10.753580719999999,6.593646768967132,8.482973629293362,-18.63375592470546,-19.210714491687504,2.144734768754668,-10.61644243224051,22.053577678610658,-2.345827104366376,21.65972632330468,-2.3118506881229894,0.14255506666666667,0.15745445333333336,0.020767720000000045,0.3207772400000001,0.21341309730387925,0.6613879262688203,0.655088251803389,0.6483190977722432
LBP05_S05,LBP05,-1515,136,5,135,-1515,1715800275.4,2024-05-15 19:11:15.400000+00:00,2024-05-16 04:11:15.400000+09:00,2024,5,15,19,11,15,400,,,,,,,,,-0.447754,0.084229,0.09082,-33.630371,70.617676,-6.347656,,,,,,,,,,,0.0,1.0,1.0,5.0,0.0,0.0,0.0,5.0,0.0,-0.148112,-0.16071282666666667,0.9998567733333334,0.7112630533333338,3.5555013333333334,-10.851236973333332,10.643689837725853,9.805502227408793,-19.783768403026176,-18.78496689817847,2.5369548578510197,-11.407793168361556,22.123491277114272,-2.3163619551075176,21.87069782746862,-2.315130522980689,-0.29964199999999996,0.24494182666666667,-0.9090367733333334,1.4536206,0.9879927539648667,0.6696682930146978,0.6669068789438372,0.6573620761940688
LBP05_S05,LBP05,-1514,137,5,136,-1514,1715800275.44,2024-05-15 19:11:15.440000+00:00,2024-05-16 04:11:15.440000+09:00,2024,5,15,19,11,15,440,,,,,,,,,0.028809,-0.432129,0.365234,11.779785,-57.067871,-11.657715,,,,,,,,,,,0.0,1.0,1.0,5.0,0.0,0.0,0.0,5.0,0.0,-0.14092124,-0.15923497333333334,0.9905013066666667,0.9700521200000005,3.898925813333333,-11.022949213333334,13.924999033138487,11.435546967555377,-20.549517205809646,-18.22796693685293,2.9943767365532348,-12.229773856593942,22.153835768887596,-2.2966152776339572,22.03211059933533,-2.3192756086764073,0.16973024,-0.2728940266666666,-0.6252673066666667,1.0678915733333334,0.7030211298012261,0.6564406241343229,0.6637267000130959,0.6575022668216112
LBP05_S05,LBP05,-1513,138,5,137,-1513,1715800275.48,2024-05-15 19:11:15.480000+00:00,2024-05-16 04:11:15.480000+09:00,2024,5,15,19,11,15,480,,,,,,,,,0.351807,0.143066,0.693359,89.294434,-17.822266,-29.907227,,,,,,,,,,,0.0,1.0,1.0,5.0,0.0,0.0,0.0,5.0,0.0,-0.14031250666666667,-0.16074213333333331,0.9990852933333334,1.7252604533333336,3.3772786666666663,-11.20279948,16.158620509905997,13.060286936654892,-20.697732235341622,-17.58162211645669,3.5167882140194306,-13.057683146007607,22.18071966212269,-2.2899307519417476,22.15533278064334,-2.3244374395948397,0.49211950666666665,0.30380813333333334,-0.30572629333333345,1.1016539333333335,0.6541785361479443,0.6542479115127129,0.6643371991099964,0.6557167408600366
LBP05_S05,LBP05,-1512,139,5,138,-1512,1715800275.52,2024-05-15 19:11:15.520000+00:00,2024-05-16 04:11:15.520000+09:00,2024,5,15,19,11,15,520,,,,,,,,,-0.019531,-0.248779,1.278809,17.578125,78.00293,-34.118652,,,,,,,,,,,0.0,1.0,1.0,5.0,0.0,0.0,0.0,5.0,0.0,-0.14533854666666665,-0.16186192000000002,1.0207487066666667,3.3821614933333337,3.4309895999999998,-11.315917973333331,17.270875353806936,14.356643849173276,-20.09343801252672,-16.89078710230441,4.091053967986362,-13.861420666508675,22.230033612171255,-2.303643497978733,22.251060359367095,-2.3253688259441874,0.12580754666666666,-0.08691707999999998,0.25806029333333336,0.47078492,0.2999620519154014,0.6635425310287789,0.6567443768560718,0.6577396132780393
LBP05_S05,LBP05,-1511,140,5,139,-1511,1715800275.56,2024-05-15 19:11:15.560000+00:00,2024-05-16 04:11:15.560000+09:00,2024,5,15,19,11,15,560,,,,,,,,,-0.640625,-0.180908,1.725586,26.184082,5.310059,-36.376953,,,,,,,,,,,0.0,1.0,1.0,5.0,0.0,0.0,0.0,5.0,0.0,-0.15131835999999999,-0.16107090666666668,1.036403,2.3665364933333337,3.959147146666666,-11.350097653333334,17.41959772547116,15.020085588875471,-18.754267018480867,-16.194003193285564,4.69185739154138,-14.61159134724791,22.31048782312199,-2.3256774148500368,22.328816306730015,-2.322220741597511,-0.48930664,-0.019837093333333333,0.6891830000000001,1.1983267333333334,0.8454511846990369,0.6595118605372057,0.6617108836958232,0.6549191148894064
LBP05_S05,LBP05,-1510,141,5,140,-1510,1715800275.6,2024-05-15 19:11:15.600000+00:00,2024-05-16 04:11:15.600000+09:00,2024,5,15,19,11,15,600,,,,,,,,,-0.482178,-0.396484,1.740967,-3.479004,-64.331055,-19.836426,,,,,,,,,,,0.0,1.0,1.0,5.0,0.0,0.0,0.0,5.0,0.0,-0.15847005333333333,-0.16306961333333334,1.038310546666667,2.0035807733333337,5.583496106666666,-11.166992186666667,16.90953300100543,14.802920867967615,-16.857521825848384,-15.517621873245346,5.283974226260085,-15.285892220281845,22.413734030608918,-2.3422254569295164,22.396645856170284,-2.3182359308286933,-0.3237079466666667,-0.23341438666666667,0.702656453333333,1.2597787866666663,0.8080811853081992,0.668124403053842,0.6585678362112865,0.6565431220057169
LBP05_S05,LBP05,-1509,142,5,141,-1509,1715800275.64,2024-05-15 19:11:15.640000+00:00,2024-05-16 04:11:15.640000+09:00,2024,5,15,19,11,15,640,,,,,,,,,-0.052002,-0.088379,1.090576,-28.564453,83.374023,15.991211,,,,,,,,,,,0.0,1.0,1.0,5.0,0.0,0.0,0.0,5.0,0.0,-0.16080729333333332,-0.15779292,1.02107748,0.3450521200000006,4.866536479999999,-11.193033853333333,16.03201904117504,13.563048426108478,-14.686179480295307,-14.876341111598345,5.826496163304424,-15.873339399493657,22.521467227983834,-2.365430738060636,22.460709362953924,-2.316692797698209,0.10880529333333333,0.06941392,0.06949852000000001,0.24771773333333336,0.1465842025230192,0.6417129184014505,0.6493196114350759,0.6493079062576376
LBP05_S05,LBP05,-1508,143,5,142,-1508,1715800275.68,2024-05-15 19:11:15.680000+00:00,2024-05-16 04:11:15.680000+09:00,2024,5,15,19,11,15,680,,,,,,,,,-0.520264,0.108643,0.074707,-17.63916,69.274902,1.525879,,,,,,,,,,,0.0,1.0,1.0,5.0,0.0,0.0,0.0,5.0,0.0,-0.15084961333333335,-0.16109045333333336,1.0027702,0.5314127866666672,4.03727216,-11.034342453333332,14.925330404944308,11.3096400968396,-12.536755494287897,-14.279327895400572,6.2788817671780075,-16.37480961926517,22.61543613237968,-2.3241505808631056,22.524835808546158,-2.318871114362556,-0.3694143866666666,0.2697334533333334,-0.9280632000000001,1.56721104,1.0346615041247427,0.6583825348352171,0.6637310856542034,0.6566029540646465
LBP05_S05,LBP05,-1507,144,5,143,-1507,1715800275.72,2024-05-15 19:11:15.720000+00:00,2024-05-16 04:11:15.720000+09:00,2024,5,15,19,11,15,720,,,,,,,,,-0.006592,-0.454102,0.396973,3.051758,-65.673828,-8.911133,,,,,,,,,,,0.0,1.0,1.0,5.0,0.0,0.0,0.0,5.0,0.0,-0.14381510666666666,-0.15733393333333331,0.9900488399999998,1.6764323200000004,4.09830732,-10.98225912,13.55122695790497,8.221765853495986,-10.638121070859647,-13.737278817084373,6.607752401317847,-16.800334462099556,22.68537985429926,-2.3123446382434856,22.590432342922735,-2.327178775666005,0.13722310666666668,-0.29676806666666666,-0.5930758399999998,1.0270670133333333,0.6772299597537219,0.6451687946340534,0.6591645854324187,0.6546742092019482
LBP05_S05,LBP05,-1506,145,5,144,-1506,1715800275.76,2024-05-15 19:11:15.760000+00:00,2024-05-16 04:11:15.760000+09:00,2024,5,15,19,11,15,760,,,,,,,,,0.260498,0.111328,0.704834,118.347168,-28.137207,-32.043457,,,,,,,,,,,0.0,1.0,1.0,5.0,0.0,0.0,0.0,5.0,0.0,-0.1422168,-0.15762689333333335,0.9958366000000001,2.77099612,3.5229492399999986,-10.7006836,11.812770176331817,4.621482351827393,-9.12187359592856,-13.264768010031101,6.792611695390943,-17.1652094059367,22.73187317301335,-2.3059789966781965,22.65709566036518,-2.3334434486572833,0.40271480000000004,0.26895489333333333,-0.2910026000000001,0.9626722933333335,0.5649765110106303,0.6358271153221448,0.6588479282585346,0.6504142304291936
LBP05_S05,LBP05,-1505,146,5,145,-1505,1715800275.8,2024-05-15 19:11:15.800000+00:00,2024-05-16 04:11:15.800000+09:00,2024,5,15,19,11,15,800,,,,,,,,,0.253174,-0.461426,1.272949,-12.084961,51.940918,-2.624512,,,,,,,,,,,0.0,1.0,1.0,5.0,0.0,0.0,0.0,5.0,0.0,-0.14723306666666666,-0.16490553333333333,1.0175293066666669,4.046223986666667,3.111979186666666,-10.444335933333331,9.739696375404444,0.9136476002585733,-8.046638887799967,-12.875180155014924,6.829157599401286,-17.487074961448698,22.764126344950654,-2.3009306238026745,22.723859647745776,-2.3355367658609705,0.4004070666666667,-0.29652046666666665,0.25541969333333325,0.9523472266666666,0.5599012644487564,0.6527597787898823,0.659581422739364,0.6559956688456529
LBP05_S05,LBP05,-1504,147,5,146,-1504,1715800275.84,2024-05-15 19:11:15.840000+00:00,2024-05-16 04:11:15.840000+09:00,2024,5,15,19,11,15,840,,,,,,,,,-0.712158,-0.063477,1.621826,57.983398,17.028809,-28.808594,,,,,,,,,,,0.0,1.0,1.0,5.0,0.0,0.0,0.0,5.0,0.0,-0.15353841333333332,-0.16590487999999998,1.03537436,5.603027373333333,3.3585612133333327,-10.5517578,7.610849473998141,-2.4743197382883317,-7.442026864688631,-12.570746176054998,6.730184809869753,-17.784756036036242,22.795100224809946,-2.318398444277428,22.79058125945261,-2.333990097701136,-0.5586195866666667,0.10242787999999997,0.5864516399999999,1.2474991066666665,0.8163778777426673,0.6471806085542908,0.6640947598327788,0.6535009186391713
LBP05_S05,LBP05,-1503,148,5,147,-1503,1715800275.88,2024-05-15 19:11:15.880000+00:00,2024-05-16 04:11:15.880000+09:00,2024,5,15,19,11,15,880,,,,,,,,,-0.396973,-0.361572,1.707031,-28.320312,-70.983887,-17.51709,,,,,,,,,,,0.0,1.0,1.0,5.0,0.0,0.0,0.0,5.0,0.0,-0.16272134666666666,-0.15721348000000002,1.0355338533333331,4.2814127866666665,4.249674506666666,-11.037597653333332,5.916454564093668,-5.137087930169732,-7.330161818354862,-12.33408799349125,6.5247012926629635,-18.077962508770437,22.83668500588849,-2.3730073649762433,22.858822016995116,-2.3295093653582954,-0.23425165333333337,-0.20435852,0.6714971466666668,1.1101073200000002,0.7399626070062363,0.6468875867578593,0.6601320911754598,0.6551624548005822
LBP05_S05,LBP05,-1502,149,5,148,-1502,1715800275.92,2024-05-15 19:11:15.920000+00:00,2024-05-16 04:11:15.920000+09:00,2024,5,15,19,11,15,920,,,,,,,,,-0.033203,-0.182129,1.098145,-34.606934,26.000977,25.817871,,,,,,,,,,,0.0,1.0,1.0,5.0,0.0,0.0,0.0,5.0,0.0,-0.16574544,-0.16234694666666669,1.0177734399999998,3.1046549733333335,3.945312519999999,-11.765136720000001,5.166044767002715,-6.73162503031966,-7.70564147313844,-12.127446202811141,6.255436291450177,-18.386188167695973,22.896666786595677,-2.366290227891509,22.93178681510083,-2.329615896688726,0.13254243999999998,-0.019782053333333327,0.08037156000000012,0.23269605333333343,0.15626392959371674,0.626332380659611,0.6535885817967555,0.6494044209274639
LBP05_S05,LBP05,-1501,150,5,149,-1501,1715800275.96,2024-05-15 19:11:15.960000+00:00,2024-05-16 04:11:15.960000+09:00,2024,5,15,19,11,15,960,,,,,,,,,-0.481934,-0.049072,0.091797,-33.38623,72.998047,10.070801,,,,,,,,,,,0.0,1.0,1.0,5.0,0.0,0.0,0.0,5.0,0.0,-0.15742838666666667,-0.16055333333333333,0.9979459600000001,2.9459635733333336,3.7353515733333325,-11.45182292,5.6487897574875,-7.02805960967238,-8.490807230433969,-11.901494612511641,5.974313907063282,-18.725820456913333,22.978127696927945,-2.346610586886909,23.013318139704364,-2.3310519890267294,-0.3245056133333333,0.11148133333333332,-0.9061489600000001,1.3421359066666667,0.9689364883601517,0.6485292320752463,0.6669509193603916,0.6565464189997947
LBP05_S05,LBP05,-1500,151,5,150,-1500,1715800276.0,2024-05-15 19:11:16+00:00,2024-05-16 04:11:16+09:00,2024,5,15,19,11,16,0,19.0,11.0,16.0,40.894901,141.738205,10.619,3.0,13.0,-0.078125,-0.290527,0.254639,-18.310547,-70.617676,-17.76123,-577.0,62.0,544.0,1.0,0.0,1020.700012,17.41,0.076305,-61.806309,3.88125,0.0,1.0,1.0,5.0,0.0,0.0,0.0,5.0,0.0,-0.14970377333333335,-0.15901688,0.9849121066666665,4.126790386666667,3.9567057466666657,-10.988769533333333,7.287000178815073,-5.975374693310009,-9.507714574355179,-11.610014605359037,5.735298919330882,-19.10612903988754,23.080950147677243,-2.3267587753311747,23.10641648054992,-2.3372230564451035,0.07157877333333335,-0.13151011999999998,-0.7302731066666666,0.9333619999999999,0.7454644476934521,0.646122100669225,0.6628515618743879,0.6561175928811959
LBP05_S05,LBP05,-1499,152,5,151,-1499,1715800276.04,2024-05-15 19:11:16.040000+00:00,2024-05-16 04:11:16.040000+09:00,2024,5,15,19,11,16,40,,,,,,,,,0.3479,0.016846,0.557617,60.974121,-83.374023,-20.629883,,,,,,,,,,,0.0,1.0,1.0,5.0,0.0,0.0,0.0,5.0,0.0,-0.14909505333333334,-0.16037756000000003,0.9883203066666666,4.895019546666666,3.292643239999999,-10.742187506666665,9.670343248357163,-3.766237444418704,-10.5009881352891,-11.22320087542475,5.584649421554134,-19.526168565299105,23.203874803408905,-2.320623414632231,23.212013811785475,-2.3454494517610325,0.4969950533333333,0.17722356000000003,-0.43070330666666656,1.1049219199999998,0.6811149768067628,0.6437034218901055,0.662426328732243,0.65308577308109
LBP05_S05,LBP05,-1498,153,5,152,-1498,1715800276.08,2024-05-15 19:11:16.080000+00:00,2024-05-16 04:11:16.080000+09:00,2024,5,15,19,11,16,80,,,,,,,,,0.307129,-0.22583,1.032227,53.344727,32.104492,-21.850586,,,,,,,,,,,0.0,1.0,1.0,5.0,0.0,0.0,0.0,5.0,0.0,-0.1536556,-0.16373368,1.0098014266666666,5.608723973333333,2.839355479999999,-10.34098308,12.24856657282654,-0.8551799872271196,-11.209575820866888,-10.733258212511688,5.5504422220650484,-19.974551598133782,23.345084113436833,-2.3252158941674055,23.328597119606215,-2.349741333822063,0.4607846,-0.06209632000000001,0.022425573333333393,0.5453064933333334,0.4654903939868481,0.6536276727972404,0.659786851175693,0.6539595114740255
LBP05_S05,LBP05,-1497,154,5,153,-1497,1715800276.12,2024-05-15 19:11:16.120000+00:00,2024-05-16 04:11:16.120000+09:00,2024,5,15,19,11,16,120,,,,,,,,,-0.529541,-0.283447,1.567627,67.504883,62.37793,-23.986816,,,,,,,,,,,0.0,1.0,1.0,5.0,0.0,0.0,0.0,5.0,0.0,-0.15939778666666668,-0.1693424,1.0281510266666667,6.455078146666667,2.6245117199999988,-10.178222666666667,14.56321121850354,2.1208121642525377,-11.44986272320467,-10.150729763771546,5.63527470863515,-20.43254610706197,23.500693100334587,-2.326705561623524,23.452843060161563,-2.3462389247504642,-0.37014321333333333,-0.1141046,0.5394759733333334,1.0237237866666669,0.6641236209636222,0.6375063923448092,0.6668549043959008,0.6533204974362768
LBP05_S05,LBP05,-1496,155,5,154,-1496,1715800276.16,2024-05-15 19:11:16.160000+00:00,2024-05-16 04:11:16.160000+09:00,2024,5,15,19,11,16,160,,,,,,,,,-0.497803,-0.397705,1.708984,-40.405273,-46.813965,-1.708984,,,,,,,,,,,0.0,1.0,1.0,5.0,0.0,0.0,0.0,5.0,0.0,-0.16665690666666666,-0.16277338666666666,1.0318229066666667,6.447753933333334,3.316243493333333,-10.093587253333334,16.381333712993666,4.518521012400105,-11.166155586441418,-9.4954764152518,5.816015549131154,-20.879192330519626,23.662856581468944,-2.3676896708619397,23.580933967767372,-2.3423376138408605,-0.33114609333333334,-0.23493161333333332,0.6771610933333334,1.2432388,0.789555409327127,0.6432275227033256,0.6646510124516867,0.6545605423356229
LBP05_S05,LBP05,-1495,156,5,155,-1495,1715800276.2,2024-05-15 19:11:16.200000+00:00,2024-05-16 04:11:16.200000+09:00,2024,5,15,19,11,16,200,,,,,,,,,-0.062988,0.043945,1.35376,4.211426,7.751465,-4.211426,,,,,,,,,,,0.0,1.0,1.0,5.0,0.0,0.0,0.0,5.0,0.0,-0.17133463999999998,-0.16208654666666666,1.01337564,5.596516946666666,3.8574218799999995,-10.043945333333333,17.670342233371933,5.892151631179902,-10.428319225104715,-8.788662725916922,6.05170161437835,-21.296325099523813,23.820099657306198,-2.3831945769619605,23.709926902414434,-2.3398812263615563,0.10834663999999998,0.20603154666666668,0.34038436000000005,0.6547625466666667,0.41237059200888476,0.6375697879977055,0.6596442526110387,0.6515549524335694
LBP05_S05,LBP05,-1494,157,5,156,-1494,1715800276.24,2024-05-15 19:11:16.240000+00:00,2024-05-16 04:11:16.240000+09:00,2024,5,15,19,11,16,240,,,,,,,,,-0.32666,-0.179199,0.5354,-12.084961,122.375488,7.080078,,,,,,,,,,,0.0,1.0,1.0,5.0,0.0,0.0,0.0,5.0,0.0,-0.16212890666666666,-0.16043290666666665,0.99317056,5.2563476666666675,3.6222330799999995,-9.657389333333333,18.46481676100843,6.1320109500640765,-9.389063514657051,-8.050070055476585,6.296982052380914,-21.671887640110096,23.960933303017327,-2.361317264887735,23.838603585447323,-2.339590192971353,-0.16453109333333335,-0.018766093333333345,-0.45777056000000005,0.6410677466666668,0.48680235469353583,0.6406766253047458,0.6656604851555237,0.6514056741525295
LBP05_S05,LBP05,-1493,158,5,157,-1493,1715800276.28,2024-05-15 19:11:16.280000+00:00,2024-05-16 04:11:16.280000+09:00,2024,5,15,19,11,16,280,,,,,,,,,-0.144043,-0.0625,0.179443,-2.624512,-37.29248,-17.211914,,,,,,,,,,,0.0,1.0,1.0,5.0,0.0,0.0,0.0,5.0,0.0,-0.15291992000000001,-0.15874020000000003,0.9783919066666668,5.441894546666667,3.7532552133333335,-9.081217466666665,18.739971600975192,5.473415968596689,-8.231853446673204,-7.300471191437577,6.5159186911247815,-22.001161777977025,24.07914441144196,-2.3379832742602513,23.967608243374155,-2.3441045261659625,0.00887692000000001,0.09624020000000003,-0.7989489066666667,0.9040660266666668,0.8047734658079804,0.6371441660043917,0.6610918471010601,0.6545085658639116
LBP05_S05,LBP05,-1492,159,5,158,-1492,1715800276.32,2024-05-15 19:11:16.320000+00:00,2024-05-16 04:11:16.320000+09:00,2024,5,15,19,11,16,320,,,,,,,,,0.28125,-0.060791,0.536377,42.724609,-86.975098,-14.709473,,,,,,,,,,,0.0,1.0,1.0,5.0,0.0,0.0,0.0,5.0,0.0,-0.1480859333333333,-0.15712888,0.9786653333333334,6.075846373333333,3.13883464,-8.807779973333332,18.383178395396577,4.3663388588400895,-7.134700081383187,-6.5651440556217135,6.690572245478385,-22.286549781232353,24.17757586265378,-2.3272771187954735,24.099104053241945,-2.34931232753482,0.4293359333333333,0.09633788,-0.4422883333333334,0.9679621466666667,0.6238824413115637,0.6340228794521588,0.6598512037113876,0.6510955306513637
LBP05_S05,LBP05,-1491,160,5,159,-1491,1715800276.36,2024-05-15 19:11:16.360000+00:00,2024-05-16 04:11:16.360000+09:00,2024,5,15,19,11,16,360,,,,,,,,,0.289795,-0.055176,0.998535,69.030762,14.221191,-10.131836,,,,,,,,,,,0.0,1.0,1.0,5.0,0.0,0.0,0.0,5.0,0.0,-0.15036457333333333,-0.16126950666666665,0.9979915066666666,6.167806013333333,2.578938813333333,-8.36344404,17.273332381805385,3.266542299744647,-6.253844926033272,-5.874210760349498,6.821233937468171,-22.536703578273684,24.268057043398578,-2.3220467120938633,24.236338030643104,-2.3530937178636995,0.44015957333333333,0.10609350666666664,0.0005434933333333669,0.5467965733333333,0.45276547741498074,0.6435969746566029,0.6524924504627115,0.6512578260877936
LBP05_S05,LBP05,-1490,161,5,160,-1490,1715800276.4,2024-05-15 19:11:16.400000+00:00,2024-05-16 04:11:16.400000+09:00,2024,5,15,19,11,16,400,,,,,,,,,-0.43042,-0.284668,1.540771,8.117676,55.603027,-4.638672,,,,,,,,,,,0.0,1.0,1.0,5.0,0.0,0.0,0.0,5.0,0.0,-0.1554492,-0.16611325333333332,1.0182030933333333,6.662597679999999,2.500813813333333,-8.100585973333333,15.399922235471921,2.456312707901912,-5.714164255758662,-5.2582138709306205,6.919486445784248,-22.76527014850403,24.367716978006122,-2.3238484414291465,24.38333482483546,-2.351236191394629,-0.2749708,-0.11855474666666665,0.5225679066666666,0.9160934533333334,0.6022801556483656,0.628168470723943,0.6489183818693202,0.6539940762038724
LBP05_S05,LBP05,-1489,162,5,161,-1489,1715800276.44,2024-05-15 19:11:16.440000+00:00,2024-05-16 04:11:16.440000+09:00,2024,5,15,19,11,16,440,,,,,,,,,-0.656738,-0.292969,1.786377,13.73291,-55.969238,-5.249023,,,,,,,,,,,0.0,1.0,1.0,5.0,0.0,0.0,0.0,5.0,0.0,-0.16252276,-0.15936519999999998,1.0229101200000001,7.814941426666666,3.52701824,-8.09244796,12.930439461842383,1.9797906995569738,-5.592986965199385,-4.740996292456925,6.998678073766527,-22.988989627112005,24.493921382677254,-2.3657667465783243,24.544640038020322,-2.3444767876600805,-0.49421524000000006,-0.1336038,0.76346688,1.39128592,0.9192281303787608,0.6368167507470444,0.6466286874406836,0.6547567169244121
LBP05_S05,LBP05,-1488,163,5,162,-1488,1715800276.48,2024-05-15 19:11:16.480000+00:00,2024-05-16 04:11:16.480000+09:00,2024,5,15,19,11,16,480,,,,,,,,,-0.072754,-0.053467,1.496826,18.066406,-21.728516,-4.150391,,,,,,,,,,,0.0,1.0,1.0,5.0,0.0,0.0,0.0,5.0,0.0,-0.16767250666666667,-0.16056312,1.0100650666666666,6.827799506666667,4.3693034,-8.091634146666667,10.176248493952322,1.7031821278056192,-5.897152712667343,-4.333946352698833,7.066805358878752,-23.2248757356187,24.660042212114707,-2.377293907855982,24.724870750090936,-2.338298442110756,0.09491850666666667,0.10709612,0.48676093333333337,0.6887755600000001,0.5073611219303488,0.6309440541783404,0.6425959828455268,0.6532061507994443
LBP05_S05,LBP05,-1487,164,5,163,-1487,1715800276.52,2024-05-15 19:11:16.520000+00:00,2024-05-16 04:11:16.520000+09:00,2024,5,15,19,11,16,520,,,,,,,,,-0.284912,-0.174316,0.723877,-27.22168,126.159668,13.183594,,,,,,,,,,,0.0,1.0,1.0,5.0,0.0,0.0,0.0,5.0,0.0,-0.16196286666666668,-0.15921872,0.9906803066666666,6.272786493333334,3.6507161600000004,-7.954915386666666,7.47830346393522,1.4473699813934275,-6.546463153434369,-4.034814214141424,7.124700158134489,-23.486734261756073,24.87303287434618,-2.3645194649123153,24.92794269243629,-2.3371028391584985,-0.12294913333333332,-0.01509727999999999,-0.26680330666666663,0.40484971999999997,0.29415713776667657,0.6307118576123915,0.6471271943205852,0.6480668704415118
LBP05_S05,LBP05,-1486,165,5,164,-1486,1715800276.56,2024-05-15 19:11:16.560000+00:00,2024-05-16 04:11:16.560000+09:00,2024,5,15,19,11,16,560,,,,,,,,,-0.199463,-0.103027,0.112305,-60.180664,-10.253906,-17.089844,,,,,,,,,,,0.0,1.0,1.0,5.0,0.0,0.0,0.0,5.0,0.0,-0.15422849333333333,-0.15648434666666666,0.9741926666666666,6.8326823333333335,3.6295573066666664,-7.657877626666667,5.086826188351825,1.1146735133361756,-7.3803251706256745,-3.8313411666073507,7.169287098667937,-23.7819472685811,25.132824523392486,-2.3491144061712377,25.156138126356556,-2.3398623991844456,-0.045234506666666674,0.05345734666666667,-0.8618876666666666,0.9605795199999999,0.8647278175577144,0.6314829229267386,0.6454973917319721,0.651634896772795
LBP05_S05,LBP05,-1485,166,5,165,-1485,1715800276.6,2024-05-15 19:11:16.600000+00:00,2024-05-16 04:11:16.600000+09:00,2024,5,15,19,11,16,600,,,,,,,,,0.179443,-0.247314,0.471924,36.193848,-77.392578,-14.526367,,,,,,,,,,,0.0,1.0,1.0,5.0,0.0,0.0,0.0,5.0,0.0,-0.14868161333333332,-0.16160478666666667,0.9719954133333333,6.897786506666666,2.85156252,-7.499186226666668,3.1138219887414573,0.7402590904609111,-8.195462726444834,-3.7067882870576923,7.198897462286373,-24.10976577763889,25.433151789154813,-2.3156005396164745,25.409399854226837,-2.3429837919609158,0.3281246133333333,-0.08570921333333334,-0.5000714133333333,0.91390524,0.6042211925764983,0.6233285232174706,0.6457264631356563,0.6468213985466812
LBP05_S05,LBP05,-1484,167,5,166,-1484,1715800276.64,2024-05-15 19:11:16.640000+00:00,2024-05-16 04:11:16.640000+09:00,2024,5,15,19,11,16,640,,,,,,,,,0.348633,-0.017334,0.956543,74.09668,9.338379,-8.850098,,,,,,,,,,,0.0,1.0,1.0,5.0,0.0,0.0,0.0,5.0,0.0,-0.14904618666666666,-0.1674544,0.9913704133333334,7.679036506666668,2.530924493333333,-7.219238306666666,1.588169150728379,0.4487290133532658,-8.805285001702453,-3.643261521028557,7.216846622820504,-24.461977177706988,25.7632404237235,-2.2995338093944944,25.68519201849231,-2.34534305889094,0.49767918666666666,0.15012040000000001,-0.03482741333333339,0.6826270000000001,0.5209929520222377,0.6383048731974393,0.640008895799445,0.6456480320225304
LBP05_S05,LBP05,-1483,168,5,167,-1483,1715800276.68,2024-05-15 19:11:16.680000+00:00,2024-05-16 04:11:16.680000+09:00,2024,5,15,19,11,16,680,,,,,,,,,-0.299072,-0.121094,1.485352,-12.817383,35.461426,-15.319824,,,,,,,,,,,0.0,1.0,1.0,5.0,0.0,0.0,0.0,5.0,0.0,-0.15782222666666668,-0.16790686666666665,1.0100487999999999,8.467610720000001,2.661946626666667,-7.310384146666667,0.5649522223504916,0.362767449265011,-9.097036493764946,-3.6206634321345375,7.231357320791104,-24.825858637457586,26.109863834895478,-2.3260272447376753,25.97900030121687,-2.3423651032068165,-0.14124977333333333,0.04681286666666666,0.47530320000000015,0.6633658400000002,0.49805228127427476,0.6168405042834206,0.6376115195593188,0.6481008918639425
LBP05_S05,LBP05,-1482,169,5,168,-1482,1715800276.72,2024-05-15 19:11:16.720000+00:00,2024-05-16 04:11:16.720000+09:00,2024,5,15,19,11,16,720,,,,,,,,,-0.6604,-0.232178,1.74292,18.493652,-39.428711,-14.709473,,,,,,,,,,,0.0,1.0,1.0,5.0,0.0,0.0,0.0,5.0,0.0,-0.16532874666666666,-0.16577796,1.0183854,8.955891959999999,2.4308268266666664,-7.114257853333333,0.19353078163920084,0.5340645342015745,-9.061594246137174,-3.612922200868969,7.252719902159167,-25.188322407303072,26.459530201856452,-2.354872719054941,26.28524655109111,-2.335168374479273,-0.49507125333333335,-0.06640004,0.7245345999999999,1.2860058933333334,0.8800311913711917,0.6249525535481194,0.6350606740910865,0.6477605748043189
LBP05_S05,LBP05,-1481,170,5,169,-1481,1715800276.76,2024-05-15 19:11:16.760000+00:00,2024-05-16 04:11:16.760000+09:00,2024,5,15,19,11,16,760,,,,,,,,,-0.085449,-0.470215,1.608887,-24.414062,-43.640137,-7.629395,,,,,,,,,,,0.0,1.0,1.0,5.0,0.0,0.0,0.0,5.0,0.0,-0.16686845333333333,-0.16787757333333334,1.0090169066666665,8.216145866666666,2.8914388133333335,-6.826171919999999,0.6782999769023813,0.9338174391979004,-8.782882509045079,-3.5857902017928738,7.2900725997270825,-25.539637707664877,26.800674322101354,-2.3532606398585703,26.59822720357896,-2.3276163219630255,0.08141945333333334,-0.30233742666666663,0.5998700933333334,0.9836269733333334,0.6766691775308397,0.6294202602089277,0.6326236877655362,0.6490387055753323
LBP05_S05,LBP05,-1480,171,5,170,-1480,1715800276.8,2024-05-15 19:11:16.800000+00:00,2024-05-16 04:11:16.800000+09:00,2024,5,15,19,11,16,800,,,,,,,,,-0.147949,-0.027588,0.744141,-5.981445,129.943848,5.737305,,,,,,,,,,,0.0,1.0,1.0,5.0,0.0,0.0,0.0,5.0,0.0,-0.16057938666666668,-0.16349281333333332,0.9858626133333335,8.117675813333333,3.1437174666666667,-6.6601562933333325,2.148919938489405,1.4932895504833454,-8.391878619134998,-3.4998334042532977,7.349804181746416,-25.875312852430277,27.125638620660855,-2.3474411107293855,26.912729769696806,-2.324501564031002,0.012630386666666688,0.13590481333333332,-0.24172161333333342,0.3902568133333334,0.27759499870672605,0.6181280095792466,0.6354438941845644,0.6457636183526583
LBP05_S05,LBP05,-1479,172,5,171,-1479,1715800276.84,2024-05-15 19:11:16.840000+00:00,2024-05-16 04:11:16.840000+09:00,2024,5,15,19,11,16,840,,,,,,,,,-0.154785,0.040771,0.045166,-72.265625,-7.141113,-8.728027,,,,,,,,,,,0.0,1.0,1.0,5.0,0.0,0.0,0.0,5.0,0.0,-0.15406245333333332,-0.16058917333333333,0.9688867066666668,7.700195333333334,3.1624349066666664,-6.276855519999999,4.526173624707238,2.153425582873896,-8.006143421956024,-3.318786459265008,7.435941205061372,-26.19555858930852,27.432004209922866,-2.335987189737088,27.224223762501104,-2.3259200348476456,-0.0007225466666666847,0.20136017333333334,-0.9237207066666667,1.1258034266666668,0.9454133410330541,0.6232894281108621,0.6352350183325765,0.6504929825921398
LBP05_S05,LBP05,-1478,173,5,172,-1478,1715800276.88,2024-05-15 19:11:16.880000+00:00,2024-05-16 04:11:16.880000+09:00,2024,5,15,19,11,16,880,,,,,,,,,0.215576,-0.254883,0.437988,32.958984,-80.322266,-3.479004,,,,,,,,,,,0.0,1.0,1.0,5.0,0.0,0.0,0.0,5.0,0.0,-0.14850906666666666,-0.1648828,0.9662955733333333,8.2714844,1.7537434933333336,-5.957031293333333,7.479802944603222,2.877298635220656,-7.682359643430134,-3.0195943414808792,7.551033150470198,-26.502852975045723,27.722504710857084,-2.3053266205805434,27.52880502315194,-2.330146349874652,0.3640850666666666,-0.09000020000000003,-0.5283075733333333,0.9823928399999999,0.6478941763984813,0.6196066908865518,0.6332471388222055,0.6466236244124904
LBP05_S05,LBP05,-1477,174,5,173,-1477,1715800276.92,2024-05-15 19:11:16.920000+00:00,2024-05-16 04:11:16.920000+09:00,2024,5,15,19,11,16,920,,,,,,,,,0.341797,-0.070557,0.815674,61.523438,-6.774902,-9.94873,,,,,,,,,,,0.0,1.0,1.0,5.0,0.0,0.0,0.0,5.0,0.0,-0.14495112,-0.16642902666666667,0.9830892,9.2879232,1.57796224,-5.439453173333333,10.520960362911069,3.614572310170732,-7.402077974397719,-2.5987559269644365,7.6956160428770275,-26.79893609402163,28.002839399224758,-2.2889989397498467,27.823175152650258,-2.332350564521698,0.48674812,0.09587202666666668,-0.1674152,0.7500353466666667,0.523586694838351,0.6342996014963371,0.6303159910779741,0.647158921696616
LBP05_S05,LBP05,-1476,175,5,174,-1476,1715800276.96,2024-05-15 19:11:16.960000+00:00,2024-05-16 04:11:16.960000+09:00,2024,5,15,19,11,16,960,,,,,,,,,-0.111572,-0.220459,1.37085,33.935547,67.382812,-4.516602,,,,,,,,,,,0.0,1.0,1.0,5.0,0.0,0.0,0.0,5.0,0.0,-0.15275385333333333,-0.16522134666666666,1.0013053466666666,9.070638039999999,1.8513997333333332,-5.180664106666667,13.18400046381494,4.25997071745512,-7.093774934978664,-2.071395908411839,7.866014871575232,-27.082687091420777,28.27785018457092,-2.3179668268509994,28.10479054063891,-2.3293818896285106,0.041181853333333324,-0.05523765333333333,0.3695446533333333,0.46596415999999996,0.37591274811715975,0.6105786518866175,0.629553941980932,0.6481601635358003
LBP05_S05,LBP05,-1475,176,5,175,-1475,1715800277.0,2024-05-15 19:11:17+00:00,2024-05-16 04:11:17+09:00,2024,5,15,19,11,17,0,19.0,11.0,17.0,40.894825,141.738159,10.58,3.0,13.0,-0.601074,-0.195312,1.685547,28.320312,-25.756836,-18.371582,-575.0,58.0,546.0,1.0,0.0,1020.5,17.469999,0.074323,-60.15176,3.88125,0.0,1.0,1.0,5.0,0.0,0.0,0.0,6.0,0.0,-0.16115229333333334,-0.17013670666666664,1.0141438933333333,8.10384116,1.4103190133333332,-4.85839848,15.188756672744189,4.657843048192875,-6.677430030348784,-1.4638456415020715,8.052328593502947,-27.349784292634727,28.548091717197824,-2.3297852477829144,28.37206719805756,-2.3237711330331425,-0.43992170666666663,-0.025175293333333376,0.6714031066666666,1.1365001066666665,0.8030859449850827,0.6128835117782827,0.6295028062237539,0.6461955451756861
LBP05_S05,LBP05,-1474,177,5,176,-1474,1715800277.04,2024-05-15 19:11:17.040000+00:00,2024-05-16 04:11:17.040000+09:00,2024,5,15,19,11,17,40,,,,,,,,,-0.274414,-0.121582,1.556396,16.296387,-48.76709,-15.686035,,,,,,,,,,,0.0,1.0,1.0,5.0,0.0,0.0,0.0,6.0,0.0,-0.16219070666666668,-0.16705728,1.0101204533333332,7.426757826666667,1.6569010399999997,-4.62158208,16.486066999632595,4.662308738105771,-6.1087746805109235,-0.8044029615167677,8.238820943027179,-27.594135279855163,28.80905303023179,-2.3417969596645567,28.62439829658816,-2.315948654870651,-0.11222329333333331,0.04547528000000001,0.5462755466666667,0.70397412,0.5595346651849403,0.6080202993134098,0.6258618606017577,0.6442909855926321
LBP05_S05,LBP05,-1473,178,5,177,-1473,1715800277.08,2024-05-15 19:11:17.080000+00:00,2024-05-16 04:11:17.080000+09:00,2024,5,15,19,11,17,80,,,,,,,,,-0.149414,-0.26001,0.906738,-17.272949,108.276367,8.361816,,,,,,,,,,,0.0,1.0,1.0,5.0,0.0,0.0,0.0,6.0,0.0,-0.15909174666666667,-0.16176757333333333,0.9878515733333334,6.217447933333334,2.22086588,-4.429524786666667,17.169593328723582,4.218957354825174,-5.402157285350876,-0.11761922836782435,8.407579237220185,-27.8102215712692,29.053565129878717,-2.348069391208138,28.861850237470644,-2.312472080392571,0.009677746666666681,-0.09824242666666669,-0.08111357333333336,0.18903374666666672,0.1277679339928513,0.59451140091365,0.6240695368554452,0.638028367755012
LBP05_S05,LBP05,-1472,179,5,178,-1472,1715800277.12,2024-05-15 19:11:17.120000+00:00,2024-05-16 04:11:17.120000+09:00,2024,5,15,19,11,17,120,,,,,,,,,-0.353027,0.26001,0.06543,-50.720215,25.20752,-7.507324,,,,,,,,,,,0.0,1.0,1.0,5.0,0.0,0.0,0.0,6.0,0.0,-0.15222650666666668,-0.16223633333333334,0.97065756,5.409342466666667,1.9694010399999997,-4.120279986666666,17.327376520369086,3.4192753192336993,-4.623282741138654,0.5754758324469391,8.544350249989533,-27.995152880914745,29.27568408174292,-2.3251859701230657,29.08467232171921,-2.3135924361593374,-0.2008004933333333,0.4222463333333334,-0.90522756,1.5282743866666668,1.0188472601523293,0.6087003464811983,0.6231033694130038,0.6474700517576667
LBP05_S05,LBP05,-1471,180,5,179,-1471,1715800277.16,2024-05-15 19:11:17.160000+00:00,2024-05-16 04:11:17.160000+09:00,2024,5,15,19,11,17,160,,,,,,,,,0.095459,-0.48584,0.429688,12.695312,-82.397461,1.281738,,,,,,,,,,,0.0,1.0,1.0,5.0,0.0,0.0,0.0,6.0,0.0,-0.14693678666666665,-0.16591146666666667,0.9668847733333333,6.2784830933333335,0.4329427066666668,-4.225260453333333,16.94647392989076,2.4874904454799336,-3.859734560304562,1.2533347896425697,8.64384986780873,-28.14954226332693,29.47344089628787,-2.297153073904887,29.29294051039215,-2.318643468895156,0.24239578666666667,-0.3199285333333333,-0.5371967733333334,1.0995210933333333,0.6705895593537934,0.6039417124822649,0.6235846175927953,0.6444145791285462
LBP05_S05,LBP05,-1470,181,5,180,-1470,1715800277.2,2024-05-15 19:11:17.200000+00:00,2024-05-16 04:11:17.200000+09:00,2024,5,15,19,11,17,200,,,,,,,,,0.316162,0.006348,0.739502,87.524414,-20.446777,-2.502441,,,,,,,,,,,0.0,1.0,1.0,5.0,0.0,0.0,0.0,6.0,0.0,-0.13922845333333334,-0.16653321333333332,0.9804948,7.579752626666667,0.1416015600000001,-4.262695346666666,15.945119768555266,1.6952960839010867,-3.187338602670042,1.8911395803847804,8.711661711164773,-28.27703580743373,29.648949605966845,-2.2692163291044714,29.486561139348304,-2.319870503530199,0.45539045333333333,0.1728812133333333,-0.2409928,0.8692644666666667,0.5434573659106888,0.609185183438337,0.6233774857180213,0.6428245628868048
LBP05_S05,LBP05,-1469,182,5,181,-1469,1715800277.24,2024-05-15 19:11:17.240000+00:00,2024-05-16 04:11:17.240000+09:00,2024,5,15,19,11,17,240,,,,,,,,,-0.02417,-0.080566,1.313477,41.07666,70.739746,0.976562,,,,,,,,,,,0.0,1.0,1.0,5.0,0.0,0.0,0.0,6.0,0.0,-0.14785801333333334,-0.16552734666666669,0.99743164,7.373046893333333,1.3867187466666666,-4.261067733333333,14.309254364835562,1.2503583827636962,-2.6483621943795845,2.463509754978203,8.761676046475321,-28.382970295208914,29.806523618747686,-2.3012214449562842,29.66555199013943,-2.318896674663788,0.12368801333333335,0.08496134666666669,0.31604536000000005,0.5246947200000001,0.3498597213845715,0.6037074781059785,0.6221920517053622,0.6450094828056753
LBP05_S05,LBP05,-1468,183,5,182,-1468,1715800277.28,2024-05-15 19:11:17.280000+00:00,2024-05-16 04:11:17.280000+09:00,2024,5,15,19,11,17,280,,,,,,,,,-0.655273,-0.309326,1.693359,22.521973,-12.817383,-11.474609,,,,,,,,,,,0.0,1.0,1.0,5.0,0.0,0.0,0.0,6.0,0.0,-0.15740228,-0.17076822666666666,1.01101888,5.94726564,0.8715820266666666,-3.9851888266666657,12.22374516887905,1.2204608092726783,-2.2474068843459727,2.952459561733365,8.810494478846229,-28.472866570582752,29.95072555334277,-2.316530178248211,29.830263520314645,-2.3150027773090263,-0.49787072,-0.13855777333333333,0.6823401200000001,1.3187686133333334,0.85595651159742,0.6057547999375561,0.6214494829709739,0.6426461647132254
