file_name,test_id,_program_index,program_index,session_id,index,_index,unixtime,datetime_utc,datetime_jst,rtc_year,rtc_month,rtc_day,rtc_hour,rtc_min,rtc_sec,rtc_msec,gps_hour,gps_min,gps_sec,latitude,longitude,altitude,fix_type,SIV,acc_x,acc_y,acc_z,gyro_x,gyro_y,gyro_z,mag_x,mag_y,mag_z,illuminance,atmopress,water_pressure,water_temp,depth,alt_wps,battery_level,behavior_class,camera_command,camera_recording,camera_count,play_audio,speaker_on,audio_file,prev_sd_write_time_ms,delay_occurred_counter,acc_x_ma,acc_y_ma,acc_z_ma,gyro_x_ma,gyro_y_ma,gyro_z_ma,gyro_x_lowpass,gyro_y_lowpass,gyro_z_lowpass,angle_x,angle_y,angle_z,combined_angle_change,gravity_adjusted_angle,smoothed_angle_change,smoothed_gravity_angle,acc_x_dy,acc_y_dy,acc_z_dy,ODBA,VeDBA,smoothed_VeDBA_1s,smoothed_VeDBA_2s,smoothed_VeDBA_3s
LBP05_S04,LBP05,-1650,1,4,0,-1650,1715799481.0,2024-05-15 18:58:01+00:00,2024-05-16 03:58:01+09:00,2024,5,15,18,58,1,0,18.0,58.0,1.0,40.937904,141.726578,14.679,3.0,9.0,0.27417,-0.027588,1.049072,77.270508,21.54541,4.272461,-563.0,14.0,560.0,0.0,0.0,1020.200012,16.41,0.07135,-57.669693,3.944531,0.0,1.0,1.0,4.0,0.0,0.0,0.0,10.0,0.0,,,,,,,76.72370655718686,20.98946535862555,4.422185515098694,3.068948262287474,0.8395786143450221,0.17688742060394777,3.1866322106309557,,4.855966953118063,,,,,,,,,
LBP05_S04,LBP05,-1649,2,4,1,-1649,1715799481.04,2024-05-15 18:58:01.040000+00:00,2024-05-16 03:58:01.040000+09:00,2024,5,15,18,58,1,40,,,,,,,,,-0.368408,-0.274414,1.618164,-23.132324,54.992676,7.019043,,,,,,,,,,,0.0,1.0,1.0,4.0,0.0,0.0,0.0,10.0,0.0,,,,,,,42.16781111845556,18.503010499932458,1.3082392524891504,4.755660707025696,1.5796990343423203,0.22921699070351378,5.01640291725828,,4.760740926025412,,,,,,,,,
LBP05_S04,LBP05,-1648,3,4,2,-1648,1715799481.08,2024-05-15 18:58:01.080000+00:00,2024-05-16 03:58:01.080000+09:00,2024,5,15,18,58,1,80,,,,,,,,,-0.491455,-0.388672,1.885986,-8.117676,-40.710449,-6.103516,,,,,,,,,,,0.0,1.0,1.0,4.0,0.0,0.0,0.0,10.0,0.0,,,,,,,11.744307388876077,15.795325428209118,-1.2206832906041991,5.22543300258074,2.211512051470685,0.18038965907934582,5.67701295113573,,4.639466862555556,,,,,,,,,
LBP05_S04,LBP05,-1647,4,4,3,-1647,1715799481.12,2024-05-15 18:58:01.120000+00:00,2024-05-16 03:58:01.120000+09:00,2024,5,15,18,58,1,120,,,,,,,,,-0.167969,-0.205322,1.683838,3.234863,12.145996,-0.549316,,,,,,,,,,,0.0,1.0,1.0,4.0,0.0,0.0,0.0,10.0,0.0,,,,,,,-11.2078591116989,12.815457093688085,-2.7412262168285366,4.777118638112784,2.7241303352182085,0.07074061040620434,5.4997047920612285,,4.534088429833627,,,,,,,,,
LBP05_S04,LBP05,-1646,5,4,4,-1646,1715799481.16,2024-05-15 18:58:01.160000+00:00,2024-05-16 03:58:01.160000+09:00,2024,5,15,18,58,1,160,,,,,,,,,-0.179199,-0.17627,0.79248,-51.940918,127.807617,-2.685547,,,,,,,,,,,0.0,1.0,1.0,4.0,0.0,0.0,0.0,10.0,0.0,,,,,,,-24.8182172650705,9.704891046849664,-3.0487277302513913,3.784389947509964,3.112325977092195,-0.05120849880385131,4.900081894504122,,4.455332065260907,,,,,,,,,
LBP05_S04,LBP05,-1645,6,4,5,-1645,1715799481.2,2024-05-15 18:58:01.200000+00:00,2024-05-16 03:58:01.200000+09:00,2024,5,15,18,58,1,200,,,,,,,,,-0.265137,0.051758,0.093018,-96.069336,-14.160156,-14.648438,,,,,,,,,,,0.0,1.0,1.0,4.0,0.0,0.0,0.0,10.0,0.0,,,,,,,-28.976718330192426,6.7721293345888665,-2.207306314145099,2.625321214302267,3.3832111504757494,-0.13950075136965528,4.284610790562157,,4.404623144813573,,,,,,,,,
LBP05_S04,LBP05,-1644,7,4,6,-1644,1715799481.24,2024-05-15 18:58:01.240000+00:00,2024-05-16 03:58:01.240000+09:00,2024,5,15,18,58,1,240,,,,,,,,,0.175049,-0.274414,0.530518,-36.621094,-102.294922,-2.929688,,,,,,,,,,,0.0,1.0,1.0,4.0,0.0,0.0,0.0,10.0,0.0,,,,,,,-25.20371795049807,4.375704450805662,-0.5467970612201772,1.6171724962823442,3.558239328507976,-0.16137263381846237,3.911822481736418,,4.506552517691922,,,,,,,,,
LBP05_S04,LBP05,-1643,8,4,7,-1643,1715799481.28,2024-05-15 18:58:01.280000+00:00,2024-05-16 03:58:01.280000+09:00,2024,5,15,18,58,1,280,,,,,,,,,0.358154,-0.339844,0.97876,32.470703,1.586914,-1.220703,,,,,,,,,,,0.0,1.0,1.0,4.0,0.0,0.0,0.0,10.0,0.0,,,,,,,-16.137258704669723,2.7558853878446357,1.402897579744464,0.9716821480955552,3.6684747440217613,-0.1052567306286838,3.7964394007801254,,4.468951406460471,,,,,,,,,
LBP05_S04,LBP05,-1642,9,4,8,-1642,1715799481.32,2024-05-15 18:58:01.320000+00:00,2024-05-16 03:58:01.320000+09:00,2024,5,15,18,58,1,320,,,,,,,,,-0.293701,-0.063232,1.567871,82.763672,61.279297,3.845215,,,,,,,,,,,0.0,1.0,1.0,4.0,0.0,0.0,0.0,10.0,0.0,,,,,,,-4.785866262760483,1.9088026225315695,3.0357545563215864,0.7802474975851359,3.744826848923024,0.016173451624179658,3.8252811486791467,,4.424734466431761,,,,,,,,,
LBP05_S04,LBP05,-1641,10,4,9,-1641,1715799481.36,2024-05-15 18:58:01.360000+00:00,2024-05-16 03:58:01.360000+09:00,2024,5,15,18,58,1,360,,,,,,,,,-0.566162,-0.691895,1.852539,-3.234863,-41.137695,6.469727,,,,,,,,,,,0.0,1.0,1.0,4.0,0.0,0.0,0.0,10.0,0.0,,,,,,,6.217620140904298,1.5804786468417036,3.828315579709617,1.028952303221308,3.808045994796692,0.16930607481256435,3.948242860787568,,4.468016784003916,,,,,,,,,
LBP05_S04,LBP05,-1640,11,4,10,-1640,1715799481.4,2024-05-15 18:58:01.400000+00:00,2024-05-16 03:58:01.400000+09:00,2024,5,15,18,58,1,400,,,,,,,,,-0.11499,-0.056641,1.529297,78.552246,-14.831543,19.470215,,,,,,,,,,,0.0,1.0,1.0,4.0,0.0,0.0,0.0,10.0,0.0,,,,,,,15.124549405515953,1.3797705148111286,3.492027998691579,1.633934279441946,3.863236815389137,0.3089871947602275,4.205925939414444,,4.645871586890671,,,,,,,,,
LBP05_S04,LBP05,-1639,12,4,11,-1639,1715799481.44,2024-05-15 18:58:01.440000+00:00,2024-05-16 03:58:01.440000+09:00,2024,5,15,18,58,1,440,,,,,,,,,-0.299805,-0.078613,0.737549,-39.978027,118.408203,17.39502,,,,,,,,,,,0.0,1.0,1.0,4.0,0.0,0.0,0.0,10.0,0.0,,,,,,,21.213570346420905,0.94159700075534,2.070642647157147,2.4824770932987823,3.900900695419351,0.3918129006465134,4.6403918049437785,,4.961411529498462,,,,,,,,,
LBP05_S04,LBP05,-1638,13,4,12,-1638,1715799481.48,2024-05-15 18:58:01.480000+00:00,2024-05-16 03:58:01.480000+09:00,2024,5,15,18,58,1,480,,,,,,,,,-0.141357,-0.175781,0.131348,-51.696777,-22.094727,4.150391,,,,,,,,,,,0.0,1.0,1.0,4.0,0.0,0.0,0.0,10.0,0.0,,,,,,,24.603964360593626,0.05531145588708487,-0.05712905876102046,3.466635667722527,3.9031131536548345,0.3895277382960726,5.234843550848626,,5.390891355904415,,,,,,,,,
LBP05_S04,LBP05,-1637,14,4,13,-1637,1715799481.52,2024-05-15 18:58:01.520000+00:00,2024-05-16 03:58:01.520000+09:00,2024,5,15,18,58,1,520,,,,,,,,,0.223389,-0.075928,0.525146,44.494629,-86.364746,-12.390137,,,,,,,,,,,0.0,1.0,1.0,4.0,0.0,0.0,0.0,10.0,0.0,,,,,,,25.90117454463117,-1.297711032110591,-2.281681632049702,4.502682649507774,3.8512047123704107,0.29826047301408454,5.932527967782789,,5.909977269823045,,,,,,,,,
LBP05_S04,LBP05,-1636,15,4,14,-1636,1715799481.56,2024-05-15 18:58:01.560000+00:00,2024-05-16 03:58:01.560000+09:00,2024,5,15,18,58,1,560,,,,,,,,,0.362793,-0.161377,0.926758,7.69043,-9.94873,-20.141602,,,,,,,,,,,0.0,1.0,1.0,4.0,0.0,0.0,0.0,10.0,0.0,,,,,,,25.861189876371593,-2.9910686002284894,-3.944782872188261,5.537130244562638,3.7315619683612713,0.14046915812655408,6.678629923371659,,6.507722637164404,,,,,,,,,
LBP05_S04,LBP05,-1635,16,4,15,-1635,1715799481.6,2024-05-15 18:58:01.600000+00:00,2024-05-16 03:58:01.600000+09:00,2024,5,15,18,58,1,600,,,,,,,,,-0.209229,-0.493408,1.428955,80.993652,56.762695,-23.31543,,,,,,,,,,,0.0,1.0,1.0,4.0,0.0,0.0,0.0,10.0,0.0,,,,,,,25.183214701786664,-4.822494518543812,-4.536586741425226,6.544458832634104,3.538662187619519,-0.04099431153045496,7.440010216640066,,7.18028193223555,,,,,,,,,
LBP05_S04,LBP05,-1634,17,4,16,-1634,1715799481.64,2024-05-15 18:58:01.640000+00:00,2024-05-16 03:58:01.640000+09:00,2024,5,15,18,58,1,640,,,,,,,,,-0.719238,0.058105,1.797852,28.686523,-34.606934,-4.211426,,,,,,,,,,,0.0,1.0,1.0,4.0,0.0,0.0,0.0,10.0,0.0,,,,,,,24.426792710378585,-6.546597659221777,-3.835402581869976,7.521530541049248,3.276798281250648,-0.194410414805254,8.206620745795954,,7.920426861124686,,,,,,,,,
LBP05_S04,LBP05,-1633,18,4,17,-1633,1715799481.68,2024-05-15 18:58:01.680000+00:00,2024-05-16 03:58:01.680000+09:00,2024,5,15,18,58,1,680,,,,,,,,,-0.258545,-0.359863,1.724365,34.118652,-45.532227,3.967285,,,,,,,,,,,0.0,1.0,1.0,4.0,0.0,0.0,0.0,10.0,0.0,,,,,,,23.98161036933803,-7.869365081868824,-1.9435848149404757,8.48079495582277,2.962023677975895,-0.27215380740287304,8.987298539966426,,8.714987130098471,,,,,,,,,
LBP05_S04,LBP05,-1632,19,4,18,-1632,1715799481.72,2024-05-15 18:58:01.720000+00:00,2024-05-16 03:58:01.720000+09:00,2024,5,15,18,58,1,720,,,,,,,,,-0.217285,-0.296387,0.948242,20.751953,108.337402,14.648438,,,,,,,,,,,0.0,1.0,1.0,4.0,0.0,0.0,0.0,10.0,0.0,,,,,,,24.028200535267942,-8.449241216987792,0.7809235729449514,9.441922977233487,2.624054029296383,-0.240916864485075,9.80273482209274,,9.548388550495554,,,,,,,,,
LBP05_S04,LBP05,-1631,20,4,19,-1631,1715799481.76,2024-05-15 18:58:01.760000+00:00,2024-05-16 03:58:01.760000+09:00,2024,5,15,18,58,1,760,,,,,,,,,-0.293213,0.084961,0.061279,-49.377441,-3.356934,7.019043,,,,,,,,,,,0.0,1.0,1.0,4.0,0.0,0.0,0.0,10.0,0.0,,,,,,,24.487460142340108,-7.953513950165663,3.856364257516055,10.421421382927091,2.305913471289757,-0.0866622941844328,10.673835811499018,,10.405402511166464,,,,,,,,,
LBP05_S04,LBP05,-1630,21,4,20,-1630,1715799481.8,2024-05-15 18:58:01.800000+00:00,2024-05-16 03:58:01.800000+09:00,2024,5,15,18,58,1,800,,,,,,,,,0.081299,-0.26001,0.381592,45.166016,-97.839355,16.113281,,,,,,,,,,,0.0,1.0,1.0,4.0,0.0,0.0,0.0,10.0,0.0,,,,,,,25.01152557963424,-6.186760364654944,6.815090317720525,11.421882406112461,2.058443056703559,0.1859413185243882,11.607375228305797,,11.271241543213616,,,,,,,,,
LBP05_S04,LBP05,-1629,22,4,21,-1629,1715799481.84,2024-05-15 18:58:01.840000+00:00,2024-05-16 03:58:01.840000+09:00,2024,5,15,18,58,1,840,,,,,,,,,0.319092,0.108887,0.662842,4.272461,-57.983398,-1.220703,,,,,,,,,,,0.0,1.0,1.0,4.0,0.0,0.0,0.0,10.0,0.0,,,,,,,25.07370191835271,-3.24659510104774,9.302877334914777,12.42483048284657,1.9285792526616496,0.5580564119209793,12.585994494681634,,12.13097077257153,,,,,,,,,
LBP05_S04,LBP05,-1628,23,4,22,-1628,1715799481.88,2024-05-15 18:58:01.880000+00:00,2024-05-16 03:58:01.880000+09:00,2024,5,15,18,58,1,880,,,,,,,,,0.036377,-0.44873,1.233398,64.51416,41.870117,5.249023,,,,,,,,,,,0.0,1.0,1.0,4.0,0.0,0.0,0.0,10.0,0.0,,,,,,,24.162026470723184,0.3958439438800296,11.122655103733727,13.391311541675497,1.9444130104168509,1.0029626160703284,13.568857754819465,,12.96938923621633,,,,,,,,,
LBP05_S04,LBP05,-1627,24,4,23,-1627,1715799481.92,2024-05-15 18:58:01.920000+00:00,2024-05-16 03:58:01.920000+09:00,2024,5,15,18,58,1,920,,,,,,,,,-0.552734,-0.093018,1.74292,81.787109,8.178711,13.061523,,,,,,,,,,,0.0,1.0,1.0,4.0,0.0,0.0,0.0,10.0,0.0,,,,,,,22.00452584571513,3.9803033070221643,12.230657008411852,14.271492575504102,2.1036251426977373,1.4921888964068026,14.502667574491891,,13.771144722868513,,,,,,,,,
LBP05_S04,LBP05,-1626,25,4,24,-1626,1715799481.96,2024-05-15 18:58:01.960000+00:00,2024-05-16 03:58:01.960000+09:00,2024,5,15,18,58,1,960,,,,,,,,,-0.205078,-0.292725,1.703369,18.493652,-8.361816,23.31543,,,,,,,,,,,0.0,1.0,1.0,4.0,0.0,0.0,0.0,10.0,0.0,,,,,,,18.710993309087854,6.699962665818027,12.702931335698343,15.019932307867617,2.3716236493304583,2.0003061498347363,15.337020243843183,,14.52074888122721,,,,,,,,,
LBP05_S04,LBP05,-1625,26,4,25,-1625,1715799482.0,2024-05-15 18:58:02+00:00,2024-05-16 03:58:02+09:00,2024,5,15,18,58,2,0,18.0,58.0,2.0,40.937885,141.726669,14.649,3.0,9.0,-0.231934,-0.140137,1.036133,6.408691,116.943359,20.874023,-562.0,12.0,553.0,0.0,0.0,1020.200012,16.42,0.07135,-57.669693,3.944531,0.0,1.0,1.0,4.0,0.0,0.0,0.0,4.0,0.0,,,,,,,14.744667658231686,7.991299163384334,12.685944718952769,15.609719014196884,2.6912756158658317,2.507743938592847,16.037302510219195,,15.202785079933992,,,,,,,,,
LBP05_S04,LBP05,-1624,27,4,26,-1624,1715799482.04,2024-05-15 18:58:02.040000+00:00,2024-05-16 03:58:02.040000+09:00,2024,5,15,18,58,2,40,,,,,,,,,-0.333252,0.049316,0.085205,-50.598145,35.095215,-2.197266,,,,,,,,,,,0.0,1.0,1.0,4.0,0.0,0.0,0.0,4.0,0.0,,,,,,,10.728677961365122,7.725266114659163,12.339222544228004,16.03886613265149,3.0002862604521985,3.001312840361967,16.590805382243946,,15.802945653171935,,,,,,,,,
LBP05_S04,LBP05,-1623,28,4,27,-1623,1715799482.08,2024-05-15 18:58:02.080000+00:00,2024-05-16 03:58:02.080000+09:00,2024,5,15,18,58,2,80,,,,,,,,,-0.023926,-0.200928,0.359863,-15.930176,-95.52002,-4.699707,,,,,,,,,,,0.0,1.0,1.0,4.0,0.0,0.0,0.0,4.0,0.0,,,,,,,7.190145881270702,6.204395741889844,11.781803718216995,16.326471967902318,3.2484620901277923,3.472584989090647,17.00485340648826,,16.310118127610412,,,,,,,,,
LBP05_S04,LBP05,-1622,29,4,28,-1622,1715799482.12,2024-05-15 18:58:02.120000+00:00,2024-05-16 03:58:02.120000+09:00,2024,5,15,18,58,2,120,,,,,,,,,0.456055,-0.222656,0.861572,5.310059,-46.875,10.681152,,,,,,,,,,,0.0,1.0,1.0,4.0,0.0,0.0,0.0,4.0,0.0,,,,,,,4.381633812025115,3.9802754306001615,11.063151530294016,16.501737320383324,3.407673107351799,3.9151110503024076,17.298776405679693,,16.718907401730288,,,,,,,,,
LBP05_S04,LBP05,-1621,30,4,29,-1621,1715799482.16,2024-05-15 18:58:02.160000+00:00,2024-05-16 03:58:02.160000+09:00,2024,5,15,18,58,2,160,,,,,,,,,-0.070068,-0.180176,1.303711,-2.075195,56.57959,15.258789,,,,,,,,,,,0.0,1.0,1.0,4.0,0.0,0.0,0.0,4.0,0.0,,,,,,,2.2686625550136856,1.6099227421033304,10.17651278697896,16.592483822583873,3.472070017035932,4.322171561781566,17.494197798566837,,17.031440211040874,,,,,,,,,
LBP05_S04,LBP05,-1620,31,4,30,-1620,1715799482.2,2024-05-15 18:58:02.200000+00:00,2024-05-16 03:58:02.200000+09:00,2024,5,15,18,58,2,200,,,,,,,,,-0.640625,-0.223633,1.752441,59.814453,-8.605957,18.493652,,,,,,,,,,,0.0,1.0,1.0,4.0,0.0,0.0,0.0,4.0,0.0,,,,,,,0.6683024740384368,-0.5118740826982611,9.111096767320438,16.61921592154541,3.451595053728002,4.686615432474384,17.608980960685237,,17.257422530184336,,,,,,,,,
LBP05_S04,LBP05,-1619,32,4,31,-1619,1715799482.24,2024-05-15 18:58:02.240000+00:00,2024-05-16 03:58:02.240000+09:00,2024,5,15,18,58,2,240,,,,,,,,,-0.226562,-0.538818,1.788818,49.987793,-51.879883,32.348633,,,,,,,,,,,0.0,1.0,1.0,4.0,0.0,0.0,0.0,4.0,0.0,,,,,,,-0.5663258795628218,-2.184183542428682,7.912392456058915,16.5965628863629,3.3642277120308544,5.003111130716741,17.657719239066424,,17.412136499829806,,,,,,,,,
LBP05_S04,LBP05,-1618,33,4,32,-1618,1715799482.28,2024-05-15 18:58:02.280000+00:00,2024-05-16 03:58:02.280000+09:00,2024,5,15,18,58,2,280,,,,,,,,,-0.21167,0.196045,0.929932,3.417969,96.984863,7.8125,,,,,,,,,,,0.0,1.0,1.0,4.0,0.0,0.0,0.0,4.0,0.0,,,,,,,-1.4433131758842785,-3.3313901799453296,6.709805749450118,16.53883035932753,3.2309721048330413,5.271503360694746,17.65675049601821,,17.513032438227114,,,,,,,,,
LBP05_S04,LBP05,-1617,34,4,33,-1617,1715799482.32,2024-05-15 18:58:02.320000+00:00,2024-05-16 03:58:02.320000+09:00,2024,5,15,18,58,2,320,,,,,,,,,-0.334961,0.326416,0.002686,-84.04541,33.38623,-25.20752,,,,,,,,,,,0.0,1.0,1.0,4.0,0.0,0.0,0.0,4.0,0.0,,,,,,,-1.8765921712495868,-3.9180459003487798,5.688785533295302,16.463766672477547,3.0742502688190902,5.499054782026558,17.627995667597773,,17.57627188787388,-2.195592005203975,,,,,,,,
LBP05_S04,LBP05,-1616,35,4,34,-1616,1715799482.36,2024-05-15 18:58:02.360000+00:00,2024-05-16 03:58:02.360000+09:00,2024,5,15,18,58,2,360,,,,,,,,,0.044678,-0.530518,0.445801,-58.654785,-87.097168,-0.061035,,,,,,,,,,,0.0,1.0,1.0,4.0,0.0,0.0,0.0,4.0,0.0,,,,,,,-1.8315503500018837,-3.9204271525161256,5.02108558117339,16.39050465847747,2.917433182718445,5.6998982052734934,17.59684343527777,,17.614550085073116,-2.205835109172879,,,,,,,,
LBP05_S04,LBP05,-1615,36,4,35,-1615,1715799482.4,2024-05-15 18:58:02.400000+00:00,2024-05-16 03:58:02.400000+09:00,2024,5,15,18,58,2,400,,,,,,,,,0.366943,-0.188721,0.760498,22.460938,-59.204102,6.469727,,,,,,,,,,,0.0,1.0,1.0,4.0,0.0,0.0,0.0,4.0,0.0,,,,,,,-1.4448811229990388,-3.3707020309838867,4.795449868215995,16.33270941355751,2.78260510147909,5.891716200002133,17.58444220667392,,17.63674295587051,-2.2145245105672724,,,,,,,,
LBP05_S04,LBP05,-1614,37,4,36,-1614,1715799482.44,2024-05-15 18:58:02.440000+00:00,2024-05-16 03:58:02.440000+09:00,2024,5,15,18,58,2,440,,,,,,,,,0.033447,-0.131348,1.197266,40.039062,57.739258,7.324219,,,,,,,,,,,0.0,1.0,1.0,4.0,0.0,0.0,0.0,4.0,0.0,,,,,,,-1.0139645526892913,-2.4183113121812263,4.988966099349473,16.292150831449938,2.6858726489918405,6.0912748439761115,17.599764766217007,,17.64887412008537,-2.213567660717276,,,,,,,,
LBP05_S04,LBP05,-1613,38,4,37,-1613,1715799482.48,2024-05-15 18:58:02.480000+00:00,2024-05-16 03:58:02.480000+09:00,2024,5,15,18,58,2,480,,,,,,,,,-0.54126,-0.358154,1.760254,29.785156,5.187988,9.82666,,,,,,,,,,,0.0,1.0,1.0,4.0,0.0,0.0,0.0,4.0,0.0,-0.13286130666666668,-0.18566736,1.0273925733333333,3.2454427066666667,-0.1464844133333335,3.7849934666666667,-0.859649989072128,-1.3324991652171496,5.490031764646653,16.25776483188705,2.6325726823831546,6.310876114561978,17.637247902955902,-2.195592005203975,17.6552735554249,-2.209196685998131,-0.4083986933333333,-0.17248663999999997,0.7328614266666666,1.31374676,0.8565202883707809,0.8565202883707809,0.8565202883707809,0.8565202883707809
LBP05_S04,LBP05,-1612,39,4,38,-1612,1715799482.52,2024-05-15 18:58:02.520000+00:00,2024-05-16 03:58:02.520000+09:00,2024,5,15,18,58,2,520,,,,,,,,,-0.375732,-0.503174,1.825684,10.498047,-58.776855,18.493652,,,,,,,,,,,0.0,1.0,1.0,4.0,0.0,0.0,0.0,4.0,0.0,-0.13826496,-0.18494796000000002,1.0306380133333335,1.918945306666667,0.20345047999999982,3.8338215866666663,-1.165175751216853,-0.42240924159024096,6.152826078076766,16.21115780183838,2.615676312719545,6.556989157685049,17.681558377672108,-2.2160782131417838,17.659009113329738,-2.2038560138616297,-0.23746704000000002,-0.31822604,0.7950459866666666,1.3507390666666665,0.8886824677775614,0.8726013780741712,0.8726013780741712,0.8726013780741712
LBP05_S04,LBP05,-1611,40,4,39,-1611,1715799482.56,2024-05-15 18:58:02.560000+00:00,2024-05-16 03:58:02.560000+09:00,2024,5,15,18,58,2,560,,,,,,,,,-0.070312,-0.041992,1.032715,-5.310059,73.730469,5.554199,,,,,,,,,,,0.0,1.0,1.0,4.0,0.0,0.0,0.0,4.0,0.0,-0.13969725333333333,-0.18070968,1.01405924,1.918945306666667,0.9627278266666666,3.834635386666667,-1.9028956912779404,0.08064238114933801,6.850911811401792,16.13504197418726,2.6189020079655188,6.83102563014112,17.71612650654074,-2.231903313356059,17.661520170543263,-2.200554074247079,0.06938525333333333,0.13871768,0.018655760000000132,0.22675869333333348,0.15622082289467962,0.6338078596810073,0.6338078596810073,0.6338078596810073
LBP05_S04,LBP05,-1610,41,4,40,-1610,1715799482.6,2024-05-15 18:58:02.600000+00:00,2024-05-16 03:58:02.600000+09:00,2024,5,15,18,58,2,600,,,,,,,,,-0.48877,0.180908,0.076416,-54.199219,65.002441,1.220703,,,,,,,,,,,0.0,1.0,1.0,4.0,0.0,0.0,0.0,4.0,0.0,-0.13418618666666668,-0.1816016,0.9933463599999999,1.3159179600000002,0.7291666266666664,4.084472626666667,-2.8861986288299866,0.10652063133120795,7.505912690492773,16.01959402903406,2.623162833218767,7.131262137760831,17.730292602833863,-2.2106971111672866,17.662184517794895,-2.201160099929394,-0.35458381333333333,0.3625096,-0.9169303599999998,1.6340237733333332,1.0478092268442274,0.7373082014718123,0.7373082014718123,0.7373082014718123
LBP05_S04,LBP05,-1609,42,4,41,-1609,1715799482.64,2024-05-15 18:58:02.640000+00:00,2024-05-16 03:58:02.640000+09:00,2024,5,15,18,58,2,640,,,,,,,,,-0.072998,-0.425293,0.380127,-17.456055,-59.814453,1.647949,,,,,,,,,,,0.0,1.0,1.0,4.0,0.0,0.0,0.0,4.0,0.0,-0.12772133333333333,-0.18002608,0.9790494799999999,1.5120442666666667,-0.6803385866666669,4.350585906666667,-3.895040155095509,-0.2601779034804727,8.08624517852667,15.86379242283024,2.612755717079548,7.454711944901898,17.72171359246168,-2.1917127871215527,17.658650517948725,-2.205092820252346,0.05472333333333333,-0.24526691999999997,-0.5989224799999999,0.8989127333333332,0.6495064605581286,0.7197478532890755,0.7197478532890755,0.7197478532890755
LBP05_S04,LBP05,-1608,43,4,42,-1608,1715799482.68,2024-05-15 18:58:02.680000+00:00,2024-05-16 03:58:02.680000+09:00,2024,5,15,18,58,2,680,,,,,,,,,0.318115,-0.046387,0.635742,7.263184,-90.820312,13.977051,,,,,,,,,,,0.0,1.0,1.0,4.0,0.0,0.0,0.0,4.0,0.0,-0.12206704,-0.17749677333333333,0.9829817733333335,3.1372070266666667,-2.1110026533333333,4.486490853333333,-4.783985855339654,-0.8787328840809121,8.587611745538144,15.672432988616654,2.5776064017163116,7.798216414723424,17.694106075066642,-2.1771526531791205,17.648085950973158,-2.2080238402583428,0.44018204,0.13110977333333335,-0.34723977333333345,0.9185315866666668,0.5757824773181834,0.6957536239605936,0.6957536239605936,0.6957536239605936
LBP05_S04,LBP05,-1607,44,4,43,-1607,1715799482.72,2024-05-15 18:58:02.720000+00:00,2024-05-16 03:58:02.720000+09:00,2024,5,15,18,58,2,720,,,,,,,,,0.208008,-0.151123,1.050537,2.075195,23.4375,4.638672,,,,,,,,,,,0.0,1.0,1.0,4.0,0.0,0.0,0.0,4.0,0.0,-0.1253906,-0.18091149333333334,1.0039257733333333,4.46777344,-1.3525391200000003,4.851888,-5.510453969091833,-1.6742575986121166,9.011658042889362,15.452014829852981,2.510636097771827,8.158682736438998,17.65310623973297,-2.180742436559777,17.62859698503499,-2.2119585774989017,0.3333986,0.029788493333333332,0.04661122666666673,0.40979832000000005,0.33795648724118527,0.6446397472863924,0.6446397472863924,0.6446397472863924
LBP05_S04,LBP05,-1606,45,4,44,-1606,1715799482.76,2024-05-15 18:58:02.760000+00:00,2024-05-16 03:58:02.760000+09:00,2024,5,15,18,58,2,760,,,,,,,,,-0.517578,-0.374268,1.640869,2.197266,41.19873,13.73291,,,,,,,,,,,0.0,1.0,1.0,4.0,0.0,0.0,0.0,4.0,0.0,-0.13449541333333334,-0.184043,1.0216894399999998,4.72981772,-0.7983398933333334,4.9715169066666665,-6.087386514534163,-2.6851692974082924,9.352203331262563,15.208519369271615,2.403229325875495,8.5327708696895,17.603486907794135,-2.2054022797055954,17.59969480952188,-2.2124202693395807,-0.3830825866666666,-0.19022499999999998,0.6191795600000001,1.1924871466666667,0.7525431192656125,0.6581276687837949,0.6581276687837949,0.6581276687837949
LBP05_S04,LBP05,-1605,46,4,45,-1605,1715799482.8,2024-05-15 18:58:02.800000+00:00,2024-05-16 03:58:02.800000+09:00,2024,5,15,18,58,2,800,,,,,,,,,-0.396973,-0.42041,1.80249,23.193359,-44.98291,16.662598,,,,,,,,,,,0.0,1.0,1.0,4.0,0.0,0.0,0.0,4.0,0.0,-0.14094397333333333,-0.18052086666666664,1.02676756,4.519856786666667,-0.604655,4.94710284,-6.51767427743675,-3.994171796213554,9.58873764818516,14.947812398174145,2.243462454026953,8.916320375616907,17.549102208212208,-2.2365545828359643,17.56119275462666,-2.2066206205186525,-0.2560290266666667,-0.23988913333333337,0.77572244,1.2716406,0.851377097828484,0.679599827566538,0.679599827566538,0.679599827566538
LBP05_S04,LBP05,-1604,47,4,46,-1604,1715799482.84,2024-05-15 18:58:02.840000+00:00,2024-05-16 03:58:02.840000+09:00,2024,5,15,18,58,2,840,,,,,,,,,-0.204346,-0.06665,1.342773,21.606445,29.968262,8.300781,,,,,,,,,,,0.0,1.0,1.0,4.0,0.0,0.0,0.0,4.0,0.0,-0.14107418666666666,-0.18155277333333333,1.01058592,2.9264323066666664,-0.02115890666666663,4.679361946666667,-6.776077925768633,-5.5940596800288525,9.682642385022199,14.6767692811434,2.019700066825799,9.303626071017796,17.494119096461322,-2.2344030203123135,17.51102699599618,-2.2038936528816535,-0.06327181333333334,0.11490277333333333,0.33218707999999997,0.5103616666666666,0.3571473446647839,0.6473545792763626,0.6473545792763626,0.6473545792763626
LBP05_S04,LBP05,-1603,48,4,47,-1603,1715799482.88,2024-05-15 18:58:02.880000+00:00,2024-05-16 03:58:02.880000+09:00,2024,5,15,18,58,2,880,,,,,,,,,-0.372559,0.026367,0.336182,-26.245117,96.740723,-6.408691,,,,,,,,,,,0.0,1.0,1.0,4.0,0.0,0.0,0.0,4.0,0.0,-0.13516924,-0.17371097333333332,0.9886718533333334,1.3696289200000002,-0.3434245333333333,4.51660152,-6.8682079606882604,-7.289804206505362,9.57499439514531,14.40204096271587,1.7281078985655844,9.686625846823608,17.442358243574226,-2.2349393776095616,17.443423748963774,-2.204528503149268,-0.23738975999999998,0.20007797333333333,-0.6524898533333334,1.0899575866666669,0.7225843219092056,0.6541936467884393,0.6541936467884393,0.6541936467884393
LBP05_S04,LBP05,-1602,49,4,48,-1602,1715799482.92,2024-05-15 18:58:02.920000+00:00,2024-05-16 03:58:02.920000+09:00,2024,5,15,18,58,2,920,,,,,,,,,-0.132812,-0.235352,0.26001,-110.534668,-64.39209,9.94873,,,,,,,,,,,0.0,1.0,1.0,4.0,0.0,0.0,0.0,4.0,0.0,-0.13123369333333335,-0.17382490666666667,0.97325844,-0.7552083199999996,-1.7716471866666665,4.227701773333333,-6.932246515041745,-8.719018215500586,9.192089256574675,14.1247511021142,1.379347169945561,10.054309417086595,17.392536622540984,-2.220695131548578,17.34883016373467,-2.208664739331448,-0.0015783066666666679,-0.06152709333333334,-0.7132484399999999,0.7763538399999999,0.7158990232067761,0.6593357614899674,0.6593357614899674,0.6593357614899674
LBP05_S04,LBP05,-1601,50,4,49,-1601,1715799482.96,2024-05-15 18:58:02.960000+00:00,2024-05-16 03:58:02.960000+09:00,2024,5,15,18,58,2,960,,,,,,,,,0.20752,-0.19165,0.478271,-36.010742,-116.210938,9.338379,,,,,,,,,,,0.0,1.0,1.0,4.0,0.0,0.0,0.0,4.0,0.0,-0.12151689333333332,-0.17797530666666667,0.9762076533333334,0.3043619866666669,-3.573405,3.8956705200000004,-7.291898437416037,-9.499905936693189,8.467401584439886,13.833075164617558,0.9993509324778336,10.39300548046419,17.331105957588573,-2.1739068251467764,17.21600999277906,-2.214772380492665,0.3290368933333333,-0.013674693333333321,-0.49793665333333337,0.8406482399999999,0.5969867545808804,0.6545396840354223,0.6545396840354223,0.6545396840354223
LBP05_S04,LBP05,-1600,51,4,50,-1600,1715799483.0,2024-05-15 18:58:03+00:00,2024-05-16 03:58:03+09:00,2024,5,15,18,58,3,0,18.0,58.0,3.0,40.937881,141.726746,14.492,3.0,9.0,0.366943,-0.085938,0.943359,76.35498,-14.465332,9.82666,-555.0,14.0,557.0,0.0,0.0,1020.0,16.469999,0.069368,-56.014488,3.944531,0.0,1.0,1.0,4.0,0.0,0.0,0.0,4.0,0.0,-0.12343746666666668,-0.17702804,0.9946484,1.3435872400000002,-2.584635466666667,3.887532493333333,-8.372377615787702,-9.422465855087415,7.3797852125874135,13.49818005998605,0.622452298274337,10.688196888967687,17.22863501652904,-2.1834274347972933,17.035366325051488,-2.216055885961183,0.4903804666666667,0.09109004,-0.05128940000000004,0.6327599066666667,0.5013990427072825,0.643601066797698,0.643601066797698,0.643601066797698
LBP05_S04,LBP05,-1599,52,4,51,-1599,1715799483.04,2024-05-15 18:58:03.040000+00:00,2024-05-16 03:58:03.040000+09:00,2024,5,15,18,58,3,40,,,,,,,,,-0.261963,-0.365234,1.549805,23.071289,55.664062,27.893066,,,,,,,,,,,0.0,1.0,1.0,4.0,0.0,0.0,0.0,4.0,0.0,-0.13195634666666667,-0.18344080000000001,1.0112434533333334,0.4069010400000002,-1.5983073466666666,4.134928333333334,-10.48105645827182,-8.553000023511604,5.991486863101229,13.078937801655176,0.2803322973338728,10.927856363491737,17.045681122137655,-2.1980612897976965,16.801786448030356,-2.2131641283312176,-0.13000665333333333,-0.1817932,0.5385615466666667,0.8503613999999999,0.5830943637398374,0.6395672865938405,0.6395672865938405,0.6395672865938405
LBP05_S04,LBP05,-1598,53,4,52,-1598,1715799483.08,2024-05-15 18:58:03.080000+00:00,2024-05-16 03:58:03.080000+09:00,2024,5,15,18,58,3,80,,,,,,,,,-0.583008,-0.295898,1.880615,16.235352,-31.677246,4.821777,,,,,,,,,,,0.0,1.0,1.0,4.0,0.0,0.0,0.0,4.0,0.0,-0.13847978666666666,-0.18430017333333332,1.0196679333333334,0.9554036400000003,-1.3736979733333334,4.716796826666667,-13.572154655925377,-7.178408369575029,4.459593697305408,12.536051615418161,-0.006804037449128331,11.106240111383952,16.748170222775613,-2.218515015000924,16.515626876162884,-2.207051212728192,-0.4445282133333333,-0.11159782666666668,0.8609470666666665,1.4170731066666664,0.9753405861379841,0.6605531178153495,0.6605531178153495,0.6605531178153495
LBP05_S04,LBP05,-1597,54,4,53,-1597,1715799483.12,2024-05-15 18:58:03.120000+00:00,2024-05-16 03:58:03.120000+09:00,2024,5,15,18,58,3,120,,,,,,,,,-0.074463,-0.195801,1.516357,-6.04248,-6.896973,-2.380371,,,,,,,,,,,0.0,1.0,1.0,4.0,0.0,0.0,0.0,4.0,0.0,-0.13902990666666667,-0.17610030666666665,1.0096451466666665,-0.09277343999999976,-0.7023112533333333,5.23356116,-17.155716696298505,-5.6321984748381375,3.002082509136449,11.84982294756622,-0.23209197644265384,11.22632341174941,16.32490453017686,-2.241818848171946,16.181713552005043,-2.19929592273817,0.06456690666666667,-0.019700693333333352,0.5067118533333335,0.5909794533333335,0.5111887176599438,0.6517669766297375,0.6517669766297375,0.6517669766297375
LBP05_S04,LBP05,-1596,55,4,54,-1596,1715799483.16,2024-05-15 18:58:03.160000+00:00,2024-05-16 03:58:03.160000+09:00,2024,5,15,18,58,3,160,,,,,,,,,-0.273682,0.004883,0.589844,-23.498535,116.455078,-10.620117,,,,,,,,,,,0.0,1.0,1.0,4.0,0.0,0.0,0.0,4.0,0.0,-0.13206701333333332,-0.17583662666666666,0.98603512,-1.5551757733333331,-0.5981445866666667,5.053710906666667,-20.433792789007448,-4.119675612174626,1.824061786885796,11.032471236005923,-0.3968790009296389,11.299285883224842,15.797050230518392,-2.218237334390775,15.807557583761298,-2.195873213138648,-0.14161498666666666,0.18071962666666666,-0.39619112,0.7185257333333334,0.4579102439103038,0.6409971581453244,0.6409971581453244,0.6409971581453244
LBP05_S04,LBP05,-1595,56,4,55,-1595,1715799483.2,2024-05-15 18:58:03.200000+00:00,2024-05-16 03:58:03.200000+09:00,2024,5,15,18,58,3,200,,,,,,,,,-0.126953,0.037354,0.046143,-126.037598,-28.747559,-12.512207,,,,,,,,,,,0.0,1.0,1.0,4.0,0.0,0.0,0.0,4.0,0.0,-0.12657222666666668,-0.17235030666666667,0.9678287466666666,-1.9555663999999995,-1.4143880666666666,4.6972656,-22.608983086684145,-2.651945556176346,1.0370156511558017,10.128111912538557,-0.5029568231766928,11.340766509271074,15.213303438000894,-2.2076370065363156,15.402302147853458,-2.198670294257225,-0.0003807733333333341,0.20970430666666667,-0.9216857466666666,1.1317708266666666,0.9452410575252058,0.6570099949547918,0.6570099949547918,0.6570099949547918
LBP05_S04,LBP05,-1594,57,4,56,-1594,1715799483.24,2024-05-15 18:58:03.240000+00:00,2024-05-16 03:58:03.240000+09:00,2024,5,15,18,58,3,240,,,,,,,,,0.092529,-0.171143,0.335205,-79.406738,-108.703613,-8.239746,,,,,,,,,,,0.0,1.0,1.0,4.0,0.0,0.0,0.0,4.0,0.0,-0.1179622,-0.17295577333333334,0.9654231466666668,-1.5624999866666662,-3.3170573333333335,4.4946288800000005,-23.203652760866852,-1.126220807170941,0.6144539910279451,9.199965802103883,-0.5480056554635304,11.365344668912192,14.632523377786612,-2.173273864282054,14.976936575429642,-2.2027994068724057,0.2104912,0.0018127733333333507,-0.6302181466666669,0.8425221200000002,0.6644431832839934,0.6573816543712521,0.6573816543712521,0.6573816543712521
LBP05_S04,LBP05,-1593,58,4,57,-1593,1715799483.28,2024-05-15 18:58:03.280000+00:00,2024-05-16 03:58:03.280000+09:00,2024,5,15,18,58,3,280,,,,,,,,,0.534668,-0.326904,0.832031,42.236328,-40.283203,14.282227,,,,,,,,,,,0.0,1.0,1.0,4.0,0.0,0.0,0.0,4.0,0.0,-0.11480790666666667,-0.1742546,0.9810448933333333,-0.24902342666666633,-2.37630212,4.629720026666666,-22.217115814124643,0.5103829438493097,0.4112053322432705,8.311281169538898,-0.527590337709558,11.381792882201923,14.103225001995774,-2.1573864777093403,14.544962976707746,-2.2063642038064497,0.6494759066666667,-0.15264939999999996,-0.14901389333333337,0.9511392,0.683612414360072,0.6586307381802434,0.6586307381802434,0.6586307381802434
LBP05_S04,LBP05,-1592,59,4,58,-1592,1715799483.32,2024-05-15 18:58:03.320000+00:00,2024-05-16 03:58:03.320000+09:00,2024,5,15,18,58,3,320,,,,,,,,,-0.206299,-0.019531,1.404297,28.442383,77.819824,20.446777,,,,,,,,,,,0.0,1.0,1.0,4.0,0.0,0.0,0.0,4.0,0.0,-0.12226558666666666,-0.17414717333333332,0.9986620799999999,-0.4638671866666664,-0.8715820800000004,4.471842426666667,-20.046412879608067,2.1418732664687252,0.23845470205681915,7.509424654354575,-0.441915407050809,11.391331070284195,13.650976940103565,-2.1864680355533594,14.122181300247655,-2.205859558197725,-0.08403341333333335,0.15461617333333333,0.40563492,0.6442845066666667,0.44216225973741885,0.6487912618873878,0.6487912618873878,0.6487912618873878
LBP05_S04,LBP05,-1591,60,4,59,-1591,1715799483.36,2024-05-15 18:58:03.360000+00:00,2024-05-16 03:58:03.360000+09:00,2024,5,15,18,58,3,360,,,,,,,,,-0.558838,-0.3396,1.785645,-16.845703,-5.67627,-2.01416,,,,,,,,,,,0.0,1.0,1.0,4.0,0.0,0.0,0.0,4.0,0.0,-0.13018876,-0.17945316,1.0118326533333333,-0.005696613333333005,-0.12858078666666697,4.521484346666666,-17.243304536120554,3.503319659484762,-0.045838075545369734,6.819692472909753,-0.3017826206714185,11.38949754726238,13.278551598510171,-2.201877636332548,13.724900323408246,-2.1981063492315087,-0.42864923999999993,-0.16014684,0.7738123466666667,1.3626084266666667,0.8989842763743627,0.6596692190389953,0.6596692190389953,0.6596692190389953
LBP05_S04,LBP05,-1590,61,4,60,-1590,1715799483.4,2024-05-15 18:58:03.400000+00:00,2024-05-16 03:58:03.400000+09:00,2024,5,15,18,58,3,400,,,,,,,,,-0.194336,-0.32959,1.640869,39.18457,-4.760742,10.070801,,,,,,,,,,,0.0,1.0,1.0,4.0,0.0,0.0,0.0,4.0,0.0,-0.1330500933333333,-0.17467126666666669,1.00902016,-0.9440104133333329,0.35888666666666635,4.674479146666667,-14.268297857547187,4.322391321172743,-0.4796686449857563,6.248960558607865,-0.12888696782450876,11.37031080146295,12.974979292290865,-2.224718560949102,13.367086055660755,-2.1924474641625613,-0.061285906666666695,-0.1549187333333333,0.63184884,0.8480534799999999,0.6534437488436976,0.6594098244475246,0.6594098244475246,0.6594098244475246
LBP05_S04,LBP05,-1589,62,4,61,-1589,1715799483.44,2024-05-15 18:58:03.440000+00:00,2024-05-16 03:58:03.440000+09:00,2024,5,15,18,58,3,440,,,,,,,,,-0.217041,0.140869,0.811523,-37.902832,95.336914,-11.779785,,,,,,,,,,,0.0,1.0,1.0,4.0,0.0,0.0,0.0,4.0,0.0,-0.13114579999999998,-0.16892256,0.9880696400000001,-2.934570306666666,0.8422851066666663,4.121907533333333,-11.372633633202321,4.477390928398584,-0.9998455534788777,5.794055213279773,0.05020866931143461,11.330316979323793,12.725945134918726,-2.2337092591381347,13.057875310338739,-2.1897667567617725,-0.08589520000000003,0.30979155999999997,-0.1765466400000001,0.5722334000000001,0.36676629087957796,0.6477040831048068,0.6477040831048068,0.6477040831048068
LBP05_S04,LBP05,-1588,63,4,62,-1588,1715799483.48,2024-05-15 18:58:03.480000+00:00,2024-05-16 03:58:03.480000+09:00,2024,5,15,18,58,3,480,,,,,,,,,-0.291504,0.073242,0.042725,-108.215332,0.732422,-14.709473,,,,,,,,,,,0.0,1.0,1.0,4.0,0.0,0.0,0.0,4.0,0.0,-0.12784828,-0.1719303733333333,0.9714029733333333,-4.52067056,-0.09602870666666699,3.717447893333333,-8.629491747714152,4.064184776936977,-1.49591012234581,5.448875543371207,0.2127760603889137,11.27048057442996,12.520353458174677,-2.213468558913675,12.800915810579564,-2.1940420052908998,-0.16365571999999998,0.2451723733333333,-0.9286779733333332,1.3375060666666665,0.9743384758332829,0.6524168106033068,0.6602669443635942,0.6602669443635942
LBP05_S04,LBP05,-1587,64,4,63,-1587,1715799483.52,2024-05-15 18:58:03.520000+00:00,2024-05-16 03:58:03.520000+09:00,2024,5,15,18,58,3,520,,,,,,,,,0.075928,-0.240723,0.414795,-6.286621,-85.266113,-15.014648,,,,,,,,,,,0.0,1.0,1.0,4.0,0.0,0.0,0.0,4.0,0.0,-0.11907549333333334,-0.17812502666666666,0.96878904,-4.011230453333333,-2.456868546666667,3.5774739466666663,-6.0327662686565215,3.330282434436174,-1.878326865581807,5.207564892624946,0.3459873577663607,11.195347499806688,12.35209476178279,-2.164286758509783,12.596074633295492,-2.2008951547477245,0.19500349333333333,-0.06259797333333333,-0.55399404,0.8115955066666667,0.5906388617701731,0.6404950663630113,0.6576881264897638,0.6576881264897638
LBP05_S04,LBP05,-1586,65,4,64,-1586,1715799483.56,2024-05-15 18:58:03.560000+00:00,2024-05-16 03:58:03.560000+09:00,2024,5,15,18,58,3,560,,,,,,,,,0.462891,-0.342529,0.843994,60.119629,-43.029785,6.408691,,,,,,,,,,,0.0,1.0,1.0,4.0,0.0,0.0,0.0,4.0,0.0,-0.11443356000000002,-0.1720280133333333,0.98229164,-2.2696939866666663,-2.300618546666667,3.6759439999999994,-3.5559121280758035,2.5245190706541254,-2.1198833679566493,5.065328407501914,0.4469681205925257,11.110552165088423,12.218907553043477,-2.1616484837013017,12.442762140278623,-2.205202137118147,0.57732456,-0.17050098666666666,-0.13829764,0.8861231866666667,0.6176572441597928,0.6589525232136159,0.6562584521208363,0.6562584521208363
LBP05_S04,LBP05,-1585,66,4,65,-1585,1715799483.6,2024-05-15 18:58:03.600000+00:00,2024-05-16 03:58:03.600000+09:00,2024,5,15,18,58,3,600,,,,,,,,,-0.03418,0.026855,1.286865,8.239746,69.213867,13.061523,,,,,,,,,,,0.0,1.0,1.0,4.0,0.0,0.0,0.0,4.0,0.0,-0.12127599999999998,-0.17485678666666665,1.0005761466666667,-2.80517576,-0.7804362533333337,3.7198893066666665,-1.128817280390509,1.7711355642263518,-2.2494022649934675,5.020175716286293,0.5178135431615798,11.020576074488684,12.121195984780734,-2.1808299325284226,12.343289819991552,-2.208299495257765,0.08709599999999998,0.20171178666666664,0.2862888533333332,0.5750966399999998,0.36088040351226275,0.6314753702803373,0.6460730021688166,0.6460730021688166
LBP05_S04,LBP05,-1584,67,4,66,-1584,1715799483.64,2024-05-15 18:58:03.640000+00:00,2024-05-16 03:58:03.640000+09:00,2024,5,15,18,58,3,640,,,,,,,,,-0.523193,-0.462158,1.840088,10.192871,-5.67627,-10.986328,,,,,,,,,,,0.0,1.0,1.0,4.0,0.0,0.0,0.0,4.0,0.0,-0.13195959999999998,-0.17646161333333332,1.0136067466666667,-2.823893213333333,-0.6966146400000004,3.531087226666666,1.4138530848200614,1.05625117670745,-2.3073100624236647,5.076729839679096,0.5600635902298778,10.928283671991737,12.062928380194858,-2.2160263495733314,12.304690196725947,-2.2039771268405866,-0.39123340000000006,-0.2856963866666667,0.8264812533333332,1.50341104,0.9579964826351853,0.6438149711634195,0.6564704515176955,0.6564704515176955
LBP05_S04,LBP05,-1583,68,4,67,-1583,1715799483.68,2024-05-15 18:58:03.680000+00:00,2024-05-16 03:58:03.680000+09:00,2024,5,15,18,58,3,680,,,,,,,,,-0.328613,-0.230225,1.837158,34.423828,-40.83252,-6.04248,,,,,,,,,,,0.0,1.0,1.0,4.0,0.0,0.0,0.0,4.0,0.0,-0.13344397333333333,-0.1747396,1.0126074,-3.1258137866666664,-0.607096413333334,3.2397460799999998,4.321979523916032,0.3262598943456358,-2.2923595046035334,5.249609020635738,0.5731139860037032,10.836589291807597,12.054813229155076,-2.2259179722775877,12.338092169811759,-2.19382263729497,-0.19516902666666666,-0.05548540000000002,0.8245506,1.0752050266666666,0.8491485562276686,0.654749614319799,0.6626858742502754,0.6626858742502754
LBP05_S04,LBP05,-1582,69,4,68,-1582,1715799483.72,2024-05-15 18:58:03.720000+00:00,2024-05-16 03:58:03.720000+09:00,2024,5,15,18,58,3,720,,,,,,,,,-0.092041,-0.012207,1.185547,-0.793457,94.116211,16.296387,,,,,,,,,,,0.0,1.0,1.0,4.0,0.0,0.0,0.0,4.0,0.0,-0.13119137333333333,-0.17047853333333335,0.9918229066666667,-4.380696599999999,0.6363931733333328,2.4471028533333334,7.813308413470515,-0.3811197608642365,-2.1284523973341227,5.562141357174559,0.5578691955691337,10.751451195914232,12.117852009934852,-2.2295378592575807,12.455836729521536,-2.190104477353791,0.039150373333333335,0.15827153333333335,0.19372409333333318,0.3911459999999999,0.25320279290253855,0.651359466546253,0.6498895279581586,0.6498895279581586
LBP05_S04,LBP05,-1581,70,4,69,-1581,1715799483.76,2024-05-15 18:58:03.760000+00:00,2024-05-16 03:58:03.760000+09:00,2024,5,15,18,58,3,760,,,,,,,,,-0.410645,0.118164,0.164307,-68.54248,44.250488,-0.183105,,,,,,,,,,,0.0,1.0,1.0,4.0,0.0,0.0,0.0,4.0,0.0,-0.12855139999999998,-0.16587568,0.9720768133333333,-6.67887368,0.1440429199999994,1.8286132666666666,11.893536546584382,-0.8708250690270783,-1.6687446042868141,6.037882819037934,0.5230361928080506,10.68470141174276,12.28382839563946,-2.232851217728727,12.667645497880688,-2.1939773309206876,-0.2820936,0.28403968,-0.8077698133333333,1.3739030933333334,0.9015250469665447,0.6573187436542903,0.6575148467159885,0.6575148467159885
LBP05_S04,LBP05,-1580,71,4,70,-1580,1715799483.8,2024-05-15 18:58:03.800000+00:00,2024-05-16 03:58:03.800000+09:00,2024,5,15,18,58,3,800,,,,,,,,,0.015381,-0.609619,0.373779,-67.871094,-75.439453,-0.061035,,,,,,,,,,,0.0,1.0,1.0,4.0,0.0,0.0,0.0,4.0,0.0,-0.12095700000000001,-0.1742252933333333,0.9687857866666667,-7.892252586666666,-2.5317383200000005,1.91243488,16.22274338910654,-0.8504016163018452,-0.7412047927307304,6.686792554602196,0.4890201281559768,10.65505322003353,12.5889830596348,-2.1814948767773203,12.977490357431318,-2.1995701023869074,0.13633800000000001,-0.4353937066666667,-0.5950067866666667,1.1667384933333333,0.7497925087838179,0.6532553600925037,0.6602288956003363,0.6602288956003363
LBP05_S04,LBP05,-1579,72,4,71,-1579,1715799483.84,2024-05-15 18:58:03.840000+00:00,2024-05-16 03:58:03.840000+09:00,2024,5,15,18,58,3,840,,,,,,,,,0.346924,-0.026611,0.614258,137.756348,-72.814941,-17.822266,,,,,,,,,,,0.0,1.0,1.0,4.0,0.0,0.0,0.0,4.0,0.0,-0.11351885333333334,-0.18238610666666666,0.9826822666666666,-5.860188786666667,-2.731119826666667,2.5659179599999997,20.139282185077473,-0.10012997307360806,0.7752262894493166,7.492363842005295,0.48501492923303247,10.686062271611503,13.059964865776863,-2.1321643636819694,13.38198648034645,-2.2032197105852314,0.46044285333333335,0.15577510666666666,-0.3684242666666666,0.9846422266666666,0.6099261802149699,0.6633665135145111,0.6587916751607544,0.6587916751607544
LBP05_S04,LBP05,-1578,73,4,72,-1578,1715799483.88,2024-05-15 18:58:03.880000+00:00,2024-05-16 03:58:03.880000+09:00,2024,5,15,18,58,3,880,,,,,,,,,0.240479,-0.325928,1.106689,1.159668,17.456055,-2.685547,,,,,,,,,,,0.0,1.0,1.0,4.0,0.0,0.0,0.0,4.0,0.0,-0.1216992,-0.17724613333333333,0.9980305733333333,-4.7713216,-1.0164388400000006,2.683919253333333,22.86777430951899,1.3472392885672217,2.8720231557305813,8.407074814386055,0.5389045007757214,10.800943197840725,13.697799055272439,-2.1762869595018848,13.869952482987316,-2.203727957974443,0.3621782,-0.14868186666666666,0.1086584266666667,0.6195184933333334,0.40630776477492997,0.65071545122914,0.6517782332055926,0.6517782332055926
LBP05_S04,LBP05,-1577,74,4,73,-1577,1715799483.92,2024-05-15 18:58:03.920000+00:00,2024-05-16 03:58:03.920000+09:00,2024,5,15,18,58,3,920,,,,,,,,,-0.533691,-0.16748,1.575928,120.605469,39.18457,-0.793457,,,,,,,,,,,0.0,1.0,1.0,4.0,0.0,0.0,0.0,4.0,0.0,-0.13219398666666668,-0.1818099333333333,1.01186196,-4.507649733333333,-1.0465495066666672,2.605794253333333,23.811629468243176,3.1415701091220876,5.366531324139124,9.359539993115781,0.6645673051406049,11.01560445080629,14.470182445374313,-2.203015294178749,14.422299408572147,-2.1996526627681106,-0.4014970133333333,0.014329933333333322,0.5640660399999999,0.9798929866666666,0.6925140404253232,0.649780051917882,0.6528792009682881,0.6528792009682881
LBP05_S04,LBP05,-1576,75,4,74,-1576,1715799483.96,2024-05-15 18:58:03.960000+00:00,2024-05-16 03:58:03.960000+09:00,2024,5,15,18,58,3,960,,,,,,,,,-0.265137,-0.456543,1.699463,18.737793,-38.452148,26.000977,,,,,,,,,,,0.0,1.0,1.0,4.0,0.0,0.0,0.0,4.0,0.0,-0.13467445333333333,-0.17954105333333334,1.0144726266666666,-4.31803384,-1.2174479466666674,2.3600260266666666,22.761890659611552,4.718650467309813,7.916298523314616,10.270015619500244,0.8533133238329975,11.332256391738875,15.317356148549804,-2.217576198363501,15.011842766020845,-2.1909631557411022,-0.13046254666666668,-0.27700194666666667,0.6849903733333333,1.0924548666666667,0.7503081807492269,0.6559129089646158,0.6554431214888391,0.6554431214888391
LBP05_S04,LBP05,-1575,76,4,75,-1575,1715799484.0,2024-05-15 18:58:04+00:00,2024-05-16 03:58:04+09:00,2024,5,15,18,58,4,0,18.0,58.0,4.0,40.937885,141.726837,13.614,3.0,9.0,-0.131104,0.026367,1.29248,-22.216797,47.790527,7.93457,-557.0,12.0,556.0,0.0,0.0,1020.099976,16.540001,0.070359,-56.841873,3.944531,0.0,1.0,1.0,4.0,0.0,0.0,0.0,5.0,0.0,-0.13252276,-0.17677087999999996,0.9967903333333333,-4.975585919999999,0.6298827866666663,1.9327799333333333,19.904315305022013,5.517841190316024,10.090274695648734,11.066188231701124,1.0740269714456385,11.735867379564825,16.16615721393204,-2.217326014511661,15.603501394823251,-2.1853354722569054,0.0014187599999999911,0.20313787999999997,0.29568966666666674,0.5002463066666667,0.3587469723137416,0.6502068261488742,0.6478355279202469,0.6478355279202469
LBP05_S04,LBP05,-1574,77,4,76,-1574,1715799484.04,2024-05-15 18:58:04.040000+00:00,2024-05-16 03:58:04.040000+09:00,2024,5,15,18,58,4,40,,,,,,,,,-0.47583,0.043457,0.374756,-23.132324,111.938477,7.080078,,,,,,,,,,,0.0,1.0,1.0,4.0,0.0,0.0,0.0,5.0,0.0,-0.12924477333333334,-0.17099938666666667,0.9754524399999999,-6.416015613333334,0.8113606399999995,1.3728841066666666,15.638669682851368,5.197417934434289,11.47142820137552,11.69173501901518,1.28192368882301,12.194724507619846,16.942588406603505,-2.221108823465449,16.156035050568068,-2.187410847348321,-0.34658522666666663,0.21445638666666667,-0.6006964399999999,1.1617380533333332,0.7259125802425392,0.6559195548089823,0.6497874542283042,0.6497874542283042
LBP05_S04,LBP05,-1573,78,4,77,-1573,1715799484.08,2024-05-15 18:58:04.080000+00:00,2024-05-16 03:58:04.080000+09:00,2024,5,15,18,58,4,80,,,,,,,,,-0.078125,-0.455566,0.33252,-53.344727,-58.227539,12.634277,,,,,,,,,,,0.0,1.0,1.0,4.0,0.0,0.0,0.0,5.0,0.0,-0.12337889333333332,-0.1763379333333333,0.9713053066666667,-7.401529933333333,-1.3696289466666671,1.4786783866666666,10.34360809664515,3.7384307285040803,11.758939851215317,12.105479342880987,1.4314609179631734,12.665082101668458,17.578282485003392,-2.1851650202142654,16.626394341595045,-2.1973751318575605,0.04525389333333332,-0.2792280666666667,-0.6387853066666667,0.9632672666666667,0.698614984157552,0.644850530729765,0.6509783695924322,0.6509783695924322
LBP05_S04,LBP05,-1572,79,4,78,-1572,1715799484.12,2024-05-15 18:58:04.120000+00:00,2024-05-16 03:58:04.120000+09:00,2024,5,15,18,58,4,120,,,,,,,,,0.316895,-0.087158,0.611572,17.944336,-93.566895,19.40918,,,,,,,,,,,0.0,1.0,1.0,4.0,0.0,0.0,0.0,5.0,0.0,-0.11446938666666667,-0.17958337333333332,0.9862629866666667,-5.2246093600000005,-1.6056315466666673,1.818847653333333,4.247849519383801,1.3950785356158217,10.84548630040794,12.275393323656338,1.4872640593878064,13.098901553684776,18.013285584421816,-2.142642788987495,16.976555907727715,-2.2028352009683836,0.43136438666666665,0.09242537333333332,-0.37469098666666667,0.8984807466666667,0.5788013642082711,0.647555036591698,0.6492598694642379,0.6492598694642379
LBP05_S04,LBP05,-1571,80,4,79,-1571,1715799484.16,2024-05-15 18:58:04.160000+00:00,2024-05-16 03:58:04.160000+09:00,2024,5,15,18,58,4,160,,,,,,,,,0.244873,0.013428,1.087402,69.946289,20.507812,7.507324,,,,,,,,,,,0.0,1.0,1.0,4.0,0.0,0.0,0.0,5.0,0.0,-0.12171873333333333,-0.17714522666666668,1.0041210533333333,-5.5403645599999995,-0.25390629333333387,2.0288085999999996,-2.5127010419277553,-1.4538594118960202,8.854040302103702,12.174885281979229,1.4291096829119656,13.453063165768924,18.20041468366355,-2.1765743828867583,17.18089045273402,-2.204520644467159,0.36659173333333334,0.19057322666666668,0.08328094666666663,0.6404459066666667,0.421477602902193,0.6460977309513737,0.6439626074511671,0.6439626074511671
LBP05_S04,LBP05,-1570,81,4,80,-1570,1715799484.2,2024-05-15 18:58:04.200000+00:00,2024-05-16 03:58:04.200000+09:00,2024,5,15,18,58,4,200,,,,,,,,,-0.514404,-0.204346,1.663818,3.723145,42.724609,12.756348,,,,,,,,,,,0.0,1.0,1.0,4.0,0.0,0.0,0.0,5.0,0.0,-0.1326171733333333,-0.18267908000000002,1.0210579066666665,-5.494791653333333,0.06673171999999927,1.7732747466666667,-9.704879550932558,-4.44079086282764,6.124434115468331,11.786690099941927,1.25147804839886,13.698040530387658,18.114319617082952,-2.2022486276914766,17.231103435678342,-2.201267255912902,-0.38178682666666663,-0.02166691999999998,0.6427600933333335,1.04621384,0.7479112073103099,0.6382045369427779,0.6463250756297839,0.6463250756297839
LBP05_S04,LBP05,-1569,82,4,81,-1569,1715799484.24,2024-05-15 18:58:04.240000+00:00,2024-05-16 03:58:04.240000+09:00,2024,5,15,18,58,4,240,,,,,,,,,-0.507812,-0.509277,1.862793,-16.967773,-60.72998,6.04248,,,,,,,,,,,0.0,1.0,1.0,4.0,0.0,0.0,0.0,5.0,0.0,-0.13790364000000002,-0.17837244,1.0258821333333334,-4.458007800000001,0.2701822399999993,1.6235351599999996,-16.81966512674109,-7.255754680046801,3.1473234324120227,11.113903494872282,0.9612478611969879,13.823933467684139,17.76355777604666,-2.231807208774365,17.13669853181101,-2.1960543850270824,-0.36990836000000005,-0.33090456,0.8369108666666665,1.5377237866666666,0.9730106995153928,0.6505472375920338,0.6535847561605752,0.6535847561605752
LBP05_S04,LBP05,-1568,83,4,82,-1568,1715799484.28,2024-05-15 18:58:04.280000+00:00,2024-05-16 03:58:04.280000+09:00,2024,5,15,18,58,4,280,,,,,,,,,-0.125488,-0.075684,1.359619,16.723633,16.113281,-3.051758,,,,,,,,,,,0.0,1.0,1.0,4.0,0.0,0.0,0.0,5.0,0.0,-0.13553710666666668,-0.17565108,1.0099478933333332,-5.4695638,1.553548133333333,1.2752278666666665,-23.041213577105374,-9.615511880186192,0.4555847286097847,10.192254951788067,0.5766273859895402,13.842156856828531,17.199414716599126,-2.2308876506101147,16.921295104519977,-2.1921048091651643,0.010049106666666696,0.09996707999999999,0.3496711066666667,0.45968729333333336,0.3638190270807944,0.6377555021008626,0.6472855011805799,0.6472855011805799
LBP05_S04,LBP05,-1567,84,4,83,-1567,1715799484.32,2024-05-15 18:58:04.320000+00:00,2024-05-16 03:58:04.320000+09:00,2024,5,15,18,58,4,320,,,,,,,,,-0.303467,-0.140625,0.354248,-36.743164,105.041504,-16.235352,,,,,,,,,,,0.0,1.0,1.0,4.0,0.0,0.0,0.0,5.0,0.0,-0.13161457333333335,-0.17460615999999998,0.9894466,-7.091471346666667,1.333821573333333,0.8479817733333332,-27.409771581189677,-11.226811217720645,-1.5020478097121528,9.09586408854048,0.12755493728071443,13.782074944440044,16.51352789543734,-2.2198697291665033,16.61724784687406,-2.19546610249206,-0.17185242666666664,0.03398115999999998,-0.6351986,0.8410321866666666,0.6589121619974301,0.6464254981912632,0.6475328769426406,0.6475328769426406
LBP05_S04,LBP05,-1566,85,4,84,-1566,1715799484.36,2024-05-15 18:58:04.360000+00:00,2024-05-16 03:58:04.360000+09:00,2024,5,15,18,58,4,360,,,,,,,,,-0.123291,-0.10376,0.208984,-119.995117,-65.307617,-5.737305,,,,,,,,,,,0.0,1.0,1.0,4.0,0.0,0.0,0.0,5.0,0.0,-0.12447264,-0.17794926666666666,0.9798404799999999,-6.981608066666667,-0.11067713333333377,0.5639648533333332,-29.115694608272783,-11.813732420135505,-2.4694582976349286,7.931236304209569,-0.34499435952470575,13.683296612534647,15.819485977993024,-2.1850423128209346,16.261181239358926,-2.205286378922467,0.0011816399999999977,0.07418926666666666,-0.77085648,0.8462273866666666,0.7744192380872377,0.6414428966597783,0.6501763427998197,0.6501763427998197
LBP05_S04,LBP05,-1565,86,4,85,-1565,1715799484.4,2024-05-15 18:58:04.400000+00:00,2024-05-16 03:58:04.400000+09:00,2024,5,15,18,58,4,400,,,,,,,,,0.180176,-0.065186,0.373291,-80.810547,-121.948242,-2.197266,,,,,,,,,,,0.0,1.0,1.0,4.0,0.0,0.0,0.0,5.0,0.0,-0.11788734666666666,-0.17589522666666668,0.98875324,-5.162760413333333,-0.861816466666667,0.43212890666666665,-27.78620898985055,-11.225200612472353,-2.438640617067823,6.8197879446155465,-0.7940023840235999,13.585750987851934,15.222108175258725,-2.165197305653464,15.891289384031229,-2.2130452484517695,0.2980633466666667,0.11070922666666669,-0.61546224,1.0242348133333334,0.6927424199232226,0.6430148435029592,0.6510450382513178,0.6510450382513178
LBP05_S04,LBP05,-1564,87,4,86,-1564,1715799484.44,2024-05-15 18:58:04.440000+00:00,2024-05-16 03:58:04.440000+09:00,2024,5,15,18,58,4,440,,,,,,,,,0.428955,-0.389893,0.95874,39.489746,-16.723633,-7.507324,,,,,,,,,,,0.0,1.0,1.0,4.0,0.0,0.0,0.0,5.0,0.0,-0.12268553333333335,-0.17659834666666666,1.0074576666666666,-4.4799804666666665,0.6868488933333329,0.22298177333333333,-23.62058602062035,-9.55701999806035,-1.6326031764635407,5.874964503790732,-1.176283183946014,13.520446860793394,14.788554133693165,-2.181613064846267,15.545387549290194,-2.216386220537257,0.5516405333333333,-0.21329465333333333,-0.04871766666666655,0.8136528533333331,0.5934435931091645,0.6520819355921427,0.6498930093484746,0.6498930093484746
LBP05_S04,LBP05,-1563,88,4,87,-1563,1715799484.48,2024-05-15 18:58:04.480000+00:00,2024-05-16 03:58:04.480000+09:00,2024,5,15,18,58,4,480,,,,,,,,,-0.2854,-0.104736,1.514404,26.245117,52.062988,3.540039,,,,,,,,,,,0.0,1.0,1.0,4.0,0.0,0.0,0.0,5.0,0.0,-0.13264648,-0.17632492000000002,1.0246679600000002,-3.8883463600000003,1.730956973333333,-0.31738281333333335,-17.310162953848337,-7.177679449625407,-0.42090737640615733,5.182557985636799,-1.4633903619310302,13.503610565737148,14.537809908544283,-2.218777953483218,15.258234446830508,-2.2155213684374635,-0.15275351999999998,0.07158892000000003,0.48973603999999993,0.71407848,0.5179768336654047,0.6338274699054275,0.6431221402543672,0.6473064176684145
LBP05_S04,LBP05,-1562,89,4,88,-1562,1715799484.52,2024-05-15 18:58:04.520000+00:00,2024-05-16 03:58:04.520000+09:00,2024,5,15,18,58,4,520,,,,,,,,,-0.415527,-0.556885,1.769775,-25.756836,-12.390137,6.164551,,,,,,,,,,,0.0,1.0,1.0,4.0,0.0,0.0,0.0,5.0,0.0,-0.14059894666666667,-0.17843429333333333,1.03160156,-5.316569013333333,2.2737629599999996,-0.6526692666666666,-9.804837412885583,-4.600610811486713,0.8035922173328293,4.790364489121376,-1.6474147943904986,13.535754254430461,14.452619509270427,-2.240845553291563,15.057505040421393,-2.211346050259967,-0.2749280533333333,-0.37845070666666664,0.7381734400000002,1.3915522,0.8739052576839147,0.6451581257419773,0.6428265960524943,0.6516640876687126
LBP05_S04,LBP05,-1561,90,4,89,-1561,1715799484.56,2024-05-15 18:58:04.560000+00:00,2024-05-16 03:58:04.560000+09:00,2024,5,15,18,58,4,560,,,,,,,,,-0.126465,-0.22583,1.558594,48.828125,6.896973,23.498535,,,,,,,,,,,0.0,1.0,1.0,4.0,0.0,0.0,0.0,5.0,0.0,-0.14194985333333332,-0.17520188,1.0175065066666666,-6.051432293333333,3.0208332799999997,-1.2353515466666667,-2.0644822595555454,-2.2614382109793243,1.7439358754251937,4.7077851987391535,-1.7378723228296715,13.60551168944747,14.501496130386567,-2.2541630781797872,14.959180153230609,-2.2093122907398235,0.015484853333333326,-0.05062812,0.5410874933333334,0.6072004666666667,0.5436714657394108,0.6421986946051618,0.6505756089093889,0.6496264910285371
LBP05_S04,LBP05,-1560,91,4,90,-1560,1715799484.6,2024-05-15 18:58:04.600000+00:00,2024-05-16 03:58:04.600000+09:00,2024,5,15,18,58,4,600,,,,,,,,,-0.250488,0.121582,0.677246,2.380371,107.116699,15.441895,,,,,,,,,,,0.0,1.0,1.0,4.0,0.0,0.0,0.0,5.0,0.0,-0.13561196,-0.17400722666666668,0.9952115866666666,-7.339681000000001,2.6424153066666665,-1.3427734133333333,5.090177778579396,-0.3336262491886013,2.270332846759694,4.911392309882329,-1.7512173727972156,13.696325003317858,14.655301269672623,-2.235658348546356,14.96424551450221,-2.2133772870740396,-0.11487603999999998,0.29558922666666665,-0.31796558666666663,0.7284308533333332,0.44907862317389047,0.645726623391627,0.6386009968359821,0.6459126416238213
LBP05_S04,LBP05,-1559,92,4,91,-1559,1715799484.64,2024-05-15 18:58:04.640000+00:00,2024-05-16 03:58:04.640000+09:00,2024,5,15,18,58,4,640,,,,,,,,,-0.197021,0.077881,0.0271,-80.993652,-26.794434,-17.700195,,,,,,,,,,,0.0,1.0,1.0,4.0,0.0,0.0,0.0,5.0,0.0,-0.13115232000000002,-0.17278326666666668,0.9814941466666667,-7.311197933333333,1.3956705199999997,-1.2719726266666667,11.00296774886361,1.3026750098042277,2.4168436628344945,5.351511019836873,-1.6991103724050465,13.792998749831238,14.892026751449784,-2.223158687776424,15.058644246713566,-2.222091061314026,-0.06586867999999999,0.2506642666666667,-0.9543941466666667,1.2709270933333334,0.9889587679878646,0.646965114805734,0.6453900429845768,0.6521498439213494
LBP05_S04,LBP05,-1558,93,4,92,-1558,1715799484.68,2024-05-15 18:58:04.680000+00:00,2024-05-16 03:58:04.680000+09:00,2024,5,15,18,58,4,680,,,,,,,,,0.153564,-0.098389,0.358887,4.089355,-106.750488,-22.766113,,,,,,,,,,,0.0,1.0,1.0,4.0,0.0,0.0,0.0,5.0,0.0,-0.12316077333333332,-0.17445644,0.9862174533333333,-5.345865906666666,0.06103510666666637,-1.2027994533333333,15.146593266592223,2.9148139532825272,2.311399784264697,5.957374750500562,-1.5825178142737455,13.885454741201826,15.192120652507985,-2.1891344688351544,15.216951717043425,-2.2290162855542603,0.27672477333333334,0.07606743999999999,-0.6273304533333333,0.9801226666666666,0.6898596620211561,0.6405935590374736,0.6476715866786362,0.6528232335302746
LBP05_S04,LBP05,-1557,94,4,93,-1557,1715799484.72,2024-05-15 18:58:04.720000+00:00,2024-05-16 03:58:04.720000+09:00,2024,5,15,18,58,4,720,,,,,,,,,0.428467,-0.341797,0.767822,50.231934,-34.362793,-0.549316,,,,,,,,,,,0.0,1.0,1.0,4.0,0.0,0.0,0.0,5.0,0.0,-0.12581702666666664,-0.17423834666666665,1.0062565066666667,-3.830566426666666,1.053873653333333,-1.07259112,17.117969779944616,4.684582659065464,2.082187352983045,6.642093541698347,-1.395134507911127,13.968742235321148,15.530279023529493,-2.1995321339650684,15.408102369919755,-2.231639265233466,0.5542840266666667,-0.16755865333333336,-0.23843450666666666,0.9602771866666666,0.6262249583768368,0.6555144456564456,0.6534369561013493,0.6523565971240739
LBP05_S04,LBP05,-1556,95,4,94,-1556,1715799484.76,2024-05-15 18:58:04.760000+00:00,2024-05-16 03:58:04.760000+09:00,2024,5,15,18,58,4,760,,,,,,,,,-0.056641,-0.012451,1.23291,49.133301,67.199707,17.150879,,,,,,,,,,,0.0,1.0,1.0,4.0,0.0,0.0,0.0,5.0,0.0,-0.13479489333333333,-0.17658859999999998,1.0251953066666666,-3.139648466666667,1.6267903199999993,-1.4119465866666667,16.708667042600197,6.541632015991313,1.7925211140867663,7.310440223402354,-1.1334692272714744,14.04044307988462,15.870139590709035,-2.22569227616309,15.600567591779935,-2.2307043217838554,0.07815389333333334,0.1641376,0.20771469333333337,0.4500061866666667,0.2760336512157146,0.6304947898264124,0.6439067667403513,0.6458682704704815
LBP05_S04,LBP05,-1555,96,4,95,-1555,1715799484.8,2024-05-15 18:58:04.800000+00:00,2024-05-16 03:58:04.800000+09:00,2024,5,15,18,58,4,800,,,,,,,,,-0.478027,-0.251953,1.702881,29.052734,15.014648,4.272461,,,,,,,,,,,0.0,1.0,1.0,4.0,0.0,0.0,0.0,5.0,0.0,-0.14278968,-0.17689785333333333,1.0348828133333332,-4.033203146666668,2.0320637599999993,-1.67887368,14.00641679633254,8.17100494556176,1.4305171199311522,7.870696895255656,-0.8066290294490039,14.097663764681865,16.1660954973723,-2.2523350480533324,15.765437149991204,-2.224925228937721,-0.33523731999999995,-0.07505514666666666,0.6679981866666669,1.0782906533333336,0.7511583808704342,0.630549424709877,0.6419023924011904,0.6476528486128535
LBP05_S04,LBP05,-1554,97,4,96,-1554,1715799484.84,2024-05-15 18:58:04.840000+00:00,2024-05-16 03:58:04.840000+09:00,2024,5,15,18,58,4,840,,,,,,,,,-0.275146,-0.289062,1.650635,38.635254,-2.258301,2.502441,,,,,,,,,,,0.0,1.0,1.0,4.0,0.0,0.0,0.0,5.0,0.0,-0.14340490666666666,-0.178239,1.0233235733333332,-4.556477893333334,2.6643879866666667,-1.97672524,9.432661320755855,9.177386287089822,0.9415918334397914,8.24800334808589,-0.43953357796541104,14.135327438019457,16.371628836991782,-2.250865307248612,15.877653867228554,-2.22028251218396,-0.13174109333333334,-0.11082299999999998,0.6273114266666668,0.8698755200000001,0.6505052490397222,0.6321725874628671,0.6477695504886891,0.647700388619968
LBP05_S04,LBP05,-1553,98,4,97,-1553,1715799484.88,2024-05-15 18:58:04.880000+00:00,2024-05-16 03:58:04.880000+09:00,2024,5,15,18,58,4,880,,,,,,,,,-0.178223,-0.090088,1.022461,-5.859375,78.430176,16.723633,,,,,,,,,,,0.0,1.0,1.0,4.0,0.0,0.0,0.0,5.0,0.0,-0.13817378666666666,-0.17384446666666667,1.0010839866666668,-4.815266960000001,2.3030598666666657,-2.062174466666667,3.6515907537992733,9.289955323982545,0.2718680973399748,8.394066978237861,-0.06793536500610925,14.146202161913056,16.449316437307523,-2.2450077502752697,15.916702919169785,-2.219846717370606,-0.04004921333333333,0.08375646666666667,0.021377013333333306,0.1451826933333333,0.09526836776263566,0.6197310115823753,0.6352232314057578,0.6386441259829627
LBP05_S04,LBP05,-1552,99,4,98,-1552,1715799484.92,2024-05-15 18:58:04.920000+00:00,2024-05-16 03:58:04.920000+09:00,2024,5,15,18,58,4,920,,,,,,,,,-0.409912,0.338135,0.171631,-67.504883,44.433594,-28.381348,,,,,,,,,,,0.0,1.0,1.0,4.0,0.0,0.0,0.0,5.0,0.0,-0.13304357333333333,-0.17221034666666665,0.9848079466666667,-4.750162786666667,1.0847981466666665,-2.3779296800000003,-2.627093508413254,8.482728543480498,-0.6021699039837026,8.28898323790133,0.2713737767331107,14.122115365753707,16.377271727872277,-2.231496118795461,15.86797511844316,-2.2252532571240944,-0.27686842666666667,0.5103453466666666,-0.8131769466666667,1.60039072,0.9991822882434008,0.6319977414950985,0.6408888967064903,0.6444592576323245
LBP05_S04,LBP05,-1551,100,4,99,-1551,1715799484.96,2024-05-15 18:58:04.960000+00:00,2024-05-16 03:58:04.960000+09:00,2024,5,15,18,58,4,960,,,,,,,,,0.042236,-0.518311,0.453369,-100.463867,-78.735352,-7.019043,,,,,,,,,,,0.0,1.0,1.0,4.0,0.0,0.0,0.0,5.0,0.0,-0.12500646666666665,-0.17434576,0.9844238399999998,-3.214518253333333,-0.5029297200000004,-2.3803710933333337,-8.846836045109692,6.949017492082507,-1.6619368826533711,7.935109796096943,0.549334476416411,14.055637890447573,16.15019171249923,-2.196372149718441,15.72506409772694,-2.2304762116967396,0.16724246666666664,-0.34396523999999995,-0.5310548399999998,1.0422625466666664,0.6544473791470434,0.6281633094310111,0.6420381091978135,0.6446177992436692
LBP05_S04,LBP05,-1550,101,4,100,-1550,1715799485.0,2024-05-15 18:58:05+00:00,2024-05-16 03:58:05+09:00,2024,5,15,18,58,5,0,18.0,58.0,5.0,40.937897,141.726929,13.351,3.0,9.0,0.426025,-0.604736,0.840088,44.616699,-60.119629,10.375977,-554.0,21.0,561.0,0.0,0.0,1020.200012,16.629999,0.07135,-57.669693,3.944531,0.0,1.0,1.0,4.0,0.0,0.0,0.0,7.0,0.0,-0.12372065333333332,-0.17517909333333334,1.0031705733333334,-1.5397135599999996,0.20507809333333304,-2.2322591066666666,-14.680079525701979,4.962818397655451,-2.842615459297599,7.3479066150688634,0.747847212322629,13.94193327207567,15.777468442046148,-2.1892311810087492,15.491931256172407,-2.23314053554468,0.5497456533333334,-0.4295569066666667,-0.16308257333333342,1.1423851333333335,0.7164742459774469,0.6424724003775593,0.6463396132632169,0.6457405562238845
LBP05_S04,LBP05,-1549,102,4,101,-1549,1715799485.04,2024-05-15 18:58:05.040000+00:00,2024-05-16 03:58:05.040000+09:00,2024,5,15,18,58,5,40,,,,,,,,,0.014893,0.506592,1.0979,80.01709,46.813965,5.187988,,,,,,,,,,,0.0,1.0,1.0,4.0,0.0,0.0,0.0,7.0,0.0,-0.13262365333333334,-0.17629237333333334,1.02156576,-2.310384133333333,1.0628254799999999,-2.31201172,-19.931515571125672,2.7350227120577135,-4.0291951072301915,6.550645992223837,0.8572481208049375,13.78076546778646,15.282517270862074,-2.2188007396428837,15.183108137444586,-2.231668334996671,0.14751665333333333,0.6828843733333334,0.07633424,0.9067352666666667,0.7027938151050448,0.6415476497720596,0.648733602290521,0.6466182986682101
LBP05_S04,LBP05,-1548,103,4,102,-1548,1715799485.08,2024-05-15 18:58:05.080000+00:00,2024-05-16 03:58:05.080000+09:00,2024,5,15,18,58,5,80,,,,,,,,,-0.537109,-0.413086,1.731201,-56.091309,18.493652,-1.403809,,,,,,,,,,,0.0,1.0,1.0,4.0,0.0,0.0,0.0,7.0,0.0,-0.14111649333333331,-0.17820644000000002,1.03292644,-3.0525716399999996,1.40950516,-2.5024414000000004,-24.347484954157945,0.3710862901687863,-5.060237363390958,5.576746594057519,0.872091572411689,13.578355973250822,14.704842645241735,-2.243199866370036,14.820869477122576,-2.228983258568926,-0.39599250666666663,-0.23487956,0.69827456,1.3291466266666667,0.8364005225877954,0.6470590713092693,0.6459548010195171,0.6494937869094158
LBP05_S04,LBP05,-1547,104,4,103,-1547,1715799485.12,2024-05-15 18:58:05.120000+00:00,2024-05-16 03:58:05.120000+09:00,2024,5,15,18,58,5,120,,,,,,,,,-0.345215,-0.343018,1.838867,3.90625,-40.588379,-3.479004,,,,,,,,,,,0.0,1.0,1.0,4.0,0.0,0.0,0.0,7.0,0.0,-0.14353185333333335,-0.17805669333333335,1.0261849066666668,-3.220214866666666,2.0231119333333334,-2.712402333333334,-27.48898793452152,-2.047014424428797,-5.754947029586589,4.477187076676658,0.7902109954345371,13.348158092067358,14.101168816367295,-2.251761679691521,14.43041293928728,-2.222041866851829,-0.20168314666666665,-0.16496130666666664,0.8126820933333332,1.1793265466666665,0.8534286784325863,0.6580441638782419,0.65279960023497,0.6525375912605079
LBP05_S04,LBP05,-1546,105,4,104,-1546,1715799485.16,2024-05-15 18:58:05.160000+00:00,2024-05-16 03:58:05.160000+09:00,2024,5,15,18,58,5,160,,,,,,,,,-0.181396,-0.051025,1.22876,-24.719238,63.293457,-6.591797,,,,,,,,,,,0.0,1.0,1.0,4.0,0.0,0.0,0.0,7.0,0.0,-0.13951168,-0.17285161333333332,1.0024869866666666,-3.9697265866666656,1.9742838133333331,-2.609049466666667,-28.785719163780474,-4.327481551220945,-5.967479651889338,3.3257583101254387,0.6171117333856992,13.109458905991785,13.53881117516372,-2.2523355146424904,14.035628562495841,-2.2213687781993214,-0.04188432,0.12182661333333332,0.2262730133333335,0.3899839466666668,0.26037568346732926,0.6516000871008473,0.6488489090261105,0.6467705043811965
LBP05_S04,LBP05,-1545,106,4,105,-1545,1715799485.2,2024-05-15 18:58:05.200000+00:00,2024-05-16 03:58:05.200000+09:00,2024,5,15,18,58,5,200,,,,,,,,,-0.47168,0.095947,0.193604,-34.301758,84.655762,-40.95459,,,,,,,,,,,0.0,1.0,1.0,4.0,0.0,0.0,0.0,7.0,0.0,-0.13427405333333334,-0.17158208,0.9831803466666665,-3.72395836,1.2443033466666666,-2.5065104133333334,-27.768595525662324,-6.095410908705326,-5.648658199756085,2.2150144890989454,0.3732952970374862,12.883512578001541,13.077864310094078,-2.2376130425732472,13.657309742581072,-2.225200930059079,-0.3374059466666667,0.26752908,-0.7895763466666665,1.3945113733333332,0.8993583205303411,0.6576579716296486,0.6479312542862132,0.6504311973688652
LBP05_S04,LBP05,-1544,107,4,106,-1544,1715799485.24,2024-05-15 18:58:05.240000+00:00,2024-05-16 03:58:05.240000+09:00,2024,5,15,18,58,5,240,,,,,,,,,-0.028564,-0.193604,0.307861,-122.375488,-88.806152,-14.038086,,,,,,,,,,,0.0,1.0,1.0,4.0,0.0,0.0,0.0,7.0,0.0,-0.12866533333333335,-0.16916997333333333,0.9752181066666666,-3.6914062799999994,-0.7006836266666668,-2.98339844,-24.36569081293982,-6.85982739491569,-4.878462901257342,1.2403868565813525,0.09890220124085863,12.688374061951247,12.749242233771671,-2.224014542971162,13.313446628170974,-2.232605642976709,0.10010133333333335,-0.024434026666666664,-0.6673571066666666,0.7918924666666666,0.6752649897727284,0.645748143239942,0.648147690415988,0.6507859658317777
LBP05_S04,LBP05,-1543,108,4,107,-1543,1715799485.28,2024-05-15 18:58:05.280000+00:00,2024-05-16 03:58:05.280000+09:00,2024,5,15,18,58,5,280,,,,,,,,,0.35791,-0.430176,0.683105,-87.585449,-103.69873,14.099121,,,,,,,,,,,0.0,1.0,1.0,4.0,0.0,0.0,0.0,7.0,0.0,-0.12186194666666668,-0.17778325333333334,0.9897623733333334,-2.0507812799999994,-0.5436198266666666,-3.3138020933333334,-19.093728454812453,-6.215982121853853,-3.8393880647863003,0.4766377183888544,-0.1497370836332955,12.534798539359794,12.544751058954592,-2.1755938331042968,13.0197774291353,-2.2374510533174536,0.47977194666666667,-0.25239274666666667,-0.3066573733333334,1.0388220666666668,0.6228338173204522,0.6561087348495284,0.6469321184751955,0.6503922735992238
LBP05_S04,LBP05,-1542,109,4,108,-1542,1715799485.32,2024-05-15 18:58:05.320000+00:00,2024-05-16 03:58:05.320000+09:00,2024,5,15,18,58,5,320,,,,,,,,,0.2229,-0.285645,1.044922,68.359375,18.432617,23.803711,,,,,,,,,,,0.0,1.0,1.0,4.0,0.0,0.0,0.0,7.0,0.0,-0.12981117333333334,-0.17035486666666666,1.00735352,-0.5957031466666663,0.6315103733333332,-3.4513346533333333,-13.006820464574169,-4.075854916685928,-2.7345768205945067,-0.04363510019411243,-0.3127712803007326,12.425415466536014,12.429427959957865,-2.2247652322703884,12.78903491255375,-2.239216611416441,0.35271117333333335,-0.11529013333333332,0.037568480000000015,0.5055697866666666,0.3729723546426798,0.6446711425553383,0.6455483203733007,0.6465392191692718
LBP05_S04,LBP05,-1541,110,4,109,-1541,1715799485.36,2024-05-15 18:58:05.360000+00:00,2024-05-16 03:58:05.360000+09:00,2024,5,15,18,58,5,360,,,,,,,,,-0.568848,-0.14502,1.596924,23.010254,41.503906,8.789062,,,,,,,,,,,0.0,1.0,1.0,4.0,0.0,0.0,0.0,7.0,0.0,-0.13792966666666664,-0.17732426666666667,1.0218131466666664,-2.4519857066666666,1.1271158399999999,-3.0501302266666666,-7.381799707362804,-0.7791396576005652,-1.696046625979203,-0.3389070884886246,-0.3439368666047552,12.357573601496846,12.367003513351545,-2.2346936683160203,12.628698324420762,-2.237250563305801,-0.4309183333333334,0.032304266666666664,0.5751108533333336,1.0383334533333337,0.7193654629390015,0.642468991549409,0.6419559441045934,0.6475368389469393
LBP05_S04,LBP05,-1540,111,4,110,-1540,1715799485.4,2024-05-15 18:58:05.400000+00:00,2024-05-16 03:58:05.400000+09:00,2024,5,15,18,58,5,400,,,,,,,,,-0.420166,-0.531006,1.797852,42.236328,-61.462402,0.610352,,,,,,,,,,,0.0,1.0,1.0,4.0,0.0,0.0,0.0,7.0,0.0,-0.14238930666666666,-0.17241541333333332,1.0206477866666668,-2.1647135733333336,2.1923827599999997,-2.8702799600000004,-3.273648769898954,2.994902727268542,-0.7430704831617966,-0.4698530392845828,-0.22414075751401352,12.327850782170374,12.33883729794516,-2.2632783101850467,12.538486541775695,-2.2314151495101915,-0.2777766933333333,-0.35859058666666666,0.7772042133333332,1.4135714933333332,0.8998852645911202,0.6507547053361248,0.646884774419542,0.6509469528069958
LBP05_S04,LBP05,-1539,112,4,111,-1539,1715799485.44,2024-05-15 18:58:05.440000+00:00,2024-05-16 03:58:05.440000+09:00,2024,5,15,18,58,5,440,,,,,,,,,-0.152588,0.038818,1.393066,54.260254,44.921875,-11.108398,,,,,,,,,,,0.0,1.0,1.0,4.0,0.0,0.0,0.0,7.0,0.0,-0.14047850666666667,-0.16870122666666668,1.00125,-3.8964844133333325,2.2395832799999997,-2.93212892,-1.160937791629419,6.473419725419943,0.17813271508096684,-0.5162905509497595,0.03479603150278421,12.334976090773614,12.345825280505352,-2.267254843050326,12.509443808787648,-2.230711042737709,-0.012109493333333332,0.20751922666666667,0.39181599999999994,0.6114447199999999,0.44354328663741643,0.6447586930772549,0.6484203143346987,0.6481815705914015
LBP05_S04,LBP05,-1538,113,4,112,-1538,1715799485.48,2024-05-15 18:58:05.480000+00:00,2024-05-16 03:58:05.480000+09:00,2024,5,15,18,58,5,480,,,,,,,,,-0.379883,-0.150391,0.434082,-19.53125,143.737793,-22.216797,,,,,,,,,,,0.0,1.0,1.0,4.0,0.0,0.0,0.0,7.0,0.0,-0.13656574666666665,-0.1661979733333333,0.9834863333333334,-4.524739626666666,1.591796813333333,-3.2503255466666667,-0.854559366644434,9.069759735904917,1.0957747623410925,-0.5504729256155368,0.3975864209389809,12.378807081267258,12.397417479426238,-2.2608554473599085,12.525720006223896,-2.2343924228319074,-0.24331725333333337,0.015806973333333307,-0.5494043333333334,0.8085285600000001,0.6010809160679473,0.6480828563733566,0.640955163139392,0.6447757122940303
LBP05_S04,LBP05,-1537,114,4,113,-1537,1715799485.52,2024-05-15 18:58:05.520000+00:00,2024-05-16 03:58:05.520000+09:00,2024,5,15,18,58,5,520,,,,,,,,,-0.129883,-0.070312,0.225342,-97.53418,-45.166016,-23.498535,,,,,,,,,,,0.0,1.0,1.0,4.0,0.0,0.0,0.0,7.0,0.0,-0.13041014666666667,-0.16856450666666664,0.9750260533333333,-3.524576866666666,0.23193353333333297,-3.3398437733333335,-1.6951484683443165,10.562011938898051,1.9181453759285554,-0.6182788643493096,0.8200668984949029,12.4555328963044,12.49780293503739,-2.232101198585126,12.56829753960346,-2.2440853118359083,0.0005271466666666724,0.09825250666666664,-0.7496840533333333,0.8484637066666666,0.7560952405432716,0.6433704556877308,0.644264290714854,0.643007882597573
LBP05_S04,LBP05,-1536,115,4,114,-1536,1715799485.56,2024-05-15 18:58:05.560000+00:00,2024-05-16 03:58:05.560000+09:00,2024,5,15,18,58,5,560,,,,,,,,,0.369629,-0.442383,0.72168,-79.223633,-89.84375,13.48877,,,,,,,,,,,0.0,1.0,1.0,4.0,0.0,0.0,0.0,7.0,0.0,-0.12251301333333332,-0.17170578666666667,0.98488608,-2.2762044799999996,-0.6551107466666671,-3.2836914266666666,-2.9086121137286,11.091910814380128,2.408287793406793,-0.7346233488984536,1.263743331070108,12.551864408040672,12.63669334871307,-2.1939813766863905,12.618557164806482,-2.2484759060868953,0.4921420133333333,-0.2706772133333334,-0.26320608,1.0260253066666667,0.6202800622740119,0.6464347995491149,0.6443167470771384,0.6491953391226309
LBP05_S04,LBP05,-1535,116,4,115,-1535,1715799485.6,2024-05-15 18:58:05.600000+00:00,2024-05-16 03:58:05.600000+09:00,2024,5,15,18,58,5,600,,,,,,,,,0.179443,-0.0625,1.198242,109.069824,47.302246,26.733398,,,,,,,,,,,0.0,1.0,1.0,4.0,0.0,0.0,0.0,7.0,0.0,-0.1294694,-0.16782558666666667,1.0024316533333333,-0.8789062933333328,0.5997720666666663,-3.4301758,-3.920546865076715,11.01070050275694,2.252901290306361,-0.8914452235015222,1.7041713511803858,12.641980459652926,12.78743698021359,-2.2305719748484187,12.660162338412622,-2.2516254213252473,0.3089124,0.10532558666666667,0.19581034666666675,0.6100483333333334,0.3806074643805054,0.6436959531973795,0.6447112882945032,0.6402993156231146
LBP05_S04,LBP05,-1534,117,4,116,-1534,1715799485.64,2024-05-15 18:58:05.640000+00:00,2024-05-16 03:58:05.640000+09:00,2024,5,15,18,58,5,640,,,,,,,,,-0.616699,-0.242432,1.719482,-41.137695,41.564941,17.39502,,,,,,,,,,,0.0,1.0,1.0,4.0,0.0,0.0,0.0,7.0,0.0,-0.13978190666666665,-0.17010424000000002,1.0181543066666667,-0.9098307733333332,1.2858072266666662,-3.6726888266666666,-4.49154597337688,10.683737578300821,1.1936929072339981,-1.0711070624365975,2.1315208543124187,12.689728175942285,12.912004208134142,-2.260828343913155,12.679480261765594,-2.250017587377453,-0.4769170933333333,-0.07232775999999999,0.7013276933333332,1.2505725466666666,0.8512001833977638,0.6381856098137755,0.6425753623097549,0.6429885652609764
LBP05_S04,LBP05,-1533,118,4,117,-1533,1715799485.68,2024-05-15 18:58:05.680000+00:00,2024-05-16 03:58:05.680000+09:00,2024,5,15,18,58,5,680,,,,,,,,,-0.499268,-0.461426,1.906006,10.681152,-66.772461,-5.187988,,,,,,,,,,,0.0,1.0,1.0,4.0,0.0,0.0,0.0,7.0,0.0,-0.14442382666666664,-0.17155281333333333,1.0217675866666664,-1.7968750399999995,1.6284179066666662,-3.8338216399999996,-4.67131260232618,10.36140481974135,-0.8473946230120362,-1.2579595665296446,2.5459770471020726,12.655832391021804,12.970526392750246,-2.272522723144302,12.665685280659728,-2.245045381210465,-0.35484417333333335,-0.28987318666666667,0.8842384133333336,1.5289557733333337,0.9959008099761524,0.6504272557319752,0.6455104073847245,0.6485901430297493
LBP05_S04,LBP05,-1532,119,4,118,-1532,1715799485.72,2024-05-15 18:58:05.720000+00:00,2024-05-16 03:58:05.720000+09:00,2024,5,15,18,58,5,720,,,,,,,,,-0.188477,0.171875,1.412354,79.833984,38.696289,-6.591797,,,,,,,,,,,0.0,1.0,1.0,4.0,0.0,0.0,0.0,7.0,0.0,-0.14322265333333334,-0.17151049333333332,1.0055468933333334,-2.502441453333333,2.4462889999999993,-4.473470079999999,-4.668359482944013,10.150928900892042,-3.7101431641390836,-1.444693945847405,2.9520142031377543,12.50742666445624,12.932024211988088,-2.268671174780261,12.611240070532151,-2.2415224798825992,-0.04525434666666667,0.34338549333333335,0.40680710666666675,0.7954469466666667,0.5342785555854814,0.6467493996203211,0.6511319226383833,0.6512077706076732
LBP05_S04,LBP05,-1531,120,4,119,-1531,1715799485.76,2024-05-15 18:58:05.760000+00:00,2024-05-16 03:58:05.760000+09:00,2024,5,15,18,58,5,760,,,,,,,,,-0.340088,-0.170166,0.445801,-73.669434,137.451172,-12.390137,,,,,,,,,,,0.0,1.0,1.0,4.0,0.0,0.0,0.0,7.0,0.0,-0.13759766666666667,-0.16560554666666666,0.98393556,-3.748372453333333,2.5130207599999994,-4.671223973333333,-4.7350412468144105,10.055110960394147,-7.025059893915007,-1.6340955957199814,3.35421864155352,12.22642426869964,12.783055249412955,-2.266188820699538,12.512543859876077,-2.242557617609301,-0.20249033333333333,-0.004560453333333353,-0.53813456,0.7451853466666667,0.5749886411873226,0.6587075992191855,0.6446011945227988,0.6488403775666294
LBP05_S04,LBP05,-1530,121,4,120,-1530,1715799485.8,2024-05-15 18:58:05.800000+00:00,2024-05-16 03:58:05.800000+09:00,2024,5,15,18,58,5,800,,,,,,,,,-0.102783,-0.342041,0.264893,-98.449707,-61.462402,-15.380859,,,,,,,,,,,0.0,1.0,1.0,4.0,0.0,0.0,0.0,7.0,0.0,-0.13374350666666668,-0.16748705333333333,0.9725455866666666,-4.92919928,0.961100186666666,-4.501953133333333,-5.10305221132966,10.015348150142426,-10.307400284552454,-1.8382176841731679,3.754832567559217,11.814128257317542,12.532016531474858,-2.2471999707071038,12.37011868401414,-2.25196200407403,0.03096050666666668,-0.17455394666666665,-0.7076525866666665,0.9131670399999998,0.7295202647534819,0.6578420745745074,0.6441957496421922,0.647215619792296
LBP05_S04,LBP05,-1529,122,4,121,-1529,1715799485.84,2024-05-15 18:58:05.840000+00:00,2024-05-16 03:58:05.840000+09:00,2024,5,15,18,58,5,840,,,,,,,,,0.331299,-0.317383,0.622314,29.846191,-78.369141,-13.000488,,,,,,,,,,,0.0,1.0,1.0,4.0,0.0,0.0,0.0,7.0,0.0,-0.12527670666666668,-0.16694344,0.9813281333333334,-2.8043620399999996,-0.43294278666666725,-4.055989586666667,-5.937078938616281,9.914993414480287,-13.07530777037231,-2.0757008417178193,4.151432304138428,11.29111594650265,12.207875469446703,-2.217532781380449,12.18798284623755,-2.25714490961553,0.4565757066666667,-0.15043956000000003,-0.3590141333333333,0.9660294,0.5999871540826888,0.6558213507762259,0.6439969691195466,0.6504534839178682
LBP05_S04,LBP05,-1528,123,4,122,-1528,1715799485.88,2024-05-15 18:58:05.880000+00:00,2024-05-16 03:58:05.880000+09:00,2024,5,15,18,58,5,880,,,,,,,,,0.121338,0.18042,1.004639,110.168457,40.405273,-16.296387,,,,,,,,,,,0.0,1.0,1.0,4.0,0.0,0.0,0.0,7.0,0.0,-0.12691408,-0.16622078666666668,0.9988118666666665,-1.2988281866666662,0.9903970533333326,-3.6246744800000004,-7.264738317461291,9.559353561695396,-14.95546083666791,-2.366290374416271,4.533806446606244,10.692897513035934,11.852965378150461,-2.2256264340812497,11.97244353286747,-2.26065307152063,0.24825208,0.34664078666666664,0.005827133333333512,0.6007200000000001,0.4264069484519411,0.6690668940037982,0.6443989527930869,0.6465044522717712
LBP05_S04,LBP05,-1527,124,4,123,-1527,1715799485.92,2024-05-15 18:58:05.920000+00:00,2024-05-16 03:58:05.920000+09:00,2024,5,15,18,58,5,920,,,,,,,,,-0.492676,-0.288086,1.662842,-59.326172,51.757812,-5.737305,,,,,,,,,,,0.0,1.0,1.0,4.0,0.0,0.0,0.0,7.0,0.0,-0.13634116000000002,-0.17241218666666666,1.017487,-0.027669333333332987,2.1183267333333324,-3.6848958266666667,-8.900994011012306,8.694993570419983,-15.754484497724038,-2.7223301348567635,4.881606189423043,10.062718133126973,11.510840828476649,-2.2424525758521425,11.730853196398936,-2.262151360531251,-0.35633484,-0.11567381333333335,0.6453549999999999,1.1173636533333333,0.7462158034468985,0.6589482346119381,0.6454729880535183,0.6469086760083063
LBP05_S04,LBP05,-1526,125,4,124,-1526,1715799485.96,2024-05-15 18:58:05.960000+00:00,2024-05-16 03:58:05.960000+09:00,2024,5,15,18,58,5,960,,,,,,,,,-0.539551,-0.171143,1.769043,8.361816,-37.902832,-31.188965,,,,,,,,,,,0.0,1.0,1.0,4.0,0.0,0.0,0.0,7.0,0.0,-0.14388022666666667,-0.16548184,1.0236198133333332,0.08219394666666706,1.9897459999999993,-3.650716146666667,-10.442566232841733,7.103875684794694,-15.48805216062268,-3.1400327841704327,5.165761216814831,9.443196046702067,11.212441590093698,-2.2880252413336812,11.4706456911856,-2.2590428484509477,-0.39567077333333334,-0.005661159999999998,0.7454231866666667,1.1467551200000001,0.8439449844764954,0.6665281388251162,0.6473457241280636,0.6502014524069144
LBP05_S04,LBP05,-1525,126,4,125,-1525,1715799486.0,2024-05-15 18:58:06+00:00,2024-05-16 03:58:06+09:00,2024,5,15,18,58,6,0,18.0,58.0,6.0,40.93792,141.727005,13.521,3.0,9.0,-0.229492,-0.244141,1.463379,-30.761719,26.245117,-15.319824,-557.0,24.0,560.0,0.0,0.0,1020.0,16.700001,0.069368,-56.014488,3.944531,0.0,1.0,1.0,4.0,0.0,0.0,0.0,5.0,0.0,-0.14272462666666666,-0.1660808,1.0133594,-1.2955729733333328,2.418619706666666,-3.7630208266666667,-11.38265351741794,4.734772989581162,-14.366736912433172,-3.5953389248671503,5.355152136398077,8.86852657020474,10.966078602447697,-2.282401030263419,11.198509178607669,-2.2555950811182535,-0.08676737333333334,-0.0780602,0.4500196000000001,0.6148471733333334,0.4649081761846807,0.6564654960334054,0.6494689482054825,0.6497149075199463
LBP05_S04,LBP05,-1524,127,4,126,-1524,1715799486.04,2024-05-15 18:58:06.040000+00:00,2024-05-16 03:58:06.040000+09:00,2024,5,15,18,58,6,40,,,,,,,,,-0.363281,-0.122803,0.492676,-32.043457,111.694336,-15.808105,,,,,,,,,,,0.0,1.0,1.0,4.0,0.0,0.0,0.0,5.0,0.0,-0.13949546666666668,-0.15784512,0.9903483333333334,-2.535807346666666,2.325032466666666,-4.367675773333334,-11.308072952961018,1.7908611166945738,-12.740823359511461,-4.047661842985591,5.42678658106586,8.35889363582428,10.756611074433327,-2.2959099629641546,10.919405803744024,-2.254292153339917,-0.22378553333333334,0.03504212000000001,-0.4976723333333334,0.7564999866666667,0.5467958178962449,0.6502255761450536,0.6458866129585565,0.6492309269086985
LBP05_S04,LBP05,-1523,128,4,127,-1523,1715799486.08,2024-05-15 18:58:06.080000+00:00,2024-05-16 03:58:06.080000+09:00,2024,5,15,18,58,6,80,,,,,,,,,-0.107666,-0.206299,0.208496,-80.383301,-60.058594,-3.234863,,,,,,,,,,,0.0,1.0,1.0,4.0,0.0,0.0,0.0,5.0,0.0,-0.13737306666666665,-0.15817064,0.9746517200000001,-3.5587565599999995,1.0701496533333326,-5.0724283733333335,-10.07468836290996,-1.2938627717401205,-11.012721232496965,-4.45064937750199,5.375032070196255,7.918384786524402,10.554623028064913,-2.2875056132505076,10.635480965149316,-2.260195493114036,0.029707066666666657,-0.04812836000000001,-0.7661557200000001,0.8439911466666667,0.7682404806666633,0.6474991744682083,0.6472791228887388,0.6464695921690808
LBP05_S04,LBP05,-1522,129,4,128,-1522,1715799486.12,2024-05-15 18:58:06.120000+00:00,2024-05-16 03:58:06.120000+09:00,2024,5,15,18,58,6,120,,,,,,,,,0.26001,-0.104004,0.487549,-3.90625,-100.402832,2.929688,,,,,,,,,,,0.0,1.0,1.0,4.0,0.0,0.0,0.0,5.0,0.0,-0.12892254666666667,-0.16469082666666668,0.9763802400000001,-2.341308639999999,-0.7405599733333342,-5.5753580666666664,-7.861732591986652,-3.9988453090265716,-9.537798401455648,-4.765118681181456,5.215078257835192,7.5368728504661755,10.329949159854756,-2.23758605397723,10.345390777916691,-2.2659985885682987,0.38893254666666666,0.06068682666666668,-0.4888312400000001,0.9384506133333335,0.6276204250878286,0.6384668443344179,0.6482555041063298,0.648022014934786
LBP05_S04,LBP05,-1521,130,4,129,-1521,1715799486.16,2024-05-15 18:58:06.160000+00:00,2024-05-16 03:58:06.160000+09:00,2024,5,15,18,58,6,160,,,,,,,,,0.325684,-0.120605,0.944092,123.901367,16.357422,-5.432129,,,,,,,,,,,0.0,1.0,1.0,4.0,0.0,0.0,0.0,5.0,0.0,-0.12765953333333332,-0.16507169333333335,0.99296552,-1.5201823466666664,0.2815754533333324,-5.384928386666667,-5.075689572743075,-5.913814924744487,-8.544409729996817,-4.968146264091179,4.978525660845413,7.195096461266303,10.061690123633618,-2.231711147372597,10.04474637377029,-2.2715396595108577,0.4533435333333333,0.04446669333333335,-0.048873520000000004,0.5466837466666667,0.4581334598000262,0.6463771553877258,0.6489886212442866,0.648024991146649
LBP05_S04,LBP05,-1520,131,4,130,-1520,1715799486.2,2024-05-15 18:58:06.200000+00:00,2024-05-16 03:58:06.200000+09:00,2024,5,15,18,58,6,200,,,,,,,,,-0.326172,0.053711,1.549072,-12.390137,45.715332,-2.746582,,,,,,,,,,,0.0,1.0,1.0,4.0,0.0,0.0,0.0,5.0,0.0,-0.13568036,-0.17461596000000001,1.0102539333333334,-1.3867187999999995,2.053222586666666,-4.978027346666667,-2.170747468187184,-6.8775163107819175,-8.100385348159483,-5.054976162818667,4.703425008414136,6.871081047339923,9.74098278283841,-2.2341706929237386,9.727976330028822,-2.2709231536889223,-0.19049164000000002,0.22832696000000002,0.5388180666666667,0.9576366666666667,0.6154227608231074,0.6350197329994365,0.6463388523145426,0.6436274138572876
LBP05_S04,LBP05,-1519,132,4,131,-1519,1715799486.24,2024-05-15 18:58:06.240000+00:00,2024-05-16 03:58:06.240000+09:00,2024,5,15,18,58,6,240,,,,,,,,,-0.580811,-0.347412,1.755615,-27.587891,-65.734863,-33.691406,,,,,,,,,,,0.0,1.0,1.0,4.0,0.0,0.0,0.0,5.0,0.0,-0.14654298666666668,-0.17262702666666668,1.0232747733333334,-0.6510417199999995,2.1573892533333323,-4.821777346666667,0.4942368048597141,-6.98707671423223,-8.133731321515716,-5.035206690624278,4.423941939844847,6.545731794479295,9.368627083499632,-2.27656617912164,9.391070175816205,-2.2702784030493826,-0.4342680133333333,-0.17478497333333332,0.7323402266666665,1.3413932133333333,0.8691724235741713,0.6427760303514942,0.6442620867957182,0.6463571370611567
LBP05_S04,LBP05,-1518,133,4,132,-1518,1715799486.28,2024-05-15 18:58:06.280000+00:00,2024-05-16 03:58:06.280000+09:00,2024,5,15,18,58,6,280,,,,,,,,,-0.064941,-0.350098,1.558594,-24.780273,-9.887695,-5.737305,,,,,,,,,,,0.0,1.0,1.0,4.0,0.0,0.0,0.0,5.0,0.0,-0.14788086666666667,-0.1716634933333333,1.0230892266666667,-1.5836589066666664,1.9563801333333322,-4.854329426666666,2.6858987239580667,-6.493400323503143,-8.490334996116928,-4.927770741665956,4.164205926904722,6.2061183946346175,8.952063505824208,-2.2836573886238773,9.033908403992456,-2.2628482505505927,0.08293986666666667,-0.17843450666666671,0.5355047733333334,0.7968791466666667,0.5705113994609099,0.6406831336371124,0.6483959342433203,0.6448491235291678
LBP05_S04,LBP05,-1517,134,4,133,-1517,1715799486.32,2024-05-15 18:58:06.320000+00:00,2024-05-16 03:58:06.320000+09:00,2024,5,15,18,58,6,320,,,,,,,,,-0.252441,-0.120117,0.537354,-10.803223,125.244141,-1.89209,,,,,,,,,,,0.0,1.0,1.0,4.0,0.0,0.0,0.0,5.0,0.0,-0.14857097333333333,-0.16748381333333334,1.0034798533333336,-2.281901093333333,2.931315039999999,-4.7664388,4.241219970833909,-5.6580542991510425,-8.997837177940564,-4.7581219428326,3.9378837549386803,5.846204907516995,8.504396787012634,-2.297863285277728,8.660867938923868,-2.2590929483990188,-0.1038700266666667,0.04736681333333334,-0.46612585333333356,0.6173626933333336,0.47990197810679763,0.6449603185756773,0.6448157305655077,0.6453523197740929
LBP05_S04,LBP05,-1516,135,4,134,-1516,1715799486.36,2024-05-15 18:58:06.360000+00:00,2024-05-16 03:58:06.360000+09:00,2024,5,15,18,58,6,360,,,,,,,,,-0.166504,-0.01001,0.117676,-36.254883,-32.775879,-8.422852,,,,,,,,,,,0.0,1.0,1.0,4.0,0.0,0.0,0.0,5.0,0.0,-0.14649416,-0.17072601333333334,0.9857291999999999,-2.1370443199999998,2.334798119999999,-5.043945306666666,5.021344693685215,-4.656490477497408,-9.511234424385592,-4.557268155085191,3.751624135838784,5.465755530541571,8.044741152679025,-2.2818601831143295,8.279293800900819,-2.265451961508153,-0.02000984,0.16071601333333335,-0.8680531999999999,1.0487790533333332,0.8830324958170144,0.6515069998907976,0.6469879957201033,0.6451396293666616
LBP05_S04,LBP05,-1515,136,4,135,-1515,1715799486.4,2024-05-15 18:58:06.400000+00:00,2024-05-16 03:58:06.400000+09:00,2024,5,15,18,58,6,400,,,,,,,,,0.19043,-0.207031,0.420166,44.067383,-96.130371,-13.61084,,,,,,,,,,,0.0,1.0,1.0,4.0,0.0,0.0,0.0,5.0,0.0,-0.14110353333333334,-0.16643890666666666,0.9799023733333333,0.10579422666666688,0.22867831999999888,-5.8846028666666665,4.945665220562735,-3.578749453595389,-9.933460829609528,-4.359441546262681,3.6084741576949684,5.06841709735719,7.597017060321521,-2.2759535238680195,7.896643936395978,-2.2708241622335663,0.33153353333333335,-0.04059209333333333,-0.5597363733333334,0.9318620000000001,0.6518182334040827,0.6415843186433162,0.6461695119897205,0.6451179558274668
LBP05_S04,LBP05,-1514,137,4,136,-1514,1715799486.44,2024-05-15 18:58:06.440000+00:00,2024-05-16 03:58:06.440000+09:00,2024,5,15,18,58,6,440,,,,,,,,,0.385742,-0.019287,0.782715,77.270508,-23.742676,-11.962891,,,,,,,,,,,0.0,1.0,1.0,4.0,0.0,0.0,0.0,5.0,0.0,-0.13161785333333334,-0.17395518666666665,0.9924642266666666,0.37353512000000033,-0.3385417333333344,-5.993652346666667,4.095179520045716,-2.506863005761163,-10.216551243923247,-4.195634365460852,3.508199637464522,4.65975504760026,7.184993356195842,-2.2216084379762577,7.517812078456646,-2.276719422341417,0.5173598533333333,0.15466818666666665,-0.2097492266666665,0.8817772666666666,0.5792911218852812,0.6470142320532308,0.6458864625652428,0.647951620240876
LBP05_S04,LBP05,-1513,138,4,137,-1513,1715799486.48,2024-05-15 18:58:06.480000+00:00,2024-05-16 03:58:06.480000+09:00,2024,5,15,18,58,6,480,,,,,,,,,-0.195068,0.010742,1.44873,17.39502,53.833008,-3.601074,,,,,,,,,,,0.0,1.0,1.0,4.0,0.0,0.0,0.0,5.0,0.0,-0.13833334666666666,-0.17222992,1.00757816,2.56022132,1.2963866533333321,-6.053873706666667,2.799586712671196,-1.5822438492329287,-10.350259717554788,-4.083650896954004,3.4449098834952046,4.245744658898069,6.824218377379029,-2.249952591734768,7.143920625697295,-2.277068652892185,-0.05673465333333333,0.18297192,0.4411518400000001,0.6808584133333334,0.48094957150695705,0.6422089782707913,0.6451459173220739,0.6413731015165252
LBP05_S04,LBP05,-1512,139,4,138,-1512,1715799486.52,2024-05-15 18:58:06.520000+00:00,2024-05-16 03:58:06.520000+09:00,2024,5,15,18,58,6,520,,,,,,,,,-0.591797,-0.324219,1.794434,-64.086914,-20.935059,-20.996094,,,,,,,,,,,0.0,1.0,1.0,4.0,0.0,0.0,0.0,5.0,0.0,-0.14900717333333335,-0.16681650666666664,1.0197982133333332,1.8196614266666666,1.7350259733333322,-5.970865906666667,1.6141827301464102,-0.9858781672358236,-10.342351503084926,-4.019083587748147,3.4054747568057717,3.832050598774672,6.514207779624256,-2.301176185068579,6.77299843920825,-2.27406722118542,-0.44278982666666666,-0.15740249333333334,0.7746357866666669,1.374828106666667,0.9060347551235176,0.648206558854001,0.6457885072708659,0.6455783800945697
LBP05_S04,LBP05,-1511,140,4,139,-1511,1715799486.56,2024-05-15 18:58:06.560000+00:00,2024-05-16 03:58:06.560000+09:00,2024,5,15,18,58,6,560,,,,,,,,,-0.174072,-0.486084,1.696045,4.455566,-17.028809,-7.873535,,,,,,,,,,,0.0,1.0,1.0,4.0,0.0,0.0,0.0,5.0,0.0,-0.15175132,-0.17553721333333333,1.0252702266666667,1.1596679333333337,1.5836587866666654,-5.800781266666666,1.1632976681073028,-0.8351119581280024,-10.194650325681827,-3.9725516810238553,3.3720702784806518,3.4242645857473986,6.235191478585228,-2.285433154626726,6.402136703296714,-2.2665655089413397,-0.02232068000000001,-0.3105467866666667,0.6707747733333334,1.00364224,0.7395108626687232,0.6529757908697895,0.6497052952094522,0.6472030950080221
LBP05_S04,LBP05,-1510,141,4,140,-1510,1715799486.6,2024-05-15 18:58:06.600000+00:00,2024-05-16 03:58:06.600000+09:00,2024,5,15,18,58,6,600,,,,,,,,,-0.215332,0.038086,0.78125,-4.333496,115.234375,-2.685547,,,,,,,,,,,0.0,1.0,1.0,4.0,0.0,0.0,0.0,5.0,0.0,-0.14931968,-0.16998708,1.010127,1.5909830400000005,2.803548119999999,-5.451660173333334,1.9215912747350736,-1.0741329075899897,-9.88142876395712,-3.8956880300344525,3.3291049621770523,3.0290074351891136,5.952664203445086,-2.2931232940022457,6.030569381389621,-2.2612887317115264,-0.06601231999999999,0.20807308000000002,-0.228877,0.5029624,0.31628581084435137,0.6504029247283433,0.6470494389628615,0.6466085004391166
LBP05_S04,LBP05,-1509,142,4,141,-1509,1715799486.64,2024-05-15 18:58:06.640000+00:00,2024-05-16 03:58:06.640000+09:00,2024,5,15,18,58,6,640,,,,,,,,,-0.22168,-0.071777,0.062744,-46.020508,-9.338379,-3.234863,,,,,,,,,,,0.0,1.0,1.0,4.0,0.0,0.0,0.0,5.0,0.0,-0.14627932000000002,-0.17111012,0.9891895066666668,0.27506506666666686,2.5309244266666657,-5.2441406399999995,4.045743921536926,-1.4474060501541945,-9.340137831133,-3.7338582731729755,3.2712087201708844,2.6554019219437937,5.629712555906128,-2.2800584846293166,5.663455694111666,-2.2603825004330482,-0.07540067999999997,0.09933312000000001,-0.9264455066666668,1.1011793066666669,0.9348013736063152,0.6537469723366854,0.6459662910752304,0.6462992323187317
LBP05_S04,LBP05,-1508,143,4,142,-1508,1715799486.68,2024-05-15 18:58:06.680000+00:00,2024-05-16 03:58:06.680000+09:00,2024,5,15,18,58,6,680,,,,,,,,,0.064209,-0.13501,0.38916,52.856445,-95.581055,1.647949,,,,,,,,,,,0.0,1.0,1.0,4.0,0.0,0.0,0.0,5.0,0.0,-0.1398926133333333,-0.17289072,0.9809701066666666,1.9002278266666668,0.5672199999999991,-4.9235026133333335,7.334952771490266,-1.5974165873231285,-8.485502958997344,-3.440460162313365,3.207312056677959,2.3159818035838997,5.242841640933745,-2.25364307155623,5.315543365927672,-2.26742087205772,0.20410161333333332,0.03788072000000001,-0.5918101066666666,0.8337924399999999,0.627161558026159,0.6389974022586856,0.6447123289953305,0.6433394056760449
LBP05_S04,LBP05,-1507,144,4,143,-1507,1715799486.72,2024-05-15 18:58:06.720000+00:00,2024-05-16 03:58:06.720000+09:00,2024,5,15,18,58,6,720,,,,,,,,,0.328613,0.168701,0.588379,1.647949,-51.757812,-19.470215,,,,,,,,,,,0.0,1.0,1.0,4.0,0.0,0.0,0.0,5.0,0.0,-0.13048505333333332,-0.1719857733333333,0.9914388533333335,3.1803385066666667,-0.4524740133333344,-4.2724609466666665,11.326620841494488,-1.2425436246929202,-7.250837116880365,-2.9873953286535855,3.1576103116902425,2.025948318908685,4.795779427897277,-2.2228461628369254,5.0110849038593175,-2.2708498115442755,0.4590980533333333,0.3406867733333333,-0.4030598533333335,1.20284468,0.699496780169732,0.6456061312420556,0.6461777654311883,0.6492899921729408
LBP05_S04,LBP05,-1506,145,4,144,-1506,1715799486.76,2024-05-15 18:58:06.760000+00:00,2024-05-16 03:58:06.760000+09:00,2024,5,15,18,58,6,760,,,,,,,,,0.099609,-0.527832,1.255127,54.504395,56.030273,-24.963379,,,,,,,,,,,0.0,1.0,1.0,4.0,0.0,0.0,0.0,5.0,0.0,-0.13441084,-0.17484383999999997,1.0083692,4.711914026666667,1.398111919999999,-3.6971028666666665,15.468074865905837,-0.32143905855579746,-5.643495126572442,-2.368672334017352,3.1447527493480107,1.8002085138457873,4.329067933608104,-2.2290924108161994,4.776552075178554,-2.269040177643843,0.23401984,-0.35298816,0.24675780000000014,0.8337658000000001,0.4901584830181472,0.6422129249152887,0.6504602620672371,0.6438051046536288
LBP05_S04,LBP05,-1505,146,4,145,-1505,1715799486.8,2024-05-15 18:58:06.800000+00:00,2024-05-16 03:58:06.800000+09:00,2024,5,15,18,58,6,800,,,,,,,,,-0.580811,-0.05249,1.693115,41.259766,12.695312,-10.375977,,,,,,,,,,,0.0,1.0,1.0,4.0,0.0,0.0,0.0,5.0,0.0,-0.14595706666666666,-0.17543954666666667,1.02288744,6.235351520000001,2.1931965466666656,-3.6075846400000002,19.273770881789417,0.9943835314988426,-3.7847529725207676,-1.5977214987457753,3.1845280906079645,1.6488183949449566,3.9258801875419627,-2.266891211083235,4.631738066253638,-2.2663282455800395,-0.43485393333333333,0.12294954666666666,0.6702275599999998,1.2280310399999999,0.8083436871433853,0.6453658618108848,0.6516039681926961,0.6445857870317564
LBP05_S04,LBP05,-1504,147,4,146,-1504,1715799486.84,2024-05-15 18:58:06.840000+00:00,2024-05-16 03:58:06.840000+09:00,2024,5,15,18,58,6,840,,,,,,,,,-0.261963,-0.549316,1.69873,-1.464844,-35.644531,12.268066,,,,,,,,,,,0.0,1.0,1.0,4.0,0.0,0.0,0.0,5.0,0.0,-0.15141278666666666,-0.17277026666666667,1.0283399066666667,6.0758463066666675,1.8440754533333321,-3.6922200533333336,22.39390351105275,2.4215485294603774,-1.904455633609789,-0.7019653583036654,3.28139003178638,1.572640169600565,3.7058700743559134,-2.291992154222973,4.586553491077117,-2.259713416762452,-0.11055021333333334,-0.37654573333333335,0.6703900933333333,1.15748604,0.776808159199592,0.6524387020155609,0.6541300263958935,0.6468108800848846
LBP05_S04,LBP05,-1503,148,4,147,-1503,1715799486.88,2024-05-15 18:58:06.880000+00:00,2024-05-16 03:58:06.880000+09:00,2024,5,15,18,58,6,880,,,,,,,,,-0.093994,0.042236,1.019287,22.705078,97.351074,10.803223,,,,,,,,,,,0.0,1.0,1.0,4.0,0.0,0.0,0.0,5.0,0.0,-0.14714845333333332,-0.1706088,1.01559576,5.331217400000001,2.7514647733333324,-3.7068684800000007,24.57760103814807,3.729914971283811,-0.2834237363691828,0.28113868322225755,3.430586630637732,1.5613032201457977,3.7796337566954725,-2.2842419866003243,4.64181498073916,-2.254671230968669,0.053154453333333324,0.2128448,0.0036912399999999845,0.2696904933333333,0.21941269345446518,0.6441589318156619,0.6566129129097301,0.6443189458006118
LBP05_S04,LBP05,-1502,149,4,148,-1502,1715799486.92,2024-05-15 18:58:06.920000+00:00,2024-05-16 03:58:06.920000+09:00,2024,5,15,18,58,6,920,,,,,,,,,-0.390381,0.111084,0.121094,-9.277344,42.724609,-5.432129,,,,,,,,,,,0.0,1.0,1.0,4.0,0.0,0.0,0.0,5.0,0.0,-0.14302410666666668,-0.16622077333333335,0.9930664533333333,3.085937453333334,3.1290689333333317,-3.53027344,25.581347845505036,4.841760710199165,0.8334212112030911,1.304392597042459,3.6242570590456986,1.5946400685939213,4.168879492816622,-2.2830798460642585,4.7903908529988435,-2.256799566364967,-0.2473568933333333,0.27730477333333337,-0.8719724533333333,1.3966341199999999,0.947849845368517,0.6522242934925266,0.6555862640522324,0.6477234231998543
LBP05_S04,LBP05,-1501,150,4,149,-1501,1715799486.96,2024-05-15 18:58:06.960000+00:00,2024-05-16 03:58:06.960000+09:00,2024,5,15,18,58,6,960,,,,,,,,,0.02832,-0.268799,0.367188,-28.381348,-87.036133,2.13623,,,,,,,,,,,0.0,1.0,1.0,4.0,0.0,0.0,0.0,5.0,0.0,-0.13945314666666667,-0.17065761333333332,0.9807031733333335,3.074544226666667,1.3916014799999985,-3.3463541733333333,25.111943213464674,5.802271971647031,1.3162108104100259,2.308870325581046,3.85634793791158,1.6472885010103222,4.787051389336075,-2.2583138339886872,5.0177891278786975,-2.262360496970148,0.16777314666666668,-0.09814138666666669,-0.6135151733333335,0.8794297066666669,0.6435685110611933,0.6442092345559145,0.6553686866905154,0.6463002276040141
LBP05_S04,LBP05,-1500,151,4,150,-1500,1715799487.0,2024-05-15 18:58:07+00:00,2024-05-16 03:58:07+09:00,2024,5,15,18,58,7,0,18.0,58.0,7.0,40.937931,141.727097,13.665,3.0,9.0,0.330566,-0.151123,0.657959,52.79541,-54.199219,1.220703,-561.0,25.0,561.0,0.0,0.0,1020.099976,16.77,0.070359,-56.841873,3.944531,0.0,1.0,1.0,4.0,0.0,0.0,0.0,6.0,0.0,-0.12965497333333334,-0.16939133333333337,0.9861556533333333,3.9379882400000006,-0.7641602400000015,-3.0379231866666667,22.87712436677959,6.644877213101793,1.1929919722218578,3.2239553002522294,4.122143026435651,1.6950081798991965,5.500818451679868,-2.226975005826371,5.302216491876107,-2.2663167726721616,0.46022097333333334,0.01826833333333336,-0.32819665333333337,0.80668596,0.565552932587091,0.6482350248120109,0.6523502604227083,0.6490576404076586
LBP05_S04,LBP05,-1499,152,4,151,-1499,1715799487.04,2024-05-15 18:58:07.040000+00:00,2024-05-16 03:58:07.040000+09:00,2024,5,15,18,58,7,40,,,,,,,,,0.116455,-0.192139,1.114258,70.495605,45.410156,11.291504,,,,,,,,,,,0.0,1.0,1.0,4.0,0.0,0.0,0.0,6.0,0.0,-0.13107098666666667,-0.17026373333333333,1.0022168533333333,5.84147132,0.7584634666666651,-2.819824226666667,18.746952281381038,7.254726595098782,0.6447504089761836,3.973833391507471,4.412332090239603,1.720798196258244,6.182327452526563,-2.229636626691492,5.6138357685273235,-2.268215482819974,0.24752598666666667,-0.02187526666666667,0.11204114666666665,0.38144239999999996,0.2725818407624142,0.6372664657266577,0.6437460209358556,0.6430132305479236
LBP05_S04,LBP05,-1498,153,4,152,-1498,1715799487.08,2024-05-15 18:58:07.080000+00:00,2024-05-16 03:58:07.080000+09:00,2024,5,15,18,58,7,80,,,,,,,,,-0.599854,-0.164551,1.648438,51.452637,35.888672,1.647949,,,,,,,,,,,0.0,1.0,1.0,4.0,0.0,0.0,0.0,6.0,0.0,-0.14407229333333332,-0.17028326666666668,1.01674484,6.907552053333334,1.6625975866666651,-2.9012044400000003,12.940222369276706,7.341360243675039,-0.04685210455365074,4.491442286278539,4.705986499986604,1.7189241120760979,6.728600363530573,-2.274926425519204,5.913700663395331,-2.2654763275143472,-0.4557817066666667,0.00573226666666668,0.63169316,1.0932071333333333,0.7789775808095524,0.6376959497323733,0.6425975621002908,0.644084731836617
LBP05_S04,LBP05,-1497,154,4,153,-1497,1715799487.12,2024-05-15 18:58:07.120000+00:00,2024-05-16 03:58:07.120000+09:00,2024,5,15,18,58,7,120,,,,,,,,,-0.456543,-0.258057,1.790771,15.625,-42.114258,1.220703,,,,,,,,,,,0.0,1.0,1.0,4.0,0.0,0.0,0.0,6.0,0.0,-0.1493262,-0.17524094666666667,1.0228516133333334,5.913085906666667,0.5517577466666652,-2.9150390666666666,6.103398650083917,6.552132850970822,-0.590186936082754,4.735578232281895,4.968071814025437,1.6953166346327877,7.069762176695816,-2.2784554688887324,6.155953886521401,-2.2580662478570224,-0.30721679999999996,-0.0828160533333333,0.7679193866666665,1.1579522399999997,0.8312285156985766,0.6458402733568032,0.6421535588456107,0.647450427189821
LBP05_S04,LBP05,-1496,155,4,154,-1496,1715799487.16,2024-05-15 18:58:07.160000+00:00,2024-05-16 03:58:07.160000+09:00,2024,5,15,18,58,7,160,,,,,,,,,-0.103271,-0.095215,1.358398,3.417969,46.203613,-4.577637,,,,,,,,,,,0.0,1.0,1.0,4.0,0.0,0.0,0.0,6.0,0.0,-0.14311201333333332,-0.17137375999999999,1.0116146400000001,6.55924476,1.3004556666666651,-2.9134114666666666,-0.8100027483093889,4.661671445074521,-0.7920818293322242,4.70317812234952,5.154538671828418,1.6636333614594987,7.173341573582207,-2.2686551678363367,6.296947207637342,-2.251999512923435,0.039841013333333314,0.07615875999999999,0.3467833599999999,0.4627831333333332,0.35727603031977107,0.641805976177593,0.6440915657826595,0.6465944062220554
LBP05_S04,LBP05,-1495,156,4,155,-1495,1715799487.2,2024-05-15 18:58:07.200000+00:00,2024-05-16 03:58:07.200000+09:00,2024,5,15,18,58,7,200,,,,,,,,,-0.424316,-0.201172,0.447266,-49.194336,104.064941,-35.217285,,,,,,,,,,,0.0,1.0,1.0,4.0,0.0,0.0,0.0,6.0,0.0,-0.14026370666666668,-0.16205409333333334,0.9863249199999999,6.19710284,2.4194335333333323,-3.1412760533333337,-6.839576887619446,1.7297969702316567,-0.647898553644638,4.429595046844742,5.2237305506376845,1.6377174193137132,7.042072954054121,-2.28587831256136,6.3060059637298504,-2.2520340627254507,-0.28405229333333337,-0.039117906666666646,-0.53905892,0.8622291200000001,0.6105738572863029,0.641612020036121,0.6383158765177787,0.6447632415550686
LBP05_S04,LBP05,-1494,157,4,156,-1494,1715799487.24,2024-05-15 18:58:07.240000+00:00,2024-05-16 03:58:07.240000+09:00,2024,5,15,18,58,7,240,,,,,,,,,-0.085938,-0.066406,0.241943,-110.412598,-55.725098,-8.789062,,,,,,,,,,,0.0,1.0,1.0,4.0,0.0,0.0,0.0,6.0,0.0,-0.13773439999999998,-0.1663412,0.9719727066666665,3.942057266666667,0.6502277999999988,-3.023274746666667,-11.360967380992992,-1.8621090165841012,-0.3691524944654585,3.9751563516050226,5.1492461899743205,1.6229513195350949,6.704519023035993,-2.2646006011667072,6.1707872390921805,-2.256028901763833,0.05179639999999998,0.09993519999999999,-0.7300297066666664,0.8817613066666664,0.738656404472214,0.6363913792720425,0.6395837048117684,0.6416385176211595
LBP05_S04,LBP05,-1493,158,4,157,-1493,1715799487.28,2024-05-15 18:58:07.280000+00:00,2024-05-16 03:58:07.280000+09:00,2024,5,15,18,58,7,280,,,,,,,,,0.163574,-0.216797,0.505371,-71.838379,-100.280762,9.643555,,,,,,,,,,,0.0,1.0,1.0,4.0,0.0,0.0,0.0,6.0,0.0,-0.12777346666666667,-0.17305018666666666,0.9766146266666668,4.936523413333333,-1.9571940800000016,-2.54638672,-14.284585873993366,-5.52309859447337,-0.31809463467883065,3.4037729166452877,4.9283222461953855,1.6102275341479417,6.20216598795618,-2.2101411900270773,5.898834633218678,-2.258932210400064,0.29134746666666667,-0.04374681333333333,-0.47124362666666675,0.8063379066666667,0.5557586577677929,0.6358012696043178,0.6382422016207152,0.6441977126969863
LBP05_S04,LBP05,-1492,159,4,158,-1492,1715799487.32,2024-05-15 18:58:07.320000+00:00,2024-05-16 03:58:07.320000+09:00,2024,5,15,18,58,7,320,,,,,,,,,0.331543,-0.099854,1.012939,122.619629,0.488281,17.211914,,,,,,,,,,,0.0,1.0,1.0,4.0,0.0,0.0,0.0,6.0,0.0,-0.12620445333333333,-0.1664356,0.98871748,7.079264293333334,-0.7202149200000014,-1.8937174533333332,-15.981969176313843,-8.65104800143348,-0.8584303939115154,2.7644941495927338,4.582280326138046,1.5758903183914812,5.5788127039760225,-2.222412496728381,5.5176474581273025,-2.258417663845605,0.45774745333333333,0.06658159999999999,0.024221519999999996,0.5485505733333333,0.4631981460701484,0.6351331163228519,0.6400467174492646,0.6415881924846225
LBP05_S04,LBP05,-1491,160,4,159,-1491,1715799487.36,2024-05-15 18:58:07.360000+00:00,2024-05-16 03:58:07.360000+09:00,2024,5,15,18,58,7,360,,,,,,,,,-0.246094,-0.049561,1.520264,-7.080078,41.442871,26.611328,,,,,,,,,,,0.0,1.0,1.0,4.0,0.0,0.0,0.0,6.0,0.0,-0.13688153333333333,-0.16732426666666667,1.0029850666666666,7.299804666666668,0.38655591999999855,-1.3916015733333333,-16.965396934848613,-10.801660403597815,-2.1800067182173177,2.085878272198789,4.150213909994133,1.4886900496627884,4.877638950261161,-2.2586593320088455,5.070110701702183,-2.256477538235491,-0.10921246666666667,0.11776326666666667,0.5172789333333334,0.7442546666666667,0.5416392200735591,0.6214773852931137,0.6364921925919557,0.6384844589111067
LBP05_S04,LBP05,-1490,161,4,160,-1490,1715799487.4,2024-05-15 18:58:07.400000+00:00,2024-05-16 03:58:07.400000+09:00,2024,5,15,18,58,7,400,,,,,,,,,-0.526855,-0.529541,1.773926,14.526367,-37.353516,-6.713867,,,,,,,,,,,0.0,1.0,1.0,4.0,0.0,0.0,0.0,6.0,0.0,-0.1425814,-0.17135096,1.01231124,5.982259093333334,-0.8056641200000014,-1.178385426666667,-17.503222755517534,-11.74809637942002,-4.180295648200697,1.3857493619780876,3.6802900548173323,1.3214782237347604,4.148631205303168,-2.2669233962101973,4.6017917605921905,-2.251602444824233,-0.3842736,-0.35819004000000004,0.7616147599999998,1.5040783999999998,0.9252152976805015,0.6324132678641705,0.6369987932537433,0.6415840972812038
LBP05_S04,LBP05,-1489,162,4,161,-1489,1715799487.44,2024-05-15 18:58:07.440000+00:00,2024-05-16 03:58:07.440000+09:00,2024,5,15,18,58,7,440,,,,,,,,,-0.136475,0.129883,1.418701,47.729492,-26.367188,-4.943848,,,,,,,,,,,0.0,1.0,1.0,4.0,0.0,0.0,0.0,6.0,0.0,-0.1381673333333333,-0.16890629333333335,1.0032878,6.673990866666667,-0.5086263466666682,-1.2898763066666667,-17.397915510595386,-11.440875926744768,-6.4660725854715695,0.6898327415542722,3.2226550177475417,1.0628353203158976,3.462801393791548,-2.258669713053801,4.149502961618658,-2.2443178931296677,0.0016923333333332957,0.2987892933333334,0.4154131999999999,0.7158948266666666,0.5117089334152608,0.6297099803253696,0.6383621061893002,0.6404943018186185
LBP05_S04,LBP05,-1488,163,4,162,-1488,1715799487.48,2024-05-15 18:58:07.480000+00:00,2024-05-16 03:58:07.480000+09:00,2024,5,15,18,58,7,480,,,,,,,,,-0.19873,-0.149658,0.744873,-77.087402,84.228516,-4.882812,,,,,,,,,,,0.0,1.0,1.0,4.0,0.0,0.0,0.0,6.0,0.0,-0.13654298666666667,-0.16310225333333334,0.9804948266666665,5.9334309733333335,0.7893879733333319,-1.1775716133333334,-16.054055546641376,-9.93683417452501,-8.484597433907698,0.04767051968861713,2.8251816507665413,0.7234514229595896,2.9167286126168124,-2.2697809599746086,3.7446314325893666,-2.24203117738944,-0.06218701333333332,0.013444253333333323,-0.23562182666666653,0.3112530933333332,0.24406068461910793,0.6202344248498557,0.6312217015603234,0.6368420864980012
LBP05_S04,LBP05,-1487,164,4,163,-1487,1715799487.52,2024-05-15 18:58:07.520000+00:00,2024-05-16 03:58:07.520000+09:00,2024,5,15,18,58,7,520,,,,,,,,,-0.17334,0.060791,0.043945,-118.774414,-19.40918,-39.18457,,,,,,,,,,,0.0,1.0,1.0,4.0,0.0,0.0,0.0,6.0,0.0,-0.13400718666666664,-0.1637012,0.9650195600000001,5.400390613333334,-0.6250000400000015,-0.9318033866666667,-12.792971389150688,-7.364466703013314,-9.734972381060732,-0.46404833587741046,2.5306029826460086,0.3340525277171603,2.594394612444624,-2.259054212787595,3.425675171483703,-2.247479586456765,-0.039332813333333355,0.22449219999999998,-0.9210745600000001,1.1848995733333334,0.9488530777442568,0.6219471577546852,0.6350768583043431,0.6378413907654723
LBP05_S04,LBP05,-1486,165,4,164,-1486,1715799487.56,2024-05-15 18:58:07.560000+00:00,2024-05-16 03:58:07.560000+09:00,2024,5,15,18,58,7,560,,,,,,,,,0.032715,-0.250244,0.381348,-27.893066,-87.219238,-29.35791,,,,,,,,,,,0.0,1.0,1.0,4.0,0.0,0.0,0.0,6.0,0.0,-0.12481448,-0.16550784,0.96742516,5.2563476399999995,-3.2625325866666683,-0.4695638133333335,-7.234965177225219,-3.951478135741998,-9.973646010741188,-0.7534469429664192,2.3725438572163284,-0.06489331271248722,2.49015216248228,-2.2199042337237573,3.241027494348993,-2.2493132399277442,0.15752948,-0.08473616000000003,-0.58607716,0.8283428,0.6127660168076242,0.6168773639202413,0.6349265773950153,0.6387626514463819
LBP05_S04,LBP05,-1485,166,4,165,-1485,1715799487.6,2024-05-15 18:58:07.600000+00:00,2024-05-16 03:58:07.600000+09:00,2024,5,15,18,58,7,600,,,,,,,,,0.383301,-0.367432,0.806885,93.688965,-28.686523,-22.277832,,,,,,,,,,,0.0,1.0,1.0,4.0,0.0,0.0,0.0,6.0,0.0,-0.1212012,-0.16301109333333333,0.9806478133333333,6.67480468,-2.012532586666668,-0.16601564000000016,0.45302875766072354,-0.07983812221647754,-9.325494186826463,-0.7353257926599903,2.3693503323276692,-0.43791308018554576,2.519184964318792,-2.213032795615704,3.2356680653471073,-2.2485650857437682,0.5045022,-0.20442090666666665,-0.17376281333333332,0.88268592,0.5714051908976474,0.6270821391223731,0.6387425319253582,0.6403936723493653
LBP05_S04,LBP05,-1484,167,4,166,-1484,1715799487.64,2024-05-15 18:58:07.640000+00:00,2024-05-16 03:58:07.640000+09:00,2024,5,15,18,58,7,640,,,,,,,,,-0.102295,0.049316,1.270996,-19.40918,49.865723,-3.417969,,,,,,,,,,,0.0,1.0,1.0,4.0,0.0,0.0,0.0,6.0,0.0,-0.13164390666666667,-0.16669924,0.9971582266666666,5.873209626666667,-0.3409831066666681,-0.10904950666666678,9.54627020970417,3.7093603003307316,-8.245450042280428,-0.3534749842718235,2.5177247443408985,-0.7677310818767629,2.6558037327430792,-2.2417334437644305,3.4378407282192747,-2.2471719259759624,0.029348906666666674,0.21601524,0.27383777333333337,0.51920192,0.3500158115556273,0.6036907166403456,0.6287188444885154,0.6318744329302688
LBP05_S04,LBP05,-1483,168,4,167,-1483,1715799487.68,2024-05-15 18:58:07.680000+00:00,2024-05-16 03:58:07.680000+09:00,2024,5,15,18,58,7,680,,,,,,,,,-0.447998,-0.814209,1.655518,14.099121,26.123047,7.751465,,,,,,,,,,,0.0,1.0,1.0,4.0,0.0,0.0,0.0,6.0,0.0,-0.1405469066666667,-0.16970380000000002,1.0086133066666665,3.6279296800000007,-1.264648466666668,-0.06835940000000013,18.94722826209863,6.8159812486851825,-7.336153358640065,0.40441414621212174,2.790363994288306,-1.0611772162223654,3.012603376899541,-2.264625280700329,3.8532294913604863,-2.2433647773441554,-0.3074510933333333,-0.6445052,0.6469046933333336,1.5988609866666668,0.9635345400532336,0.6171456359214286,0.6280715190900571,0.6355234313040298
LBP05_S04,LBP05,-1482,169,4,168,-1482,1715799487.72,2024-05-15 18:58:07.720000+00:00,2024-05-16 03:58:07.720000+09:00,2024,5,15,18,58,7,720,,,,,,,,,-0.38623,-0.192627,1.744385,105.407715,-26.550293,11.169434,,,,,,,,,,,0.0,1.0,1.0,4.0,0.0,0.0,0.0,6.0,0.0,-0.13670250666666667,-0.17351890666666667,1.0060579733333332,4.544270826666667,-0.7592773733333348,0.009765599999999867,27.44929160792185,8.761240726990163,-7.090301278199642,1.5023858105289958,3.1408136233679125,-1.3447892673503512,3.7323359326289265,-2.240749031438174,4.46338036646701,-2.235727732549272,-0.24952749333333335,-0.019108093333333326,0.7383270266666668,1.0069626133333336,0.7795869980101598,0.6203492446350457,0.6329776879385507,0.6375682584991408
LBP05_S04,LBP05,-1481,170,4,169,-1481,1715799487.76,2024-05-15 18:58:07.760000+00:00,2024-05-16 03:58:07.760000+09:00,2024,5,15,18,58,7,760,,,,,,,,,-0.156982,0.059814,1.218994,-20.812988,52.124023,14.709473,,,,,,,,,,,0.0,1.0,1.0,4.0,0.0,0.0,0.0,6.0,0.0,-0.13464846666666666,-0.16720054666666667,0.9864909200000002,4.575195306666667,1.6748046533333318,0.2929687199999999,33.976613912366204,9.359976497762498,-7.662743959598989,2.861450367023644,3.5152126832784125,-1.6512990257343108,4.824044660242301,-2.2511777901690886,5.229760292067537,-2.233467401849024,-0.02233353333333335,0.22701454666666668,0.23250307999999975,0.4818511599999998,0.3257177817051282,0.6137716165825249,0.6279922707489067,0.638230713572333
LBP05_S04,LBP05,-1480,171,4,170,-1480,1715799487.8,2024-05-15 18:58:07.800000+00:00,2024-05-16 03:58:07.800000+09:00,2024,5,15,18,58,7,800,,,,,,,,,-0.529785,0.061523,0.232178,-23.31543,88.134766,10.864258,,,,,,,,,,,0.0,1.0,1.0,4.0,0.0,0.0,0.0,6.0,0.0,-0.13496097333333335,-0.16698244,0.9698958666666667,2.867838533333334,0.8048502266666651,0.6127929466666666,37.75644304070364,8.792750502507573,-8.769953079073739,4.37170808865179,3.8669227033787155,-2.0020971488972603,6.170357834024845,-2.2529917985321326,6.106752216842649,-2.2381741838258207,-0.3948240266666666,0.22850544,-0.7377178666666667,1.3610473333333335,0.8673686637999393,0.6161326156487871,0.6307492387298359,0.6397801840113931
LBP05_S04,LBP05,-1479,172,4,171,-1479,1715799487.84,2024-05-15 18:58:07.840000+00:00,2024-05-16 03:58:07.840000+09:00,2024,5,15,18,58,7,840,,,,,,,,,-0.119385,-0.532227,0.319336,49.499512,-46.99707,-18.310547,,,,,,,,,,,0.0,1.0,1.0,4.0,0.0,0.0,0.0,6.0,0.0,-0.12791996,-0.1694206,0.97028648,1.9905598933333337,-2.147623733333335,0.9261067466666666,38.43189330790978,7.528374300281473,-9.765822698105701,5.9089838209681815,4.168057675389974,-2.392730056821488,7.616689025203665,-2.220598226735732,7.0544975713695095,-2.242500770904132,0.008534959999999994,-0.3628064,-0.6509504799999999,1.0222918399999998,0.7452770336159514,0.6148713706254415,0.6336550363205012,0.6410438078057429
LBP05_S04,LBP05,-1478,173,4,172,-1478,1715799487.88,2024-05-15 18:58:07.880000+00:00,2024-05-16 03:58:07.880000+09:00,2024,5,15,18,58,7,880,,,,,,,,,0.226074,0.231445,0.585449,162.353516,-79.528809,-46.325684,,,,,,,,,,,0.0,1.0,1.0,4.0,0.0,0.0,0.0,6.0,0.0,-0.12168949333333333,-0.17075197333333333,0.98275392,3.5302734400000007,-1.3134766000000013,1.1881510266666666,36.13325489214136,6.117031775714678,-9.87036620691678,7.354314016653836,4.412738946418561,-2.7875447050981594,9.018237363682054,-2.193410512025776,8.038025249558844,-2.2430412451609896,0.34776349333333334,0.4021969733333334,-0.39730491999999995,1.1472653866666667,0.663741705869161,0.6326445311220293,0.6384017314688456,0.6486234523138298
LBP05_S04,LBP05,-1477,174,4,173,-1477,1715799487.92,2024-05-15 18:58:07.920000+00:00,2024-05-16 03:58:07.920000+09:00,2024,5,15,18,58,7,920,,,,,,,,,0.301514,-0.225586,1.11377,-47.424316,1.89209,-36.560059,,,,,,,,,,,0.0,1.0,1.0,4.0,0.0,0.0,0.0,6.0,0.0,-0.13138676,-0.16823570666666665,0.9987337333333333,2.4837239600000007,0.6958007466666652,1.4135742,31.48961356530377,4.952092759708838,-8.460308632181686,8.613898559265987,4.610822656806915,-3.125957050385427,10.258193868449894,-2.2364509057851145,9.017495121953484,-2.2431529029688804,0.43290076,-0.05735029333333336,0.11503626666666666,0.60528732,0.451581074451312,0.612793780285341,0.6325090368889339,0.641322102796602
LBP05_S04,LBP05,-1476,175,4,174,-1476,1715799487.96,2024-05-15 18:58:07.960000+00:00,2024-05-16 03:58:07.960000+09:00,2024,5,15,18,58,7,960,,,,,,,,,-0.461426,-0.388916,1.586914,63.537598,43.884277,-11.535645,,,,,,,,,,,0.0,1.0,1.0,4.0,0.0,0.0,0.0,6.0,0.0,-0.14367192,-0.17265628,1.0117285200000001,1.1002604133333338,0.4557291333333319,1.1995442533333334,25.53105925558706,4.131280115226687,-5.30160512996619,9.63514092948947,4.776073861415982,-3.3380212555840747,11.260071410233387,-2.2669720534917266,9.947260319616335,-2.243634335117709,-0.31775408,-0.21625972,0.5751854799999998,1.10919928,0.6917906173503331,0.6147226645369067,0.6294659495464106,0.6418200126393124
LBP05_S04,LBP05,-1475,176,4,175,-1475,1715799488.0,2024-05-15 18:58:08+00:00,2024-05-16 03:58:08+09:00,2024,5,15,18,58,8,0,18.0,58.0,8.0,40.937931,141.727173,13.748,3.0,9.0,-0.374512,-0.19873,1.756592,-10.925293,-27.22168,16.601562,-561.0,17.0,556.0,0.0,0.0,1020.5,16.84,0.074323,-60.15176,3.944531,0.0,1.0,1.0,4.0,0.0,0.0,0.0,5.0,0.0,-0.14276372,-0.17543622666666667,1.012167973333333,0.7731119733333336,0.03092443999999868,1.0262044133333332,19.4614495496685,3.490549637342771,-0.6336064623581752,10.41359891147621,4.915695846909693,-3.3633655140784016,11.996638509587408,-2.256298666398816,10.788752280463525,-2.23835333443084,-0.23174828,-0.023293773333333323,0.7444240266666668,0.9994660800000001,0.7800108952044692,0.6233009830416019,0.6357680039268064,0.6426671679623395
LBP05_S04,LBP05,-1474,177,4,176,-1474,1715799488.04,2024-05-15 18:58:08.040000+00:00,2024-05-16 03:58:08.040000+09:00,2024,5,15,18,58,8,40,,,,,,,,,-0.190918,-0.147461,1.508301,30.517578,35.461426,17.944336,,,,,,,,,,,0.0,1.0,1.0,4.0,0.0,0.0,0.0,5.0,0.0,-0.13806645333333334,-0.17293948,0.9951530000000001,1.6072591066666668,1.9816080399999987,1.1254882666666666,14.35352086020857,2.7746555405664814,4.912113587807067,10.987739745884554,5.026682068532352,-3.166880970566119,12.49108051463642,-2.2471381863330055,11.520348969623493,-2.235643898800163,-0.052851546666666666,0.025478479999999998,0.5131479999999998,0.5914780266666665,0.5164913443923035,0.6330573631867974,0.6351619144567275,0.640183135019503
LBP05_S04,LBP05,-1473,178,4,177,-1473,1715799488.08,2024-05-15 18:58:08.080000+00:00,2024-05-16 03:58:08.080000+09:00,2024,5,15,18,58,8,80,,,,,,,,,-0.354736,0.003174,0.595459,-23.742676,109.985352,24.780273,,,,,,,,,,,0.0,1.0,1.0,4.0,0.0,0.0,0.0,5.0,0.0,-0.13724614666666668,-0.16534833333333332,0.9736751333333332,1.1759440133333334,1.7049153333333318,0.9969075333333333,10.868816979428086,1.8304886852072277,10.503174842328036,11.422492425061677,5.099901615940642,-2.7467539768729976,12.807302100845947,-2.265741858779237,12.137317884047784,-2.2389498980463243,-0.21748985333333332,0.16852233333333333,-0.37821613333333326,0.76422832,0.46770616486067795,0.6206065065488424,0.6291512281406079,0.6352672102498079
LBP05_S04,LBP05,-1472,179,4,178,-1472,1715799488.12,2024-05-15 18:58:08.120000+00:00,2024-05-16 03:58:08.120000+09:00,2024,5,15,18,58,8,120,,,,,,,,,-0.117188,-0.427246,0.268555,-94.787598,-61.035156,12.084961,,,,,,,,,,,0.0,1.0,1.0,4.0,0.0,0.0,0.0,5.0,0.0,-0.13177414666666667,-0.16557294666666666,0.9684993466666666,0.13916016000000014,-1.3566081066666682,1.1336262799999999,9.108173418549306,0.7065406924125699,15.322012623530252,11.78681936180365,5.128163243637144,-2.1338734719317873,13.029987909257423,-2.245563352926461,12.647820315902669,-2.246492317885606,0.014586146666666674,-0.26167305333333335,-0.6999443466666666,0.9762035466666666,0.7474005826502932,0.6172533892269111,0.6315468312918572,0.6338535023060441
LBP05_S04,LBP05,-1471,180,4,179,-1471,1715799488.16,2024-05-15 18:58:08.160000+00:00,2024-05-16 03:58:08.160000+09:00,2024,5,15,18,58,8,160,,,,,,,,,0.297607,-0.18457,0.612305,97.167969,-83.984375,17.456055,,,,,,,,,,,0.0,1.0,1.0,4.0,0.0,0.0,0.0,5.0,0.0,-0.12271489333333332,-0.17037438666666666,0.9803027333333334,1.1458333333333333,-1.3793945600000015,1.2150064799999998,8.660833544521328,-0.39143905402379087,18.736150261071973,12.133252703584503,5.112505681476192,-1.3844274614889085,13.238964268714213,-2.1983677833004016,13.069042144884335,-2.247267840551779,0.42032189333333336,-0.014195613333333357,-0.3679977333333334,0.8025152400000002,0.5588330172705428,0.6253156687049419,0.6335608224412675,0.6378329334234203
LBP05_S04,LBP05,-1470,181,4,180,-1470,1715799488.2,2024-05-15 18:58:08.200000+00:00,2024-05-16 03:58:08.200000+09:00,2024,5,15,18,58,8,200,,,,,,,,,0.233887,0.163818,0.97876,61.706543,8.178711,7.873535,,,,,,,,,,,0.0,1.0,1.0,4.0,0.0,0.0,0.0,5.0,0.0,-0.12819992,-0.16783532,0.9947949199999999,0.6144205733333333,0.5924478933333319,1.3061523199999998,8.842882109885679,-1.239562273904175,20.393754751275846,12.48696798797993,5.062923190520025,-0.5686772714378746,13.486324725624511,-2.2258974422253592,13.423956806580652,-2.2477723993201972,0.36208692,0.33165332000000003,-0.016034919999999953,0.70977516,0.49128197703713417,0.6205439934949751,0.631078006765548,0.6323919155101775
LBP05_S04,LBP05,-1469,182,4,181,-1469,1715799488.24,2024-05-15 18:58:08.240000+00:00,2024-05-16 03:58:08.240000+09:00,2024,5,15,18,58,8,240,,,,,,,,,-0.322998,-0.407959,1.577637,-7.507324,49.987793,29.11377,,,,,,,,,,,0.0,1.0,1.0,4.0,0.0,0.0,0.0,5.0,0.0,-0.14025394666666666,-0.17328453333333332,1.0100455733333333,-0.09440103999999991,0.5940754933333319,1.187337213333333,9.019793089380979,-1.7205047535121831,20.249584950867533,12.84775971155517,4.994103000379538,0.2413061265968267,13.78637816944658,-2.253658219197346,13.737969463369074,-2.247360833644487,-0.18274405333333335,-0.2346744666666667,0.5675914266666666,0.9850099466666666,0.6408022487160002,0.6166298272647266,0.6265106032683846,0.6319324122960878
LBP05_S04,LBP05,-1468,183,4,182,-1468,1715799488.28,2024-05-15 18:58:08.280000+00:00,2024-05-16 03:58:08.280000+09:00,2024,5,15,18,58,8,280,,,,,,,,,-0.508057,-0.474854,1.771973,26.672363,-44.067383,20.812988,,,,,,,,,,,0.0,1.0,1.0,4.0,0.0,0.0,0.0,5.0,0.0,-0.14296878666666665,-0.17113284,1.01423828,-0.7560221466666666,-0.31738284000000144,1.4404296666666667,8.85800245324787,-1.8548590861214562,18.540048249616063,13.202079809685085,4.91990863693468,0.9829080565814693,14.123261682230908,-2.268834710418592,14.034969430352993,-2.2421295865280566,-0.3650882133333333,-0.30372116,0.75773472,1.4265440933333333,0.8942582694278814,0.6301698117311302,0.6329855406677241,0.6355514049908535
