file_name,test_id,_program_index,program_index,session_id,index,_index,unixtime,datetime_utc,datetime_jst,rtc_year,rtc_month,rtc_day,rtc_hour,rtc_min,rtc_sec,rtc_msec,gps_hour,gps_min,gps_sec,latitude,longitude,altitude,fix_type,SIV,acc_x,acc_y,acc_z,gyro_x,gyro_y,gyro_z,mag_x,mag_y,mag_z,illuminance,atmopress,water_pressure,water_temp,depth,alt_wps,battery_level,behavior_class,camera_command,camera_recording,camera_count,play_audio,speaker_on,audio_file,prev_sd_write_time_ms,delay_occurred_counter,acc_x_ma,acc_y_ma,acc_z_ma,gyro_x_ma,gyro_y_ma,gyro_z_ma,gyro_x_lowpass,gyro_y_lowpass,gyro_z_lowpass,angle_x,angle_y,angle_z,combined_angle_change,gravity_adjusted_angle,smoothed_angle_change,smoothed_gravity_angle,acc_x_dy,acc_y_dy,acc_z_dy,ODBA,VeDBA,smoothed_VeDBA_1s,smoothed_VeDBA_2s,smoothed_VeDBA_3s
LBP05_S09,LBP05,-1650,1,9,0,-1650,1715803475.0,2024-05-15 20:04:35+00:00,2024-05-16 05:04:35+09:00,2024,5,15,20,4,35,0,20.0,4.0,35.0,40.734531,141.643829,-21.478001,3.0,8.0,0.329102,-0.299805,0.834717,9.399414,-19.775391,1.342773,-562.0,65.0,549.0,33.0,0.0,1022.299988,16.35,0.092161,-75.032249,3.817969,0.0,1.0,1.0,9.0,0.0,0.0,0.0,5.0,0.0,,,,,,,9.30145047003044,-20.337139219898994,1.1062756199773032,0.37205801880121764,-0.8134855687959598,0.044251024799092126,0.8956249735181256,,1.8485863599392807,,,,,,,,,
LBP05_S09,LBP05,-1649,2,9,1,-1649,1715803475.04,2024-05-15 20:04:35.040000+00:00,2024-05-16 05:04:35.040000+09:00,2024,5,15,20,4,35,40,,,,,,,,,0.067627,-0.042725,1.222412,50.964355,84.899902,14.282227,,,,,,,,,,,0.0,1.0,1.0,9.0,0.0,0.0,0.0,5.0,0.0,,,,,,,8.708502757867901,-14.178063518082675,0.36392685749727,0.7203981291159337,-1.3806081095192668,0.05880809909898292,1.5583679312100005,,1.9715974554855762,,,,,,,,,
LBP05_S09,LBP05,-1648,3,9,2,-1648,1715803475.08,2024-05-15 20:04:35.080000+00:00,2024-05-16 05:04:35.080000+09:00,2024,5,15,20,4,35,80,,,,,,,,,-0.736084,-0.330322,1.624512,-17.883301,12.695312,4.211426,,,,,,,,,,,0.0,1.0,1.0,9.0,0.0,0.0,0.0,5.0,0.0,,,,,,,8.038308703831527,-8.543260171676296,-0.1310533193385423,1.0419304772691949,-1.7223385163863187,0.05356596632544123,2.0136877606120107,,2.0755368194045647,,,,,,,,,
LBP05_S09,LBP05,-1647,4,9,3,-1647,1715803475.12,2024-05-15 20:04:35.120000+00:00,2024-05-16 05:04:35.120000+09:00,2024,5,15,20,4,35,120,,,,,,,,,-0.447754,-0.46167,1.669922,-5.79834,-150.939941,3.295898,,,,,,,,,,,0.0,1.0,1.0,9.0,0.0,0.0,0.0,5.0,0.0,,,,,,,7.270660214562105,-3.8441704410190787,-0.22379660809699287,1.332756885851679,-1.876105334027082,0.04461410200156152,2.3017390293530977,,2.173705558249371,,,,,,,,,
LBP05_S09,LBP05,-1646,5,9,4,-1646,1715803475.16,2024-05-15 20:04:35.160000+00:00,2024-05-16 05:04:35.160000+09:00,2024,5,15,20,4,35,160,,,,,,,,,0.182617,-0.002441,1.156738,53.833008,25.939941,-16.235352,,,,,,,,,,,0.0,1.0,1.0,9.0,0.0,0.0,0.0,5.0,0.0,,,,,,,6.491796983425123,-0.3996124447023883,0.11672641924069171,1.592428765188684,-1.8920898318151775,0.04928315877118919,2.4735121050031696,,2.277270538871785,,,,,,,,,
LBP05_S09,LBP05,-1645,6,9,5,-1645,1715803475.2,2024-05-15 20:04:35.200000+00:00,2024-05-16 05:04:35.200000+09:00,2024,5,15,20,4,35,200,,,,,,,,,-0.544434,0.032471,0.135986,-5.310059,84.777832,-35.827637,,,,,,,,,,,0.0,1.0,1.0,9.0,0.0,0.0,0.0,5.0,0.0,,,,,,,5.889669343199862,1.5942275213553487,0.7641504667321667,1.8280155389166783,-1.8283207309609635,0.07984917744047586,2.5866529332170534,,2.3944150217715747,,,,,,,,,
LBP05_S09,LBP05,-1644,7,9,6,-1644,1715803475.24,2024-05-15 20:04:35.240000+00:00,2024-05-16 05:04:35.240000+09:00,2024,5,15,20,4,35,240,,,,,,,,,-0.068848,-0.23999,0.378418,-37.963867,-43.640137,-0.244141,,,,,,,,,,,0.0,1.0,1.0,9.0,0.0,0.0,0.0,5.0,0.0,,,,,,,5.70373544189376,2.1289929235216483,1.4597662748628242,2.0561649565924287,-1.7431610140200975,0.13823982843498883,2.6991730029184966,,2.6934171116805237,,,,,,,,,
LBP05_S09,LBP05,-1643,8,9,7,-1643,1715803475.28,2024-05-15 20:04:35.280000+00:00,2024-05-16 05:04:35.280000+09:00,2024,5,15,20,4,35,280,,,,,,,,,0.400879,-0.37085,0.881348,40.649414,-1.281738,46.142578,,,,,,,,,,,0.0,1.0,1.0,9.0,0.0,0.0,0.0,5.0,0.0,,,,,,,6.142067838942312,1.447183455777251,1.9072369861498573,2.301847670150121,-1.6852736757890074,0.21452930788098312,2.8608867301630148,,2.9771426916597648,,,,,,,,,
LBP05_S09,LBP05,-1642,9,9,8,-1642,1715803475.32,2024-05-15 20:04:35.320000+00:00,2024-05-16 05:04:35.320000+09:00,2024,5,15,20,4,35,320,,,,,,,,,-0.085205,0.243652,1.265869,52.001953,90.270996,37.04834,,,,,,,,,,,0.0,1.0,1.0,9.0,0.0,0.0,0.0,5.0,0.0,,,,,,,7.291109435630716,0.03617418231506199,1.9022904835322791,2.59349204757535,-1.683826708496405,0.2906209272222743,3.1057903838510983,,3.2702296839934997,,,,,,,,,
LBP05_S09,LBP05,-1641,10,9,9,-1641,1715803475.36,2024-05-15 20:04:35.360000+00:00,2024-05-16 05:04:35.360000+09:00,2024,5,15,20,4,35,360,,,,,,,,,-0.921875,-0.490967,1.778564,-81.176758,-11.71875,-12.145996,,,,,,,,,,,0.0,1.0,1.0,9.0,0.0,0.0,0.0,5.0,0.0,,,,,,,9.045767514561662,-1.4848934632370105,1.4264502355657804,2.9553227481578164,-1.7432224470258852,0.3476789366449055,3.448715367869682,,3.5892694652680817,,,,,,,,,
LBP05_S09,LBP05,-1640,11,9,10,-1640,1715803475.4,2024-05-15 20:04:35.400000+00:00,2024-05-16 05:04:35.400000+09:00,2024,5,15,20,4,35,400,,,,,,,,,-0.604736,-0.353271,1.732178,16.296387,-134.216309,-25.024414,,,,,,,,,,,0.0,1.0,1.0,9.0,0.0,0.0,0.0,5.0,0.0,,,,,,,11.087136280723495,-2.563093506265368,0.647716194893893,3.3988081993867563,-1.8457461872765,0.3735875844406612,3.8856458726076144,,3.9420708615177467,,,,,,,,,
LBP05_S09,LBP05,-1639,12,9,11,-1639,1715803475.44,2024-05-15 20:04:35.440000+00:00,2024-05-16 05:04:35.440000+09:00,2024,5,15,20,4,35,440,,,,,,,,,0.053955,-0.302734,1.315674,16.052246,-24.597168,-13.73291,,,,,,,,,,,0.0,1.0,1.0,9.0,0.0,0.0,0.0,5.0,0.0,,,,,,,12.935979982153844,-2.9094133974886596,-0.16810591000627187,3.91624739867291,-1.9621227231760463,0.3668633480404103,4.395623731002409,,4.328382554666928,,,,,,,,,
LBP05_S09,LBP05,-1638,13,9,12,-1638,1715803475.48,2024-05-15 20:04:35.480000+00:00,2024-05-16 05:04:35.480000+09:00,2024,5,15,20,4,35,480,,,,,,,,,-0.552246,0.036377,0.141602,48.095703,124.145508,-6.652832,,,,,,,,,,,0.0,1.0,1.0,9.0,0.0,0.0,0.0,5.0,0.0,,,,,,,14.090268610227142,-2.5870673426197976,-0.7753058978286165,4.479858143081996,-2.065605416880838,0.33585111212726565,4.94455768394936,,4.7420219467692055,,,,,,,,,
LBP05_S09,LBP05,-1637,14,9,13,-1637,1715803475.52,2024-05-15 20:04:35.520000+00:00,2024-05-16 05:04:35.520000+09:00,2024,5,15,20,4,35,520,,,,,,,,,-0.038574,-0.073242,0.347412,14.831543,-47.424316,5.79834,,,,,,,,,,,0.0,1.0,1.0,9.0,0.0,0.0,0.0,5.0,0.0,,,,,,,14.206811297522558,-1.938629424290035,-1.028691681874155,5.048130594982899,-2.1431505938524396,0.29470344485229943,5.492136842098918,,5.174017147969633,,,,,,,,,
LBP05_S09,LBP05,-1636,15,9,14,-1636,1715803475.56,2024-05-15 20:04:35.560000+00:00,2024-05-16 05:04:35.560000+09:00,2024,5,15,20,4,35,560,,,,,,,,,0.278809,-0.042725,0.703125,31.860352,-29.11377,16.296387,,,,,,,,,,,0.0,1.0,1.0,9.0,0.0,0.0,0.0,5.0,0.0,,,,,,,13.24825227376932,-1.401945208987598,-0.8989812762988749,5.578060685933671,-2.1992284022119435,0.2587441938003444,6.0015260674998245,,5.61584229161196,,,,,,,,,
LBP05_S09,LBP05,-1635,16,9,15,-1635,1715803475.6,2024-05-15 20:04:35.600000+00:00,2024-05-16 05:04:35.600000+09:00,2024,5,15,20,4,35,600,,,,,,,,,0.112793,-0.31543,1.160156,-0.061035,58.410645,11.962891,,,,,,,,,,,0.0,1.0,1.0,9.0,0.0,0.0,0.0,5.0,0.0,,,,,,,11.524908846846053,-1.3176019134097352,-0.44150516853070637,6.039057039807513,-2.251932478748333,0.24108398705911616,6.449769864708866,,6.061623811303753,,,,,,,,,
LBP05_S09,LBP05,-1634,17,9,16,-1634,1715803475.64,2024-05-15 20:04:35.640000+00:00,2024-05-16 05:04:35.640000+09:00,2024,5,15,20,4,35,640,,,,,,,,,-0.643555,-0.112549,1.601562,15.930176,36.315918,-17.272949,,,,,,,,,,,0.0,1.0,1.0,9.0,0.0,0.0,0.0,5.0,0.0,,,,,,,9.608025191610652,-1.808607703325901,0.24421641844329736,6.42337804747194,-2.324276786881369,0.2508526437968481,6.8355669239412675,,6.508776791366742,,,,,,,,,
LBP05_S09,LBP05,-1633,18,9,17,-1633,1715803475.68,2024-05-15 20:04:35.680000+00:00,2024-05-16 05:04:35.680000+09:00,2024,5,15,20,4,35,680,,,,,,,,,-0.65918,-0.203857,1.650635,17.76123,-90.942383,-15.136719,,,,,,,,,,,0.0,1.0,1.0,9.0,0.0,0.0,0.0,5.0,0.0,,,,,,,8.14323548002311,-2.764207979010936,1.039752307487713,6.749107466672864,-2.4348451060418066,0.2924427360963566,7.180838742167287,,6.957423127004733,,,,,,,,,
LBP05_S09,LBP05,-1632,19,9,18,-1632,1715803475.72,2024-05-15 20:04:35.720000+00:00,2024-05-16 05:04:35.720000+09:00,2024,5,15,20,4,35,720,,,,,,,,,0.00415,-0.300049,1.248047,-29.724121,-23.498535,17.211914,,,,,,,,,,,0.0,1.0,1.0,9.0,0.0,0.0,0.0,5.0,0.0,,,,,,,7.628687619639275,-3.913613725163567,1.8196409963762434,7.054254971458436,-2.5913896550483493,0.36522837595140634,7.524041820274377,,7.4093392442065795,,,,,,,,,
LBP05_S09,LBP05,-1631,20,9,19,-1631,1715803475.76,2024-05-15 20:04:35.760000+00:00,2024-05-16 05:04:35.760000+09:00,2024,5,15,20,4,35,760,,,,,,,,,-0.563965,-0.007812,0.138672,-23.010254,84.594727,6.652832,,,,,,,,,,,0.0,1.0,1.0,9.0,0.0,0.0,0.0,5.0,0.0,,,,,,,8.237713328060435,-4.938652375069515,2.463994737891259,7.383763504580853,-2.78893575005113,0.4637881654670567,7.90653056478761,,7.866988974059259,,,,,,,,,
LBP05_S09,LBP05,-1630,21,9,20,-1630,1715803475.8,2024-05-15 20:04:35.800000+00:00,2024-05-16 05:04:35.800000+09:00,2024,5,15,20,4,35,800,,,,,,,,,-0.120361,-0.191895,0.284668,6.164551,-47.851562,1.525879,,,,,,,,,,,0.0,1.0,1.0,9.0,0.0,0.0,0.0,5.0,0.0,,,,,,,9.758243736330249,-5.570799972517636,2.877561090913239,7.774093254034063,-3.0117677489518355,0.5788906091035863,8.3571756732375,,8.3327866113889,,,,,,,,,
LBP05_S09,LBP05,-1629,22,9,21,-1629,1715803475.84,2024-05-15 20:04:35.840000+00:00,2024-05-16 05:04:35.840000+09:00,2024,5,15,20,4,35,840,,,,,,,,,0.258545,-0.050049,0.582275,46.813965,-53.710938,-0.183105,,,,,,,,,,,0.0,1.0,1.0,9.0,0.0,0.0,0.0,5.0,0.0,,,,,,,11.681357151868603,-5.648432070157486,3.0085792584888216,8.241347540108807,-3.237705031758135,0.6992337794431391,8.88208708738232,,8.8084012205934,,,,,,,,,
LBP05_S09,LBP05,-1628,23,9,22,-1628,1715803475.88,2024-05-15 20:04:35.880000+00:00,2024-05-16 05:04:35.880000+09:00,2024,5,15,20,4,35,880,,,,,,,,,0.260498,-0.243164,0.97583,20.141602,31.37207,-0.793457,,,,,,,,,,,0.0,1.0,1.0,9.0,0.0,0.0,0.0,5.0,0.0,,,,,,,13.404562871829649,-5.134860059119201,2.860108746120004,8.777530054981993,-3.443099434122903,0.8136381292879393,9.463718855967818,,9.293818035271602,,,,,,,,,
LBP05_S09,LBP05,-1627,24,9,23,-1627,1715803475.92,2024-05-15 20:04:35.920000+00:00,2024-05-16 05:04:35.920000+09:00,2024,5,15,20,4,35,920,,,,,,,,,-0.477539,-0.1875,1.491699,41.381836,50.964355,-0.976562,,,,,,,,,,,0.0,1.0,1.0,9.0,0.0,0.0,0.0,5.0,0.0,,,,,,,14.456732070069434,-4.103386438144356,2.493623692834549,9.35579933778477,-3.607234891648677,0.9133830770013213,10.068634140625727,,9.786103811394643,,,,,,,,,
LBP05_S09,LBP05,-1626,25,9,24,-1626,1715803475.96,2024-05-15 20:04:35.960000+00:00,2024-05-16 05:04:35.960000+09:00,2024,5,15,20,4,35,960,,,,,,,,,-0.652344,-0.529053,1.685303,23.071289,-57.312012,17.700195,,,,,,,,,,,0.0,1.0,1.0,9.0,0.0,0.0,0.0,5.0,0.0,,,,,,,14.640553533523356,-2.704014261182489,2.0271383712264144,9.941421479125705,-3.7153954620959766,0.9944686118503778,10.659502440796235,,10.278329076333748,,,,,,,,,
LBP05_S09,LBP05,-1625,26,9,25,-1625,1715803476.0,2024-05-15 20:04:36+00:00,2024-05-16 05:04:36+09:00,2024,5,15,20,4,36,0,20.0,4.0,36.0,40.734474,141.643753,-22.83,3.0,8.0,-0.076172,0.094482,1.306885,46.569824,-39.794922,1.831055,-561.0,64.0,553.0,30.0,0.0,1022.299988,16.35,0.092161,-75.032249,3.817969,0.0,1.0,1.0,9.0,0.0,0.0,0.0,5.0,0.0,,,,,,,14.032305896620052,-1.133231485552732,1.6253879304028604,10.502713714990506,-3.760724721518086,1.0594841290664923,11.205915956753858,,10.759544060379111,,,,,,,,,
LBP05_S09,LBP05,-1624,27,9,26,-1624,1715803476.04,2024-05-15 20:04:36.040000+00:00,2024-05-16 05:04:36.040000+09:00,2024,5,15,20,4,36,40,,,,,,,,,-0.266846,-0.105469,0.418701,-60.72998,101.135254,-6.530762,,,,,,,,,,,0.0,1.0,1.0,9.0,0.0,0.0,0.0,5.0,0.0,,,,,,,12.853940445980715,0.3853651639776899,1.4760891246067978,11.016871332829734,-3.7453101149589783,1.1185276940507642,11.689735070723295,,11.216589979178945,,,,,,,,,
LBP05_S09,LBP05,-1623,28,9,27,-1623,1715803476.08,2024-05-15 20:04:36.080000+00:00,2024-05-16 05:04:36.080000+09:00,2024,5,15,20,4,36,80,,,,,,,,,-0.134277,-0.302246,0.280762,-86.303711,-50.170898,1.89209,,,,,,,,,,,0.0,1.0,1.0,9.0,0.0,0.0,0.0,5.0,0.0,,,,,,,11.305801079938018,1.6191864171124075,1.75151925114644,11.469103376027254,-3.680542658274482,1.1885884640966218,12.10369650339769,,11.637706478333985,,,,,,,,,
LBP05_S09,LBP05,-1622,29,9,28,-1622,1715803476.12,2024-05-15 20:04:36.120000+00:00,2024-05-16 05:04:36.120000+09:00,2024,5,15,20,4,36,120,,,,,,,,,0.195801,-0.245361,0.48999,62.011719,-58.959961,0.671387,,,,,,,,,,,0.0,1.0,1.0,9.0,0.0,0.0,0.0,5.0,0.0,,,,,,,9.478479888253933,2.3537843422209823,2.565231328594849,11.848242571557412,-3.586391284585643,1.2911977172404157,12.446294469665423,,12.016834974967164,,,,,,,,,
LBP05_S09,LBP05,-1621,30,9,29,-1621,1715803476.16,2024-05-15 20:04:36.160000+00:00,2024-05-16 05:04:36.160000+09:00,2024,5,15,20,4,36,160,,,,,,,,,0.285645,0.098145,0.82666,103.149414,45.532227,0.366211,,,,,,,,,,,0.0,1.0,1.0,9.0,0.0,0.0,0.0,5.0,0.0,,,,,,,7.4104596582198905,2.4348615085310485,3.9393770953479903,12.144660957886208,-3.488996824244401,1.4487728010543353,12.718680405241255,,12.35689334795514,,,,,,,,,
LBP05_S09,LBP05,-1620,31,9,30,-1620,1715803476.2,2024-05-15 20:04:36.200000+00:00,2024-05-16 05:04:36.200000+09:00,2024,5,15,20,4,36,200,,,,,,,,,-0.253906,-0.105957,1.354248,-20.263672,67.504883,6.835938,,,,,,,,,,,0.0,1.0,1.0,9.0,0.0,0.0,0.0,5.0,0.0,,,,,,,5.2425029359683855,1.8240038298763797,5.794063168625732,12.354361075324944,-3.416036671049346,1.6805353277993644,12.927634861235822,,12.670515547786222,,,,,,,,,
LBP05_S09,LBP05,-1619,32,9,31,-1619,1715803476.24,2024-05-15 20:04:36.240000+00:00,2024-05-16 05:04:36.240000+09:00,2024,5,15,20,4,36,240,,,,,,,,,-0.608643,-0.567139,1.64624,16.601562,-29.907227,10.498047,,,,,,,,,,,0.0,1.0,1.0,9.0,0.0,0.0,0.0,5.0,0.0,,,,,,,3.334448975132368,0.6447063443925382,7.960606803034062,12.487739034330238,-3.3902484172736442,1.998959599920727,13.09325207893275,,12.977825088834532,,,,,,,,,
LBP05_S09,LBP05,-1618,33,9,32,-1618,1715803476.28,2024-05-15 20:04:36.280000+00:00,2024-05-16 05:04:36.280000+09:00,2024,5,15,20,4,36,280,,,,,,,,,-0.232666,-0.052734,1.420166,34.362793,-67.138672,18.249512,,,,,,,,,,,0.0,1.0,1.0,9.0,0.0,0.0,0.0,5.0,0.0,,,,,,,2.2328400465482257,-0.8197226491231748,10.211602128254542,12.577052636192168,-3.4230373232385714,2.4074236850509085,13.255003822299589,,13.302248121933962,,,,,,,,,
LBP05_S09,LBP05,-1617,34,9,33,-1617,1715803476.32,2024-05-15 20:04:36.320000+00:00,2024-05-16 05:04:36.320000+09:00,2024,5,15,20,4,36,320,,,,,,,,,-0.012451,-0.116455,0.86377,-44.921875,82.03125,11.657715,,,,,,,,,,,0.0,1.0,1.0,9.0,0.0,0.0,0.0,5.0,0.0,,,,,,,2.4818138688925493,-2.1906782638740876,12.296495270180593,12.67632519094787,-3.510664453793535,2.8992834958581324,13.469217870505487,,13.666200585611554,-2.348204429868942,,,,,,,,
LBP05_S09,LBP05,-1616,35,9,34,-1616,1715803476.36,2024-05-15 20:04:36.360000+00:00,2024-05-16 05:04:36.360000+09:00,2024,5,15,20,4,36,360,,,,,,,,,-0.263916,-0.040283,0.044678,-74.09668,-18.310547,1.037598,,,,,,,,,,,0.0,1.0,1.0,9.0,0.0,0.0,0.0,5.0,0.0,,,,,,,4.371261920459754,-3.0963710113363456,13.974427163376916,12.85117566776626,-3.6345192942469886,3.458260582393209,13.79572443910706,,14.088048077401734,-2.366435251057717,,,,,,,,
LBP05_S09,LBP05,-1615,36,9,35,-1615,1715803476.4,2024-05-15 20:04:36.400000+00:00,2024-05-16 05:04:36.400000+09:00,2024,5,15,20,4,36,400,,,,,,,,,0.129639,-0.198975,0.434326,-7.873535,-60.36377,8.056641,,,,,,,,,,,0.0,1.0,1.0,9.0,0.0,0.0,0.0,5.0,0.0,,,,,,,7.760304145862626,-3.2740641343832,15.044463541830485,13.161587833600764,-3.7654818596223167,4.060039124066428,14.279011367236965,,14.580444224879411,-2.37834855020553,,,,,,,,
LBP05_S09,LBP05,-1614,37,9,36,-1614,1715803476.44,2024-05-15 20:04:36.440000+00:00,2024-05-16 05:04:36.440000+09:00,2024,5,15,20,4,36,440,,,,,,,,,0.34375,-0.290039,0.85498,80.322266,5.126953,25.512695,,,,,,,,,,,0.0,1.0,1.0,9.0,0.0,0.0,0.0,5.0,0.0,,,,,,,12.079902827233834,-2.6423176746012236,15.378236107671539,13.644783946690119,-3.8711745666063657,4.675168568373289,14.933965401717586,,15.149068760534766,-2.3776506237929977,,,,,,,,
LBP05_S09,LBP05,-1613,38,9,37,-1613,1715803476.48,2024-05-15 20:04:36.480000+00:00,2024-05-16 05:04:36.480000+09:00,2024,5,15,20,4,36,480,,,,,,,,,-0.092529,0.054932,1.210693,46.020508,55.908203,25.939941,,,,,,,,,,,0.0,1.0,1.0,9.0,0.0,0.0,0.0,5.0,0.0,-0.17966469333333335,-0.182653,1.00905924,3.615722653333333,-0.18961591999999977,4.757487013333334,16.51432560752417,-1.3213622783268708,14.953467993673993,14.305356970991085,-3.9240290577394408,5.2733072881202485,15.743221140173596,-2.348204429868942,15.79069485298552,-2.3726197689822532,0.08713569333333335,0.23758500000000002,0.20163376,0.5263544533333333,0.32356673878725284,0.32356673878725284,0.32356673878725284,0.32356673878725284
LBP05_S09,LBP05,-1612,39,9,38,-1612,1715803476.52,2024-05-15 20:04:36.520000+00:00,2024-05-16 05:04:36.520000+09:00,2024,5,15,20,4,36,520,,,,,,,,,-0.504395,-0.592041,1.71582,41.07666,-16.906738,21.606445,,,,,,,,,,,0.0,1.0,1.0,9.0,0.0,0.0,0.0,5.0,0.0,-0.18530272,-0.17472330666666666,1.0088932266666668,4.000651039999999,1.254068986666667,4.817708373333333,20.250206212687452,0.4028377612509988,13.873505674397618,15.115365219498583,-3.907915547289401,5.8282475150961535,16.66476938756724,-2.384666072246491,16.49047151007589,-2.370603930159232,-0.31909228,-0.41731769333333335,0.7069267733333331,1.4433367466666664,0.8807493418562005,0.6021580403217266,0.6021580403217266,0.6021580403217266
LBP05_S09,LBP05,-1611,40,9,39,-1611,1715803476.56,2024-05-15 20:04:36.560000+00:00,2024-05-16 05:04:36.560000+09:00,2024,5,15,20,4,36,560,,,,,,,,,-0.363281,-0.026367,1.655273,49.987793,-67.199707,4.394531,,,,,,,,,,,0.0,1.0,1.0,9.0,0.0,0.0,0.0,5.0,0.0,-0.19057616,-0.17327473333333332,0.9939843733333333,2.5960286533333328,0.2596028400000003,4.543457066666667,22.64976983663633,2.1522021977773242,12.353529640946237,16.021356012964038,-3.821827459378308,6.3223887007340025,17.642641880018026,-2.402175148501157,17.219671873051283,-2.3691899270593977,-0.17270484000000003,0.14690773333333332,0.6612886266666667,0.9809012,0.6990790310338664,0.6344650372257732,0.6344650372257732,0.6344650372257732
LBP05_S09,LBP05,-1610,41,9,40,-1610,1715803476.6,2024-05-15 20:04:36.600000+00:00,2024-05-16 05:04:36.600000+09:00,2024,5,15,20,4,36,600,,,,,,,,,-0.073486,-0.237305,1.102783,-28.808594,64.575195,7.873535,,,,,,,,,,,0.0,1.0,1.0,9.0,0.0,0.0,0.0,5.0,0.0,-0.1799902266666667,-0.17293294666666667,0.9766796799999999,2.5097656399999995,-1.0221354399999996,4.601237013333333,23.275794568857844,3.5445699510120074,10.667792235446951,16.95238779571835,-3.6800446613378277,6.749100390151881,18.613880217789355,-2.375556844555401,17.935922103249204,-2.3692205610776074,0.1065042266666667,-0.06437205333333332,0.12610332000000013,0.2969796000000001,0.1771692943577884,0.520141101508777,0.520141101508777,0.520141101508777
LBP05_S09,LBP05,-1609,42,9,41,-1609,1715803476.64,2024-05-15 20:04:36.640000+00:00,2024-05-16 05:04:36.640000+09:00,2024,5,15,20,4,36,640,,,,,,,,,-0.408447,0.07666,0.097168,-69.763184,43.945312,1.89209,,,,,,,,,,,0.0,1.0,1.0,9.0,0.0,0.0,0.0,5.0,0.0,-0.16805012,-0.16933594666666665,0.96510416,3.597005226666666,0.8439127333333338,4.973144573333334,21.812936221670245,4.280856233313856,9.075225295418798,17.82490524458516,-3.5088104120052734,7.112109401968633,19.509513003440315,-2.3524963497392744,18.58734600480225,-2.3721513365529803,-0.24039688,0.24599594666666666,-0.86793616,1.3543289866666666,0.9336047576601725,0.6028338327390561,0.6028338327390561,0.6028338327390561
LBP05_S09,LBP05,-1608,43,9,42,-1608,1715803476.68,2024-05-15 20:04:36.680000+00:00,2024-05-16 05:04:36.680000+09:00,2024,5,15,20,4,36,680,,,,,,,,,-0.016846,-0.266846,0.337646,15.50293,-50.537109,-3.540039,,,,,,,,,,,0.0,1.0,1.0,9.0,0.0,0.0,0.0,5.0,0.0,-0.17205077333333332,-0.17052085333333333,0.9675292933333333,3.315429706666666,1.4485676800000005,5.739746146666667,18.008518672197425,4.212759498742826,7.75546911361028,18.545245991473056,-3.3403000320555605,7.422328166513044,20.252770393203264,-2.3605247360441237,19.12033263807918,-2.3742710229899697,0.15520477333333332,-0.0963251466666667,-0.6298832933333333,0.8814132133333332,0.6558353594967659,0.6116674205320077,0.6116674205320077,0.6116674205320077
LBP05_S09,LBP05,-1607,44,9,43,-1607,1715803476.72,2024-05-15 20:04:36.720000+00:00,2024-05-16 05:04:36.720000+09:00,2024,5,15,20,4,36,720,,,,,,,,,0.344482,-0.083252,0.809082,96.252441,-14.160156,0.793457,,,,,,,,,,,0.0,1.0,1.0,9.0,0.0,0.0,0.0,5.0,0.0,-0.17605793333333333,-0.17442710666666666,0.9891210933333332,3.993326853333333,0.06266273333333373,6.398112039999999,11.737382938624348,3.369732178136528,6.783665950807194,19.01474130901803,-3.2055107449300992,7.693674804545331,20.76122150025944,-2.3607059084603934,19.488851883698644,-2.375269837794222,0.5205399333333334,0.09117510666666666,-0.18003909333333323,0.7917541333333332,0.5582909612367353,0.6040422120612545,0.6040422120612545,0.6040422120612545
LBP05_S09,LBP05,-1606,45,9,44,-1606,1715803476.76,2024-05-15 20:04:36.760000+00:00,2024-05-16 05:04:36.760000+09:00,2024,5,15,20,4,36,760,,,,,,,,,-0.068848,-0.014404,1.271484,-0.183105,52.246094,27.282715,,,,,,,,,,,0.0,1.0,1.0,9.0,0.0,0.0,0.0,5.0,0.0,-0.17971026666666667,-0.17486981333333335,1.0075,5.17740888,-0.5948893466666662,6.534016986666666,3.1867255805469745,1.942205498436189,6.152112759933156,19.14221033223991,-3.1278225249926517,7.939759314942657,20.958226741086243,-2.3694349992050756,19.662453207652543,-2.370627774967179,0.11086226666666667,0.16046581333333335,0.263984,0.53531208,0.3282183292797636,0.5695642267135681,0.5695642267135681,0.5695642267135681
LBP05_S09,LBP05,-1605,46,9,45,-1605,1715803476.8,2024-05-15 20:04:36.800000+00:00,2024-05-16 05:04:36.800000+09:00,2024,5,15,20,4,36,800,,,,,,,,,-0.598389,-0.361084,1.601074,17.39502,5.737305,19.042969,,,,,,,,,,,0.0,1.0,1.0,9.0,0.0,0.0,0.0,5.0,0.0,-0.18635089333333332,-0.17178712,1.0080956933333332,3.9827474266666667,0.5737304400000004,5.7576498,-6.959148118658743,0.23736580194081416,5.819909829855537,18.86384440749356,-3.118327892915019,8.172555708136878,20.793250382767443,-2.395597540355965,19.63057439750737,-2.3652824557428587,-0.4120381066666666,-0.18929688000000003,0.592978306666667,1.1943132933333336,0.7464797266506663,0.5892215044843568,0.5892215044843568,0.5892215044843568
LBP05_S09,LBP05,-1604,47,9,46,-1604,1715803476.84,2024-05-15 20:04:36.840000+00:00,2024-05-16 05:04:36.840000+09:00,2024,5,15,20,4,36,840,,,,,,,,,-0.384521,-0.269287,1.638184,27.954102,-81.054688,22.583008,,,,,,,,,,,0.0,1.0,1.0,9.0,0.0,0.0,0.0,5.0,0.0,-0.18720050666666666,-0.17335612000000003,0.991722,2.4047851866666665,-0.5883789333333328,4.899902399999999,-17.48527625167163,-1.3777952463052485,5.753831227608999,18.164433357426695,-3.173439702767229,8.402708957241238,20.26383173448687,-2.393348200922873,19.40232612684406,-2.362250508781895,-0.19732049333333335,-0.09593087999999997,0.6464620000000001,0.9397133733333334,0.6826794476699035,0.5985672988029116,0.5985672988029116,0.5985672988029116
LBP05_S09,LBP05,-1603,48,9,47,-1603,1715803476.88,2024-05-15 20:04:36.880000+00:00,2024-05-16 05:04:36.880000+09:00,2024,5,15,20,4,36,880,,,,,,,,,-0.010986,-0.037354,1.15918,-38.146973,39.916992,-11.352539,,,,,,,,,,,0.0,1.0,1.0,9.0,0.0,0.0,0.0,5.0,0.0,-0.173291,-0.17257812,0.97362956,3.321940133333333,-1.4078776266666662,4.911295626666667,-26.84554495679178,-2.538753572547878,5.930963733367735,17.090611559155025,-3.274989845669144,8.639947506575947,19.428413596368266,-2.3581925779114616,19.00292126382183,-2.3617899225455004,0.162305,0.13522412,0.1855504400000001,0.4830795600000001,0.28117155161745655,0.5697131399678702,0.5697131399678702,0.5697131399678702
LBP05_S09,LBP05,-1602,49,9,48,-1602,1715803476.92,2024-05-15 20:04:36.920000+00:00,2024-05-16 05:04:36.920000+09:00,2024,5,15,20,4,36,920,,,,,,,,,-0.512451,0.256348,0.071289,-47.607422,83.618164,-46.142578,,,,,,,,,,,0.0,1.0,1.0,9.0,0.0,0.0,0.0,5.0,0.0,-0.15956053333333334,-0.1655631466666667,0.9627864533333333,4.421386746666666,0.5045572800000006,5.4549154133333335,-33.560486906266014,-2.9457573027651116,6.30743421857725,15.748192082904385,-3.392820137779749,8.892244875319037,18.400782627106214,-2.338245443976064,18.469202468332035,-2.362018578457571,-0.3528904666666667,0.42191114666666674,-0.8914974533333333,1.6662990666666668,1.0475248953822616,0.6095307862524028,0.6095307862524028,0.6095307862524028
LBP05_S09,LBP05,-1601,50,9,49,-1601,1715803476.96,2024-05-15 20:04:36.960000+00:00,2024-05-16 05:04:36.960000+09:00,2024,5,15,20,4,36,960,,,,,,,,,0.005371,-0.314209,0.32959,-178.039551,-77.148438,9.765625,,,,,,,,,,,0.0,1.0,1.0,9.0,0.0,0.0,0.0,5.0,0.0,-0.16440753333333333,-0.16695638666666665,0.96704752,3.8142904,1.8546549333333338,6.149902386666666,-36.67010166204338,-2.427340775865975,6.793157840582944,14.28138801642265,-3.4899137688143878,9.163971188942355,17.323853778566313,-2.3487219562579567,17.846148250977606,-2.3638388436543254,0.16977853333333331,-0.14725261333333337,-0.6374575200000001,0.9544886666666668,0.6759143232088403,0.6146372121721287,0.6146372121721287,0.6146372121721287
LBP05_S09,LBP05,-1600,51,9,50,-1600,1715803477.0,2024-05-15 20:04:37+00:00,2024-05-16 05:04:37+09:00,2024,5,15,20,4,37,0,20.0,4.0,37.0,40.734413,141.643692,-20.964001,3.0,8.0,0.316895,-0.625,0.718994,-56.091309,-58.166504,42.480469,-564.0,67.0,549.0,35.0,0.0,1022.599976,16.389999,0.095134,-77.510185,3.817969,0.0,1.0,1.0,9.0,0.0,0.0,0.0,5.0,0.0,-0.16723305333333333,-0.17104818666666669,0.9890169200000001,3.0379232133333334,-0.29947918666666623,6.37613936,-36.04277168660066,-1.0045160927751773,7.2739273248585326,12.839677148958623,-3.530094412525395,9.454928281936697,16.331397511156222,-2.345237374945759,17.184246126597305,-2.361121974270836,0.4841280533333333,-0.45395181333333334,-0.27002292000000006,1.2081027866666667,0.7164946602580307,0.6219127441782646,0.6219127441782646,0.6219127441782646
LBP05_S09,LBP05,-1599,52,9,51,-1599,1715803477.04,2024-05-15 20:04:37.040000+00:00,2024-05-16 05:04:37.040000+09:00,2024,5,15,20,4,37,40,,,,,,,,,0.104736,0.004639,1.089844,69.763184,44.433594,29.724121,,,,,,,,,,,0.0,1.0,1.0,9.0,0.0,0.0,0.0,5.0,0.0,-0.16906248000000001,-0.17197592,1.0058170533333333,2.9451497733333336,-0.4451497599999996,6.30045576,-32.38498187372111,1.071149634624375,7.679017756608752,11.54427787400978,-3.4872484271404196,9.762088992201047,15.515464373218029,-2.347890487375336,16.53616799894855,-2.3522638693248843,0.27379848,0.17661492,0.08402694666666677,0.5344403466666667,0.3364802600198705,0.6028839119010383,0.6028839119010383,0.6028839119010383
LBP05_S09,LBP05,-1598,53,9,52,-1598,1715803477.08,2024-05-15 20:04:37.080000+00:00,2024-05-16 05:04:37.080000+09:00,2024,5,15,20,4,37,80,,,,,,,,,-0.562256,-0.291992,1.631104,-11.352539,36.010742,20.996094,,,,,,,,,,,0.0,1.0,1.0,9.0,0.0,0.0,0.0,5.0,0.0,-0.17504556000000002,-0.17267578666666666,1.0044140533333332,1.8896484666666666,1.1222330533333338,6.30289716,-26.943827348641502,3.3492671186542124,8.04149150468863,10.46652478006412,-3.3532777423942512,10.083748652388593,14.915582438305307,-2.362811295164829,15.95155553899321,-2.3443773096366876,-0.38721043999999993,-0.11931621333333331,0.6266899466666669,1.1332166000000001,0.7462630721550336,0.6118451094169131,0.6118451094169131,0.6118451094169131
LBP05_S09,LBP05,-1597,54,9,53,-1597,1715803477.12,2024-05-15 20:04:37.120000+00:00,2024-05-16 05:04:37.120000+09:00,2024,5,15,20,4,37,120,,,,,,,,,-0.53833,-0.363281,1.812744,24.414062,-62.683105,-9.82666,,,,,,,,,,,0.0,1.0,1.0,9.0,0.0,0.0,0.0,5.0,0.0,-0.17992186666666665,-0.17168294666666667,0.9911295466666666,0.6705729466666666,-0.165201853333333,6.220703146666667,-21.058678450999096,5.295272589459138,8.491001813788799,9.624177642024156,-3.1414668388158855,10.423388724940144,14.530679326715143,-2.378908560427932,15.470373781447634,-2.3391198697159497,-0.3584081333333333,-0.19159805333333335,0.8216144533333333,1.37162064,0.9166332494552221,0.6297738235368135,0.6297738235368135,0.6297738235368135
LBP05_S09,LBP05,-1596,55,9,54,-1596,1715803477.16,2024-05-15 20:04:37.160000+00:00,2024-05-16 05:04:37.160000+09:00,2024,5,15,20,4,37,160,,,,,,,,,-0.113281,-0.22583,1.406982,-19.104004,29.052734,4.150391,,,,,,,,,,,0.0,1.0,1.0,9.0,0.0,0.0,0.0,5.0,0.0,-0.16925129333333333,-0.17418294666666667,0.9763932266666667,0.9602864800000002,-1.5820312799999996,6.66422528,-15.779586699714736,6.450470223589174,9.1658582638618,8.992994174035566,-2.8834480298723184,10.790023055494617,14.33920549728323,-2.3422663053701833,15.116856837830833,-2.3378375978561197,0.055970293333333324,-0.05164705333333333,0.43058877333333323,0.5382061199999999,0.4372719789496466,0.6190792766153043,0.6190792766153043,0.6190792766153043
LBP05_S09,LBP05,-1595,56,9,55,-1595,1715803477.2,2024-05-15 20:04:37.200000+00:00,2024-05-16 05:04:37.200000+09:00,2024,5,15,20,4,37,200,,,,,,,,,-0.50293,-0.053223,0.162354,-25.024414,111.999512,-34.606934,,,,,,,,,,,0.0,1.0,1.0,9.0,0.0,0.0,0.0,5.0,0.0,-0.15559244,-0.17218750666666668,0.9666666666666667,1.59667972,-0.13346357333333297,7.24365236,-11.693483201246226,6.5751873145070805,10.093233978043868,8.525254845985717,-2.620440537292035,11.193752414616371,14.312469106279886,-2.30701649089645,14.896532282940242,-2.3373416551816386,-0.34733756,0.11896450666666669,-0.8043126666666667,1.2706147333333333,0.8841463680825937,0.6330301761662143,0.6330301761662143,0.6330301761662143
LBP05_S09,LBP05,-1594,57,9,56,-1594,1715803477.24,2024-05-15 20:04:37.240000+00:00,2024-05-16 05:04:37.240000+09:00,2024,5,15,20,4,37,240,,,,,,,,,-0.128662,0.011719,0.242432,-83.068848,-56.884766,-0.183105,,,,,,,,,,,0.0,1.0,1.0,9.0,0.0,0.0,0.0,5.0,0.0,-0.16010416,-0.1744824266666667,0.97076172,3.012695346666667,1.3110351200000003,7.36572268,-8.95987129458575,5.716721366221826,11.115921687323615,8.166859994202287,-2.3917716826431623,11.638389282109316,14.417707134933504,-2.3144826040409034,14.797783373403874,-2.338621202456234,0.03144216,0.1862014266666667,-0.7283297200000001,0.9459733066666668,0.7524119627926221,0.6389992654975346,0.6389992654975346,0.6389992654975346
LBP05_S09,LBP05,-1593,58,9,57,-1593,1715803477.28,2024-05-15 20:04:37.280000+00:00,2024-05-16 05:04:37.280000+09:00,2024,5,15,20,4,37,280,,,,,,,,,0.340088,-0.614502,0.812256,-11.291504,-52.734375,49.194336,,,,,,,,,,,0.0,1.0,1.0,9.0,0.0,0.0,0.0,5.0,0.0,-0.16221027999999998,-0.18004884000000002,0.99254232,4.552408893333333,-0.1009115066666665,7.6350911733333335,-7.45461983753702,4.170438078125263,11.920616447786513,7.868675200700807,-2.224954159518152,12.115213940020777,14.616596020912487,-2.3056181787040804,14.797277702683308,-2.334558433181207,0.50229828,-0.43445316,-0.18028632,1.11703776,0.6881542468837102,0.6413399788968763,0.6413399788968763,0.6413399788968763
LBP05_S09,LBP05,-1592,59,9,58,-1592,1715803477.32,2024-05-15 20:04:37.320000+00:00,2024-05-16 05:04:37.320000+09:00,2024,5,15,20,4,37,320,,,,,,,,,-0.041504,0.236572,1.169434,69.030762,54.931641,34.545898,,,,,,,,,,,0.0,1.0,1.0,9.0,0.0,0.0,0.0,5.0,0.0,-0.1632845066666667,-0.17395507999999998,1.0086035199999999,4.754231813333333,0.11393224000000013,7.652181013333334,-6.905899260524273,2.3539016044102454,12.160344857092058,7.592439230279836,-2.130798095341742,12.60162773430446,14.865613190938193,-2.3254227253777704,14.866690579295684,-2.327231219886369,0.12178050666666669,0.41052708,0.16083048000000022,0.6931380666666669,0.4574160234560513,0.6329797991041116,0.6329797991041116,0.6329797991041116
LBP05_S09,LBP05,-1591,60,9,59,-1591,1715803477.36,2024-05-15 20:04:37.360000+00:00,2024-05-16 05:04:37.360000+09:00,2024,5,15,20,4,37,360,,,,,,,,,-0.677246,-0.447754,1.699219,-39.306641,14.648438,19.775391,,,,,,,,,,,0.0,1.0,1.0,9.0,0.0,0.0,0.0,5.0,0.0,-0.16967773333333333,-0.17407552,1.00879884,2.59358728,2.139485626666667,7.570800799999999,-6.968660748265483,0.6589133367271994,11.603241770588633,7.313692800349217,-2.104441561872654,13.065757405128005,15.120608229660416,-2.3437625295131435,14.978002653735341,-2.3193941671285274,-0.5075682666666667,-0.27367847999999995,0.69042016,1.4716669066666666,0.8995584767409733,0.6445701763926708,0.6445701763926708,0.6445701763926708
LBP05_S09,LBP05,-1590,61,9,60,-1590,1715803477.4,2024-05-15 20:04:37.400000+00:00,2024-05-16 05:04:37.400000+09:00,2024,5,15,20,4,37,400,,,,,,,,,-0.48877,-0.308594,1.743896,-0.732422,-88.378906,6.347656,,,,,,,,,,,0.0,1.0,1.0,9.0,0.0,0.0,0.0,5.0,0.0,-0.17473632,-0.17407552,0.9986295733333335,-0.04150386666666615,0.9611002133333333,7.720540386666666,-7.259394401068442,-0.6545512066824931,10.224906633907526,7.023317024306479,-2.130623610139954,13.474753670484306,15.343908415792546,-2.35803284769171,15.106308455032908,-2.31451787723966,-0.31403368,-0.13451847999999997,0.7452664266666664,1.1938185866666664,0.8198380451969489,0.6518730042595157,0.6518730042595157,0.6518730042595157
LBP05_S09,LBP05,-1589,62,9,61,-1589,1715803477.44,2024-05-15 20:04:37.440000+00:00,2024-05-16 05:04:37.440000+09:00,2024,5,15,20,4,37,440,,,,,,,,,0.0271,-0.035889,1.262451,25.939941,28.442383,1.647949,,,,,,,,,,,0.0,1.0,1.0,9.0,0.0,0.0,0.0,5.0,0.0,-0.16462564000000002,-0.18212890666666667,0.9871647333333332,-0.518391893333333,-0.5721029066666666,7.986653666666666,-7.398221203301633,-1.4917613237734706,8.201446558033192,6.727388176174414,-2.1902940630908927,13.802811532805634,15.510407666012352,-2.3072627946250623,15.230880137896133,-2.3152962496232954,0.19172564000000003,0.14623990666666667,0.2752862666666668,0.6132518133333335,0.36596087215788,0.6404365189754503,0.6404365189754503,0.6404365189754503
LBP05_S09,LBP05,-1588,63,9,62,-1588,1715803477.48,2024-05-15 20:04:37.480000+00:00,2024-05-16 05:04:37.480000+09:00,2024,5,15,20,4,37,480,,,,,,,,,-0.557861,0.251953,0.079834,-39.18457,84.16748,-20.324707,,,,,,,,,,,0.0,1.0,1.0,9.0,0.0,0.0,0.0,5.0,0.0,-0.15290362666666668,-0.17543945333333333,0.9756966266666668,2.53173832,1.085611946666667,8.125000026666667,-7.076625218634846,-1.8861315551100875,5.82161820987079,6.444323167429021,-2.265739325295296,14.035676261200466,15.609711204429065,-2.2895391622164545,15.33577884225833,-2.317402441116004,-0.40495737333333337,0.4273924533333333,-0.8958626266666668,1.7282124533333336,1.0720189500383928,0.6703746074254958,0.6570358432471018,0.6570358432471018
LBP05_S09,LBP05,-1587,64,9,63,-1587,1715803477.52,2024-05-15 20:04:37.520000+00:00,2024-05-16 05:04:37.520000+09:00,2024,5,15,20,4,37,520,,,,,,,,,-0.0625,-0.434326,0.345703,-79.772949,-61.401367,0.793457,,,,,,,,,,,0.0,1.0,1.0,9.0,0.0,0.0,0.0,5.0,0.0,-0.15740231999999998,-0.17654948,0.9772265733333332,2.9606120266666673,2.4877929333333335,8.903808613333334,-6.12675637234484,-1.9222596375715857,3.376556317572951,6.199252912535227,-2.3426297107981595,14.170738513903384,15.643800071111732,-2.300538032849515,15.410728764247938,-2.3228003015107808,0.09490231999999998,-0.25777651999999995,-0.6315235733333332,0.9842024133333331,0.6886778697478195,0.6626917485411606,0.6582077701545359,0.6582077701545359
LBP05_S09,LBP05,-1586,65,9,64,-1586,1715803477.56,2024-05-15 20:04:37.560000+00:00,2024-05-16 05:04:37.560000+09:00,2024,5,15,20,4,37,560,,,,,,,,,0.316406,-0.108887,0.667725,50.598145,-42.358398,5.79834,,,,,,,,,,,0.0,1.0,1.0,9.0,0.0,0.0,0.0,5.0,0.0,-0.16134437333333332,-0.18364908,0.9948209733333332,4.446614626666667,0.6510416266666668,9.581705746666666,-4.547434091991008,-1.6655037462510947,1.0852909066761238,6.017355548855587,-2.4092498606482033,14.214150150170429,15.622263510258893,-2.293503406481511,15.452162270498343,-2.324638351848826,0.47775037333333337,0.07476208,-0.3270959733333332,0.8796084266666665,0.5838035316756369,0.6580807285668314,0.6555504759231466,0.6555504759231466
LBP05_S09,LBP05,-1585,66,9,65,-1585,1715803477.6,2024-05-15 20:04:37.600000+00:00,2024-05-16 05:04:37.600000+09:00,2024,5,15,20,4,37,600,,,,,,,,,0.027588,-0.247314,1.301025,23.254395,65.734863,15.319824,,,,,,,,,,,0.0,1.0,1.0,9.0,0.0,0.0,0.0,5.0,0.0,-0.16370114666666666,-0.17826822666666667,1.0121940133333334,6.277669320000001,0.7584634933333334,9.472656266666668,-2.460791623902644,-1.1287646922191685,-0.918103669945134,5.918923883899481,-2.45440044833697,14.177426003372624,15.558185934912165,-2.3148002147328035,15.463888118395165,-2.3196599570977607,0.19128914666666666,-0.06904577333333334,0.28883098666666673,0.5491659066666668,0.35324523394732416,0.6651237661504129,0.6451261572343252,0.6451261572343252
LBP05_S09,LBP05,-1584,67,9,66,-1584,1715803477.64,2024-05-15 20:04:37.640000+00:00,2024-05-16 05:04:37.640000+09:00,2024,5,15,20,4,37,640,,,,,,,,,-0.610596,-0.280273,1.695557,9.094238,25.45166,-6.591797,,,,,,,,,,,0.0,1.0,1.0,9.0,0.0,0.0,0.0,5.0,0.0,-0.16874997333333336,-0.17607748,1.0139615999999998,4.680175826666667,3.2234700000000003,8.845214853333331,-0.025363466108732413,-0.27883263644788037,-2.5496400598948843,5.917909345255132,-2.465553753794885,14.075440400976829,15.466694178555443,-2.3355445189679913,15.4568315923932,-2.3135304546954765,-0.44184602666666667,-0.10419551999999999,0.6815954000000002,1.2276369466666668,0.8189364486761787,0.6605370337910531,0.6509198336157203,0.6509198336157203
LBP05_S09,LBP05,-1583,68,9,67,-1583,1715803477.68,2024-05-15 20:04:37.680000+00:00,2024-05-16 05:04:37.680000+09:00,2024,5,15,20,4,37,680,,,,,,,,,-0.450195,-0.317383,1.799072,26.672363,-85.449219,0.854492,,,,,,,,,,,0.0,1.0,1.0,9.0,0.0,0.0,0.0,5.0,0.0,-0.17606117333333332,-0.17483074666666668,1.0022168133333333,0.970865933333334,2.2623697333333332,8.057454439999999,2.6290174074663484,0.9251382882314221,-3.728660758794825,6.023070041553786,-2.4285482222656283,13.926293970625036,15.36609524080856,-2.3595967826518436,15.447637788930283,-2.3151186959843773,-0.2741338266666667,-0.14255225333333335,0.7968551866666667,1.2135412666666667,0.8546629092050789,0.6684901357793857,0.6574921908927963,0.6574921908927963
LBP05_S09,LBP05,-1582,69,9,68,-1582,1715803477.72,2024-05-15 20:04:37.720000+00:00,2024-05-16 05:04:37.720000+09:00,2024,5,15,20,4,37,720,,,,,,,,,-0.010742,-0.049805,1.087891,-30.456543,31.799316,-5.981445,,,,,,,,,,,0.0,1.0,1.0,9.0,0.0,0.0,0.0,5.0,0.0,-0.1717936,-0.17624025333333335,0.9876855600000001,-1.3232421333333326,-0.11149094666666656,7.705078133333333,5.397317428811998,2.4719594650556904,-4.350716664870367,6.238962738706266,-2.3296698436634005,13.752265304030221,15.279948253442262,-2.343803228758223,15.456422765241797,-2.3168577819238445,0.1610516,0.12643525333333333,0.10020543999999987,0.3876922933333332,0.22795749900720033,0.6552767972902042,0.6440692317713715,0.6440692317713715
LBP05_S09,LBP05,-1581,70,9,69,-1581,1715803477.76,2024-05-15 20:04:37.760000+00:00,2024-05-16 05:04:37.760000+09:00,2024,5,15,20,4,37,760,,,,,,,,,-0.45459,0.107422,0.102783,-53.222656,52.79541,-6.04248,,,,,,,,,,,0.0,1.0,1.0,9.0,0.0,0.0,0.0,5.0,0.0,-0.15817054666666666,-0.17985678666666666,0.9763248800000001,-1.4982095733333325,-0.01790370666666656,7.818196626666667,8.144140691787328,4.242831469702321,-4.292723775707378,6.564728366377759,-2.1599565848753075,13.580556353001926,15.237866708628605,-2.293978582002492,15.504310964546155,-2.3186387751854016,-0.2964194533333333,0.2872787866666667,-0.8735418800000001,1.45724012,0.9661619997169413,0.6807945441076914,0.653829618678813,0.653829618678813
LBP05_S09,LBP05,-1580,71,9,70,-1580,1715803477.8,2024-05-15 20:04:37.800000+00:00,2024-05-16 05:04:37.800000+09:00,2024,5,15,20,4,37,800,,,,,,,,,0.073975,-0.502686,0.412109,-18.371582,-70.129395,0.854492,,,,,,,,,,,0.0,1.0,1.0,9.0,0.0,0.0,0.0,5.0,0.0,-0.15646481333333334,-0.17688804,0.9732129066666668,-0.5981444666666659,1.80338536,7.97932944,10.668386146095045,5.991060326723141,-3.445799658588099,6.991463812221561,-1.9203141718063819,13.442724366658402,15.273343155772922,-2.2967378236688654,15.611333164609977,-2.32503391672575,0.23043981333333335,-0.32579795999999994,-0.5611039066666668,1.11734168,0.6885378801386737,0.6784768702472115,0.6548504498982206,0.6548504498982206
LBP05_S09,LBP05,-1579,72,9,71,-1579,1715803477.84,2024-05-15 20:04:37.840000+00:00,2024-05-16 05:04:37.840000+09:00,2024,5,15,20,4,37,840,,,,,,,,,0.377686,0.083008,0.747803,130.187988,-3.112793,-10.803223,,,,,,,,,,,0.0,1.0,1.0,9.0,0.0,0.0,0.0,5.0,0.0,-0.16507809333333331,-0.17671877333333333,0.9840397200000001,-0.4825845733333326,0.26611322666666687,7.8662109466666665,12.748231247129784,7.374367756567026,-1.7623176966491187,7.501393062106752,-1.625339461543701,13.372231658792437,15.418469631383175,-2.3231452075140755,15.794794861654413,-2.327283645420147,0.5427640933333333,0.2597267733333333,-0.23623672000000007,1.0387275866666665,0.6464198679453305,0.6770264870582288,0.6546095761281381,0.6546095761281381
LBP05_S09,LBP05,-1578,73,9,72,-1578,1715803477.88,2024-05-15 20:04:37.880000+00:00,2024-05-16 05:04:37.880000+09:00,2024,5,15,20,4,37,880,,,,,,,,,-0.051758,-0.105225,1.278809,13.977051,78.796387,8.911133,,,,,,,,,,,0.0,1.0,1.0,9.0,0.0,0.0,0.0,5.0,0.0,-0.1648209333333333,-0.1824512,1.0064876266666667,0.8756511066666675,-0.6559245333333332,7.787272146666666,14.252202296001759,8.038304975527682,0.6985918349478162,8.071481153946822,-1.3038072625225936,13.400175332190349,15.697560967544229,-2.3069300216111213,16.067760060576976,-2.324807097050127,0.11306293333333331,0.07722620000000001,0.2723213733333334,0.4626105066666667,0.3048049265260169,0.6779718220545712,0.644892780305857,0.644892780305857
LBP05_S09,LBP05,-1577,74,9,73,-1577,1715803477.92,2024-05-15 20:04:37.920000+00:00,2024-05-16 05:04:37.920000+09:00,2024,5,15,20,4,37,920,,,,,,,,,-0.69043,-0.184082,1.671631,-3.051758,6.896973,-9.765625,,,,,,,,,,,0.0,1.0,1.0,9.0,0.0,0.0,0.0,5.0,0.0,-0.16821612,-0.18186850666666668,1.0112207066666667,0.6819662133333342,1.3850910933333334,7.807617199999999,15.228619896111747,7.728580746203822,3.7416992590747786,8.680625949791292,-0.9946640326744407,13.54984330255334,16.122682064155324,-2.318347965465093,16.437258291491872,-2.3190779202433083,-0.52221388,-0.002213493333333316,0.6604102933333333,1.1848376666666667,0.8419346717875505,0.6697482131107827,0.6502182368323892,0.6502182368323892
LBP05_S09,LBP05,-1576,75,9,74,-1576,1715803477.96,2024-05-15 20:04:37.960000+00:00,2024-05-16 05:04:37.960000+09:00,2024,5,15,20,4,37,960,,,,,,,,,-0.371582,-0.712402,1.789795,13.48877,-62.072754,20.080566,,,,,,,,,,,0.0,1.0,1.0,9.0,0.0,0.0,0.0,5.0,0.0,-0.17559893333333332,-0.17514325333333333,0.9987890666666668,-1.5909830133333325,1.33300776,7.017415386666666,15.888512701581734,6.388681930070204,7.033671653749637,9.31616645785456,-0.7391167554716325,13.831190168703325,16.692485510897075,-2.3574548218849927,16.902278461695804,-2.317256608241273,-0.1959830666666667,-0.5372587466666666,0.7910059333333332,1.5242477466666666,0.9760874499031561,0.6817551381785553,0.6587937424395146,0.6587937424395146
LBP05_S09,LBP05,-1575,76,9,75,-1575,1715803478.0,2024-05-15 20:04:38+00:00,2024-05-16 05:04:38+09:00,2024,5,15,20,4,38,0,20.0,4.0,38.0,40.734337,141.643631,-21.466,3.0,8.0,-0.09375,0.294922,0.822266,38.269043,88.500977,5.859375,-567.0,63.0,551.0,20.0,0.0,1022.099976,16.450001,0.090179,-73.379799,3.817969,0.0,1.0,1.0,9.0,0.0,0.0,0.0,6.0,0.0,-0.17322263999999998,-0.18011396,0.9877864666666667,-3.367512959999999,-0.6469727066666667,6.5511068,16.47431945620872,4.198912612453478,10.134531542210514,9.975139236102908,-0.5711602509734933,14.236571430391745,17.392802905356522,-2.337297501676774,17.4522273862217,-2.3196152481408046,0.07947263999999998,0.47503596000000003,-0.16552046666666664,0.7200290666666667,0.5092858614641117,0.6734667862267985,0.6549602070298889,0.6549602070298889
LBP05_S09,LBP05,-1574,77,9,76,-1574,1715803478.04,2024-05-15 20:04:38.040000+00:00,2024-05-16 05:04:38.040000+09:00,2024,5,15,20,4,38,40,,,,,,,,,-0.327881,0.065918,0.104248,-54.382324,10.314941,-6.286621,,,,,,,,,,,0.0,1.0,1.0,9.0,0.0,0.0,0.0,6.0,0.0,-0.1602831866666667,-0.17601890666666664,0.9768001466666667,-2.9370116533333324,-0.4744466666666667,6.577148466666666,17.086582240808056,1.5388886335829672,12.563587643169067,10.65860252573523,-0.5096047056301747,14.739114936118508,18.19634616778109,-2.3107790352677906,18.06681978359764,-2.323416924119157,-0.1675978133333333,0.24193690666666665,-0.8725521466666667,1.2820868666666665,0.9208527257353145,0.6968416848554163,0.6616075199975245,0.6616075199975245
LBP05_S09,LBP05,-1573,78,9,77,-1573,1715803478.08,2024-05-15 20:04:38.080000+00:00,2024-05-16 05:04:38.080000+09:00,2024,5,15,20,4,38,80,,,,,,,,,0.057861,-0.304688,0.32666,-24.353027,-83.435059,8.544922,,,,,,,,,,,0.0,1.0,1.0,9.0,0.0,0.0,0.0,6.0,0.0,-0.15833982666666666,-0.17695966666666668,0.9748567866666665,-3.4619139999999993,1.1523436933333335,7.199707066666667,17.570331712540792,-1.1149228057246021,13.896100184023444,11.361415794236862,-0.5542016178591588,15.294958943479445,19.061077549957513,-2.302305014583659,18.718032303299335,-2.3263148215258354,0.21620082666666665,-0.12772833333333333,-0.6481967866666665,0.9921259466666664,0.695137683363845,0.6947966693037688,0.6624253288601177,0.6624253288601177
LBP05_S09,LBP05,-1572,79,9,78,-1572,1715803478.12,2024-05-15 20:04:38.120000+00:00,2024-05-16 05:04:38.120000+09:00,2024,5,15,20,4,38,120,,,,,,,,,0.447754,-0.191895,0.801758,75.744629,-10.986328,31.188965,,,,,,,,,,,0.0,1.0,1.0,9.0,0.0,0.0,0.0,6.0,0.0,-0.16846028,-0.17944338666666668,0.9841504133333334,-3.026529879999999,-0.2107747866666665,7.3852539466666665,17.53742934301635,-3.3208009998116417,13.877992282304232,12.062912967957516,-0.6870336578516245,15.850078634771615,19.930149955481575,-2.325590108737864,19.37391454236449,-2.327745086626517,0.61621428,-0.012451613333333333,-0.18239241333333345,0.8110583066666668,0.6427612884983653,0.6838417908654946,0.6619571374229332,0.6619571374229332
LBP05_S09,LBP05,-1571,80,9,79,-1571,1715803478.16,2024-05-15 20:04:38.160000+00:00,2024-05-16 05:04:38.160000+09:00,2024,5,15,20,4,38,160,,,,,,,,,-0.117432,-0.091309,1.338623,32.714844,71.289062,41.259766,,,,,,,,,,,0.0,1.0,1.0,9.0,0.0,0.0,0.0,6.0,0.0,-0.16560872000000001,-0.17933270666666667,1.0044238533333334,-1.6137694533333324,-1.3102213999999999,7.195638053333332,16.53125550909564,-4.78156392863614,12.528383825022447,12.724163188321342,-0.8782962149970701,16.351213987772514,20.737355953887604,-2.3175649809978096,20.003217752535498,-2.325046040473606,0.04817672000000002,0.08802370666666667,0.3341991466666665,0.4703995733333332,0.3489387323270746,0.6803084610005915,0.6546776396300061,0.6546776396300061
LBP05_S09,LBP05,-1570,81,9,80,-1570,1715803478.2,2024-05-15 20:04:38.200000+00:00,2024-05-16 05:04:38.200000+09:00,2024,5,15,20,4,38,200,,,,,,,,,-0.844971,-0.260498,1.755371,45.532227,-19.165039,13.549805,,,,,,,,,,,0.0,1.0,1.0,9.0,0.0,0.0,0.0,6.0,0.0,-0.16956053333333332,-0.1772168133333333,1.0071810266666668,-2.8458658133333326,1.0245767733333333,6.865234413333333,14.254134870794575,-5.3957269301084985,10.18319416599861,13.294328583153124,-1.09412529220141,16.75854175441246,21.419267129532297,-2.334754583452395,20.579563569242836,-2.3201115594660675,-0.6754104666666667,-0.0832811866666667,0.7481899733333333,1.5068816266666667,1.0113868155814703,0.6853980789005466,0.6627846663561758,0.6627846663561758
LBP05_S09,LBP05,-1569,82,9,81,-1569,1715803478.24,2024-05-15 20:04:38.240000+00:00,2024-05-16 05:04:38.240000+09:00,2024,5,15,20,4,38,240,,,,,,,,,-0.342773,-0.273193,1.756836,50.842285,-92.956543,9.94873,,,,,,,,,,,0.0,1.0,1.0,9.0,0.0,0.0,0.0,6.0,0.0,-0.17750974666666666,-0.17900717333333332,0.9981185333333333,-6.6463215333333325,0.5883788533333334,6.496582066666666,10.733296771778889,-5.250146731544681,7.439562941076365,13.72366045402428,-1.3041311614631972,17.056124272055513,21.930594828400128,-2.3521241815808542,21.084380804827695,-2.318058001879213,-0.16526325333333333,-0.0941858266666667,0.7587174666666667,1.0181665466666667,0.782198892272474,0.6865895560797408,0.6654383158209825,0.6654383158209825
LBP05_S09,LBP05,-1568,83,9,82,-1568,1715803478.28,2024-05-15 20:04:38.280000+00:00,2024-05-16 05:04:38.280000+09:00,2024,5,15,20,4,38,280,,,,,,,,,-0.097168,-0.139648,0.926025,-48.950195,86.364746,-12.084961,,,,,,,,,,,0.0,1.0,1.0,9.0,0.0,0.0,0.0,6.0,0.0,-0.17254229333333332,-0.18547202666666665,0.9912663199999999,-7.3600259733333315,-1.2890625599999999,6.37613936,6.337909391067599,-4.573744939066162,4.999922772246673,13.977176829666984,-1.4870809590258436,17.256121182945378,22.256383358195755,-2.32123267261794,21.508594874596746,-2.315517545726012,0.07537429333333331,0.045824026666666656,-0.06524131999999994,0.1864396399999999,0.10971579353397187,0.6634520179457514,0.6533573914234388,0.6533573914234388
LBP05_S09,LBP05,-1567,84,9,83,-1567,1715803478.32,2024-05-15 20:04:38.320000+00:00,2024-05-16 05:04:38.320000+09:00,2024,5,15,20,4,38,320,,,,,,,,,-0.148926,0.125977,0.037842,-66.345215,3.112793,-27.282715,,,,,,,,,,,0.0,1.0,1.0,9.0,0.0,0.0,0.0,6.0,0.0,-0.16204098666666666,-0.18528648,0.9875130666666666,-6.93359369333333,-0.5029297466666666,6.667480506666666,1.6547854295601163,-3.6671332425032364,3.4668198949908744,14.043368246849388,-1.633766288725973,17.394793978745014,22.415714165865403,-2.2913575039359784,21.85340614395708,-2.317910407744665,0.013114986666666661,0.31126348000000004,-0.9496710666666666,1.2740495333333333,0.9994659032307113,0.6851340131367377,0.6607214023129552,0.6607214023129552
LBP05_S09,LBP05,-1566,85,9,84,-1566,1715803478.36,2024-05-15 20:04:38.360000+00:00,2024-05-16 05:04:38.360000+09:00,2024,5,15,20,4,38,360,,,,,,,,,0.121338,-0.432617,0.421631,-12.390137,-73.181152,-11.291504,,,,,,,,,,,0.0,1.0,1.0,9.0,0.0,0.0,0.0,6.0,0.0,-0.16582029333333334,-0.18313478666666666,0.9881282933333334,-6.572265573333332,1.4160155733333333,6.552734413333333,-2.6853484332330475,-2.822012879140629,3.171108158060987,13.935954309520067,-1.746646803891598,17.521638305067455,22.455943677970488,-2.3081100118096063,22.130285050456724,-2.3202319965474785,0.2871582933333333,-0.2494822133333333,-0.5664972933333334,1.1031378,0.6823638644841946,0.6764462286464665,0.6611722869415227,0.6611722869415227
LBP05_S09,LBP05,-1565,86,9,85,-1565,1715803478.4,2024-05-15 20:04:38.400000+00:00,2024-05-16 05:04:38.400000+09:00,2024,5,15,20,4,38,400,,,,,,,,,0.425049,0.172852,0.918945,98.754883,9.216309,15.74707,,,,,,,,,,,0.0,1.0,1.0,9.0,0.0,0.0,0.0,6.0,0.0,-0.17450193333333333,-0.18933269333333333,0.99773116,-5.708007759999998,-0.22298181333333333,6.8416341466666655,-6.130377669517105,-2.247870142484034,4.104431506493961,13.690739202739383,-1.8365616095909594,17.685815565327214,22.440975261205086,-2.3167619258082346,22.359956383071324,-2.32059246548579,0.5995509333333333,0.36218469333333336,-0.07878615999999994,1.0405217866666665,0.7048732742510369,0.67184763780863,0.6620641438253904,0.6620641438253904
LBP05_S09,LBP05,-1564,87,9,86,-1564,1715803478.44,2024-05-15 20:04:38.440000+00:00,2024-05-16 05:04:38.440000+09:00,2024,5,15,20,4,38,440,,,,,,,,,-0.30957,-0.407227,1.635254,-29.47998,76.660156,38.391113,,,,,,,,,,,0.0,1.0,1.0,9.0,0.0,0.0,0.0,6.0,0.0,-0.16783852000000002,-0.19434246666666666,1.0162565466666666,-4.831542919999999,-1.1572266000000002,7.3445638266666675,-8.2496773441251,-2.018777205887674,5.975624038227694,13.36075210897438,-1.9173126978264663,17.924840526856322,22.43848686547158,-2.2853744737357795,22.570120637155743,-2.3176867669405885,-0.14173148,-0.21288453333333335,0.6189974533333333,0.9736134666666667,0.6697503148104477,0.6839992155147329,0.6622178672450915,0.6622178672450915
LBP05_S09,LBP05,-1563,88,9,87,-1563,1715803478.48,2024-05-15 20:04:38.480000+00:00,2024-05-16 05:04:38.480000+09:00,2024,5,15,20,4,38,480,,,,,,,,,-0.76416,-0.270508,1.789307,-10.131836,-37.414551,10.314941,,,,,,,,,,,0.0,1.0,1.0,9.0,0.0,0.0,0.0,6.0,0.0,-0.17631182666666667,-0.18756837333333334,1.01346032,-2.916666613333332,1.218261693333333,6.484375026666666,-8.749065208556516,-2.0521208280935097,8.350105509915386,13.01078950063212,-1.9993975309502068,18.258844747252937,22.509190243560848,-2.326233634770186,22.792063010151043,-2.313934531247228,-0.5878481733333333,-0.08293962666666668,0.7758466799999999,1.4466344799999997,0.9769250367504996,0.680195458983217,0.6752850332043565,0.668388596058923
LBP05_S09,LBP05,-1562,89,9,88,-1562,1715803478.52,2024-05-15 20:04:38.520000+00:00,2024-05-16 05:04:38.520000+09:00,2024,5,15,20,4,38,520,,,,,,,,,-0.175781,-0.142822,1.607422,7.873535,-58.349609,0.12207,,,,,,,,,,,0.0,1.0,1.0,9.0,0.0,0.0,0.0,6.0,0.0,-0.18098305333333334,-0.18376629333333333,1.0078385733333335,-4.200846293333332,0.8276366933333331,5.826822933333333,-7.517105883620309,-2.1350235965650937,10.800665267881072,12.710105265287307,-2.0847984748128106,18.69087135796818,22.698939020478058,-2.3488059967660018,23.056846126895742,-2.3146227508768167,0.005202053333333345,0.040944293333333326,0.5995834266666664,0.6457297733333331,0.601002314512008,0.6766884367737844,0.6696900926574726,0.6670927060291747
LBP05_S09,LBP05,-1561,90,9,89,-1561,1715803478.56,2024-05-15 20:04:38.560000+00:00,2024-05-16 05:04:38.560000+09:00,2024,5,15,20,4,38,560,,,,,,,,,-0.169922,-0.095215,0.5979,-47.302246,88.439941,16.479492,,,,,,,,,,,0.0,1.0,1.0,9.0,0.0,0.0,0.0,6.0,0.0,-0.17748044,-0.19082033333333334,1.0023926,-5.228678333333332,-0.7568359600000002,5.906575533333333,-4.6988595821908135,-2.00008304012294,13.013104208366379,12.522150881999675,-2.164801796417728,19.211395526302837,23.034069280033595,-2.3211696703809235,23.39206658038126,-2.316101644536603,0.00755844,0.09560533333333335,-0.4044926000000001,0.5076563733333335,0.4157063545722767,0.6699645496896501,0.6640226391282408,0.6623495673224408
LBP05_S09,LBP05,-1560,91,9,90,-1560,1715803478.6,2024-05-15 20:04:38.600000+00:00,2024-05-16 05:04:38.600000+09:00,2024,5,15,20,4,38,600,,,,,,,,,-0.25293,-0.240967,0.163818,-91.491699,-38.146973,5.79834,,,,,,,,,,,0.0,1.0,1.0,9.0,0.0,0.0,0.0,6.0,0.0,-0.16747393333333332,-0.18589519999999998,0.9945735866666666,-3.7841796399999983,-0.5102539200000002,6.19710288,-0.7282278282997329,-1.424532615642688,14.829542212145263,12.493021768867685,-2.2217831010434357,19.804577214788647,23.520909670376476,-2.3056975980003784,23.819875984152965,-2.3176766377323768,-0.08545606666666666,-0.055071800000000004,-0.8307555866666666,0.9712834533333332,0.8369530974094398,0.6893128642281348,0.6772183151892738,0.6655829660277555
LBP05_S09,LBP05,-1559,92,9,91,-1559,1715803478.64,2024-05-15 20:04:38.640000+00:00,2024-05-16 05:04:38.640000+09:00,2024,5,15,20,4,38,640,,,,,,,,,0.156738,-0.300049,0.496338,37.658691,-69.946289,15.991211,,,,,,,,,,,0.0,1.0,1.0,9.0,0.0,0.0,0.0,6.0,0.0,-0.16855141333333334,-0.18367189333333334,0.9909244933333334,-4.124348906666665,0.9195963333333331,6.5942382933333334,3.759059409072714,-0.31339685939193823,16.24164202566883,12.643384145230593,-2.234318975419113,20.4542428958154,24.15001855835314,-2.3146018246472497,24.356149427606276,-2.320936994317736,0.32528941333333333,-0.11637710666666667,-0.49458649333333343,0.9362530133333334,0.6033014443631081,0.680687464055612,0.6706122489233326,0.664450574724762
LBP05_S09,LBP05,-1558,93,9,92,-1558,1715803478.68,2024-05-15 20:04:38.680000+00:00,2024-05-16 05:04:38.680000+09:00,2024,5,15,20,4,38,680,,,,,,,,,0.365234,-0.054199,0.921143,65.490723,17.700195,28.320312,,,,,,,,,,,0.0,1.0,1.0,9.0,0.0,0.0,0.0,6.0,0.0,-0.17418943999999997,-0.18459312,0.9961035333333332,-4.5222981199999985,-0.3979492400000002,6.4054362,8.146237927377719,1.2691007421428158,17.35164881631823,12.969233662325701,-2.1835549457334005,21.14830884846813,24.90421452564273,-2.3281148689138287,25.009834479800656,-2.3244735998839667,0.53942344,0.13039412,-0.07496053333333319,0.7447780933333332,0.5599994247404417,0.6689009246770264,0.6686955302282059,0.6625853756178991
LBP05_S09,LBP05,-1557,94,9,93,-1557,1715803478.72,2024-05-15 20:04:38.720000+00:00,2024-05-16 05:04:38.720000+09:00,2024,5,15,20,4,38,720,,,,,,,,,-0.334229,-0.472168,1.555176,76.477051,84.838867,26.367188,,,,,,,,,,,0.0,1.0,1.0,9.0,0.0,0.0,0.0,6.0,0.0,-0.16839190666666667,-0.18672528,1.0124414133333333,-4.768066346666664,-1.3191732000000003,6.497395839999999,12.094310421993736,3.1374963448993105,18.310714742675476,13.453006079205451,-2.058055091937428,21.88073743817515,25.76791870072063,-2.306146440533842,25.78133117447307,-2.322084943852505,-0.16583709333333332,-0.28544272,0.5427345866666666,0.9940144,0.6352482345433826,0.6851925540984736,0.6702346756943389,0.6621057766516795
LBP05_S09,LBP05,-1556,95,9,94,-1556,1715803478.76,2024-05-15 20:04:38.760000+00:00,2024-05-16 05:04:38.760000+09:00,2024,5,15,20,4,38,760,,,,,,,,,-0.721924,-0.425293,1.772217,92.468262,-21.30127,26.855469,,,,,,,,,,,0.0,1.0,1.0,9.0,0.0,0.0,0.0,6.0,0.0,-0.17398435999999998,-0.18599612000000001,1.01201172,-3.4659830133333314,0.7641601333333333,5.96923828,15.662909322030508,5.070436737403008,19.237862834686993,14.079522452086671,-1.8552376224413076,22.65025195156263,26.73403771568749,-2.323859943767345,26.659521748903007,-2.318949236180321,-0.5479396400000001,-0.23929687999999996,0.7602052799999999,1.5474417999999999,0.967167469263179,0.6852327728803234,0.6830136584940072,0.6673654610070502
LBP05_S09,LBP05,-1555,96,9,95,-1555,1715803478.8,2024-05-15 20:04:38.800000+00:00,2024-05-16 05:04:38.800000+09:00,2024,5,15,20,4,38,800,,,,,,,,,-0.200928,0.265137,1.489258,21.30127,-31.738281,2.807617,,,,,,,,,,,0.0,1.0,1.0,9.0,0.0,0.0,0.0,6.0,0.0,-0.17929686666666667,-0.18184248,1.0066210933333333,-4.483235613333332,0.53955076,5.633138013333332,19.15221131736296,6.885084300507431,20.130003835922473,14.84561090478119,-1.5798342504210103,23.45545210499953,27.803709695738235,-2.349365491661822,27.61841243087529,-2.319103071463326,-0.02163113333333333,0.44697948,0.4826369066666667,0.95124752,0.6581769861876998,0.6840183371222842,0.6812476036847479,0.6672097241457052
LBP05_S09,LBP05,-1554,97,9,96,-1554,1715803478.84,2024-05-15 20:04:38.840000+00:00,2024-05-16 05:04:38.840000+09:00,2024,5,15,20,4,38,840,,,,,,,,,-0.220947,-0.059082,0.596924,-115.234375,98.205566,-6.286621,,,,,,,,,,,0.0,1.0,1.0,9.0,0.0,0.0,0.0,6.0,0.0,-0.17409178666666666,-0.18732750666666664,1.0017252533333334,-4.586588479999999,-0.5436198133333333,5.431315106666667,22.688852863157273,8.451821821539422,20.7926234700196,15.753165019307481,-1.2417613775594334,24.287157043800313,28.975337387415358,-2.320740529398091,28.615482733595115,-2.3180318548830043,-0.04685521333333334,0.12824550666666665,-0.4048012533333334,0.5799019733333334,0.42720764938954425,0.6752498483800529,0.6761381677191407,0.6632096895664359
LBP05_S09,LBP05,-1553,98,9,97,-1553,1715803478.88,2024-05-15 20:04:38.880000+00:00,2024-05-16 05:04:38.880000+09:00,2024,5,15,20,4,38,880,,,,,,,,,-0.118896,-0.243164,0.213135,-177.490234,-57.006836,10.437012,,,,,,,,,,,0.0,1.0,1.0,9.0,0.0,0.0,0.0,6.0,0.0,-0.16448566666666667,-0.18383141333333333,0.9965038933333333,-3.281249933333332,0.2913411200000002,5.587565106666666,25.785671724534723,9.649218677049342,20.83618716873052,16.78459188828887,-0.8557926304774597,25.120604530549535,30.224157190285023,-2.3023470744555663,29.593921200923262,-2.3183945991523003,0.04558966666666667,-0.05933258666666666,-0.7833688933333334,0.8882911466666668,0.7869343025879777,0.6945350234225313,0.6862534227385513,0.6652379619110513
LBP05_S09,LBP05,-1552,99,9,98,-1552,1715803478.92,2024-05-15 20:04:38.920000+00:00,2024-05-16 05:04:38.920000+09:00,2024,5,15,20,4,38,920,,,,,,,,,0.280762,-0.791504,0.631836,5.615234,-64.025879,18.981934,,,,,,,,,,,0.0,1.0,1.0,9.0,0.0,0.0,0.0,6.0,0.0,-0.16774086666666665,-0.18170250666666668,0.9968359333333334,-3.5205077466666648,1.3151041333333333,5.56070964,27.2066865374649,10.303381427584554,19.773265521039548,17.872859349787465,-0.4436573733740775,25.911535151391117,31.480844764777387,-2.3174489200441624,30.489554657582282,-2.317930611244095,0.44850286666666667,-0.6098014933333333,-0.36499993333333347,1.4233042933333335,0.8403794583479055,0.6944728148849454,0.6821105139978642,0.668062824756807
LBP05_S09,LBP05,-1551,100,9,99,-1551,1715803478.96,2024-05-15 20:04:38.960000+00:00,2024-05-16 05:04:38.960000+09:00,2024,5,15,20,4,38,960,,,,,,,,,0.226807,-0.027344,0.825195,251.831055,67.016602,28.076172,,,,,,,,,,,0.0,1.0,1.0,9.0,0.0,0.0,0.0,6.0,0.0,-0.17408526666666668,-0.18655601333333333,1.0034733066666666,-3.2853189333333317,-0.4215495199999998,5.566406253333333,25.34379137828355,10.170752754394371,17.20839663355239,18.886611004918805,-0.03682726319830265,26.599871016733214,32.622976099756414,-2.3227080232109754,31.240997334189018,-2.3177646032300188,0.40089226666666666,0.15921201333333332,-0.17827830666666655,0.7383825866666666,0.46674000181120673,0.6740989169612674,0.6779270275699115,0.6648672243925913
LBP05_S09,LBP05,-1550,101,9,100,-1550,1715803479.0,2024-05-15 20:04:39+00:00,2024-05-16 05:04:39+09:00,2024,5,15,20,4,39,0,20.0,4.0,39.0,40.734257,141.643585,-19.35,3.0,8.0,-0.413574,0.01123,1.421631,78.735352,65.368652,60.241699,-573.0,53.0,552.0,25.0,0.0,1022.099976,16.51,0.090179,-73.379799,3.817969,0.0,1.0,1.0,9.0,0.0,0.0,0.0,5.0,0.0,-0.16728188,-0.18984051999999998,1.0168098933333334,-3.2470702399999984,-0.7519531599999997,5.724283853333333,18.99192407449719,8.999788342882647,13.055146921051595,19.646287967898694,0.32316427051700325,27.12207689357528,33.491612697574745,-2.2949854321971634,31.799721066519975,-2.3157395561555707,-0.24629212,0.20107051999999997,0.4048211066666667,0.8521837466666666,0.5147516787636438,0.6743175496532489,0.6738921679400236,0.6625216689921388
LBP05_S09,LBP05,-1549,102,9,101,-1549,1715803479.04,2024-05-15 20:04:39.040000+00:00,2024-05-16 05:04:39.040000+09:00,2024,5,15,20,4,39,40,,,,,,,,,-0.5625,-0.637939,1.738281,50.720215,-36.621094,44.311523,,,,,,,,,,,0.0,1.0,1.0,9.0,0.0,0.0,0.0,5.0,0.0,-0.17062172,-0.1845247733333333,1.0136165333333333,-2.954101493333332,0.5183918933333338,5.612792973333333,8.115562961940379,6.650024168183601,7.677316024574389,19.970910486376308,0.5891652372443473,27.429169534558255,33.934403231634576,-2.318229267340206,32.13665636396918,-2.311956442641001,-0.39187828,-0.45341422666666675,0.7246644666666666,1.5699569733333334,0.9403678198071084,0.6750981534161206,0.6859699191357683,0.6667962251585231
LBP05_S09,LBP05,-1548,103,9,102,-1548,1715803479.08,2024-05-15 20:04:39.080000+00:00,2024-05-16 05:04:39.080000+09:00,2024,5,15,20,4,39,80,,,,,,,,,-0.311035,0.101318,1.58374,51.025391,-42.114258,-6.286621,,,,,,,,,,,0.0,1.0,1.0,9.0,0.0,0.0,0.0,5.0,0.0,-0.1735514,-0.18568037333333334,1.0107259066666665,-3.658040306666665,0.13346350666666715,5.397135413333333,-5.83664721347714,3.201946987346707,1.8642225044180447,19.73744459783722,0.7172431167382156,27.503738434734977,33.860549092232986,-2.3234749898317766,32.24381287179391,-2.310597548563733,-0.1374836,0.28699837333333333,0.5730140933333334,0.9974960666666668,0.6554501946933584,0.673510653869301,0.6841536615865348,0.6666243156060205
LBP05_S09,LBP05,-1547,104,9,103,-1547,1715803479.12,2024-05-15 20:04:39.120000+00:00,2024-05-16 05:04:39.120000+09:00,2024,5,15,20,4,39,120,,,,,,,,,-0.182861,-0.081055,0.622559,-57.800293,125.915527,-46.386719,,,,,,,,,,,0.0,1.0,1.0,9.0,0.0,0.0,0.0,5.0,0.0,-0.16695959999999999,-0.18577152,1.0085742133333333,-2.944335879999999,-0.48665367999999964,5.228678386666666,-20.270431995466705,-1.002511428856813,-3.379141395838669,18.926627318018554,0.677142659583943,27.36857277890143,33.28234546678793,-2.3044863603930805,32.132113148067255,-2.3112386956314808,-0.01590140000000001,0.10471652,-0.38601521333333333,0.5066331333333334,0.400282586440691,0.6638115057869942,0.6738266483262443,0.6626490659169858
LBP05_S09,LBP05,-1546,105,9,104,-1546,1715803479.16,2024-05-15 20:04:39.160000+00:00,2024-05-16 05:04:39.160000+09:00,2024,5,15,20,4,39,160,,,,,,,,,-0.262695,0.19165,-0.054199,-175.048828,-26.550293,-58.71582,,,,,,,,,,,0.0,1.0,1.0,9.0,0.0,0.0,0.0,5.0,0.0,-0.16505529333333332,-0.18397465333333332,1.0082747333333333,-2.6668293599999986,0.32063798666666704,5.18391928,-32.29830935057893,-5.413024436827447,-7.147953613226998,17.634694943995395,0.46062168211084514,27.08265463437235,32.32127503899711,-2.3036094730228642,31.828232646626684,-2.31122487898363,-0.09763970666666669,0.3756246533333333,-1.0624737333333334,1.5357380933333333,1.1311400561084426,0.6950995587382489,0.6877040098694203,0.6695386393021543
LBP05_S09,LBP05,-1545,106,9,105,-1545,1715803479.2,2024-05-15 20:04:39.200000+00:00,2024-05-16 05:04:39.200000+09:00,2024,5,15,20,4,39,200,,,,,,,,,0.066162,-0.21167,0.264404,-192.321777,-110.534668,-19.592285,,,,,,,,,,,0.0,1.0,1.0,9.0,0.0,0.0,0.0,5.0,0.0,-0.16963862666666665,-0.18602542666666666,1.0094303333333332,-2.734374933333332,0.787760386666667,5.121256519999999,-39.718584142352626,-9.407563416919473,-8.915856771617461,16.045951578301292,0.08431914543406621,26.72602036350765,31.17306267023024,-2.3115343565161273,31.37243578488297,-2.310898201003848,0.23580062666666665,-0.025644573333333337,-0.7450263333333332,1.0064715333333332,0.7818719953022697,0.6859189659270808,0.6856585224138138,0.6711666589543298
LBP05_S09,LBP05,-1544,107,9,106,-1544,1715803479.24,2024-05-15 20:04:39.240000+00:00,2024-05-16 05:04:39.240000+09:00,2024,5,15,20,4,39,240,,,,,,,,,0.413086,-0.838379,0.794189,3.479004,-22.888184,18.981934,,,,,,,,,,,0.0,1.0,1.0,9.0,0.0,0.0,0.0,5.0,0.0,-0.17170568,-0.19002281333333335,1.0146126133333333,-2.120768159999998,-0.17252606666666637,5.070800786666666,-41.685345241202924,-12.463932029008786,-8.65145384606053,14.378537768653175,-0.41423813572628526,26.37996220966523,30.046902465662605,-2.307151588625408,30.81689039852362,-2.3118591906505297,0.58479168,-0.6483561866666666,-0.22042361333333327,1.45357148,0.9005185301264415,0.6906517514412394,0.68862065376049,0.6744431142567885
LBP05_S09,LBP05,-1543,108,9,107,-1543,1715803479.28,2024-05-15 20:04:39.280000+00:00,2024-05-16 05:04:39.280000+09:00,2024,5,15,20,4,39,280,,,,,,,,,-0.104736,0.169922,1.186768,101.867676,69.458008,30.334473,,,,,,,,,,,0.0,1.0,1.0,9.0,0.0,0.0,0.0,5.0,0.0,-0.16956049333333334,-0.18700524000000002,1.01786132,-1.062825453333332,0.19124346666666706,4.855143226666667,-38.809743378259355,-14.286594463489466,-6.742841708881781,12.8261480335228,-0.9857019142658638,26.110248541309957,29.107159953018552,-2.308758545133043,30.222094480902477,-2.308499393830867,0.06482449333333334,0.35692724,0.1689066800000001,0.5906584133333335,0.40016088781709214,0.7022695552125643,0.6828607865791578,0.6705799843069337
LBP05_S09,LBP05,-1542,109,9,108,-1542,1715803479.32,2024-05-15 20:04:39.320000+00:00,2024-05-16 05:04:39.320000+09:00,2024,5,15,20,4,39,320,,,,,,,,,-0.658447,-0.10376,1.675781,-36.254883,-33.26416,3.173828,,,,,,,,,,,0.0,1.0,1.0,9.0,0.0,0.0,0.0,5.0,0.0,-0.17221999999999998,-0.18661461333333332,1.0158430933333333,-2.7189126933333316,-0.07405599999999973,4.963378906666667,-32.73994963184771,-14.832563364662247,-3.8025147325159914,11.516550048248892,-1.5790044488523538,25.958147952009316,28.442039750371677,-2.3173107535656547,29.64967213278814,-2.307619008502513,-0.486227,0.08285461333333331,0.6599379066666666,1.22901952,0.8238929682520649,0.6952466378134184,0.6901903254750781,0.6727093313061716
LBP05_S09,LBP05,-1541,110,9,109,-1541,1715803479.36,2024-05-15 20:04:39.360000+00:00,2024-05-16 05:04:39.360000+09:00,2024,5,15,20,4,39,360,,,,,,,,,-0.244629,-0.470215,1.728271,27.770996,-87.463379,-4.882812,,,,,,,,,,,0.0,1.0,1.0,9.0,0.0,0.0,0.0,5.0,0.0,-0.17553381333333334,-0.18938805333333333,1.0113053333333335,-2.8824869066666654,-0.9098307333333331,4.784342453333334,-25.507747837679577,-14.24762115316101,-0.4671063894735895,10.496240134741708,-2.148909294978794,25.939463696430373,28.0650074823193,-2.319441243413156,29.152437664815608,-2.307762061212645,-0.06909518666666667,-0.28082694666666663,0.7169656666666664,1.0668877999999997,0.7730961686448858,0.6988759299798462,0.6876610793131563,0.6740844934614965
LBP05_S09,LBP05,-1540,111,9,110,-1540,1715803479.4,2024-05-15 20:04:39.400000+00:00,2024-05-16 05:04:39.400000+09:00,2024,5,15,20,4,39,400,,,,,,,,,-0.125,-0.155273,0.789307,-22.399902,92.712402,9.58252,,,,,,,,,,,0.0,1.0,1.0,9.0,0.0,0.0,0.0,5.0,0.0,-0.16952794666666668,-0.18861005333333333,1.0044986933333333,-2.2558593066666646,-1.7130533866666664,4.330240893333333,-18.956578774918633,-12.767990855660472,2.7272494935411333,9.737976983744963,-2.659628929205213,26.04855367617202,27.936158833981217,-2.3045953286639795,28.765173182681885,-2.3074710343410167,0.04452794666666668,0.03333705333333334,-0.21519169333333332,0.29305669333333334,0.22226462165393393,0.6795715838759621,0.6757096108422961,0.6679788195181511
LBP05_S09,LBP05,-1539,112,9,111,-1539,1715803479.44,2024-05-15 20:04:39.440000+00:00,2024-05-16 05:04:39.440000+09:00,2024,5,15,20,4,39,440,,,,,,,,,-0.209961,0.214355,-0.077393,-90.148926,1.220703,-33.752441,,,,,,,,,,,0.0,1.0,1.0,9.0,0.0,0.0,0.0,5.0,0.0,-0.16449538666666666,-0.19076174666666668,0.9996647066666668,-1.7822264933333318,-0.5818684933333331,4.3766276133333335,-14.412566891295617,-10.639208393950957,5.382493947179302,9.161474308093139,-3.0851972649632513,26.263853434059193,27.98644405542316,-2.284631299143577,28.500052625296984,-2.306817897162701,-0.04546561333333335,0.40511674666666664,-1.077057706666667,1.5276400666666667,1.151624940645009,0.6988465689093444,0.6914228922120386,0.6744274344665091
LBP05_S09,LBP05,-1538,113,9,112,-1538,1715803479.48,2024-05-15 20:04:39.480000+00:00,2024-05-16 05:04:39.480000+09:00,2024,5,15,20,4,39,480,,,,,,,,,0.085693,-0.317871,0.385498,-87.219238,-92.590332,-9.033203,,,,,,,,,,,0.0,1.0,1.0,9.0,0.0,0.0,0.0,5.0,0.0,-0.16820632,-0.18326174666666667,0.9969140533333333,-1.1539712933333317,0.1896158800000003,4.27734376,-12.576106071662457,-8.082394245633154,7.2309115040703125,8.658430065226641,-3.4084930347885773,26.553089894222005,28.13632561108962,-2.3146711365482386,28.34857563220026,-2.3071879693829933,0.25389932,-0.13460925333333335,-0.6114160533333333,0.9999246266666666,0.6755842701344735,0.6867929382447033,0.6834941986139601,0.6791210015511387
LBP05_S09,LBP05,-1537,114,9,113,-1537,1715803479.52,2024-05-15 20:04:39.520000+00:00,2024-05-16 05:04:39.520000+09:00,2024,5,15,20,4,39,520,,,,,,,,,0.466064,-0.284912,0.891846,73.364258,-3.967285,23.55957,,,,,,,,,,,0.0,1.0,1.0,9.0,0.0,0.0,0.0,5.0,0.0,-0.16933262666666665,-0.18787437333333334,1.0041341066666667,-0.9733072266666651,-1.0953776133333333,4.221191413333333,-13.519851988710357,-5.308520099682491,8.133360157775423,8.117635985678227,-3.620833838775877,26.878424300533023,28.31000078706263,-2.305916887494401,28.288547893674586,-2.3055126743496928,0.6353966266666666,-0.09703762666666665,-0.11228810666666666,0.8447223599999999,0.652498117290206,0.6888527703558313,0.6827706035648079,0.6760776518902588
LBP05_S09,LBP05,-1536,115,9,114,-1536,1715803479.56,2024-05-15 20:04:39.560000+00:00,2024-05-16 05:04:39.560000+09:00,2024,5,15,20,4,39,560,,,,,,,,,-0.217529,-0.096924,1.509521,10.620117,54.80957,51.086426,,,,,,,,,,,0.0,1.0,1.0,9.0,0.0,0.0,0.0,5.0,0.0,-0.16838210666666667,-0.18884768000000002,1.0083040266666665,-1.9750975999999985,0.004882813333333426,4.179687506666666,-16.71285417672495,-2.54740097912015,8.102086126274623,7.449121818609229,-3.722729877940683,27.202507745584008,28.44863021765987,-2.3006992043065817,28.29241901579025,-2.3003841857074154,-0.04914689333333333,0.09192368000000002,0.5012169733333334,0.6422875466666667,0.511941241185439,0.6927021658203578,0.681333357755004,0.6735824813589465
LBP05_S09,LBP05,-1535,116,9,115,-1535,1715803479.6,2024-05-15 20:04:39.600000+00:00,2024-05-16 05:04:39.600000+09:00,2024,5,15,20,4,39,600,,,,,,,,,-0.83252,-0.423584,1.799805,3.845215,-37.658691,21.789551,,,,,,,,,,,0.0,1.0,1.0,9.0,0.0,0.0,0.0,5.0,0.0,-0.17110019999999998,-0.19020834666666667,1.0053320266666665,-4.611002546666666,0.06103515999999994,4.255371093333333,-21.092432737398855,-0.05153832099450176,7.319399989451707,6.605424509113275,-3.724791410780463,27.495283745162077,28.521857096381225,-2.305002984732974,28.333741571289796,-2.2957386987132624,-0.6614198,-0.23337565333333335,0.7944729733333336,1.6892684266666669,1.0597771712760697,0.7016151287750231,0.6954639965015788,0.6853505863845235
LBP05_S09,LBP05,-1534,117,9,116,-1534,1715803479.64,2024-05-15 20:04:39.640000+00:00,2024-05-16 05:04:39.640000+09:00,2024,5,15,20,4,39,640,,,,,,,,,-0.19458,0.084961,1.617676,36.193848,-38.513184,-12.329102,,,,,,,,,,,0.0,1.0,1.0,9.0,0.0,0.0,0.0,5.0,0.0,-0.17469394666666668,-0.19188477333333334,0.9996093733333333,-5.196126239999999,-1.15885416,3.9811197866666657,-25.266753498682608,1.9355527129026522,6.104571572152534,5.594754369165971,-3.647369302264357,27.73946660804818,28.532132534695368,-2.3108523108283268,28.390833699558055,-2.2928863529683077,-0.01988605333333332,0.2768457733333333,0.6180666266666666,0.9147984533333332,0.6775288867117181,0.7045842264689673,0.6926358452622897,0.6819362414385441
LBP05_S09,LBP05,-1533,118,9,117,-1533,1715803479.68,2024-05-15 20:04:39.680000+00:00,2024-05-16 05:04:39.680000+09:00,2024,5,15,20,4,39,680,,,,,,,,,-0.313232,-0.108154,0.544434,-76.904297,124.572754,-28.320312,,,,,,,,,,,0.0,1.0,1.0,9.0,0.0,0.0,0.0,5.0,0.0,-0.16783846666666666,-0.19170573333333335,0.9911848933333335,-4.402669213333332,-2.231445293333333,3.6564127466666667,-27.88424231900621,3.227073361714556,4.814455236428736,4.479384676405722,-3.5182863677957745,27.93204481750533,28.506882567761814,-2.292005594800038,28.44855015574775,-2.2919439530349415,-0.14539353333333335,0.08355173333333335,-0.4467508933333335,0.6756961600000002,0.4771860563472985,0.7012716917332418,0.685086308205134,0.6795542507298845
LBP05_S09,LBP05,-1532,119,9,118,-1532,1715803479.72,2024-05-15 20:04:39.720000+00:00,2024-05-16 05:04:39.720000+09:00,2024,5,15,20,4,39,720,,,,,,,,,-0.251709,-0.217529,0.129395,-188.781738,-46.875,-26.855469,,,,,,,,,,,0.0,1.0,1.0,9.0,0.0,0.0,0.0,5.0,0.0,-0.1574218,-0.18978190666666667,0.9841276000000001,-4.336751253333332,-0.8610025866666666,3.9827473733333334,-28.080491691898743,3.7298256910291263,3.7220907178610303,3.3561650087297723,-3.3690933401546097,28.08092844621977,28.480750971528312,-2.266025867142883,28.499129591804934,-2.2908755098721025,-0.09428720000000002,-0.027747093333333334,-0.8547326000000001,0.9767668933333334,0.8603649195399873,0.7102763591331059,0.6977344566157899,0.6835819035072613
LBP05_S09,LBP05,-1531,120,9,119,-1531,1715803479.76,2024-05-15 20:04:39.760000+00:00,2024-05-16 05:04:39.760000+09:00,2024,5,15,20,4,39,760,,,,,,,,,0.303711,-0.499268,0.757568,-53.710938,-88.562012,18.249512,,,,,,,,,,,0.0,1.0,1.0,9.0,0.0,0.0,0.0,5.0,0.0,-0.15961256,-0.18965495999999998,0.9825065066666667,-4.763183546666665,0.23111981333333315,3.9493814933333327,-25.803920057778328,3.4544640213836435,2.9457298593783547,2.324008206418639,-3.230914779299264,28.198757640594902,28.478233037314745,-2.272986373471625,28.542164832726645,-2.2905779464184386,0.46332355999999997,-0.30961304,-0.2249385066666667,0.9978751066666667,0.6009378400221983,0.6956271739634665,0.6904299734218949,0.6872181636504937
LBP05_S09,LBP05,-1530,121,9,120,-1530,1715803479.8,2024-05-15 20:04:39.800000+00:00,2024-05-16 05:04:39.800000+09:00,2024,5,15,20,4,39,800,,,,,,,,,0.189209,-0.347168,1.31958,49.377441,64.697266,40.893555,,,,,,,,,,,0.0,1.0,1.0,9.0,0.0,0.0,0.0,5.0,0.0,-0.16155266666666668,-0.19072593333333332,0.9910253866666666,-3.8435871999999978,-1.4770507600000002,4.097493479999999,-21.8273428441696,2.5078660489327764,2.4682499661423773,1.4509144926518551,-3.130600137341953,28.297487639240597,28.507080116663772,-2.2760718712144317,28.583171410896636,-2.2880171464726233,0.35076166666666664,-0.15644206666666666,0.32855461333333336,0.8357583466666666,0.5054265534855996,0.6895171566553826,0.6867677468888336,0.6840041213416262
LBP05_S09,LBP05,-1529,122,9,121,-1529,1715803479.84,2024-05-15 20:04:39.840000+00:00,2024-05-16 05:04:39.840000+09:00,2024,5,15,20,4,39,840,,,,,,,,,-0.667969,-0.10791,1.684326,55.053711,62.866211,13.977051,,,,,,,,,,,0.0,1.0,1.0,9.0,0.0,0.0,0.0,5.0,0.0,-0.16290682666666667,-0.19267581333333333,0.9986067600000001,-3.539225213333332,-0.2872721200000001,4.314778639999999,-17.406061721547548,1.0912070974584376,2.2198281286023684,0.7546720237899532,-3.086951853443616,28.38628076438469,28.56360861732016,-2.2752072998099138,28.630583275344783,-2.2840913393346938,-0.5050621733333334,0.08476581333333333,0.6857192399999998,1.2755472266666665,0.8558527432616133,0.7066629604102654,0.6909564043951592,0.6863130986161824
LBP05_S09,LBP05,-1528,123,9,122,-1528,1715803479.88,2024-05-15 20:04:39.880000+00:00,2024-05-16 05:04:39.880000+09:00,2024,5,15,20,4,39,880,,,,,,,,,-0.662109,-0.502197,1.879395,26.672363,-83.007812,10.314941,,,,,,,,,,,0.0,1.0,1.0,9.0,0.0,0.0,0.0,5.0,0.0,-0.16749666666666668,-0.18658532,0.9933202933333333,-4.165039013333332,0.48828126666666655,3.9762369733333327,-13.750752588440664,-0.49388907039735114,2.1529657113337226,0.20464192025232664,-3.1067074162595096,28.47239939283804,28.642119971661494,-2.3039867049198484,28.69200503534027,-2.2813864330943723,-0.49461233333333327,-0.31561168,0.8860747066666667,1.69629872,1.0627231429832917,0.7176945140260779,0.7061147687243046,0.6967337865010601
LBP05_S09,LBP05,-1527,124,9,123,-1527,1715803479.92,2024-05-15 20:04:39.920000+00:00,2024-05-16 05:04:39.920000+09:00,2024,5,15,20,4,39,920,,,,,,,,,-0.012695,-0.119385,1.460693,18.127441,13.549805,-8.422852,,,,,,,,,,,0.0,1.0,1.0,9.0,0.0,0.0,0.0,5.0,0.0,-0.17196931999999998,-0.19203129333333332,0.98568684,-6.276855426666665,-0.8723958266666668,3.599446613333333,-11.58616569034926,-1.8603089161978938,2.254700169477511,-0.25880470736164374,-3.1811197729074254,28.56258739961714,28.74035319627967,-2.3029412529577624,28.771363267136316,-2.280777147203362,0.15927431999999997,0.07264629333333332,0.47500616000000007,0.7069267733333333,0.5062377356385839,0.7043288451177051,0.6994008300013254,0.6895166243711445
LBP05_S09,LBP05,-1526,125,9,124,-1526,1715803479.96,2024-05-15 20:04:39.960000+00:00,2024-05-16 05:04:39.960000+09:00,2024,5,15,20,4,39,960,,,,,,,,,-0.630127,0.193848,0.119873,-34.423828,101.013184,-54.748535,,,,,,,,,,,0.0,1.0,1.0,9.0,0.0,0.0,0.0,5.0,0.0,-0.16147778666666668,-0.19106124000000002,0.9756575466666667,-4.7379556933333316,-2.0052083200000004,3.5620117199999997,-10.991195076412966,-2.5990106097613044,2.5003622015015052,-0.6984525104181624,-3.285080197297878,28.6626018876772,28.858695999359792,-2.2750912048484326,28.86833661015758,-2.2829294170920362,-0.4686492133333333,0.38490924000000004,-0.8557845466666667,1.709343,1.0488824521884241,0.7276145431327937,0.7008567300470305,0.6944895327575389
LBP05_S09,LBP05,-1525,126,9,125,-1525,1715803480.0,2024-05-15 20:04:40+00:00,2024-05-16 05:04:40+09:00,2024,5,15,20,4,40,0,20.0,4.0,40.0,40.734165,141.643585,-17.955,3.0,8.0,-0.033447,-0.339844,0.297363,-152.404785,-87.463379,-6.835938,-574.0,61.0,547.0,29.0,0.0,1022.400024,16.58,0.093152,-75.858627,3.817969,0.0,1.0,1.0,9.0,0.0,0.0,0.0,5.0,0.0,-0.15406568,-0.18583012,0.9704622266666667,-4.143880173333332,-0.5379231600000001,4.17073568,-11.53246072206404,-2.3903237266071735,2.8064235959503603,-1.159750939300724,-3.3806931463621646,28.774858831515218,28.995975740862704,-2.2657449133536756,28.980031745438872,-2.2863320271101197,0.12061868,-0.15401388,-0.6730992266666667,0.9477317866666667,0.7009505761013836,0.7350624990263033,0.7046900243397761,0.6942822783021169
LBP05_S09,LBP05,-1524,127,9,126,-1524,1715803480.04,2024-05-15 20:04:40.040000+00:00,2024-05-16 05:04:40.040000+09:00,2024,5,15,20,4,40,40,,,,,,,,,0.367432,-0.524414,0.681396,-7.324219,-74.401855,35.705566,,,,,,,,,,,0.0,1.0,1.0,9.0,0.0,0.0,0.0,5.0,0.0,-0.16212884,-0.18836918666666666,0.9711295466666666,-4.340820279999999,-0.5086262933333334,4.396972666666667,-12.545210087589892,-1.1309916728776792,3.0428541846718375,-1.6615593428043196,-3.4259328132772717,28.89657299890209,29.146350134650266,-2.283803248425113,29.10342585963756,-2.2884954083355713,0.52956084,-0.33604481333333336,-0.2897335466666666,1.1553392,0.6908735976238968,0.725082730138975,0.7000904417775478,0.6990075228035039
LBP05_S09,LBP05,-1523,128,9,127,-1523,1715803480.08,2024-05-15 20:04:40.080000+00:00,2024-05-16 05:04:40.080000+09:00,2024,5,15,20,4,40,80,,,,,,,,,0.188232,0.077393,1.044678,96.984863,54.504395,42.785645,,,,,,,,,,,0.0,1.0,1.0,9.0,0.0,0.0,0.0,5.0,0.0,-0.16167636,-0.18698572000000002,0.9852083333333334,-3.544921839999999,-2.83528644,3.928222666666666,-13.381164922622293,0.9830054189307013,3.1122688300932233,-2.1968059397092112,-3.3866125965200435,29.02106375210582,29.30046488572221,-2.2859127358899327,29.236880078085854,-2.28956952578174,0.34990836000000003,0.26437872,0.05946966666666664,0.6737567466666666,0.44257045680905144,0.7165675406236026,0.6950390972464519,0.6949582879322241
LBP05_S09,LBP05,-1522,129,9,128,-1522,1715803480.12,2024-05-15 20:04:40.120000+00:00,2024-05-16 05:04:40.120000+09:00,2024,5,15,20,4,40,120,,,,,,,,,-0.619141,-0.196533,1.539062,-1.098633,44.555664,19.958496,,,,,,,,,,,0.0,1.0,1.0,9.0,0.0,0.0,0.0,5.0,0.0,-0.16066724000000002,-0.1851628,0.9922298266666665,-3.454589813333332,-1.0050455466666668,3.32438152,-13.538147825578418,3.4781003122253344,3.0363702137168365,-2.738331852732348,-3.2474885840310304,29.142518560654494,29.450484401741036,-2.2875485660296278,29.380048795815377,-2.287356462540169,-0.45847376000000006,-0.011370200000000025,0.5468321733333334,1.0166761333333336,0.7136896355202551,0.7291038225867851,0.6964576641868896,0.6922523730797578
LBP05_S09,LBP05,-1521,130,9,129,-1521,1715803480.16,2024-05-15 20:04:40.160000+00:00,2024-05-16 05:04:40.160000+09:00,2024,5,15,20,4,40,160,,,,,,,,,-0.536133,-0.294922,1.79541,-48.950195,-69.763184,-10.009766,,,,,,,,,,,0.0,1.0,1.0,9.0,0.0,0.0,0.0,5.0,0.0,-0.16567374666666665,-0.18339196,0.98629232,-6.5812174133333325,-0.4418945066666668,2.62044272,-12.709082249864329,5.739063283296995,2.970541742382739,-3.246695142726921,-3.0179260526991505,29.261340230349806,29.595184390127642,-2.3070124736524598,29.53266902670429,-2.284702787937259,-0.3704592533333333,-0.11153004000000002,0.80911768,1.2911069733333331,0.8968558570312594,0.7197324546236977,0.7074160066809734,0.6983801581208461
LBP05_S09,LBP05,-1520,131,9,130,-1520,1715803480.2,2024-05-15 20:04:40.200000+00:00,2024-05-16 05:04:40.200000+09:00,2024,5,15,20,4,40,200,,,,,,,,,-0.068115,-0.213135,1.387695,-43.457031,42.907715,-27.709961,,,,,,,,,,,0.0,1.0,1.0,9.0,0.0,0.0,0.0,5.0,0.0,-0.16804353333333333,-0.18968427999999998,0.9809570266666666,-7.645670546666666,-1.6682942400000003,2.267252626666666,-10.819975959693087,7.205314580131439,3.117062731605874,-3.679494181114644,-2.729713469493893,29.38602273961404,29.74102125865059,-2.297705683468947,29.69317056800636,-2.284959886219677,0.09992853333333333,-0.023450720000000008,0.4067379733333333,0.5301172266666666,0.41948948377042405,0.705237154162424,0.6955780600447524,0.6921847329966838
LBP05_S09,LBP05,-1519,132,9,131,-1519,1715803480.24,2024-05-15 20:04:40.240000+00:00,2024-05-16 05:04:40.240000+09:00,2024,5,15,20,4,40,240,,,,,,,,,-0.548096,0.066406,0.210205,14.587402,99.365234,-39.794922,,,,,,,,,,,0.0,1.0,1.0,9.0,0.0,0.0,0.0,5.0,0.0,-0.15908845333333332,-0.18397138666666665,0.9739648399999998,-7.5887044,-2.290852826666667,1.9604492399999995,-8.063050981433099,7.54860439329072,3.5860229030782236,-4.002016220371968,-2.427769293762264,29.52946365573717,29.898150801803073,-2.2859484742716045,29.85781980357522,-2.287045647956685,-0.3890075466666667,0.25037738666666665,-0.7637598399999999,1.403144773333333,0.8929416556049302,0.7049340791815637,0.6977929153114014,0.6940584622341812
LBP05_S09,LBP05,-1518,133,9,132,-1518,1715803480.28,2024-05-15 20:04:40.280000+00:00,2024-05-16 05:04:40.280000+09:00,2024,5,15,20,4,40,280,,,,,,,,,-0.05835,-0.302979,0.407959,-87.585449,-69.580078,23.986816,,,,,,,,,,,0.0,1.0,1.0,9.0,0.0,0.0,0.0,5.0,0.0,-0.15525055999999998,-0.18104169333333334,0.9716210933333334,-8.58723956,-0.9529622000000002,1.6178385599999998,-4.8707024161527075,6.765766255062351,4.295868790897618,-4.196844317018076,-2.1571386435597697,29.701298407373077,30.073807148956853,-2.281856072504135,30.020590835689365,-2.292124860982943,0.09690055999999998,-0.12193730666666666,-0.5636620933333334,0.78249996,0.5847849012640031,0.7123190397194399,0.7072942974660021,0.6926802042925853
LBP05_S09,LBP05,-1517,134,9,133,-1517,1715803480.32,2024-05-15 20:04:40.320000+00:00,2024-05-16 05:04:40.320000+09:00,2024,5,15,20,4,40,320,,,,,,,,,0.348877,-0.174805,0.802246,61.279297,-26.306152,19.40918,,,,,,,,,,,0.0,1.0,1.0,9.0,0.0,0.0,0.0,5.0,0.0,-0.16235668,-0.19158206666666666,0.9756705733333335,-8.908691386666664,-1.0685220933333335,1.621907573333333,-1.7880796463664834,5.153690085319261,4.979686443216797,-4.268367502872736,-1.9509910401469992,29.90048586510175,30.266555505168796,-2.2764045069286594,30.173495786604683,-2.295879942259443,0.51123368,0.016777066666666673,-0.1734245733333335,0.7014353200000002,0.5401087188410579,0.7009676697429996,0.6981071537782091,0.6937827735643852
LBP05_S09,LBP05,-1516,135,9,134,-1516,1715803480.36,2024-05-15 20:04:40.360000+00:00,2024-05-16 05:04:40.360000+09:00,2024,5,15,20,4,40,360,,,,,,,,,0.043213,-0.185547,1.307617,58.59375,77.270508,31.494141,,,,,,,,,,,0.0,1.0,1.0,9.0,0.0,0.0,0.0,5.0,0.0,-0.16207998666666665,-0.19072594666666667,0.9862369733333335,-6.298014306666665,-2.5773111466666667,1.6634114799999995,0.7306243975587369,3.18281661604481,5.2916047062381235,-4.239142526970387,-1.8236783755052068,30.112150053351275,30.463711412380427,-2.277662187672616,30.306970940028464,-2.2955524857414984,0.20529298666666665,0.005178946666666684,0.32138002666666654,0.5318519599999999,0.3813884547326566,0.6852993611865105,0.6920876455831784,0.6868738399376078
LBP05_S09,LBP05,-1515,136,9,135,-1515,1715803480.4,2024-05-15 20:04:40.400000+00:00,2024-05-16 05:04:40.400000+09:00,2024,5,15,20,4,40,400,,,,,,,,,-0.73291,-0.148926,1.768799,-18.676758,-11.59668,4.333496,,,,,,,,,,,0.0,1.0,1.0,9.0,0.0,0.0,0.0,5.0,0.0,-0.16497388000000002,-0.19055016,0.99004556,-4.002278639999999,-0.5745442133333336,1.1140950666666662,2.511524242118994,1.3254603633836077,4.946590681221667,-4.138681557285627,-1.7706599609698626,30.310013680600143,30.642468096551326,-2.2866025307237563,30.410171062593456,-2.296843118526387,-0.5679361199999999,0.04162415999999999,0.77875344,1.38831372,0.9647491525822625,0.7149987424236437,0.6972851631498028,0.6888059880360786
LBP05_S09,LBP05,-1514,137,9,136,-1514,1715803480.44,2024-05-15 20:04:40.440000+00:00,2024-05-16 05:04:40.440000+09:00,2024,5,15,20,4,40,440,,,,,,,,,-0.44873,-0.399902,1.760254,43.579102,-101.806641,2.075195,,,,,,,,,,,0.0,1.0,1.0,9.0,0.0,0.0,0.0,5.0,0.0,-0.17115877333333332,-0.17896161333333335,0.9837792799999999,-5.308430973333333,-0.48258457333333354,0.4817708399999998,3.7323369182219395,-0.09827472953956114,3.818108059853968,-3.989388080556749,-1.774590950151445,30.462738002994303,30.774060455791677,-2.33459537868769,30.471400666408506,-2.297943578641765,-0.27757122666666667,-0.22094038666666663,0.7764747200000001,1.2749863333333333,0.8536822776260103,0.7030810359028838,0.7009638024061141,0.6953089401089869
LBP05_S09,LBP05,-1513,138,9,137,-1513,1715803480.48,2024-05-15 20:04:40.480000+00:00,2024-05-16 05:04:40.480000+09:00,2024,5,15,20,4,40,480,,,,,,,,,-0.047607,0.005615,1.080078,-36.315918,59.387207,-8.483887,,,,,,,,,,,0.0,1.0,1.0,9.0,0.0,0.0,0.0,5.0,0.0,-0.17072258666666665,-0.18266929333333332,0.97998696,-10.128580719999999,-2.5846353600000005,0.008138026666666463,4.829422604309975,-1.0067405185116947,1.9570978098985614,-3.7962111763843502,-1.8148605708919128,30.541021915390246,30.82951439487542,-2.323463548654936,30.479041614618488,-2.2987557784943955,0.12311558666666665,0.18828429333333332,0.10009104000000013,0.4114909200000001,0.24622477349891467,0.6859066560374615,0.6863497971410824,0.6842983510884606
LBP05_S09,LBP05,-1512,139,9,138,-1512,1715803480.52,2024-05-15 20:04:40.520000+00:00,2024-05-16 05:04:40.520000+09:00,2024,5,15,20,4,40,520,,,,,,,,,-0.312988,-0.035645,0.106201,-57.800293,33.874512,-7.568359,,,,,,,,,,,0.0,1.0,1.0,9.0,0.0,0.0,0.0,5.0,0.0,-0.16152662666666667,-0.18747072,0.9750748533333334,-9.558105466666666,-2.621256453333334,-0.5541992133333334,6.287876982058765,-1.5437153788174023,-0.4543605208555814,-3.5446960971019994,-1.8766091860446088,30.52284749455602,30.78523593597882,-2.2842740008501767,30.423116141830928,-2.300847021107953,-0.15146137333333332,0.15182572,-0.8688738533333334,1.1721609466666667,0.894948808520271,0.6956046836866641,0.6922287270212476,0.6870486302720932
LBP05_S09,LBP05,-1511,140,9,139,-1511,1715803480.56,2024-05-15 20:04:40.560000+00:00,2024-05-16 05:04:40.560000+09:00,2024,5,15,20,4,40,560,,,,,,,,,0.09668,-0.195557,0.450928,-2.197266,-71.228027,-10.375977,,,,,,,,,,,0.0,1.0,1.0,9.0,0.0,0.0,0.0,5.0,0.0,-0.1624804,-0.17510093333333332,0.9716699066666666,-10.161132813333332,-1.1181640000000004,-0.9505208266666668,8.426953592104812,-1.971419972477787,-3.1732342684146424,-3.207617953417807,-1.9554659849437204,30.395918123819435,30.62718561577761,-2.3199188015013474,30.29724414263764,-2.3036127088511984,0.2591604,-0.02045606666666669,-0.5207419066666666,0.8003583733333334,0.5820263713531084,0.6984080888933708,0.6955551273568642,0.6870249348011263
LBP05_S09,LBP05,-1510,141,9,140,-1510,1715803480.6,2024-05-15 20:04:40.600000+00:00,2024-05-16 05:04:40.600000+09:00,2024,5,15,20,4,40,600,,,,,,,,,0.521973,-0.25415,1.139648,76.782227,19.226074,2.685547,,,,,,,,,,,0.0,1.0,1.0,9.0,0.0,0.0,0.0,5.0,0.0,-0.16651686666666668,-0.18369468,0.9746939999999998,-12.190755213333333,-1.597493426666667,-0.8585611866666668,11.284153573693228,-2.5174947382716457,-5.950371535002647,-2.7562518104700775,-2.0561657744745863,30.157903262419328,30.353317296801062,-2.308710284622726,30.100458170352255,-2.3081244330533766,0.6884898666666667,-0.07045531999999999,0.16495400000000016,0.9238991866666668,0.711471763835352,0.684475872595742,0.6930455006853826,0.6918012885329666
LBP05_S09,LBP05,-1509,142,9,141,-1509,1715803480.64,2024-05-15 20:04:40.640000+00:00,2024-05-16 05:04:40.640000+09:00,2024,5,15,20,4,40,640,,,,,,,,,-0.467773,-0.145508,1.673096,29.907227,85.998535,-9.94873,,,,,,,,,,,0.0,1.0,1.0,9.0,0.0,0.0,0.0,5.0,0.0,-0.16427729333333335,-0.18680665333333332,0.98511392,-9.969075519999999,-3.43424472,-0.4158528533333335,14.62457727310653,-3.2420111065156054,-8.552580290646791,-2.1712687195458162,-2.1858462187352106,29.815800050793456,29.97456028390295,-2.2940704727979124,29.83826578686819,-2.3102249692293357,-0.30349570666666664,0.041298653333333324,0.6879820799999999,1.03277644,0.7530833719671233,0.6874980520059583,0.6960411392374628,0.6909232475101792
LBP05_S09,LBP05,-1508,143,9,142,-1508,1715803480.68,2024-05-15 20:04:40.680000+00:00,2024-05-16 05:04:40.680000+09:00,2024,5,15,20,4,40,680,,,,,,,,,-0.793945,-0.471191,1.885742,21.606445,-50.415039,-3.845215,,,,,,,,,,,0.0,1.0,1.0,9.0,0.0,0.0,0.0,5.0,0.0,-0.16737950666666668,-0.1869336,0.9886067599999999,-7.398274746666666,-1.6552733600000002,-0.12125650666666682,18.018623823026484,-3.983370550235706,-10.75864934744683,-1.450523766624757,-2.345181040744639,29.385454076895584,29.51455242108121,-2.302768498639712,29.522567968962097,-2.3067021183037686,-0.6265654933333333,-0.2842574,0.8971352400000001,1.8079581333333334,1.1305919802212738,0.7136342889609172,0.7074529903470795,0.6946023017903952
LBP05_S09,LBP05,-1507,144,9,143,-1507,1715803480.72,2024-05-15 20:04:40.720000+00:00,2024-05-16 05:04:40.720000+09:00,2024,5,15,20,4,40,720,,,,,,,,,-0.165771,-0.349609,1.476562,15.563965,-40.222168,-9.765625,,,,,,,,,,,0.0,1.0,1.0,9.0,0.0,0.0,0.0,5.0,0.0,-0.16903314666666666,-0.18828450666666666,0.9891894399999999,-6.978352879999999,-1.1767577333333339,0.27425130666666653,20.91095402303997,-4.417221807085021,-12.349362486411911,-0.6140856057031582,-2.52186991302804,28.891479577439107,29.007835513235882,-2.3040613843611126,29.170546486163904,-2.3057947143261255,0.00326214666666666,-0.16132449333333335,0.48737256000000007,0.6519592000000001,0.5133889811742021,0.6997552514262858,0.705015805279696,0.6984080548859553
LBP05_S09,LBP05,-1506,145,9,144,-1506,1715803480.76,2024-05-15 20:04:40.760000+00:00,2024-05-16 05:04:40.760000+09:00,2024,5,15,20,4,40,760,,,,,,,,,-0.293701,0.33374,0.346436,26.123047,80.078125,-22.216797,,,,,,,,,,,0.0,1.0,1.0,9.0,0.0,0.0,0.0,5.0,0.0,-0.17047520000000002,-0.18265625333333335,0.9877180933333333,-7.185058613333332,-1.5307616400000006,-0.056152346666666804,22.656952596274188,-4.215080390698845,-13.110732519061184,0.29219249814780934,-2.6904731286559938,28.36705027667666,28.49585168952659,-2.322779429694393,28.803144375646877,-2.308509762344337,-0.12322579999999997,0.5163962533333333,-0.6412820933333332,1.2809041466666664,0.8325217183187031,0.7090186065581462,0.7023228902608064,0.696626184467312
LBP05_S09,LBP05,-1505,146,9,145,-1505,1715803480.8,2024-05-15 20:04:40.800000+00:00,2024-05-16 05:04:40.800000+09:00,2024,5,15,20,4,40,800,,,,,,,,,-0.125488,-0.473389,0.260742,-142.578125,-90.026855,8.972168,,,,,,,,,,,0.0,1.0,1.0,9.0,0.0,0.0,0.0,5.0,0.0,-0.16723626666666666,-0.1849023466666667,0.9870768133333333,-7.8002929866666655,-1.5144856000000004,-0.48583985333333346,22.574700003380705,-3.235432538141746,-12.859759975340427,1.1951804982830376,-2.8198904301816636,27.852659877663044,28.020544261710672,-2.3076078924833534,28.443763155911235,-2.3085372413978327,0.04174826666666667,-0.28848665333333334,-0.7263348133333334,1.0565697333333333,0.7826427844049328,0.7201072557949195,0.7048122062251511,0.6978809165241955
LBP05_S09,LBP05,-1504,147,9,146,-1504,1715803480.84,2024-05-15 20:04:40.840000+00:00,2024-05-16 05:04:40.840000+09:00,2024,5,15,20,4,40,840,,,,,,,,,0.12915,-0.125,0.407471,117.919922,-65.795898,-24.230957,,,,,,,,,,,0.0,1.0,1.0,9.0,0.0,0.0,0.0,5.0,0.0,-0.16603509333333336,-0.1867447866666667,0.9856575466666665,-7.701009133333334,-0.37923169333333373,-0.5395507866666668,20.086265363428033,-1.6530195206595817,-11.490037882184582,1.998631112820159,-2.886011211008047,27.393058362375662,27.617082276730756,-2.2993668694320157,28.117094392998332,-2.3105377746371882,0.2951850933333333,0.06174478666666669,-0.5781865466666665,0.9351164266666665,0.6521091478832712,0.7119575119797859,0.7093102361950255,0.6979567735900346
LBP05_S09,LBP05,-1503,148,9,147,-1503,1715803480.88,2024-05-15 20:04:40.880000+00:00,2024-05-16 05:04:40.880000+09:00,2024,5,15,20,4,40,880,,,,,,,,,0.398682,-0.046875,0.768311,60.974121,18.554688,-25.146484,,,,,,,,,,,0.0,1.0,1.0,9.0,0.0,0.0,0.0,5.0,0.0,-0.17040032000000002,-0.18578449333333333,0.9859342400000001,-8.33902996,-0.27018221333333364,-0.6469726666666668,14.968613006669262,0.054639454448421415,-9.023680703158185,2.5973756330869295,-2.88382563283011,27.032111134249334,27.309299566893483,-2.3143895088785054,27.84725510977423,-2.313480854459502,0.56908232,0.13890949333333333,-0.2176232400000001,0.9256150533333335,0.6249083203661185,0.6944449190750989,0.7060697165505883,0.702224818841236
LBP05_S09,LBP05,-1502,149,9,148,-1502,1715803480.92,2024-05-15 20:04:40.920000+00:00,2024-05-16 05:04:40.920000+09:00,2024,5,15,20,4,40,920,,,,,,,,,-0.312988,-0.345459,1.309082,32.470703,91.73584,-6.286621,,,,,,,,,,,0.0,1.0,1.0,9.0,0.0,0.0,0.0,5.0,0.0,-0.16920240000000003,-0.18560546666666666,0.9915592399999998,-7.466634133333332,-1.0538736133333337,-0.8886718933333335,7.623265157216043,1.2861254466467822,-5.647848439319901,2.902306239375571,-2.8323806149642388,26.80619719667654,27.111214830808535,-2.31142448103229,27.654653297991096,-2.3157192403773275,-0.14378559999999996,-0.15985353333333335,0.31752276000000024,0.6211618933333336,0.38346858281289337,0.6895341529620711,0.6969314990398882,0.6961119376549072
LBP05_S09,LBP05,-1501,150,9,149,-1501,1715803480.96,2024-05-15 20:04:40.960000+00:00,2024-05-16 05:04:40.960000+09:00,2024,5,15,20,4,40,960,,,,,,,,,-0.649902,-0.149902,1.583496,60.60791,-4.211426,12.634277,,,,,,,,,,,0.0,1.0,1.0,9.0,0.0,0.0,0.0,5.0,0.0,-0.17379549333333336,-0.18722656000000001,0.9938509066666665,-6.525065119999999,-0.16601553333333374,-0.8048502800000001,-0.8100962531006041,1.588679130842925,-1.714347299608042,2.869902389251547,-2.7688334497305216,26.737623304692217,27.033373418421142,-2.3201935920363037,27.552348935249405,-2.318141315505531,-0.47610650666666665,0.03732456000000001,0.5896450933333335,1.10307616,0.7587831472572423,0.6779301807648239,0.7027723619488087,0.6932145469529616
LBP05_S09,LBP05,-1500,151,9,150,-1500,1715803481.0,2024-05-15 20:04:41+00:00,2024-05-16 05:04:41+09:00,2024,5,15,20,4,41,0,20.0,4.0,41.0,40.734062,141.64357,-16.936001,3.0,8.0,-0.178223,-0.051025,1.36377,51.818848,-7.873535,1.647949,-573.0,58.0,550.0,17.0,0.0,1022.099976,16.639999,0.090179,-73.379799,3.817969,0.0,1.0,1.0,9.0,0.0,0.0,0.0,6.0,0.0,-0.17533845333333334,-0.1855859333333333,0.9932747333333333,-6.308593773333332,0.04475919999999955,-0.6860351733333334,-8.642924062109989,0.880769382416986,2.305928323693427,2.5241854267671475,-2.733602674433842,26.829860437639955,27.086629667672078,-2.3287156170162846,27.54373252030939,-2.3171955936577815,-0.002884546666666654,0.1345609333333333,0.37049526666666666,0.5079407466666666,0.3941848652744222,0.6656595523317455,0.7003610256790245,0.6916798670037658
LBP05_S09,LBP05,-1499,152,9,151,-1499,1715803481.04,2024-05-15 20:04:41.040000+00:00,2024-05-16 05:04:41.040000+09:00,2024,5,15,20,4,41,40,,,,,,,,,-0.256592,-0.00708,0.416992,-129.516602,92.834473,-9.399414,,,,,,,,,,,0.0,1.0,1.0,9.0,0.0,0.0,0.0,6.0,0.0,-0.17602854666666665,-0.1883463466666667,0.9926334533333333,-6.832682319999999,-0.3548176266666671,-0.5183919466666669,-14.13372976478855,-0.5031833205817695,5.903898473863184,1.9588362361756055,-2.7537300072571127,27.066016376594483,27.276167451661966,-2.3235012710210508,27.622870162629557,-2.3175063729792953,-0.08056345333333334,0.1812663466666667,-0.5756414533333334,0.8374712533333334,0.6088604448004359,0.6623790262188071,0.693730878178891,0.6875199699246342
LBP05_S09,LBP05,-1498,153,9,152,-1498,1715803481.08,2024-05-15 20:04:41.080000+00:00,2024-05-16 05:04:41.080000+09:00,2024,5,15,20,4,41,80,,,,,,,,,-0.145996,-0.406738,0.10376,-222.045898,-79.223633,14.221191,,,,,,,,,,,0.0,1.0,1.0,9.0,0.0,0.0,0.0,6.0,0.0,-0.17392568,-0.18545246666666665,0.9898730400000001,-5.656738306666665,-0.02360017333333379,-0.8487956000000001,-16.110397236949268,-1.9781950173560983,8.629843836367154,1.3144203466976347,-2.8328578079513567,27.41121013004917,27.588534303249855,-2.325152357817965,27.77728747418496,-2.3201946858106113,0.027929680000000012,-0.22128553333333334,-0.8861130400000001,1.1353282533333335,0.9137525233593404,0.6812263088808186,0.6988969247522105,0.6904348344579074
LBP05_S09,LBP05,-1497,154,9,153,-1497,1715803481.12,2024-05-15 20:04:41.120000+00:00,2024-05-16 05:04:41.120000+09:00,2024,5,15,20,4,41,120,,,,,,,,,0.178223,-0.317627,0.372559,31.860352,-102.478027,10.620117,,,,,,,,,,,0.0,1.0,1.0,9.0,0.0,0.0,0.0,6.0,0.0,-0.17275705333333333,-0.18301106666666667,0.9889257733333333,-5.843912786666666,0.4687500799999996,-1.0611979466666668,-14.422483734630676,-3.0034812239393256,10.189214111019886,0.7375209973124077,-2.95299705690893,27.818778694489964,27.984791885818954,-2.328282135643144,27.991644085272963,-2.323976847104862,0.3509800533333333,-0.13461593333333333,-0.6163667733333333,1.10196276,0.721953216361295,0.6815568521144602,0.7053303373506226,0.6914907268294131
LBP05_S09,LBP05,-1496,155,9,154,-1496,1715803481.16,2024-05-15 20:04:41.160000+00:00,2024-05-16 05:04:41.160000+09:00,2024,5,15,20,4,41,160,,,,,,,,,0.396729,-0.077881,0.706787,92.224121,-9.155273,16.906738,,,,,,,,,,,0.0,1.0,1.0,9.0,0.0,0.0,0.0,6.0,0.0,-0.17450510666666666,-0.19070311999999998,0.99076496,-6.335449253333333,-0.42073558666666694,-0.9383138266666669,-9.982291014743984,-3.3514179718272383,10.516565615429993,0.33822935672264837,-3.0870537757820196,28.239441319107165,28.40968754012645,-2.313322211216906,28.250476053469175,-2.3274615646439414,0.5712341066666666,0.11282211999999997,-0.28397796,0.9680341866666665,0.6478276909382005,0.6715957254707378,0.6956640900472177,0.6954759129442281
LBP05_S09,LBP05,-1495,156,9,155,-1495,1715803481.2,2024-05-15 20:04:41.200000+00:00,2024-05-16 05:04:41.200000+09:00,2024,5,15,20,4,41,200,,,,,,,,,-0.063721,-0.116211,1.226074,50.476074,83.618164,38.024902,,,,,,,,,,,0.0,1.0,1.0,9.0,0.0,0.0,0.0,6.0,0.0,-0.16956370666666667,-0.18626953333333335,0.9996646933333333,-4.975585973333333,-1.8400064266666667,-0.90738936,-4.381844561006799,-3.203977187335941,9.801394125472374,0.1629555742823764,-3.215212863275457,28.63149708412606,28.811920684912362,-2.3107156856984843,28.53897616648853,-2.3278960278291385,0.10584270666666667,0.07005853333333335,0.2264093066666668,0.4023105466666668,0.25956126597130125,0.6651985967587728,0.6852178754605984,0.6854515722827592
LBP05_S09,LBP05,-1494,157,9,156,-1494,1715803481.24,2024-05-15 20:04:41.240000+00:00,2024-05-16 05:04:41.240000+09:00,2024,5,15,20,4,41,240,,,,,,,,,-0.50708,-0.263672,1.635254,18.859863,-11.047363,7.446289,,,,,,,,,,,0.0,1.0,1.0,9.0,0.0,0.0,0.0,6.0,0.0,-0.17401357333333334,-0.18511719999999998,1.00012692,-2.7286784266666664,0.13834643999999968,-1.0221354533333333,0.6861331002453693,-3.0324303209998873,8.440724130959605,0.19040089829219117,-3.3365100761154527,28.969126049364444,29.161255392284744,-2.3262499977451765,28.842236318002428,-2.329166489445248,-0.33306642666666664,-0.07855480000000004,0.63512708,1.0467483066666667,0.7214502816721804,0.6583389418014629,0.6816365104915133,0.6846415908080886
LBP05_S09,LBP05,-1493,158,9,157,-1493,1715803481.28,2024-05-15 20:04:41.280000+00:00,2024-05-16 05:04:41.280000+09:00,2024,5,15,20,4,41,280,,,,,,,,,-0.242676,-0.219971,1.564941,20.019531,-41.748047,-0.976562,,,,,,,,,,,0.0,1.0,1.0,9.0,0.0,0.0,0.0,6.0,0.0,-0.17966136000000002,-0.18114584,0.9950162533333334,-2.6147461333333326,0.5875651999999997,-1.5568034266666666,3.9079847300452073,-3.343562988262202,6.913263181401105,0.34672028749399947,-3.470252595645941,29.245656576620487,29.45286567777357,-2.3522111218210116,29.144582581680453,-2.3314975669222173,-0.06301463999999998,-0.03882516,0.5699247466666665,0.6717645466666664,0.5747107574827699,0.6579359760502136,0.6851275078848268,0.6908415236607393
LBP05_S09,LBP05,-1492,159,9,158,-1492,1715803481.32,2024-05-15 20:04:41.320000+00:00,2024-05-16 05:04:41.320000+09:00,2024,5,15,20,4,41,320,,,,,,,,,-0.250488,-0.020264,0.606445,-43.518066,92.346191,-10.986328,,,,,,,,,,,0.0,1.0,1.0,9.0,0.0,0.0,0.0,6.0,0.0,-0.17582672,-0.1794661466666667,0.9887402133333334,-2.78238936,-0.4443358400000003,-1.8920898933333334,4.562387046213039,-4.4318256298561955,5.6072867158697965,0.529215769342521,-3.647525620840189,29.46994804525528,29.699534512770597,-2.3462716564230903,29.430472697931272,-2.3303673330016474,-0.07466128,0.15920214666666668,-0.3822952133333334,0.6161586400000001,0.4207959842632676,0.653163466667102,0.6770655682050508,0.6831259247411734
LBP05_S09,LBP05,-1491,160,9,159,-1491,1715803481.36,2024-05-15 20:04:41.360000+00:00,2024-05-16 05:04:41.360000+09:00,2024,5,15,20,4,41,360,,,,,,,,,-0.2229,0.02417,0.025146,-59.326172,-15.014648,-36.682129,,,,,,,,,,,0.0,1.0,1.0,9.0,0.0,0.0,0.0,6.0,0.0,-0.16894194666666665,-0.18034830666666668,0.9877050533333335,-3.221028679999999,0.043945413333333176,-1.8644206266666667,2.491018011074271,-6.245040632751401,4.670763258913165,0.6288564897854918,-3.897327246150245,29.656778575611806,29.918374548614732,-2.3245382238882724,29.68677973700852,-2.3305223995287343,-0.05395805333333334,0.20451830666666668,-0.9625590533333335,1.2210354133333334,0.9855248045763672,0.6773289206608504,0.6813141409236805,0.687168070609069
LBP05_S09,LBP05,-1490,161,9,160,-1490,1715803481.4,2024-05-15 20:04:41.400000+00:00,2024-05-16 05:04:41.400000+09:00,2024,5,15,20,4,41,400,,,,,,,,,0.0896,-0.235596,0.346436,-59.631348,-92.834473,-12.512207,,,,,,,,,,,0.0,1.0,1.0,9.0,0.0,0.0,0.0,6.0,0.0,-0.17397450666666667,-0.17936198666666667,0.9882128533333334,-3.6678060266666663,0.8512370666666665,-1.9995117733333336,-2.0290942631631146,-8.401970202435601,3.960637012987029,0.5476927192589672,-4.233406054247669,29.815204056131286,30.11923118281105,-2.3414202331773777,29.904686082156037,-2.3324672100969885,0.26357450666666665,-0.05623401333333333,-0.6417768533333335,0.9615853733333335,0.6960684695449042,0.666581693339356,0.6907902178814999,0.6870506732129872
LBP05_S09,LBP05,-1489,162,9,161,-1489,1715803481.44,2024-05-15 20:04:41.440000+00:00,2024-05-16 05:04:41.440000+09:00,2024,5,15,20,4,41,440,,,,,,,,,0.477295,-0.334473,0.883057,85.9375,-8.300781,35.583496,,,,,,,,,,,0.0,1.0,1.0,9.0,0.0,0.0,0.0,6.0,0.0,-0.17656565333333332,-0.18001953333333334,0.9916601199999998,-3.2576497733333327,-0.9912108533333333,-1.9116211466666668,-8.37187409106846,-10.33113796038122,3.1313051821479507,0.21281775561622884,-4.646651572662918,29.940456263417204,30.299630088442246,-2.3468120457907458,30.079538296147746,-2.333541477254426,0.6538606533333333,-0.15445346666666668,-0.10860311999999983,0.9169172399999999,0.6805764211435619,0.6596574590800581,0.681369247491471,0.6871950212974288
LBP05_S09,LBP05,-1488,163,9,162,-1488,1715803481.48,2024-05-15 20:04:41.480000+00:00,2024-05-16 05:04:41.480000+09:00,2024,5,15,20,4,41,480,,,,,,,,,-0.208252,0.121826,1.399658,34.423828,72.631836,55.969238,,,,,,,,,,,0.0,1.0,1.0,9.0,0.0,0.0,0.0,6.0,0.0,-0.16870757333333333,-0.18411784,1.0034635066666666,-3.1298828533333327,-0.90576164,-1.0668945866666666,-15.574833240010372,-11.456227748752186,1.8293790999233768,-0.410175573984186,-5.104900682613006,30.01363142741414,30.447435465757994,-2.3138500186122695,30.208723705154625,-2.3332646927156153,-0.03954442666666666,0.30594384,0.39619449333333345,0.7416827600000001,0.5021309305967895,0.6698937053639731,0.6779001807007172,0.6808644332153793
LBP05_S09,LBP05,-1487,164,9,163,-1487,1715803481.52,2024-05-15 20:04:41.520000+00:00,2024-05-16 05:04:41.520000+09:00,2024,5,15,20,4,41,520,,,,,,,,,-0.780518,-0.333252,1.657471,-6.896973,-56.152344,17.089844,,,,,,,,,,,0.0,1.0,1.0,9.0,0.0,0.0,0.0,6.0,0.0,-0.17014312,-0.17964844,0.9996874666666665,-2.1134440533333327,0.3157552933333333,-1.26464848,-22.369203349095432,-11.358867721635722,-0.10595116643578145,-1.3049437079480033,-5.559255391478435,30.00939338075671,30.54786227659146,-2.329832800914007,30.289250011996767,-2.3302638454519946,-0.6103748800000001,-0.15360356,0.6577835333333334,1.4217619733333335,0.9104014084480387,0.6705118093610838,0.6830582465238738,0.6849897544678597
LBP05_S09,LBP05,-1486,165,9,164,-1486,1715803481.56,2024-05-15 20:04:41.560000+00:00,2024-05-16 05:04:41.560000+09:00,2024,5,15,20,4,41,560,,,,,,,,,-0.135986,0.008545,1.653809,12.390137,-86.05957,-18.676758,,,,,,,,,,,0.0,1.0,1.0,9.0,0.0,0.0,0.0,6.0,0.0,-0.17013010666666667,-0.17854818666666666,0.9981021866666666,-1.2654622799999997,0.46875008,-2.1158854533333336,-27.353640026093593,-9.886876097820519,-2.547883334000737,-2.399089308991747,-5.954730435391255,29.90747804739668,30.588750991601596,-2.3327703168994494,30.31687200521197,-2.3281342511179557,0.034144106666666674,0.18709318666666666,0.6557068133333335,0.8769441066666668,0.6827306244551419,0.6745399794851652,0.686474034189268,0.6885500780662979
LBP05_S09,LBP05,-1485,166,9,165,-1485,1715803481.6,2024-05-15 20:04:41.600000+00:00,2024-05-16 05:04:41.600000+09:00,2024,5,15,20,4,41,600,,,,,,,,,-0.177246,-0.104248,0.69043,-84.716797,99.121094,-39.489746,,,,,,,,,,,0.0,1.0,1.0,9.0,0.0,0.0,0.0,6.0,0.0,-0.16770497333333334,-0.18015952000000002,0.99863604,-1.1067708666666662,0.5208334133333333,-2.8377279066666663,-29.34743812600933,-7.1976552810456536,-5.1390072649559695,-3.57298683403212,-6.242636646633081,29.70191775679844,30.56044282482948,-2.3214583572728604,30.287361290858417,-2.3284790890515477,-0.009541026666666647,0.07591152000000002,-0.30820603999999996,0.39365858666666664,0.3175603141940851,0.6587835214995146,0.6716296970476283,0.6816248409567599
LBP05_S09,LBP05,-1484,167,9,166,-1484,1715803481.64,2024-05-15 20:04:41.640000+00:00,2024-05-16 05:04:41.640000+09:00,2024,5,15,20,4,41,640,,,,,,,,,-0.21875,-0.167236,0.051025,-196.838379,-27.709961,-36.804199,,,,,,,,,,,0.0,1.0,1.0,9.0,0.0,0.0,0.0,6.0,0.0,-0.16736968,-0.17904624,0.9989062266666665,-0.22623701333333296,1.1954753466666668,-3.06070968,-27.808230916937603,-3.729298064835994,-7.452510627401276,-4.685316070709624,-6.391808569226521,29.40381733170239,30.45310948235351,-2.3234821523570717,30.19900294807894,-2.3261490831118246,-0.05138032000000001,0.01181024,-0.9478812266666665,1.0110717866666665,0.9493462165718386,0.6666340352837031,0.6770660436448307,0.6862387712528762
LBP05_S09,LBP05,-1483,168,9,167,-1483,1715803481.68,2024-05-15 20:04:41.680000+00:00,2024-05-16 05:04:41.680000+09:00,2024,5,15,20,4,41,680,,,,,,,,,0.1875,-0.526123,0.520996,-14.343262,-74.279785,1.831055,,,,,,,,,,,0.0,1.0,1.0,9.0,0.0,0.0,0.0,6.0,0.0,-0.16975574666666668,-0.18208985333333333,1.0002701600000001,0.31901037333333365,1.2076823866666666,-2.7945964000000005,-23.098423088517325,-0.1034674459896426,-9.155312386953057,-5.609252994250317,-6.395947267066107,29.037604836224265,30.258128746194984,-2.322202649184805,30.054722741262093,-2.323238098992183,0.3572557466666667,-0.3440331466666667,-0.4792741600000001,1.1805630533333336,0.6897058757002374,0.6489985911028616,0.6813164400318894,0.6879681905990068
LBP05_S09,LBP05,-1482,169,9,168,-1482,1715803481.72,2024-05-15 20:04:41.720000+00:00,2024-05-16 05:04:41.720000+09:00,2024,5,15,20,4,41,720,,,,,,,,,0.337402,-0.043701,1.030762,80.749512,38.146973,3.356934,,,,,,,,,,,0.0,1.0,1.0,9.0,0.0,0.0,0.0,6.0,0.0,-0.16835276,-0.17954428,1.0020117066666665,1.0074869333333336,-0.09765616000000013,-2.4300130666666666,-16.42088951680902,3.020209342655037,-10.090703961579944,-6.266088574922678,-6.275138893359905,28.633976677761066,29.97575444492264,-2.3249757130826945,29.862640481706798,-2.3237184659166976,0.50575476,0.13584328,0.028750293333333454,0.6703483333333334,0.5244691157261491,0.6494417964849394,0.6745985239556126,0.6864911356814437
LBP05_S09,LBP05,-1481,170,9,169,-1481,1715803481.76,2024-05-15 20:04:41.760000+00:00,2024-05-16 05:04:41.760000+09:00,2024,5,15,20,4,41,760,,,,,,,,,-0.434082,-0.205566,1.596436,17.578125,79.040527,1.159668,,,,,,,,,,,0.0,1.0,1.0,9.0,0.0,0.0,0.0,6.0,0.0,-0.16846342666666667,-0.17854818666666666,1.0013574133333334,0.41015621333333363,-0.06103506666666666,-2.04752608,-9.417080161777129,5.109657440498613,-10.265652544617849,-6.642771781393764,-6.070752595739961,28.22335057597635,29.623267405079226,-2.3279866032241983,29.634856021878875,-2.32085911729986,-0.2656185733333334,-0.027017813333333335,0.5950785866666666,0.8877149733333333,0.652228267592066,0.6422300584558741,0.67562433250701,0.6822919463258289
LBP05_S09,LBP05,-1480,171,9,170,-1480,1715803481.8,2024-05-15 20:04:41.800000+00:00,2024-05-16 05:04:41.800000+09:00,2024,5,15,20,4,41,800,,,,,,,,,-0.733887,-0.525391,1.792969,-2.807617,-40.405273,3.112793,,,,,,,,,,,0.0,1.0,1.0,9.0,0.0,0.0,0.0,6.0,0.0,-0.16824857333333332,-0.18199870666666668,1.0003222533333334,0.8650715733333336,0.08382170666666648,-2.2159831066666666,-3.613668698973929,5.902907330106651,-9.787266647720719,-6.787318529352721,-5.834636302535695,27.83185991006752,29.235647755016238,-2.318120173780145,29.385259443291922,-2.318930396471464,-0.5656384266666666,-0.3433922933333334,0.7926467466666667,1.7016774666666667,1.03254731700001,0.6522262397596771,0.6861667477772982,0.6872835507366598
LBP05_S09,LBP05,-1479,172,9,171,-1479,1715803481.84,2024-05-15 20:04:41.840000+00:00,2024-05-16 05:04:41.840000+09:00,2024,5,15,20,4,41,840,,,,,,,,,-0.200195,0.005127,1.389404,80.566406,-14.953613,-3.173828,,,,,,,,,,,0.0,1.0,1.0,9.0,0.0,0.0,0.0,6.0,0.0,-0.16762682666666665,-0.18148112,0.9991341066666667,1.619466106666667,0.13264982666666655,-2.511393266666667,0.024622537783862572,5.474115162590788,-8.80740091059157,-6.786333627841366,-5.615671696032063,27.47956387364386,28.856828020273795,-2.3177022045943287,29.12754672800171,-2.318550993983863,-0.03256817333333337,0.18660812,0.3902698933333334,0.6094461866666667,0.43381316947116283,0.6434944006231927,0.6777259563014891,0.6873716243377479
LBP05_S09,LBP05,-1478,173,9,172,-1478,1715803481.88,2024-05-15 20:04:41.880000+00:00,2024-05-16 05:04:41.880000+09:00,2024,5,15,20,4,41,880,,,,,,,,,-0.335938,-0.22998,0.498779,-5.310059,93.200684,-30.761719,,,,,,,,,,,0.0,1.0,1.0,9.0,0.0,0.0,0.0,6.0,0.0,-0.16655586666666664,-0.17996093333333335,0.9995442666666666,1.665852826666667,0.6331381066666666,-3.0810547333333336,1.2601372095304801,4.1917118697840134,-7.506676700622407,-6.735928139460147,-5.448003221240702,27.17929680561896,28.526612870205064,-2.318653687857415,28.874161713229068,-2.3178023755456256,-0.16938213333333338,-0.05001906666666664,-0.5007652666666667,0.7201664666666667,0.5309972376787786,0.6397379573156992,0.6670914381953991,0.6839591301389586
LBP05_S09,LBP05,-1477,174,9,173,-1477,1715803481.92,2024-05-15 20:04:41.920000+00:00,2024-05-16 05:04:41.920000+09:00,2024,5,15,20,4,41,920,,,,,,,,,-0.183105,0.077637,0.161865,-92.346191,-57.128906,-28.442383,,,,,,,,,,,0.0,1.0,1.0,9.0,0.0,0.0,0.0,6.0,0.0,-0.16618802666666668,-0.18617186666666666,0.9994466133333333,2.77994788,1.2597657199999999,-3.116862026666667,0.4466671867960816,2.5839359450184944,-6.1064519265092665,-6.718061451988303,-5.3446457834399625,26.93503872855859,28.27001767831221,-2.3012393147456334,28.635955340509543,-2.3164217112479726,-0.016916973333333307,0.26380886666666664,-0.8375816133333333,1.1183074533333333,0.8783076118950474,0.6595315184789854,0.6745328357205282,0.6844648388529205
LBP05_S09,LBP05,-1476,175,9,174,-1476,1715803481.96,2024-05-15 20:04:41.960000+00:00,2024-05-16 05:04:41.960000+09:00,2024,5,15,20,4,41,960,,,,,,,,,0.259521,-0.30542,0.540771,-109.680176,-90.637207,-7.446289,,,,,,,,,,,0.0,1.0,1.0,9.0,0.0,0.0,0.0,6.0,0.0,-0.16724597333333333,-0.18265624,1.0004687466666666,3.3512369333333334,1.6487631199999995,-3.0281576,-1.7807784161919409,1.1656010897929892,-4.869679721950764,-6.7892925886359805,-5.298021739848243,26.74025153968056,28.092785205732103,-2.3134831086154892,28.421815660510497,-2.3158143718366686,0.42676697333333335,-0.12276376000000003,-0.45969774666666663,1.00922848,0.6391580466424892,0.6547465144543952,0.6663383476096096,0.6867637461173376
LBP05_S09,LBP05,-1475,176,9,175,-1475,1715803482.0,2024-05-15 20:04:42+00:00,2024-05-16 05:04:42+09:00,2024,5,15,20,4,42,0,20.0,4.0,42.0,40.733974,141.64357,-16.358999,3.0,8.0,0.276123,-0.348877,1.053223,121.520996,62.62207,18.066406,-571.0,67.0,549.0,25.0,0.0,1022.299988,16.690001,0.092161,-75.032249,3.817969,0.0,1.0,1.0,9.0,0.0,0.0,0.0,5.0,0.0,-0.16806954666666668,-0.18197916000000003,0.9966210933333332,3.5498046400000005,1.9116211866666664,-2.9036458800000005,-4.798176317461338,0.2968379708992303,-4.058601828652799,-6.981219641334434,-5.286148221012274,26.577907466534448,27.98331567192731,-2.317664332396848,28.23785015873532,-2.3132438110189772,0.4441925466666667,-0.16689783999999996,0.05660190666666687,0.6676922933333335,0.47787622178675776,0.6580941687148887,0.661876860523317,0.6862720733576458
LBP05_S09,LBP05,-1474,177,9,176,-1474,1715803482.04,2024-05-15 20:04:42.040000+00:00,2024-05-16 05:04:42.040000+09:00,2024,5,15,20,4,42,40,,,,,,,,,-0.634033,0.289795,1.48291,5.493164,76.11084,14.587402,,,,,,,,,,,0.0,1.0,1.0,9.0,0.0,0.0,0.0,5.0,0.0,-0.16707670666666666,-0.18152668,0.99548828,3.114420520000001,1.342773533333333,-2.7864583866666663,-8.127045136413287,0.12711273134504544,-3.854502928502524,-7.3063014467909655,-5.281063711758472,26.423727349394348,27.919259334627107,-2.3159959679746986,28.086438187484912,-2.311646388159839,-0.4669562933333333,0.47132168,0.48742171999999995,1.4256996933333332,0.8232692384933296,0.6666705204626043,0.6645247733407057,0.6847107589401288
LBP05_S09,LBP05,-1473,178,9,177,-1473,1715803482.08,2024-05-15 20:04:42.080000+00:00,2024-05-16 05:04:42.080000+09:00,2024,5,15,20,4,42,80,,,,,,,,,-0.61377,-0.543213,1.810547,-101.196289,-78.063965,0.610352,,,,,,,,,,,0.0,1.0,1.0,9.0,0.0,0.0,0.0,5.0,0.0,-0.16645170666666667,-0.18372068,0.9939029866666668,3.1575520400000006,1.0408529599999998,-2.581380253333333,-11.405099949407958,0.6224742768644459,-4.281880701834053,-7.762505444767283,-5.256164740683895,26.252452121320985,27.87606501899974,-2.308396006208274,27.96583490487304,-2.310842283306074,-0.4473182933333334,-0.35949232,0.8166440133333331,1.6234546266666665,0.9981161396364662,0.6700450651136894,0.675635686997254,0.6892796382060368
LBP05_S09,LBP05,-1472,179,9,178,-1472,1715803482.12,2024-05-15 20:04:42.120000+00:00,2024-05-16 05:04:42.120000+09:00,2024,5,15,20,4,42,120,,,,,,,,,-0.014893,-0.314453,1.404053,108.825684,-11.84082,-13.183594,,,,,,,,,,,0.0,1.0,1.0,9.0,0.0,0.0,0.0,5.0,0.0,-0.16692697333333334,-0.18027993333333334,0.9886067733333332,3.5709634933333336,0.9163412399999996,-2.5992839066666664,-14.289274030366894,1.626522448950429,-5.183878455428129,-8.334076405981959,-5.1911038427258775,26.04509698310386,27.834357644932176,-2.3189023189696583,27.870752383062417,-2.3081882184994296,0.15203397333333335,-0.13417306666666665,0.41544622666666675,0.7016532666666667,0.4622902855542499,0.6596585478814078,0.6706076999979339,0.690106407527551
LBP05_S09,LBP05,-1471,180,9,179,-1471,1715803482.16,2024-05-15 20:04:42.160000+00:00,2024-05-16 05:04:42.160000+09:00,2024,5,15,20,4,42,160,,,,,,,,,-0.495361,0.182129,0.207764,17.76123,106.872559,-36.621094,,,,,,,,,,,0.0,1.0,1.0,9.0,0.0,0.0,0.0,5.0,0.0,-0.16292958666666665,-0.18211912,0.9856282533333333,3.6564127066666674,1.0107422799999999,-2.156575573333334,-16.39686899797496,2.911058665107977,-6.2642094188738655,-8.989951165900957,-5.074661496121559,25.794528606348905,27.783612387327437,-2.302280995047285,27.79380761434657,-2.3078527481371176,-0.33243141333333337,0.36424812,-0.7778642533333333,1.4745437866666666,0.9210103876222875,0.6705858557487712,0.6710907906097545,0.6873046786144023
LBP05_S09,LBP05,-1470,181,9,180,-1470,1715803482.2,2024-05-15 20:04:42.200000+00:00,2024-05-16 05:04:42.200000+09:00,2024,5,15,20,4,42,200,,,,,,,,,-0.057861,-0.312988,0.308105,-160.827637,-74.645996,10.070801,,,,,,,,,,,0.0,1.0,1.0,9.0,0.0,0.0,0.0,5.0,0.0,-0.16283844,-0.18207029333333333,0.9835286400000001,3.994140573333334,1.3232422799999999,-1.8660482266666667,-17.337599134481717,4.206740643519481,-7.1715123417712,-9.683455131280226,-4.906391870380779,25.507668112678058,27.721528042512173,-2.3021459451887627,27.727332820204886,-2.3044657234592902,0.10497744,-0.13091770666666666,-0.67542364,0.9113187866666667,0.6959574716163787,0.6880417039745743,0.6766201503666736,0.6861591516319236
LBP05_S09,LBP05,-1469,182,9,181,-1469,1715803482.24,2024-05-15 20:04:42.240000+00:00,2024-05-16 05:04:42.240000+09:00,2024,5,15,20,4,42,240,,,,,,,,,0.304932,-0.41626,0.683838,-12.023926,-49.438477,-5.79834,,,,,,,,,,,0.0,1.0,1.0,9.0,0.0,0.0,0.0,5.0,0.0,-0.16339509333333332,-0.1798632666666667,0.9854785199999999,5.540364533333334,0.9334310799999995,-1.3362630666666666,-16.81816542804142,5.226147238569005,-7.587090867731109,-10.356181748401884,-4.697345980838019,25.204184477968813,27.650795194155112,-2.3096611560566775,27.664937843051568,-2.3006096918645276,0.46832709333333333,-0.23639673333333333,-0.30164051999999997,1.0063643466666665,0.6051451769506142,0.6833894997857115,0.6708642207935873,0.682220840256246
LBP05_S09,LBP05,-1468,183,9,182,-1468,1715803482.28,2024-05-15 20:04:42.280000+00:00,2024-05-16 05:04:42.280000+09:00,2024,5,15,20,4,42,280,,,,,,,,,0.138184,0.001465,1.138672,55.725098,70.678711,-1.89209,,,,,,,,,,,0.0,1.0,1.0,9.0,0.0,0.0,0.0,5.0,0.0,-0.16159170666666667,-0.18447264,0.9908040400000001,4.405924426666667,1.0400391466666663,-0.9464518666666667,-14.746642582923975,5.699720854046289,-7.291961290022959,-10.946047451718844,-4.469357146676168,24.912506026367893,27.57578765209876,-2.292113039790969,27.602327291586654,-2.2976525108044816,0.29977570666666664,0.18593764,0.1478679599999998,0.6335813066666665,0.3824960311831098,0.6757009107337251,0.6668184433919693,0.6819853088344595
