file_name,test_id,_program_index,program_index,session_id,index,_index,unixtime,datetime_utc,datetime_jst,rtc_year,rtc_month,rtc_day,rtc_hour,rtc_min,rtc_sec,rtc_msec,gps_hour,gps_min,gps_sec,latitude,longitude,altitude,fix_type,SIV,acc_x,acc_y,acc_z,gyro_x,gyro_y,gyro_z,mag_x,mag_y,mag_z,illuminance,atmopress,water_pressure,water_temp,depth,alt_wps,battery_level,behavior_class,camera_command,camera_recording,camera_count,play_audio,speaker_on,audio_file,prev_sd_write_time_ms,delay_occurred_counter,acc_x_ma,acc_y_ma,acc_z_ma,gyro_x_ma,gyro_y_ma,gyro_z_ma,gyro_x_lowpass,gyro_y_lowpass,gyro_z_lowpass,angle_x,angle_y,angle_z,combined_angle_change,gravity_adjusted_angle,smoothed_angle_change,smoothed_gravity_angle,acc_x_dy,acc_y_dy,acc_z_dy,ODBA,VeDBA,smoothed_VeDBA_1s,smoothed_VeDBA_2s,smoothed_VeDBA_3s
LBP05_S11,LBP05,-1650,1,11,0,-1650,1715805055.0,2024-05-15 20:30:55+00:00,2024-05-16 05:30:55+09:00,2024,5,15,20,30,55,0,20.0,30.0,55.0,40.611729,141.576782,19.362,3.0,9.0,-0.349365,-0.097656,0.329102,-36.987305,118.164062,-11.169434,-575.0,46.0,553.0,50.0,0.0,1018.799988,16.25,0.057477,-46.078239,3.782813,0.0,1.0,1.0,11.0,0.0,0.0,0.0,4.0,0.0,,,,,,,-36.840714955119445,118.73684247547583,-10.940626073467177,-1.4736285982047779,4.749473699019033,-0.4376250429386871,4.9920534193183075,,9.040595081191944,,,,,,,,,
LBP05_S11,LBP05,-1649,2,11,1,-1649,1715805055.04,2024-05-15 20:30:55.040000+00:00,2024-05-16 05:30:55.040000+09:00,2024,5,15,20,30,55,40,,,,,,,,,-0.057373,-0.106689,0.184814,-72.631836,-41.381836,-1.831055,,,,,,,,,,,0.0,1.0,1.0,11.0,0.0,0.0,0.0,4.0,0.0,,,,,,,-25.966119432999438,79.14270456899847,-7.157685848862116,-2.5122733755247557,7.915181881778972,-0.7239324768931716,8.335808297106727,,9.239885779973973,,,,,,,,,
LBP05_S11,LBP05,-1648,3,11,2,-1648,1715805055.08,2024-05-15 20:30:55.080000+00:00,2024-05-16 05:30:55.080000+09:00,2024,5,15,20,30,55,80,,,,,,,,,0.319824,-0.156738,0.559326,-42.96875,-75.866699,6.652832,,,,,,,,,,,0.0,1.0,1.0,11.0,0.0,0.0,0.0,4.0,0.0,,,,,,,-16.13418198785767,43.647030852778045,-3.8811770601773046,-3.1576406550390628,9.661063115890094,-0.8791795593002638,10.201950388678576,,9.287764058723265,,,,,,,,,
LBP05_S11,LBP05,-1647,4,11,3,-1647,1715805055.12,2024-05-15 20:30:55.120000+00:00,2024-05-16 05:30:55.120000+09:00,2024,5,15,20,30,55,120,,,,,,,,,0.298096,-0.308105,1.125977,29.968262,65.673828,6.591797,,,,,,,,,,,0.0,1.0,1.0,11.0,0.0,0.0,0.0,4.0,0.0,,,,,,,-8.184348834915298,15.414231624606709,-1.4697513634789694,-3.485014608435675,10.277632380874362,-0.9379696138394226,10.892880297418738,,9.25366303920254,,,,,,,,,
LBP05_S11,LBP05,-1646,5,11,4,-1646,1715805055.16,2024-05-15 20:30:55.160000+00:00,2024-05-16 05:30:55.160000+09:00,2024,5,15,20,30,55,160,,,,,,,,,-0.707275,-0.313477,1.613281,23.376465,72.753906,4.760742,,,,,,,,,,,0.0,1.0,1.0,11.0,0.0,0.0,0.0,4.0,0.0,,,,,,,-2.6082209335259683,-3.9023292798257585,-0.07679960637115422,-3.5893434457767137,10.121539209681332,-0.9410415980942687,10.780283003437372,,9.188698351071293,,,,,,,,,
LBP05_S11,LBP05,-1645,6,11,5,-1645,1715805055.2,2024-05-15 20:30:55.200000+00:00,2024-05-16 05:30:55.200000+09:00,2024,5,15,20,30,55,200,,,,,,,,,-0.652588,-0.516357,1.800049,18.981934,-116.149902,-4.211426,,,,,,,,,,,0.0,1.0,1.0,11.0,0.0,0.0,0.0,4.0,0.0,,,,,,,0.570132304348227,-14.286208434860068,0.366111465584511,-3.5665381536027847,9.55009087228693,-0.9263971394708882,10.236339273884113,,9.125752264993734,,,,,,,,,
LBP05_S11,LBP05,-1644,7,11,6,-1644,1715805055.24,2024-05-15 20:30:55.240000+00:00,2024-05-16 05:30:55.240000+09:00,2024,5,15,20,30,55,240,,,,,,,,,0.116699,-0.041016,1.38208,9.155273,-32.287598,-8.422852,,,,,,,,,,,0.0,1.0,1.0,11.0,0.0,0.0,0.0,4.0,0.0,,,,,,,1.7970596568649446,-17.085538452172216,0.09985829202561514,-3.494655767328187,8.866669334200042,-0.9224028077898636,9.575033731219028,,9.491351517599103,,,,,,,,,
LBP05_S11,LBP05,-1643,8,11,7,-1643,1715805055.28,2024-05-15 20:30:55.280000+00:00,2024-05-16 05:30:55.280000+09:00,2024,5,15,20,30,55,280,,,,,,,,,-0.436035,0.075928,0.230469,-24.780273,126.953125,-10.375977,,,,,,,,,,,0.0,1.0,1.0,11.0,0.0,0.0,0.0,4.0,0.0,,,,,,,1.8458047077126374,-14.490023197152015,-0.5499540977997085,-3.4208235790196815,8.287068406313962,-0.944400971701852,9.014955902557451,,9.544888937121122,,,,,,,,,
LBP05_S11,LBP05,-1642,9,11,8,-1642,1715805055.32,2024-05-15 20:30:55.320000+00:00,2024-05-16 05:30:55.320000+09:00,2024,5,15,20,30,55,320,,,,,,,,,-0.068604,-0.137207,0.182861,-37.414551,-34.973145,-2.197266,,,,,,,,,,,0.0,1.0,1.0,11.0,0.0,0.0,0.0,4.0,0.0,,,,,,,1.5690309111913616,-8.926649207054908,-1.260987258235383,-3.358062342572027,7.9300024380317655,-0.9948404620312673,8.668980846021327,,9.44096748730359,,,,,,,,,
LBP05_S11,LBP05,-1641,10,11,9,-1641,1715805055.36,2024-05-15 20:30:55.360000+00:00,2024-05-16 05:30:55.360000+09:00,2024,5,15,20,30,55,360,,,,,,,,,0.334961,-0.075684,0.572266,0.488281,-68.17627,2.807617,,,,,,,,,,,0.0,1.0,1.0,11.0,0.0,0.0,0.0,4.0,0.0,,,,,,,1.6447099104393403,-2.537294763191468,-1.7736375446630357,-3.2922739461544532,7.828510647504107,-1.0657859638177887,8.55923749029571,,9.298454782883748,,,,,,,,,
LBP05_S11,LBP05,-1640,11,11,10,-1640,1715805055.4,2024-05-15 20:30:55.400000+00:00,2024-05-16 05:30:55.400000+09:00,2024,5,15,20,30,55,400,,,,,,,,,0.126465,-0.173828,1.291504,17.028809,94.665527,11.352539,,,,,,,,,,,0.0,1.0,1.0,11.0,0.0,0.0,0.0,4.0,0.0,,,,,,,2.4122130456024182,3.1442580218140286,-1.915249265538653,-3.1957854243303565,7.954280968376668,-1.1423959344393348,8.648045945372003,,9.194895510025885,,,,,,,,,
LBP05_S11,LBP05,-1639,12,11,11,-1639,1715805055.44,2024-05-15 20:30:55.440000+00:00,2024-05-16 05:30:55.440000+09:00,2024,5,15,20,30,55,440,,,,,,,,,-0.760986,-0.16333,1.703125,15.197754,41.381836,-0.549316,,,,,,,,,,,0.0,1.0,1.0,11.0,0.0,0.0,0.0,4.0,0.0,,,,,,,3.8429888403162193,7.280199970824775,-1.602430606679732,-3.0420658707177077,8.24548896720966,-1.2064931587065242,8.871182492326902,,9.167527021017808,,,,,,,,,
LBP05_S11,LBP05,-1638,13,11,12,-1638,1715805055.48,2024-05-15 20:30:55.480000+00:00,2024-05-16 05:30:55.480000+09:00,2024,5,15,20,30,55,480,,,,,,,,,-0.669189,-0.630371,1.878906,-10.314941,-128.662109,-9.82666,,,,,,,,,,,0.0,1.0,1.0,11.0,0.0,0.0,0.0,4.0,0.0,,,,,,,5.625592057371966,9.620451458338113,-0.8397168582016323,-2.817042188422829,8.630307025543184,-1.2400818330345895,9.162735890503258,,9.219866166509465,,,,,,,,,
LBP05_S11,LBP05,-1637,14,11,13,-1637,1715805055.52,2024-05-15 20:30:55.520000+00:00,2024-05-16 05:30:55.520000+09:00,2024,5,15,20,30,55,520,,,,,,,,,0.165283,-0.002686,1.327148,34.912109,-3.479004,-2.929688,,,,,,,,,,,0.0,1.0,1.0,11.0,0.0,0.0,0.0,4.0,0.0,,,,,,,7.309024488859481,10.28722043083897,0.27884210502476636,-2.52468120886845,9.041795842776743,-1.2289281488335988,9.467753253220314,,9.331984670816688,,,,,,,,,
LBP05_S11,LBP05,-1636,15,11,14,-1636,1715805055.56,2024-05-15 20:30:55.560000+00:00,2024-05-16 05:30:55.560000+09:00,2024,5,15,20,30,55,560,,,,,,,,,-0.47168,0.086914,0.086182,0.793457,126.831055,-3.356934,,,,,,,,,,,0.0,1.0,1.0,11.0,0.0,0.0,0.0,4.0,0.0,,,,,,,8.449554761175168,9.563242986698778,1.5746225741687834,-2.186699018421443,9.424325562244695,-1.1659432458668475,9.744690274858746,,9.472072275912751,,,,,,,,,
LBP05_S11,LBP05,-1635,16,11,15,-1635,1715805055.6,2024-05-15 20:30:55.600000+00:00,2024-05-16 05:30:55.600000+09:00,2024,5,15,20,30,55,600,,,,,,,,,-0.063965,-0.164307,0.227783,3.234863,-53.527832,-5.065918,,,,,,,,,,,0.0,1.0,1.0,11.0,0.0,0.0,0.0,4.0,0.0,,,,,,,8.726128747748408,7.763519189365606,2.8107735878307616,-1.8376538685115067,9.734866329819319,-1.053512302353617,9.962654383803324,,9.606830731706522,,,,,,,,,
LBP05_S11,LBP05,-1634,17,11,16,-1634,1715805055.64,2024-05-15 20:30:55.640000+00:00,2024-05-16 05:30:55.640000+09:00,2024,5,15,20,30,55,640,,,,,,,,,0.34668,0.021973,0.719482,-1.708984,-50.292969,15.197754,,,,,,,,,,,0.0,1.0,1.0,11.0,0.0,0.0,0.0,4.0,0.0,,,,,,,8.011368978435092,5.198738392680447,3.7447947184949597,-1.517199109374103,9.942815865526537,-0.9037205136138187,10.09842518613562,,9.708866120900023,,,,,,,,,
LBP05_S11,LBP05,-1633,18,11,17,-1633,1715805055.68,2024-05-15 20:30:55.680000+00:00,2024-05-16 05:30:55.680000+09:00,2024,5,15,20,30,55,680,,,,,,,,,0.117676,-0.344971,1.243408,1.953125,100.830078,21.789551,,,,,,,,,,,0.0,1.0,1.0,11.0,0.0,0.0,0.0,4.0,0.0,,,,,,,6.400432731138484,2.1898490230460936,4.193752492053033,-1.2611818001285637,10.03040982644838,-0.7359704139316974,10.13614094562968,,9.760460046551838,,,,,,,,,
LBP05_S11,LBP05,-1632,19,11,18,-1632,1715805055.72,2024-05-15 20:30:55.720000+00:00,2024-05-16 05:30:55.720000+09:00,2024,5,15,20,30,55,720,,,,,,,,,-0.821777,-0.210449,1.644287,34.606934,30.334473,3.173828,,,,,,,,,,,0.0,1.0,1.0,11.0,0.0,0.0,0.0,4.0,0.0,,,,,,,4.201587135326565,-0.9112193443056226,4.084653443966087,-1.0931183147155012,9.993961052676156,-0.5725842761730539,10.069856896981952,,9.75430036959356,,,,,,,,,
LBP05_S11,LBP05,-1631,20,11,19,-1631,1715805055.76,2024-05-15 20:30:55.760000+00:00,2024-05-16 05:30:55.760000+09:00,2024,5,15,20,30,55,760,,,,,,,,,-0.601318,-0.392334,1.769775,24.414062,-117.492676,-2.258301,,,,,,,,,,,0.0,1.0,1.0,11.0,0.0,0.0,0.0,4.0,0.0,,,,,,,1.8817921293189388,-3.72816043266433,3.4650004506419374,-1.0178466295427437,9.844834635369581,-0.43398425814737634,9.906822048233419,,9.692375666834044,,,,,,,,,
LBP05_S11,LBP05,-1630,21,11,20,-1630,1715805055.8,2024-05-15 20:30:55.800000+00:00,2024-05-16 05:30:55.800000+09:00,2024,5,15,20,30,55,800,,,,,,,,,0.070068,-0.127686,1.295898,-18.249512,-0.976562,-2.929688,,,,,,,,,,,0.0,1.0,1.0,11.0,0.0,0.0,0.0,4.0,0.0,,,,,,,-0.04381993345908863,-5.904811628237136,2.4692698321049313,-1.0195994268811073,9.608642170240095,-0.3352134648631791,9.668399837307007,,9.584145036252497,,,,,,,,,
LBP05_S11,LBP05,-1629,22,11,21,-1629,1715805055.84,2024-05-15 20:30:55.840000+00:00,2024-05-16 05:30:55.840000+09:00,2024,5,15,20,30,55,840,,,,,,,,,-0.41626,0.102539,0.056885,-13.977051,101.745605,-13.48877,,,,,,,,,,,0.0,1.0,1.0,11.0,0.0,0.0,0.0,4.0,0.0,,,,,,,-1.168297002156024,-7.165727727416697,1.262368192454812,-1.0663313069673483,9.322013061143428,-0.28471873716498663,9.387121748845074,,9.444521353777853,,,,,,,,,
LBP05_S11,LBP05,-1628,23,11,22,-1628,1715805055.88,2024-05-15 20:30:55.880000+00:00,2024-05-16 05:30:55.880000+09:00,2024,5,15,20,30,55,880,,,,,,,,,0.010986,-0.228027,0.260986,-46.203613,-63.903809,-0.671387,,,,,,,,,,,0.0,1.0,1.0,11.0,0.0,0.0,0.0,4.0,0.0,,,,,,,-1.343979372265823,-7.364029960686433,-0.007841925928570486,-1.1200904818579813,9.02745186271597,-0.28503241420212944,9.101139120920456,,9.29166231942518,,,,,,,,,
LBP05_S11,LBP05,-1627,24,11,23,-1627,1715805055.92,2024-05-15 20:30:55.920000+00:00,2024-05-16 05:30:55.920000+09:00,2024,5,15,20,30,55,920,,,,,,,,,0.350098,-0.044678,0.693848,-9.155273,-78.186035,13.366699,,,,,,,,,,,0.0,1.0,1.0,11.0,0.0,0.0,0.0,4.0,0.0,,,,,,,-0.7522396147250151,-6.509577421538432,-1.2278375926587397,-1.150180066446982,8.767068765854434,-0.33414591790847903,8.848506225625163,,9.144469733130151,,,,,,,,,
LBP05_S11,LBP05,-1626,25,11,24,-1626,1715805055.96,2024-05-15 20:30:55.960000+00:00,2024-05-16 05:30:55.960000+09:00,2024,5,15,20,30,55,960,,,,,,,,,0.103027,-0.195801,1.168457,20.446777,70.861816,8.422852,,,,,,,,,,,0.0,1.0,1.0,11.0,0.0,0.0,0.0,4.0,0.0,,,,,,,0.16110938447440848,-4.778047398644172,-2.3087855403238913,-1.1437356910680057,8.575946869908668,-0.42649733952143465,8.662383969043278,,9.019985617677367,,,,,,,,,
LBP05_S11,LBP05,-1625,26,11,25,-1625,1715805056.0,2024-05-15 20:30:56+00:00,2024-05-16 05:30:56+09:00,2024,5,15,20,30,56,0,20.0,30.0,56.0,40.611633,141.576797,19.202999,3.0,9.0,-0.703857,-0.309814,1.648682,35.095215,36.987305,-5.79834,-574.0,58.0,551.0,51.0,0.0,1019.299988,16.26,0.062432,-50.219452,3.782813,0.0,1.0,1.0,11.0,0.0,0.0,0.0,4.0,0.0,,,,,,,0.8697539235784579,-2.491417669227646,-3.1726367305665244,-1.1089455341248673,8.476290163139563,-0.5534028087440956,8.56641755905687,,8.93115567292675,,,,,,,,,
LBP05_S11,LBP05,-1624,27,11,26,-1624,1715805056.04,2024-05-15 20:30:56.040000+00:00,2024-05-16 05:30:56.040000+09:00,2024,5,15,20,30,56,40,,,,,,,,,-0.483887,-0.398926,1.787354,31.616211,-103.271484,-2.258301,,,,,,,,,,,0.0,1.0,1.0,11.0,0.0,0.0,0.0,4.0,0.0,,,,,,,0.9842661345227769,-0.06568836372677071,-3.7561286424526426,-1.0695748887439562,8.473662628590493,-0.7036479544422014,8.569834842608898,,8.88545800692837,,,,,,,,,
LBP05_S11,LBP05,-1623,28,11,27,-1623,1715805056.08,2024-05-15 20:30:56.080000+00:00,2024-05-16 05:30:56.080000+09:00,2024,5,15,20,30,56,80,,,,,,,,,0.117188,-0.091797,1.247559,1.464844,-1.098633,-18.432617,,,,,,,,,,,0.0,1.0,1.0,11.0,0.0,0.0,0.0,4.0,0.0,,,,,,,0.3935855521422409,2.0651739158508584,-4.0350731213577165,-1.0538314666582667,8.556269585224527,-0.86505087929651,8.664215082679393,,8.884663834073676,,,,,,,,,
LBP05_S11,LBP05,-1622,29,11,28,-1622,1715805056.12,2024-05-15 20:30:56.120000+00:00,2024-05-16 05:30:56.120000+09:00,2024,5,15,20,30,56,120,,,,,,,,,-0.510254,0.161865,0.199463,-23.132324,119.20166,-18.798828,,,,,,,,,,,0.0,1.0,1.0,11.0,0.0,0.0,0.0,4.0,0.0,,,,,,,-0.7346892874903687,3.5398115041553755,-4.048803593013546,-1.0832190381578815,8.697862045390742,-1.027003023017052,8.825015742454099,,8.92560785572585,,,,,,,,,
LBP05_S11,LBP05,-1621,30,11,29,-1621,1715805056.16,2024-05-15 20:30:56.160000+00:00,2024-05-16 05:30:56.160000+09:00,2024,5,15,20,30,56,160,,,,,,,,,-0.13501,-0.157715,0.218994,-44.98291,-48.461914,-3.356934,,,,,,,,,,,0.0,1.0,1.0,11.0,0.0,0.0,0.0,4.0,0.0,,,,,,,-2.076471443782635,4.158769039917582,-3.8976851363097675,-1.1662778959091868,8.864212806987446,-1.1829104284694427,9.01852260072726,,9.00149561234671,,,,,,,,,
LBP05_S11,LBP05,-1620,31,11,30,-1620,1715805056.2,2024-05-15 20:30:56.200000+00:00,2024-05-16 05:30:56.200000+09:00,2024,5,15,20,30,56,200,,,,,,,,,0.358887,-0.112549,0.692383,-16.296387,-55.603027,13.366699,,,,,,,,,,,0.0,1.0,1.0,11.0,0.0,0.0,0.0,4.0,0.0,,,,,,,-3.3092210924541536,3.9388588658292374,-3.702144236835533,-1.2986467396073529,9.021767161620616,-1.3309961979428642,9.211423177323212,,9.103234902414824,,,,,,,,,
LBP05_S11,LBP05,-1619,32,11,31,-1619,1715805056.24,2024-05-15 20:30:56.240000+00:00,2024-05-16 05:30:56.240000+09:00,2024,5,15,20,30,56,240,,,,,,,,,0.016113,-0.2229,1.273438,19.226074,96.679688,17.63916,,,,,,,,,,,0.0,1.0,1.0,11.0,0.0,0.0,0.0,4.0,0.0,,,,,,,-4.21232715930007,3.1038402025054523,-3.540953201941673,-1.4671398259793558,9.145920769720835,-1.472634326020531,9.37918002029813,,9.220633787007827,,,,,,,,,
LBP05_S11,LBP05,-1618,33,11,32,-1618,1715805056.28,2024-05-15 20:30:56.280000+00:00,2024-05-16 05:30:56.280000+09:00,2024,5,15,20,30,56,280,,,,,,,,,-0.777588,-0.194336,1.730713,13.73291,16.662598,-4.882812,,,,,,,,,,,0.0,1.0,1.0,11.0,0.0,0.0,0.0,4.0,0.0,,,,,,,-4.671401982832725,2.012310466839794,-3.407864297183289,-1.6539959052926647,9.226413188394426,-1.6089488979078626,9.510579337442195,,9.343700416215603,,,,,,,,,
LBP05_S11,LBP05,-1617,34,11,33,-1617,1715805056.32,2024-05-15 20:30:56.320000+00:00,2024-05-16 05:30:56.320000+09:00,2024,5,15,20,30,56,320,,,,,,,,,-0.554199,-0.427246,1.852295,4.943848,-117.30957,-15.808105,,,,,,,,,,,0.0,1.0,1.0,11.0,0.0,0.0,0.0,4.0,0.0,,,,,,,-4.621010893991126,1.046437694018598,-3.219218126743329,-1.8388363410523096,9.26827069615517,-1.7377176229775957,9.607383791833769,,9.4642055979626,-2.383548803514783,,,,,,,,
LBP05_S11,LBP05,-1616,35,11,34,-1616,1715805056.36,2024-05-15 20:30:56.360000+00:00,2024-05-16 05:30:56.360000+09:00,2024,5,15,20,30,56,360,,,,,,,,,0.124023,-0.006348,1.274658,24.108887,15.075684,-8.544922,,,,,,,,,,,0.0,1.0,1.0,11.0,0.0,0.0,0.0,4.0,0.0,,,,,,,-3.9975155219077063,0.49863928931395196,-2.872346916505484,-1.998736961928618,9.288216267727728,-1.8526114996378151,9.679776869724423,,9.57715999926655,-2.3811084576067074,,,,,,,,
LBP05_S11,LBP05,-1615,36,11,35,-1615,1715805056.4,2024-05-15 20:30:56.400000+00:00,2024-05-16 05:30:56.400000+09:00,2024,5,15,20,30,56,400,,,,,,,,,-0.416504,0.139404,0.143555,-11.71875,105.46875,-20.263672,,,,,,,,,,,0.0,1.0,1.0,11.0,0.0,0.0,0.0,4.0,0.0,,,,,,,-2.7539108312128326,0.500730279086275,-2.3201656707534033,-2.108893395177131,9.308245478891179,-1.9454181264679513,9.740406404986901,,9.681519340670675,-2.3784625224229345,,,,,,,,
LBP05_S11,LBP05,-1614,37,11,36,-1614,1715805056.44,2024-05-15 20:30:56.440000+00:00,2024-05-16 05:30:56.440000+09:00,2024,5,15,20,30,56,440,,,,,,,,,0.031006,-0.296631,0.231445,-72.937012,-59.875488,0.793457,,,,,,,,,,,0.0,1.0,1.0,11.0,0.0,0.0,0.0,4.0,0.0,,,,,,,-0.9309211750090022,1.0183884622502533,-1.617043114926782,-2.1461302421774913,9.348981017381188,-2.0100998510650228,9.800501134686646,,9.779676352157795,-2.38560486060235,,,,,,,,
LBP05_S11,LBP05,-1613,38,11,37,-1613,1715805056.48,2024-05-15 20:30:56.480000+00:00,2024-05-16 05:30:56.480000+09:00,2024,5,15,20,30,56,480,,,,,,,,,0.365723,-0.062744,0.719971,-17.456055,-55.358887,9.58252,,,,,,,,,,,0.0,1.0,1.0,11.0,0.0,0.0,0.0,4.0,0.0,-0.17867184,-0.16887694666666667,1.0023795733333332,1.0579427066666673,2.342936213333333,-2.7180990133333336,1.2768667107266929,1.8929434902275386,-0.9103847338970268,-2.0950555737484233,9.42469875699029,-2.046515240420904,9.869266900149356,-2.383548803514783,9.87591944917872,-2.394481058229889,0.54439484,0.10613294666666667,-0.28240857333333313,0.9329363599999999,0.62240223849127,0.62240223849127,0.62240223849127,0.62240223849127
LBP05_S11,LBP05,-1612,39,11,38,-1612,1715805056.52,2024-05-15 20:30:56.520000+00:00,2024-05-16 05:30:56.520000+09:00,2024,5,15,20,30,56,520,,,,,,,,,0.083252,-0.240234,1.288818,54.870605,91.85791,18.615723,,,,,,,,,,,0.0,1.0,1.0,11.0,0.0,0.0,0.0,4.0,0.0,-0.17927405333333332,-0.17116536,1.0213085999999998,1.8172200533333338,-0.6103515466666668,-2.5968424933333334,3.531938604954648,2.899197497819391,-0.38619196124507876,-1.9537780295502374,9.540666656903065,-2.061962918870707,9.954559755493605,-2.3786681116986315,9.97455765521323,-2.3925724848242638,0.26252605333333334,-0.06906864000000001,0.26750940000000023,0.5991040933333336,0.38111899034105595,0.5017606144161629,0.5017606144161629,0.5017606144161629
LBP05_S11,LBP05,-1611,40,11,39,-1611,1715805056.56,2024-05-15 20:30:56.560000+00:00,2024-05-16 05:30:56.560000+09:00,2024,5,15,20,30,56,560,,,,,,,,,-0.736572,-0.115479,1.682129,21.789551,18.920898,-9.155273,,,,,,,,,,,0.0,1.0,1.0,11.0,0.0,0.0,0.0,4.0,0.0,-0.17796871999999997,-0.17185872000000002,1.0315820400000002,2.619628906666667,0.6054687733333332,-2.5382487333333335,5.462116370151246,3.802614351250024,-0.2022643457282942,-1.7352933747441877,9.692771230953067,-2.070053492699839,10.06211601476853,-2.37317065205539,10.078518281620394,-2.3897970106094464,-0.55860328,0.05637972000000002,0.6505469599999998,1.2655299599999998,0.8593181275984337,0.6209464521435866,0.6209464521435866,0.6209464521435866
LBP05_S11,LBP05,-1610,41,11,40,-1610,1715805056.6,2024-05-15 20:30:56.600000+00:00,2024-05-16 05:30:56.600000+09:00,2024,5,15,20,30,56,600,,,,,,,,,-0.51123,-0.340576,1.83252,17.76123,-96.191406,-7.385254,,,,,,,,,,,0.0,1.0,1.0,11.0,0.0,0.0,0.0,4.0,0.0,-0.1879264,-0.16920573333333333,1.0255436266666667,3.1868489600000007,2.4462890799999997,-2.99967452,6.808396189740867,4.40670691944946,-0.4437697526694591,-1.462957527154553,9.869039507731046,-2.087804282806617,10.192993292194402,-2.4070318751405955,10.188883241272134,-2.390938678497509,-0.32330359999999997,-0.17137026666666666,0.8069763733333333,1.3016502399999998,0.8860608631401026,0.6872250548927156,0.6872250548927156,0.6872250548927156
LBP05_S11,LBP05,-1609,42,11,41,-1609,1715805056.64,2024-05-15 20:30:56.640000+00:00,2024-05-16 05:30:56.640000+09:00,2024,5,15,20,30,56,640,,,,,,,,,-0.009766,-0.226318,1.330566,21.362305,31.005859,12.451172,,,,,,,,,,,0.0,1.0,1.0,11.0,0.0,0.0,0.0,4.0,0.0,-0.19252601333333333,-0.16525717333333334,1.01325196,2.1850585866666674,0.5786133066666665,-3.103027386666666,7.5182183706784835,4.58421529267921,-1.1154987784881654,-1.1622287923274137,10.052408119438214,-2.1324242339461437,10.341610990507377,-2.4299858487400465,10.305252403708765,-2.3896318106550174,0.18276001333333333,-0.06106082666666665,0.31731403999999985,0.5611348799999998,0.3712382617779832,0.6240276962697691,0.6240276962697691,0.6240276962697691
LBP05_S11,LBP05,-1608,43,11,42,-1608,1715805056.68,2024-05-15 20:30:56.680000+00:00,2024-05-16 05:30:56.680000+09:00,2024,5,15,20,30,56,680,,,,,,,,,-0.563721,0.010986,0.19873,19.287109,101.013184,-21.362305,,,,,,,,,,,0.0,1.0,1.0,11.0,0.0,0.0,0.0,4.0,0.0,-0.1758854,-0.16642904,1.0015918133333335,1.5519205600000006,-1.0156249733333333,-2.9736328533333336,7.724555563869639,4.295268675082664,-2.161895497222759,-0.8532465697726281,10.22421886644152,-2.218900053835054,10.496961397787299,-2.383029617796136,10.426382470509903,-2.3881570658785916,-0.38783560000000006,0.17741504,-0.8028618133333335,1.3681124533333335,0.9091092565552559,0.6715412896506835,0.6715412896506835,0.6715412896506835
LBP05_S11,LBP05,-1607,44,11,43,-1607,1715805056.72,2024-05-15 20:30:56.720000+00:00,2024-05-16 05:30:56.720000+09:00,2024,5,15,20,30,56,720,,,,,,,,,-0.106689,-0.073486,0.247803,-65.246582,-64.086914,-5.126953,,,,,,,,,,,0.0,1.0,1.0,11.0,0.0,0.0,0.0,4.0,0.0,-0.16689777333333333,-0.16118490666666666,0.9939388133333333,1.9067382666666675,1.905110693333333,-2.67415368,7.625413893530016,3.5932137154336603,-3.4952202314705176,-0.5482300140314275,10.367947415058866,-2.3587088630938746,10.646990055905393,-2.373144165320544,10.55055856753125,-2.39094493234028,0.060208773333333326,0.08769890666666666,-0.7461358133333333,0.8940434933333333,0.7536808651912481,0.6832755147279072,0.6832755147279072,0.6832755147279072
LBP05_S11,LBP05,-1606,45,11,44,-1606,1715805056.76,2024-05-15 20:30:56.760000+00:00,2024-05-16 05:30:56.760000+09:00,2024,5,15,20,30,56,760,,,,,,,,,0.425049,-0.280029,0.859131,-29.11377,-52.490234,4.638672,,,,,,,,,,,0.0,1.0,1.0,11.0,0.0,0.0,0.0,4.0,0.0,-0.17847329333333334,-0.16342448,0.9974153733333333,2.585449213333334,2.448730493333333,-2.682291693333333,7.342109448088345,2.6068527596231688,-5.015035836345708,-0.25454563610789366,10.472221525443793,-2.559310296547703,10.78342646624184,-2.3989303537139444,10.675593621526057,-2.3942652744196153,0.6035222933333333,-0.11660451999999996,-0.13828437333333332,0.8584111866666666,0.630046300316849,0.6766218629265248,0.6766218629265248,0.6766218629265248
LBP05_S11,LBP05,-1605,46,11,45,-1605,1715805056.8,2024-05-15 20:30:56.800000+00:00,2024-05-16 05:30:56.800000+09:00,2024,5,15,20,30,56,800,,,,,,,,,-0.017822,-0.171143,1.355225,59.692383,100.463867,-4.333496,,,,,,,,,,,0.0,1.0,1.0,11.0,0.0,0.0,0.0,4.0,0.0,-0.17824542666666665,-0.17000652,1.0185026133333333,3.433430973333334,-0.4939778400000002,-2.581380226666667,6.849790000986574,1.4967710980220477,-6.612948950972289,0.019445963931569332,10.532092369364674,-2.8238282545865943,10.904098029353202,-2.3791768679150884,10.798827792929696,-2.394237310587049,0.16042342666666665,-0.0011364799999999953,0.33672238666666665,0.4982822933333333,0.3729865052421628,0.6428846009615957,0.6428846009615957,0.6428846009615957
LBP05_S11,LBP05,-1604,47,11,46,-1604,1715805056.84,2024-05-15 20:30:56.840000+00:00,2024-05-16 05:30:56.840000+09:00,2024,5,15,20,30,56,840,,,,,,,,,-0.864014,-0.323486,1.733398,17.272949,2.197266,-9.460449,,,,,,,,,,,0.0,1.0,1.0,11.0,0.0,0.0,0.0,4.0,0.0,-0.17585609333333332,-0.16922526666666668,1.03110028,3.790690093333334,0.6372070666666665,-2.5675455866666663,6.0246721080417815,0.40427909334818096,-8.168538814210805,0.2604328482532406,10.548263533098602,-3.1505698071550263,11.011801802698047,-2.3748843628907546,10.917565995774137,-2.3903147787197967,-0.6881579066666667,-0.15426073333333332,0.70229772,1.54471636,0.9952787377783094,0.6781240146432671,0.6781240146432671,0.6781240146432671
LBP05_S11,LBP05,-1603,48,11,47,-1603,1715805056.88,2024-05-15 20:30:56.880000+00:00,2024-05-16 05:30:56.880000+09:00,2024,5,15,20,30,56,880,,,,,,,,,-0.495361,-0.338379,1.752686,29.47998,-130.554199,-9.338379,,,,,,,,,,,0.0,1.0,1.0,11.0,0.0,0.0,0.0,4.0,0.0,-0.18596677333333334,-0.16593750666666665,1.0238053466666666,3.438313800000001,2.533365933333333,-3.02571616,4.769186036205787,-0.5847510761943052,-9.547690074016085,0.4512002897014721,10.52487349005083,-3.5324774101156695,11.1110278703628,-2.4114274681316687,11.029983872571012,-2.3869707301202885,-0.30939422666666666,-0.17244149333333333,0.7288806533333334,1.2107163733333333,0.8103874770264664,0.6901479657690125,0.6901479657690125,0.6901479657690125
LBP05_S11,LBP05,-1602,49,11,48,-1602,1715805056.92,2024-05-15 20:30:56.920000+00:00,2024-05-16 05:30:56.920000+09:00,2024,5,15,20,30,56,920,,,,,,,,,0.192383,-0.173828,1.197266,-3.540039,45.654297,-10.070801,,,,,,,,,,,0.0,1.0,1.0,11.0,0.0,0.0,0.0,4.0,0.0,-0.18826169333333334,-0.1678027466666667,1.0105664133333334,2.7864583200000013,0.39876306666666667,-3.3756510533333333,3.124807356170014,-1.443186361456695,-10.609974304207704,0.5761925839482727,10.467146035592561,-3.9568763822839776,11.204910295441673,-2.411871532491985,11.136074870395616,-2.3865718497671855,0.38064469333333334,-0.006025253333333314,0.18669958666666653,0.5733695333333332,0.42400875215266765,0.6679696979676505,0.6679696979676505,0.6679696979676505
LBP05_S11,LBP05,-1601,50,11,49,-1601,1715805056.96,2024-05-15 20:30:56.960000+00:00,2024-05-16 05:30:56.960000+09:00,2024,5,15,20,30,56,960,,,,,,,,,-0.487549,0.030518,0.09375,-4.699707,92.895508,-18.981934,,,,,,,,,,,0.0,1.0,1.0,11.0,0.0,0.0,0.0,4.0,0.0,-0.17194333333333334,-0.16613608000000002,0.9977864666666668,2.7107747200000007,-0.6933593333333333,-3.405761733333333,1.300974392091984,-2.161138635812171,-11.223329300608306,0.628231559631952,10.380700490160075,-4.40580955430831,11.29445772880494,-2.3728910137297285,11.238149664810708,-2.3868472613483767,-0.3156056666666667,0.19665408,-0.9040364666666668,1.4162962133333337,0.9775283612642187,0.6917819028366172,0.6917819028366172,0.6917819028366172
LBP05_S11,LBP05,-1600,51,11,50,-1600,1715805057.0,2024-05-15 20:30:57+00:00,2024-05-16 05:30:57+09:00,2024,5,15,20,30,57,0,20.0,30.0,57.0,40.611538,141.576797,19.164,3.0,9.0,-0.135498,0.092529,0.210205,9.399414,-42.724609,-11.59668,-574.0,58.0,548.0,50.0,0.0,1018.700012,16.299999,0.056486,-45.25,3.782813,0.0,1.0,1.0,11.0,0.0,0.0,0.0,4.0,0.0,-0.16356442666666668,-0.15971030666666666,0.9899707200000001,3.009440080000001,2.211914093333333,-3.3650716266666665,-0.3889289155559263,-2.6771864431818706,-11.279757987896684,0.612674403009715,10.2736130324328,-4.8569998738241775,11.380375320638791,-2.3678065564680706,11.340727015164108,-2.388077206172608,0.028066426666666672,0.25223930666666666,-0.7797657200000001,1.0600714533333333,0.8200286398782879,0.7009423840538794,0.7009423840538794,0.7009423840538794
LBP05_S11,LBP05,-1599,52,11,51,-1599,1715805057.04,2024-05-15 20:30:57.040000+00:00,2024-05-16 05:30:57.040000+09:00,2024,5,15,20,30,57,40,,,,,,,,,0.376953,-0.134766,0.690674,-69.213867,-71.960449,-2.075195,,,,,,,,,,,0.0,1.0,1.0,11.0,0.0,0.0,0.0,4.0,0.0,-0.1769530933333333,-0.16283530666666665,0.9945768399999999,2.699381493333334,2.2932943066666667,-3.5180664133333335,-1.6379369685915839,-2.8342986395337637,-10.707642817301375,0.5471569242660517,10.16024108685145,-5.285305586516232,11.465789758476138,-2.3965453627449627,11.450006511870253,-2.3928214925823204,0.5539060933333333,0.028069306666666655,-0.3039028399999999,0.8858782399999998,0.6324213645731841,0.6963743160884998,0.6963743160884998,0.6963743160884998
LBP05_S11,LBP05,-1598,53,11,52,-1598,1715805057.08,2024-05-15 20:30:57.080000+00:00,2024-05-16 05:30:57.080000+09:00,2024,5,15,20,30,57,80,,,,,,,,,0.125488,-0.310547,1.19873,13.183594,85.693359,-1.464844,,,,,,,,,,,0.0,1.0,1.0,11.0,0.0,0.0,0.0,4.0,0.0,-0.17618812,-0.16809572,1.0166699333333333,2.714843733333334,-1.0677083066666668,-3.548990893333334,-2.2361461255110506,-2.4022031222241647,-9.482411777363655,0.4577110792456096,10.064152961962483,-5.664602057610779,11.557871376033333,-2.3790408142651054,11.573197742632766,-2.3934209027456097,0.30167612,-0.14245128,0.18206006666666674,0.6261874666666667,0.380061464011499,0.6766047628336872,0.6766047628336872,0.6766047628336872
LBP05_S11,LBP05,-1597,54,11,53,-1597,1715805057.12,2024-05-15 20:30:57.120000+00:00,2024-05-16 05:30:57.120000+09:00,2024,5,15,20,30,57,120,,,,,,,,,-0.742676,-0.218994,1.675537,30.395508,40.100098,-10.803223,,,,,,,,,,,0.0,1.0,1.0,11.0,0.0,0.0,0.0,4.0,0.0,-0.17417965333333335,-0.16726564000000002,1.0283398533333334,2.828776026666667,0.18147789333333303,-3.4277343866666667,-2.097228414425871,-1.163871642682498,-7.641639312277076,0.37382194266857477,10.017598096255183,-5.970267630101862,11.667738000056312,-2.37589828113246,11.717795370460854,-2.3885615958098994,-0.5684963466666666,-0.05172835999999997,0.6471971466666666,1.2674218533333332,0.8629762835994458,0.6875677934669672,0.6875677934669672,0.6875677934669672
LBP05_S11,LBP05,-1596,55,11,54,-1596,1715805057.16,2024-05-15 20:30:57.160000+00:00,2024-05-16 05:30:57.160000+09:00,2024,5,15,20,30,57,160,,,,,,,,,-0.656006,-0.414551,1.842773,27.648926,-129.760742,-15.808105,,,,,,,,,,,0.0,1.0,1.0,11.0,0.0,0.0,0.0,4.0,0.0,-0.18484697333333333,-0.16500653333333332,1.0184765733333334,2.6123046666666676,1.87581384,-3.8191731866666663,-1.2272544656472784,0.9663451584502991,-5.306303846673904,0.3247317640426836,10.056251902593194,-6.182519783968818,11.809199969775825,-2.411229801956252,11.890659120009605,-2.3860609678098803,-0.47115902666666665,-0.2495444666666667,0.8242964266666666,1.54499992,0.9816964236814083,0.7039082729233249,0.7039082729233249,0.7039082729233249
LBP05_S11,LBP05,-1595,56,11,55,-1595,1715805057.2,2024-05-15 20:30:57.200000+00:00,2024-05-16 05:30:57.200000+09:00,2024,5,15,20,30,57,200,,,,,,,,,0.097168,-0.177734,1.376221,7.202148,-18.493652,-5.432129,,,,,,,,,,,0.0,1.0,1.0,11.0,0.0,0.0,0.0,4.0,0.0,-0.18846350666666667,-0.16292320000000002,1.00540692,2.3697916400000008,-0.4614257466666669,-4.237467466666667,0.3130177707276763,3.8414053571342954,-2.697693790538577,0.33725247487179066,10.209908116878566,-6.290427535590361,11.99689299641467,-2.42661973201222,12.096760887480809,-2.386467625700047,0.2856315066666667,-0.014810799999999985,0.37081407999999993,0.6712563866666666,0.4683031062501683,0.6915080009931588,0.6915080009931588,0.6915080009931588
LBP05_S11,LBP05,-1594,57,11,56,-1594,1715805057.24,2024-05-15 20:30:57.240000+00:00,2024-05-16 05:30:57.240000+09:00,2024,5,15,20,30,57,240,,,,,,,,,-0.454834,0.022949,0.220459,-34.484863,126.220703,-8.728027,,,,,,,,,,,0.0,1.0,1.0,11.0,0.0,0.0,0.0,4.0,0.0,-0.17025388,-0.1618262,0.9932617333333333,1.6748046533333338,-1.6495767866666668,-4.174804706666667,2.4042706053863947,7.056376655883052,-0.13052641836726725,0.43342329908724647,10.492163183113888,-6.295648592325051,12.243714110323166,-2.3808784645236467,12.337768406082697,-2.3871009321682406,-0.28458012,0.1847752,-0.7728027333333334,1.2421580533333334,0.8440093505890355,0.6991330684729526,0.6991330684729526,0.6991330684729526
LBP05_S11,LBP05,-1593,58,11,57,-1593,1715805057.28,2024-05-15 20:30:57.280000+00:00,2024-05-16 05:30:57.280000+09:00,2024,5,15,20,30,57,280,,,,,,,,,-0.010742,-0.468506,0.357422,-57.739258,-47.363281,3.90625,,,,,,,,,,,0.0,1.0,1.0,11.0,0.0,0.0,0.0,4.0,0.0,-0.16019204,-0.15802412,0.9864909066666666,2.032063773333334,1.1588541999999997,-4.060872413333334,4.827379039951573,10.032402938250254,2.0320095113963768,0.6265184606853094,10.8934593006439,-6.214368211869196,12.557004148643694,-2.362834398774564,12.610957737483082,-2.388092608682288,0.14945004,-0.31048188,-0.6290689066666666,1.0890008266666666,0.7172600655265363,0.6999962588088375,0.6999962588088375,0.6999962588088375
LBP05_S11,LBP05,-1592,59,11,58,-1592,1715805057.32,2024-05-15 20:30:57.320000+00:00,2024-05-16 05:30:57.320000+09:00,2024,5,15,20,30,57,320,,,,,,,,,0.413086,-0.022705,0.796387,72.875977,-25.695801,16.296387,,,,,,,,,,,0.0,1.0,1.0,11.0,0.0,0.0,0.0,4.0,0.0,-0.17135740000000002,-0.16087893333333333,0.9923763333333333,2.7921549200000007,1.4078776266666664,-4.048665373333333,7.239234125012275,12.179093257588045,3.456973204529024,0.9160878256858004,11.38062303094742,-6.076089283688035,12.933547790929184,-2.3868652524917926,12.908935724148865,-2.3916737485598896,0.5844434000000001,0.13817393333333333,-0.19598933333333335,0.9186066666666668,0.6317261609564773,0.6968930725428212,0.6968930725428212,0.6968930725428212
LBP05_S11,LBP05,-1591,60,11,59,-1591,1715805057.36,2024-05-15 20:30:57.360000+00:00,2024-05-16 05:30:57.360000+09:00,2024,5,15,20,30,57,360,,,,,,,,,-0.05957,-0.158203,1.442871,0.0,121.887207,17.089844,,,,,,,,,,,0.0,1.0,1.0,11.0,0.0,0.0,0.0,4.0,0.0,-0.1726074,-0.16539390666666667,1.0149186533333334,3.0069986666666675,-1.32568356,-3.9379882800000003,9.215609016508637,13.062637732534673,3.9289050900971896,1.284712186346146,11.903128540248808,-5.918933080084148,13.355475403516957,-2.3769575926313937,13.220313398156694,-2.3921149281139584,0.1130374,0.007190906666666663,0.4279523466666666,0.5481806533333332,0.4426876708865467,0.6858406637751571,0.6858406637751571,0.6858406637751571
LBP05_S11,LBP05,-1590,61,11,60,-1590,1715805057.4,2024-05-15 20:30:57.400000+00:00,2024-05-16 05:30:57.400000+09:00,2024,5,15,20,30,57,400,,,,,,,,,-0.85498,-0.320312,1.765381,12.756348,-0.732422,-6.835938,,,,,,,,,,,0.0,1.0,1.0,11.0,0.0,0.0,0.0,4.0,0.0,-0.17049802666666666,-0.16432945333333335,1.0277116266666666,3.990885386666668,0.2522786799999999,-3.8321939999999994,10.357214837478605,12.515100574423755,3.4107539873510047,1.6990007798452902,12.40373256322576,-5.782502920590108,13.790450506657683,-2.3741396211500123,13.531092740996495,-2.388019280461703,-0.6844819733333333,-0.15598254666666664,0.7376693733333335,1.5781338933333333,1.0183330648844247,0.6996945138213766,0.6996945138213766,0.6996945138213766
LBP05_S11,LBP05,-1589,62,11,61,-1589,1715805057.44,2024-05-15 20:30:57.440000+00:00,2024-05-16 05:30:57.440000+09:00,2024,5,15,20,30,57,440,,,,,,,,,-0.450439,-0.240234,1.799561,25.390625,-93.017578,0.366211,,,,,,,,,,,0.0,1.0,1.0,11.0,0.0,0.0,0.0,4.0,0.0,-0.18185870666666668,-0.1639616133333333,1.0197233466666666,4.048665333333334,2.4104818,-4.282226546666666,10.407171460330225,10.653242377953056,2.0529302139509373,2.1152876382584993,12.829862258343882,-5.7003857120320705,14.197683072480007,-2.4064621278854332,13.826344953889848,-2.385401262124097,-0.26858029333333333,-0.07627238666666669,0.7798376533333333,1.1246903333333333,0.8283113040948368,0.7048391854323149,0.7048391854323149,0.7048391854323149
LBP05_S11,LBP05,-1588,63,11,62,-1588,1715805057.48,2024-05-15 20:30:57.480000+00:00,2024-05-16 05:30:57.480000+09:00,2024,5,15,20,30,57,480,,,,,,,,,0.029541,-0.086914,1.131348,20.080566,67.749023,17.272949,,,,,,,,,,,0.0,1.0,1.0,11.0,0.0,0.0,0.0,4.0,0.0,-0.18288084,-0.16203453333333334,1.0076172266666668,3.3797200266666674,0.4850260799999997,-4.461263013333333,9.324787717862279,7.815181859163371,0.147285761981492,2.4882791469729906,13.142469532710416,-5.694494281552811,14.537651242691162,-2.414852213041125,14.091825047417965,-2.384617925030752,0.21242184,0.07512053333333334,0.12373077333333327,0.4112731466666666,0.2570514285253726,0.6902251530336792,0.6876165793974326,0.6876165793974326
LBP05_S11,LBP05,-1587,64,11,63,-1587,1715805057.52,2024-05-15 20:30:57.520000+00:00,2024-05-16 05:30:57.520000+09:00,2024,5,15,20,30,57,520,,,,,,,,,-0.394531,0.003906,0.094727,-18.310547,59.204102,-20.202637,,,,,,,,,,,0.0,1.0,1.0,11.0,0.0,0.0,0.0,4.0,0.0,-0.16797850666666667,-0.15985680000000002,0.9955534133333334,2.7246093466666674,-0.2986653333333336,-4.3994140533333335,7.290856031228848,4.455508294738202,-1.9560433399247221,2.7799133882221447,13.320689864499945,-5.7727360151498,14.78151474013458,-2.380310076673145,14.315393783732793,-2.3850053137842364,-0.22655249333333335,0.16376280000000001,-0.9008264133333334,1.2911417066666666,0.9432033258308559,0.7127085264532711,0.6970827551912632,0.6970827551912632
LBP05_S11,LBP05,-1586,65,11,64,-1586,1715805057.56,2024-05-15 20:30:57.560000+00:00,2024-05-16 05:30:57.560000+09:00,2024,5,15,20,30,57,560,,,,,,,,,-0.015869,-0.264404,0.312256,-12.939453,-76.23291,-21.789551,,,,,,,,,,,0.0,1.0,1.0,11.0,0.0,0.0,0.0,4.0,0.0,-0.16282876,-0.15819013333333334,0.99012372,2.959798146666667,2.644043,-4.275716133333333,4.654987591893634,1.0394492893775282,-3.939534971006123,2.96611289189789,13.362267836075047,-5.9303174139900445,14.916993398173846,-2.3702733254336996,14.48828950031193,-2.3864232659347704,0.14695976,-0.10621386666666663,-0.6778677200000001,0.9310413466666667,0.7017002225662612,0.7064038102519842,0.6972476647403701,0.6972476647403701
LBP05_S11,LBP05,-1585,66,11,65,-1585,1715805057.6,2024-05-15 20:30:57.600000+00:00,2024-05-16 05:30:57.600000+09:00,2024,5,15,20,30,57,600,,,,,,,,,0.489746,-0.003662,0.819336,17.028809,-33.02002,1.342773,,,,,,,,,,,0.0,1.0,1.0,11.0,0.0,0.0,0.0,4.0,0.0,-0.17445962666666667,-0.15927086666666665,0.9967806133333335,2.930501266666667,2.253418,-4.2146809733333335,1.857188985505342,-2.0435491547065228,-5.5857562354132755,3.0404004513181038,13.280525869886786,-6.153747663406576,14.949415125348194,-2.4004395486361587,14.60623569726591,-2.38917718393832,0.6642056266666667,0.15560886666666665,-0.1774446133333335,0.9972591066666668,0.7048899379917124,0.6991569732460485,0.6975111914042095,0.6975111914042095
LBP05_S11,LBP05,-1584,67,11,66,-1584,1715805057.64,2024-05-15 20:30:57.640000+00:00,2024-05-16 05:30:57.640000+09:00,2024,5,15,20,30,57,640,,,,,,,,,-0.123535,-0.246094,1.418945,11.59668,89.538574,6.286621,,,,,,,,,,,0.0,1.0,1.0,11.0,0.0,0.0,0.0,4.0,0.0,-0.17256184,-0.16668622666666666,1.0184537866666667,3.54492184,-0.8439127333333336,-3.951822906666666,-0.6467940691504027,-4.534025375934737,-6.8000280545122855,3.0145286885520877,13.099164854849397,-6.425748785587068,14.89851504560434,-2.3730450935901994,14.67016082849866,-2.3877294922984653,0.04902683999999999,-0.07940777333333335,0.40049121333333315,0.5289258266666665,0.41122066760238235,0.7007562694790245,0.6879681739441487,0.6879681739441487
LBP05_S11,LBP05,-1583,68,11,67,-1583,1715805057.68,2024-05-15 20:30:57.680000+00:00,2024-05-16 05:30:57.680000+09:00,2024,5,15,20,30,57,680,,,,,,,,,-0.865723,-0.129883,1.711914,5.92041,-26.855469,-10.498047,,,,,,,,,,,0.0,1.0,1.0,11.0,0.0,0.0,0.0,4.0,0.0,-0.16920572,-0.16559248000000001,1.02921876,4.022623666666667,0.8064778933333331,-3.87858072,-2.4497774073153624,-6.314965224459302,-7.588386255771126,2.916537592259473,12.846566245871024,-6.729284235817913,14.792691511791993,-2.3667082863094064,14.686195139098235,-2.3822184007464244,-0.69651728,0.035709480000000016,0.6826952399999999,1.414922,0.9759530106614387,0.7034300196432719,0.6972580073866418,0.6972580073866418
LBP05_S11,LBP05,-1582,69,11,68,-1582,1715805057.72,2024-05-15 20:30:57.720000+00:00,2024-05-16 05:30:57.720000+09:00,2024,5,15,20,30,57,720,,,,,,,,,-0.246826,-0.263184,1.691406,4.455566,-100.830078,-7.629395,,,,,,,,,,,0.0,1.0,1.0,11.0,0.0,0.0,0.0,4.0,0.0,-0.17940104,-0.1635742533333333,1.0202571733333332,3.8484700266666674,2.2843424666666667,-4.233398426666667,-3.258905590416555,-7.389360153898487,-8.01142027340078,2.7861813686428105,12.550991839715085,-7.049741046753944,14.66250495672054,-2.4010447739971323,14.664741365103968,-2.3792255071068658,-0.06742495999999998,-0.09960974666666667,0.6711488266666668,0.8381835333333334,0.6818423383730602,0.7005564785705443,0.6967762677299674,0.6967762677299674
LBP05_S11,LBP05,-1581,70,11,69,-1581,1715805057.76,2024-05-15 20:30:57.760000+00:00,2024-05-16 05:30:57.760000+09:00,2024,5,15,20,30,57,760,,,,,,,,,-0.055176,-0.190674,0.868896,-20.080566,85.876465,-5.554199,,,,,,,,,,,0.0,1.0,1.0,11.0,0.0,0.0,0.0,4.0,0.0,-0.18,-0.16294274666666667,1.00701172,3.8370768000000006,0.19856771999999978,-4.602864573333333,-2.9666707622869257,-7.84003971268234,-8.138974470240093,2.6675145381513334,12.237390251207792,-7.375300025563548,14.534937373056751,-2.4044967726668878,14.618737041323337,-2.3774486602737013,0.12482399999999999,-0.027731253333333344,-0.13811571999999994,0.29067097333333325,0.18821797336746535,0.682883345492569,0.6813654103250432,0.6813654103250432
LBP05_S11,LBP05,-1580,71,11,70,-1580,1715805057.8,2024-05-15 20:30:57.800000+00:00,2024-05-16 05:30:57.800000+09:00,2024,5,15,20,30,57,800,,,,,,,,,-0.278809,-0.106689,0.036377,-65.734863,25.390625,-11.962891,,,,,,,,,,,0.0,1.0,1.0,11.0,0.0,0.0,0.0,4.0,0.0,-0.16241535999999998,-0.16126305333333335,0.9947102800000001,3.392740866666667,-0.16927082666666687,-4.42382812,-1.7025666924095015,-7.785161650850841,-8.02049970838378,2.5994118704549534,11.925983785173758,-7.696120013898899,14.429701818985198,-2.359662704751463,14.56158046023437,-2.3778478005920016,-0.11639363999999999,0.054574053333333344,-0.9583332800000001,1.1293009733333335,0.966916998653575,0.7066405652290254,0.6897639864523528,0.6897639864523528
LBP05_S11,LBP05,-1579,72,11,71,-1579,1715805057.84,2024-05-15 20:30:57.840000+00:00,2024-05-16 05:30:57.840000+09:00,2024,5,15,20,30,57,840,,,,,,,,,-0.027344,-0.07959,0.215088,45.776367,-81.054688,-7.873535,,,,,,,,,,,0.0,1.0,1.0,11.0,0.0,0.0,0.0,4.0,0.0,-0.1571712266666667,-0.15874026666666669,0.9895963466666667,3.611653626666667,2.862955733333333,-4.040527346666666,0.17843094458078132,-7.343072716251887,-7.674054166272302,2.6065491082381844,11.632260876523683,-8.003082180549791,14.358026178475729,-2.3513512123650244,14.505374758826022,-2.3768381625272634,0.12982722666666668,0.07915026666666669,-0.7745083466666667,0.9834858400000001,0.7892927546567852,0.6984011259041645,0.6926076655439081,0.6926076655439081
LBP05_S11,LBP05,-1578,73,11,72,-1578,1715805057.88,2024-05-15 20:30:57.880000+00:00,2024-05-16 05:30:57.880000+09:00,2024,5,15,20,30,57,880,,,,,,,,,0.456787,0.112061,0.613281,6.04248,-48.583984,-5.249023,,,,,,,,,,,0.0,1.0,1.0,11.0,0.0,0.0,0.0,4.0,0.0,-0.17169921333333332,-0.16184573333333332,0.9959830666666666,3.377278626666667,2.035319013333333,-4.086100266666667,2.196852553686612,-6.617170491728143,-7.0912406563280905,2.694423210385649,11.367574056854556,-8.286731806802916,14.323113502748512,-2.38492327664554,14.4600013849952,-2.3796311176512885,0.6284862133333333,0.2739067333333333,-0.3827020666666666,1.2850950133333332,0.7851628434575516,0.697392140561408,0.695178642708176,0.695178642708176
LBP05_S11,LBP05,-1577,74,11,73,-1577,1715805057.92,2024-05-15 20:30:57.920000+00:00,2024-05-16 05:30:57.920000+09:00,2024,5,15,20,30,57,920,,,,,,,,,0.100586,-0.380127,1.288818,-0.366211,90.393066,2.563477,,,,,,,,,,,0.0,1.0,1.0,11.0,0.0,0.0,0.0,4.0,0.0,-0.17002929333333333,-0.1678255466666667,1.01571288,3.774414040000001,-1.027018226666667,-3.9949544266666663,3.9144696680214794,-5.691976433844094,-6.254807206099792,2.851001997106508,11.139894999500791,-8.536924095046908,14.321471502328261,-2.3625416083415005,14.433135210301122,-2.3777503786195986,0.27061529333333334,-0.2123014533333333,0.2731051200000001,0.7560218666666667,0.43919352299817216,0.697999531395228,0.6882601259592569,0.6882601259592569
LBP05_S11,LBP05,-1576,75,11,74,-1576,1715805057.96,2024-05-15 20:30:57.960000+00:00,2024-05-16 05:30:57.960000+09:00,2024,5,15,20,30,57,960,,,,,,,,,-0.740234,-0.314209,1.659424,45.715332,5.371094,-14.038086,,,,,,,,,,,0.0,1.0,1.0,11.0,0.0,0.0,0.0,4.0,0.0,-0.17149087999999998,-0.16524090666666666,1.0239029866666667,4.707031226666667,1.0904947866666665,-4.18619792,5.0932552278465915,-4.624838538929678,-5.166178378052822,3.054732206220372,10.954901457943604,-8.743571230169021,14.34542758728419,-2.3742647286167053,14.43089118330197,-2.3713811734186367,-0.5687431199999999,-0.14896809333333336,0.6355210133333333,1.3532322266666665,0.8657639330481086,0.6935289542665837,0.6929312787773846,0.6929312787773846
LBP05_S11,LBP05,-1575,76,11,75,-1575,1715805058.0,2024-05-15 20:30:58+00:00,2024-05-16 05:30:58+09:00,2024,5,15,20,30,58,0,20.0,30.0,58.0,40.611443,141.576797,19.997,3.0,9.0,-0.394531,-0.269287,1.748779,19.958496,-103.33252,-2.075195,-575.0,62.0,546.0,32.0,0.0,1019.0,16.370001,0.059459,-47.735023,3.782813,0.0,1.0,1.0,11.0,0.0,0.0,0.0,5.0,0.0,-0.17996093333333335,-0.1677344,1.0141731600000001,3.918457013333333,2.0686848933333333,-4.549153653333333,5.76908929069289,-3.438942723676807,-3.8779431400521887,3.2854957778480873,10.817343748996532,-8.898688955771108,14.387358111264717,-2.390343167988779,14.458526915440396,-2.367609630019022,-0.21457006666666667,-0.10155259999999999,0.73460584,1.0507285066666667,0.7720097047564903,0.6916081968617117,0.6949589307255668,0.6949589307255668
LBP05_S11,LBP05,-1574,77,11,76,-1574,1715805058.04,2024-05-15 20:30:58.040000+00:00,2024-05-16 05:30:58.040000+09:00,2024,5,15,20,30,58,40,,,,,,,,,0.040527,-0.158691,0.955322,-12.451172,49.804688,2.563477,,,,,,,,,,,0.0,1.0,1.0,11.0,0.0,0.0,0.0,5.0,0.0,-0.1808496,-0.16489586666666667,1.0012467333333332,2.9744466000000003,-0.33691406666666696,-4.876302093333333,6.1974867355349685,-2.1340187500197034,-2.520784052050127,3.5333952472694863,10.731982998995743,-8.999520317853113,14.444781307296115,-2.400974644830445,14.5206351589022,-2.365882475185034,0.2213766,0.00620486666666667,-0.045924733333333245,0.2735061999999999,0.22617511032306115,0.6753583466917068,0.6832393352155042,0.6832393352155042
LBP05_S11,LBP05,-1573,78,11,77,-1573,1715805058.08,2024-05-15 20:30:58.080000+00:00,2024-05-16 05:30:58.080000+09:00,2024,5,15,20,30,58,80,,,,,,,,,-0.427002,0.042236,0.106445,-0.427246,62.194824,-27.954102,,,,,,,,,,,0.0,1.0,1.0,11.0,0.0,0.0,0.0,5.0,0.0,-0.16303058666666667,-0.16583336,0.9899446533333335,2.1508788933333336,-0.700683586666667,-4.567057306666667,6.688664560852437,-0.7138979253449632,-1.3095430211280394,3.800941829703584,10.703427081981944,-9.051902038698234,14.52402976485122,-2.3479008959925087,14.620626441560237,-2.364464348651217,-0.2639714133333333,0.20806936,-0.8834996533333335,1.3555404266666669,0.9452753054365313,0.6979669003487082,0.6896304564404073,0.6896304564404073
LBP05_S11,LBP05,-1572,79,11,78,-1572,1715805058.12,2024-05-15 20:30:58.120000+00:00,2024-05-16 05:30:58.120000+09:00,2024,5,15,20,30,58,120,,,,,,,,,-0.046875,-0.011963,0.204102,-45.166016,-74.401855,-1.159668,,,,,,,,,,,0.0,1.0,1.0,11.0,0.0,0.0,0.0,5.0,0.0,-0.15891601333333333,-0.16518882666666668,0.98459308,2.2998046800000007,2.1785481866666667,-4.388020853333333,7.409237263424859,0.781955535149412,-0.5140944925666461,4.097311320240578,10.734705303387921,-9.0724658184009,14.640064686728985,-2.3373527219875143,14.759848869189051,-2.363844220906931,0.11204101333333333,0.15322582666666668,-0.78049108,1.04575792,0.8032419738696491,0.6955775279595163,0.692335492569675,0.692335492569675
LBP05_S11,LBP05,-1571,80,11,79,-1571,1715805058.16,2024-05-15 20:30:58.160000+00:00,2024-05-16 05:30:58.160000+09:00,2024,5,15,20,30,58,160,,,,,,,,,0.540771,-0.401367,0.73877,-24.108887,-46.813965,14.465332,,,,,,,,,,,0.0,1.0,1.0,11.0,0.0,0.0,0.0,5.0,0.0,-0.17065429333333332,-0.16697594666666668,0.9907291466666667,2.0402018133333337,1.1881510533333328,-4.6720377866666665,8.256689712351351,2.2533175033853468,-0.3912893388897306,4.427578908734633,10.824838003523334,-9.088117391956489,14.811294694441024,-2.3667813386707413,14.936952866165646,-2.3652686150393203,0.7114252933333334,-0.2343910533333333,-0.25195914666666663,1.1977754933333333,0.7902838258917639,0.6879210240479305,0.6946133607864677,0.6946133607864677
LBP05_S11,LBP05,-1570,81,11,80,-1570,1715805058.2,2024-05-15 20:30:58.200000+00:00,2024-05-16 05:30:58.200000+09:00,2024,5,15,20,30,58,200,,,,,,,,,0.021484,-0.123047,1.226074,45.593262,102.905273,18.249512,,,,,,,,,,,0.0,1.0,1.0,11.0,0.0,0.0,0.0,5.0,0.0,-0.16580077333333332,-0.17057294666666667,1.0097330533333333,2.1923828133333334,-1.8798828000000003,-4.388020853333333,8.884510307545733,3.534123853842833,-1.0948415164421996,4.782959321036462,10.966202957677048,-9.131911052614177,15.050784253603243,-2.3423911564115816,15.147835360131818,-2.359566914100852,0.18728477333333332,0.047525946666666666,0.2163409466666668,0.4511516666666668,0.2900650050138942,0.6807914999984795,0.6854190799734546,0.6854190799734546
LBP05_S11,LBP05,-1569,82,11,81,-1569,1715805058.24,2024-05-15 20:30:58.240000+00:00,2024-05-16 05:30:58.240000+09:00,2024,5,15,20,30,58,240,,,,,,,,,-0.751465,-0.208984,1.642822,60.058594,8.483887,-9.033203,,,,,,,,,,,0.0,1.0,1.0,11.0,0.0,0.0,0.0,5.0,0.0,-0.16483398666666668,-0.17140628000000002,1.0171646933333334,3.055013026666667,0.23193359999999966,-4.080403666666667,8.874084576006668,4.419305721362812,-2.600124230398314,5.137922704076729,11.14297518653156,-9.235916021830109,15.35793900505609,-2.3371699470268603,15.386010489063093,-2.351450219878436,-0.5866310133333333,-0.03757771999999998,0.6256573066666666,1.24986604,0.8584841851952074,0.6813704933827265,0.6892649712006047,0.6892649712006047
LBP05_S11,LBP05,-1568,83,11,82,-1568,1715805058.28,2024-05-15 20:30:58.280000+00:00,2024-05-16 05:30:58.280000+09:00,2024,5,15,20,30,58,280,,,,,,,,,-0.418945,-0.417725,1.812012,38.818359,-93.75,-2.807617,,,,,,,,,,,0.0,1.0,1.0,11.0,0.0,0.0,0.0,5.0,0.0,-0.17532552,-0.16737958666666666,1.0050227600000001,3.2796224133333336,1.2638346399999996,-4.425455746666667,7.95895891698432,4.71451595427223,-4.682076700434307,5.456281060756102,11.331555824702448,-9.423199089847481,15.715337779036636,-2.3787219992026687,15.643045661396929,-2.3463286591496844,-0.24361948,-0.2503454133333334,0.8069892399999998,1.3009541333333332,0.8793491402669847,0.6878540563723443,0.693397235745526,0.693397235745526
LBP05_S11,LBP05,-1567,84,11,83,-1567,1715805058.32,2024-05-15 20:30:58.320000+00:00,2024-05-16 05:30:58.320000+09:00,2024,5,15,20,30,58,320,,,,,,,,,0.110596,-0.078613,1.127686,-10.620117,49.865723,-1.159668,,,,,,,,,,,0.0,1.0,1.0,11.0,0.0,0.0,0.0,5.0,0.0,-0.17343425333333334,-0.16623374666666665,0.9908951466666668,2.424316426666667,-1.2744140533333337,-4.454752626666667,6.172612801915213,4.287795509338771,-6.961300882561547,5.7031855728327105,11.503067645076,-9.701651125149942,16.092511472094237,-2.3767855496654002,15.908900900345689,-2.344441667370543,0.2840302533333333,0.08762074666666665,0.13679085333333318,0.5084418533333331,0.3272037860579904,0.6756731613764049,0.6856058857521742,0.6856058857521742
LBP05_S11,LBP05,-1566,85,11,84,-1566,1715805058.36,2024-05-15 20:30:58.360000+00:00,2024-05-16 05:30:58.360000+09:00,2024,5,15,20,30,58,360,,,,,,,,,-0.42334,0.170898,0.025146,-25.939941,74.035645,-31.555176,,,,,,,,,,,0.0,1.0,1.0,11.0,0.0,0.0,0.0,5.0,0.0,-0.15298177333333335,-0.16572920000000002,0.9791829066666667,2.1582031466666667,-1.3476562400000003,-4.292806013333333,3.8433037179699405,3.112889102066435,-9.001772035598487,5.8569177215515085,11.627583209158656,-10.06172200657388,16.4542525269459,-2.3172477192320207,16.17235908707313,-2.342610679108939,-0.27035822666666665,0.3366272,-0.9540369066666667,1.5610223333333333,1.0471856863939113,0.6998530819966996,0.6931387982655437,0.6931387982655437
LBP05_S11,LBP05,-1565,86,11,85,-1565,1715805058.4,2024-05-15 20:30:58.400000+00:00,2024-05-16 05:30:58.400000+09:00,2024,5,15,20,30,58,400,,,,,,,,,-0.045654,-0.313721,0.298584,-31.860352,-65.429688,-14.892578,,,,,,,,,,,0.0,1.0,1.0,11.0,0.0,0.0,0.0,5.0,0.0,-0.15060547999999999,-0.16588870666666666,0.9751431866666667,1.8872070533333336,2.1842447999999997,-3.9518229333333337,1.4594817256265782,1.2976908990460938,-10.422817364895586,5.9152969905765715,11.6794908451205,-10.478634701169703,16.76910940057747,-2.309176225764622,16.421912874944983,-2.340710060926787,0.10495147999999999,-0.14783229333333336,-0.6765591866666667,0.92934296,0.7004295347638081,0.6871369407918748,0.6932875888063247,0.6932875888063247
LBP05_S11,LBP05,-1564,87,11,86,-1564,1715805058.44,2024-05-15 20:30:58.440000+00:00,2024-05-16 05:30:58.440000+09:00,2024,5,15,20,30,58,440,,,,,,,,,0.462891,-0.03833,0.744629,9.521484,-40.527344,-2.807617,,,,,,,,,,,0.0,1.0,1.0,11.0,0.0,0.0,0.0,5.0,0.0,-0.16371419999999998,-0.16589521333333332,0.9815396666666667,2.4186198133333336,1.0579427200000002,-3.911132826666667,-0.5006203369205409,-0.9159792327637128,-10.986191978456974,5.89527217709975,11.64285167580995,-10.918082380307983,17.015133030634484,-2.3497590375429267,16.64732819189811,-2.34209321552984,0.6266052,0.12756521333333332,-0.2369106666666667,0.9910810800000001,0.6819337389367557,0.6812818381855515,0.6930605118089332,0.6930605118089332
LBP05_S11,LBP05,-1563,88,11,87,-1563,1715805058.48,2024-05-15 20:30:58.480000+00:00,2024-05-16 05:30:58.480000+09:00,2024,5,15,20,30,58,480,,,,,,,,,-0.040771,-0.148438,1.292725,12.084961,89.233398,-6.774902,,,,,,,,,,,0.0,1.0,1.0,11.0,0.0,0.0,0.0,5.0,0.0,-0.16007488,-0.16926436,1.0024381066666666,2.951660173333334,-1.4029947866666668,-3.671875013333333,-1.6865211838095149,-3.1872303744345607,-10.634536604403216,5.8278113297473695,11.515362460832568,-11.343463844484111,17.182582154338792,-2.329030978201093,16.841688955265102,-2.3396954156443734,0.11930388,0.020826360000000016,0.29028689333333335,0.43041713333333337,0.3145371734708348,0.6835812679833702,0.6869032105085247,0.6856384855670098
LBP05_S11,LBP05,-1562,89,11,88,-1562,1715805058.52,2024-05-15 20:30:58.520000+00:00,2024-05-16 05:30:58.520000+09:00,2024,5,15,20,30,58,520,,,,,,,,,-0.838867,-0.237061,1.672607,11.657715,2.624512,-14.404297,,,,,,,,,,,0.0,1.0,1.0,11.0,0.0,0.0,0.0,5.0,0.0,-0.15938477333333334,-0.17203453333333332,1.00966792,2.565104186666667,0.6925455733333333,-3.471679693333333,-1.9114460382404002,-5.1365678014995675,-9.48071088837797,5.751353488217753,11.309899748772585,-11.72269228001923,17.274646554003446,-2.319042839371474,17.003268557259453,-2.3322704049685563,-0.6794822266666667,-0.06502646666666667,0.6629390799999999,1.4074477733333333,0.9515317974268064,0.6839144068472081,0.6983114666502395,0.6907518184873904
LBP05_S11,LBP05,-1561,90,11,89,-1561,1715805058.56,2024-05-15 20:30:58.560000+00:00,2024-05-16 05:30:58.560000+09:00,2024,5,15,20,30,58,560,,,,,,,,,-0.414307,-0.307617,1.743164,1.953125,-125.244141,-5.67627,,,,,,,,,,,0.0,1.0,1.0,11.0,0.0,0.0,0.0,5.0,0.0,-0.16731772,-0.1702409066666667,0.9990982533333332,2.887369813333333,1.8058268266666664,-3.660481786666667,-1.1368115252081183,-6.420950684470858,-7.764043179490678,5.705881027209428,11.053061721393751,-12.033254007198856,17.30683257315953,-2.3477751568492193,17.136397163549184,-2.3285792560228535,-0.24698927999999998,-0.13737609333333328,0.7440657466666667,1.12843112,0.7959332452015504,0.6876837277526197,0.6970437690023019,0.6927363737084123
LBP05_S11,LBP05,-1560,91,11,90,-1560,1715805058.6,2024-05-15 20:30:58.600000+00:00,2024-05-16 05:30:58.600000+09:00,2024,5,15,20,30,58,600,,,,,,,,,0.08667,-0.102051,1.103027,11.779785,40.161133,4.02832,,,,,,,,,,,0.0,1.0,1.0,11.0,0.0,0.0,0.0,5.0,0.0,-0.16810873333333334,-0.16809897333333332,0.9875813333333332,2.9817708533333334,-0.2685546800000001,-3.8818359466666665,0.5473742631674386,-6.808041604415507,-5.792488135270251,5.727775997736126,10.78074005721713,-12.264953532609667,17.304937423134543,-2.356222702442115,17.250811454387353,-2.3285968741726153,0.25477873333333334,0.06604797333333332,0.11544566666666678,0.43627237333333346,0.2874060536810066,0.6709843723801915,0.68507067281312,0.6852302566708678
LBP05_S11,LBP05,-1559,92,11,91,-1559,1715805058.64,2024-05-15 20:30:58.640000+00:00,2024-05-16 05:30:58.640000+09:00,2024,5,15,20,30,58,640,,,,,,,,,-0.453369,0.191406,-0.020264,-17.944336,76.782227,-14.160156,,,,,,,,,,,0.0,1.0,1.0,11.0,0.0,0.0,0.0,5.0,0.0,-0.15162435999999999,-0.16563478666666667,0.9771321199999999,2.6977539200000002,-0.6453450533333335,-3.771158853333334,2.92246972774823,-6.2236321063772015,-3.8844059273883222,5.844674786846055,10.531794772962042,-12.4203297697052,17.301546638725966,-2.313191948172197,17.359642372368175,-2.3317151824617364,-0.30174464,0.35704078666666667,-0.9973961199999999,1.6561815466666665,1.1015112215966463,0.698595994539962,0.6996761320094933,0.6927990014877002
LBP05_S11,LBP05,-1558,93,11,92,-1558,1715805058.68,2024-05-15 20:30:58.680000+00:00,2024-05-16 05:30:58.680000+09:00,2024,5,15,20,30,58,680,,,,,,,,,-0.153564,-0.188721,0.263184,-16.235352,-74.462891,-9.58252,,,,,,,,,,,0.0,1.0,1.0,11.0,0.0,0.0,0.0,5.0,0.0,-0.14732097333333333,-0.16384115999999999,0.9717675466666666,2.398274746666667,2.4788411466666664,-3.6043294266666663,5.635640207637663,-4.757519411556957,-2.3171681994507427,6.070100395151562,10.341493996499764,-12.51301649768323,17.33113379898016,-2.304471892444494,17.476774514771606,-2.3323700893026924,-0.006243026666666679,-0.024879840000000014,-0.7085835466666667,0.7397064133333333,0.7090476884012095,0.6879197816495528,0.6956749006464124,0.6930891566111557
LBP05_S11,LBP05,-1557,94,11,93,-1557,1715805058.72,2024-05-15 20:30:58.720000+00:00,2024-05-16 05:30:58.720000+09:00,2024,5,15,20,30,58,720,,,,,,,,,0.543945,-0.128174,0.733398,-17.51709,-58.776855,7.873535,,,,,,,,,,,0.0,1.0,1.0,11.0,0.0,0.0,0.0,5.0,0.0,-0.16035157333333333,-0.16582358666666666,0.9772655866666665,2.3836263200000003,1.804199213333333,-3.599446613333334,8.226564723626684,-2.638384140426053,-1.2850225069623715,6.3991629840966295,10.235958630882722,-12.564417397961725,17.423797534991568,-2.339874060208374,17.61442635495307,-2.334781142270015,0.7042965733333333,0.03764958666666665,-0.24386758666666652,0.9858137466666664,0.7462724398045733,0.6904969857068134,0.6955267321386788,0.6940221966671805
LBP05_S11,LBP05,-1556,95,11,94,-1556,1715805058.76,2024-05-15 20:30:58.760000+00:00,2024-05-16 05:30:58.760000+09:00,2024,5,15,20,30,58,760,,,,,,,,,0.15332,-0.107178,1.261963,51.208496,93.139648,6.286621,,,,,,,,,,,0.0,1.0,1.0,11.0,0.0,0.0,0.0,5.0,0.0,-0.15614584,-0.16909832,0.9953124666666667,3.319498706666667,-1.4436848933333335,-3.4676106800000004,10.215005129084519,-0.190266143213584,-0.8685125138253287,6.80776318926001,10.228347985154178,-12.599157898514738,17.598395435327546,-2.3174239007296364,17.781478182074405,-2.3335326012386526,0.30946584,0.06192032,0.2666505333333332,0.6380366933333332,0.41316551051940315,0.6994948871928908,0.69118911634273,0.6891798400094602
LBP05_S11,LBP05,-1555,96,11,95,-1555,1715805058.8,2024-05-15 20:30:58.800000+00:00,2024-05-16 05:30:58.800000+09:00,2024,5,15,20,30,58,800,,,,,,,,,-0.767334,-0.341797,1.737305,38.757324,17.700195,-2.01416,,,,,,,,,,,0.0,1.0,1.0,11.0,0.0,0.0,0.0,5.0,0.0,-0.15818685333333332,-0.16341146666666667,1.0001171466666667,4.017740893333333,0.8780924533333333,-3.3447265600000002,11.23603720054336,2.2272446107276864,-1.0222951157025486,7.257204677281744,10.317437769583286,-12.64004970314284,17.85741858038572,-2.3403593086558367,17.98264732830952,-2.3292523361849597,-0.6091471466666667,-0.17838553333333335,0.7371878533333334,1.5247205333333333,0.9727936964726733,0.6997299551056548,0.7031852601673401,0.6939868545257858
LBP05_S11,LBP05,-1554,97,11,96,-1554,1715805058.84,2024-05-15 20:30:58.840000+00:00,2024-05-16 05:30:58.840000+09:00,2024,5,15,20,30,58,840,,,,,,,,,-0.51001,-0.236084,1.747559,2.13623,-103.271484,-5.187988,,,,,,,,,,,0.0,1.0,1.0,11.0,0.0,0.0,0.0,5.0,0.0,-0.16718100000000002,-0.16714193333333333,0.9902896666666665,1.67317708,1.2239583466666666,-3.5856119866666663,11.163858438971658,4.285939681427078,-1.5900006312254396,7.70375901484061,10.488875356840369,-12.703649728391857,18.186454454668773,-2.3563081059524857,18.218347109539355,-2.3260225331497386,-0.34282899999999994,-0.06894206666666666,0.7572693333333336,1.1690404,0.8341112485780194,0.7015226948625042,0.6999619103833342,0.6963222610933231
LBP05_S11,LBP05,-1553,98,11,97,-1553,1715805058.88,2024-05-15 20:30:58.880000+00:00,2024-05-16 05:30:58.880000+09:00,2024,5,15,20,30,58,880,,,,,,,,,0.169189,-0.148193,1.220459,27.587891,54.443359,7.263184,,,,,,,,,,,0.0,1.0,1.0,11.0,0.0,0.0,0.0,5.0,0.0,-0.16480145333333332,-0.16583985333333334,0.9761262533333334,2.4210612000000005,-1.2898762933333334,-3.8745117333333337,10.1555169757125,5.746250756103627,-2.3475877551209625,8.10997969386911,10.718725387084515,-12.797553238596697,18.559100556153474,-2.353141507874315,18.48500884117781,-2.325483957006863,0.3339904533333333,0.01764685333333335,0.2443327466666666,0.5959700533333333,0.4141974474137318,0.6866840790207513,0.6920381097910796,0.691697264147756
LBP05_S11,LBP05,-1552,99,11,98,-1552,1715805058.92,2024-05-15 20:30:58.920000+00:00,2024-05-16 05:30:58.920000+09:00,2024,5,15,20,30,58,920,,,,,,,,,-0.501953,-0.01709,0.094727,-4.821777,83.679199,-20.385742,,,,,,,,,,,0.0,1.0,1.0,11.0,0.0,0.0,0.0,5.0,0.0,-0.14691734666666667,-0.16269208,0.9659342,2.4983724000000005,-0.7503255066666668,-3.84277344,8.585083517315992,6.496921201098908,-3.064534428198707,8.45338303456175,10.978602235128472,-12.920134615724645,18.945164825216764,-2.3065574290578494,18.7757198420251,-2.3273979900143624,-0.3550356533333333,0.14560208,-0.8712072,1.3718449333333331,0.9519728284830367,0.7071952512401459,0.702597391317687,0.6958952571209057
LBP05_S11,LBP05,-1551,100,11,99,-1551,1715805058.96,2024-05-15 20:30:58.960000+00:00,2024-05-16 05:30:58.960000+09:00,2024,5,15,20,30,58,960,,,,,,,,,0.026367,-0.05127,0.260498,-29.724121,-73.547363,-5.004883,,,,,,,,,,,0.0,1.0,1.0,11.0,0.0,0.0,0.0,5.0,0.0,-0.14822269333333332,-0.16468753333333333,0.9622069866666666,2.2705078133333334,1.9881185066666667,-3.7784830799999995,6.898172752619052,6.571834198868407,-3.5637650198313113,8.729309944666511,11.241475603083208,-13.062685216517899,19.31852403551068,-2.304972506312292,19.081127270245545,-2.328433370580896,0.17458969333333332,0.11341753333333332,-0.7017089866666666,0.9897162133333333,0.7319430304705451,0.7018424151370434,0.6976856847018135,0.6964674439994715
LBP05_S11,LBP05,-1550,101,11,100,-1550,1715805059.0,2024-05-15 20:30:59+00:00,2024-05-16 05:30:59+09:00,2024,5,15,20,30,59,0,20.0,30.0,59.0,40.611351,141.576782,20.112,3.0,9.0,0.413818,-0.146484,0.743896,-14.038086,-21.789551,-1.159668,-573.0,63.0,546.0,55.0,0.0,1019.5,16.450001,0.064414,-51.875576,3.782813,0.0,1.0,1.0,11.0,0.0,0.0,0.0,4.0,0.0,-0.15934574666666665,-0.170293,0.9711099733333335,1.9718424533333336,0.00325522666666681,-4.07796224,5.456716436171017,6.13215239357349,-3.7611533024178527,8.947578602113351,11.486761698826147,-13.213131348614613,19.66193523543291,-2.3239246720899036,19.39056803088177,-2.3307287875378444,0.5731637466666667,0.023808999999999997,-0.22721397333333349,0.8241867200000002,0.6170168058099322,0.6956426991791811,0.6936254480204463,0.6952260277777599
LBP05_S11,LBP05,-1549,102,11,101,-1549,1715805059.04,2024-05-15 20:30:59.040000+00:00,2024-05-16 05:30:59.040000+09:00,2024,5,15,20,30,59,40,,,,,,,,,-0.097656,-0.273926,1.380127,49.255371,117.431641,7.019043,,,,,,,,,,,0.0,1.0,1.0,11.0,0.0,0.0,0.0,4.0,0.0,-0.15605473333333333,-0.17239586666666668,0.9911588,2.680664066666667,-2.0402018133333333,-3.709309893333334,4.442004764915939,5.410930230715307,-3.674297695642979,9.125258792709989,11.703198908054759,-13.360103256440333,19.96816395511046,-2.307806186743441,19.69327592101707,-2.3251840620581072,0.05839873333333333,-0.10153013333333333,0.3889682000000001,0.5488970666666668,0.40622043355900045,0.7028445121086186,0.6891014294001627,0.690779787866702
LBP05_S11,LBP05,-1548,103,11,102,-1548,1715805059.08,2024-05-15 20:30:59.080000+00:00,2024-05-16 05:30:59.080000+09:00,2024,5,15,20,30,59,80,,,,,,,,,-0.755127,-0.172852,1.746826,-0.732422,-30.395508,-13.85498,,,,,,,,,,,0.0,1.0,1.0,11.0,0.0,0.0,0.0,4.0,0.0,-0.15854172,-0.16952477333333335,0.9952733866666666,2.574055986666667,0.7267252666666665,-3.3121744800000004,3.8425239329878838,4.634886746454687,-3.403648233525109,9.278959750029504,11.888594377912947,-13.496249185781338,20.238243807453113,-2.323612222519492,19.979394389569073,-2.318136709343357,-0.59658528,-0.003327226666666655,0.7515526133333333,1.3514651199999999,0.9595605230302737,0.7034159208123683,0.7006914105805383,0.6948522232479684
LBP05_S11,LBP05,-1547,104,11,103,-1547,1715805059.12,2024-05-15 20:30:59.120000+00:00,2024-05-16 05:30:59.120000+09:00,2024,5,15,20,30,59,120,,,,,,,,,-0.36792,-0.394287,1.824951,22.949219,-113.098145,0.915527,,,,,,,,,,,0.0,1.0,1.0,11.0,0.0,0.0,0.0,4.0,0.0,-0.16926112000000001,-0.17135419999999998,0.9851789866666667,1.3940429600000002,1.0359700666666665,-3.399251293333333,3.501649413297849,3.9457339714879054,-3.0978669516102557,9.419025726561419,12.046423736772462,-13.620163863845749,20.477871817196007,-2.3502278658737117,20.24055503420954,-2.314196464422794,-0.19865888,-0.22293280000000001,0.8397720133333333,1.2613636933333332,0.891280774109155,0.7069374728219485,0.7012575003907325,0.697783992663807
LBP05_S11,LBP05,-1546,105,11,104,-1546,1715805059.16,2024-05-15 20:30:59.160000+00:00,2024-05-16 05:30:59.160000+09:00,2024,5,15,20,30,59,160,,,,,,,,,0.116699,-0.075684,1.026367,-9.155273,75.317383,2.13623,,,,,,,,,,,0.0,1.0,1.0,11.0,0.0,0.0,0.0,4.0,0.0,-0.16448248,-0.16992841333333333,0.9725487866666667,1.5771484266666669,-1.16292316,-3.3878580666666664,3.178803294888872,3.3515748632377775,-2.914679287759938,9.546177858356973,12.180486731301974,-13.736751035356146,20.692803041689796,-2.340378070299117,20.470005809100563,-2.3139178903609294,0.28118148,0.09424441333333333,0.053818213333333365,0.4292441066666667,0.30139912777897476,0.687382084897437,0.6876515544726837,0.691954803474324
LBP05_S11,LBP05,-1545,106,11,105,-1545,1715805059.2,2024-05-15 20:30:59.200000+00:00,2024-05-16 05:30:59.200000+09:00,2024,5,15,20,30,59,200,,,,,,,,,-0.405762,0.038818,0.020264,-29.35791,55.236816,-13.244629,,,,,,,,,,,0.0,1.0,1.0,11.0,0.0,0.0,0.0,4.0,0.0,-0.14563808,-0.1686784133333333,0.96088212,1.6357421733333337,-0.6542968533333334,-3.0501302000000003,2.598227451361404,2.7405834815762504,-2.983144982564756,9.65010695641143,12.290110070565024,-13.856076834658737,20.884497481738713,-2.284912053858464,20.662507681882865,-2.314385133947337,-0.26012392,0.2074964133333333,-0.94061812,1.4082384533333334,0.9977382737846124,0.7156890156482657,0.6982402578233726,0.6963864479715746
LBP05_S11,LBP05,-1544,107,11,106,-1544,1715805059.24,2024-05-15 20:30:59.240000+00:00,2024-05-16 05:30:59.240000+09:00,2024,5,15,20,30,59,240,,,,,,,,,-0.028809,-0.175537,0.280029,18.371582,-59.753418,-10.070801,,,,,,,,,,,0.0,1.0,1.0,11.0,0.0,0.0,0.0,4.0,0.0,-0.1470248,-0.16997398666666666,0.9579589466666666,2.1508788933333336,2.29085288,-2.70914712,1.4943147171035738,1.9569640333234912,-3.369714673850883,9.709879545095573,12.368388631897965,-13.990865421612773,21.047639140188814,-2.285834578804982,20.814244444357236,-2.3154737298848547,0.11821580000000001,-0.005563013333333339,-0.6779299466666666,0.8017087599999999,0.6881823414433534,0.7088769418981916,0.695123717640459,0.6962692464497429
LBP05_S11,LBP05,-1543,108,11,107,-1543,1715805059.28,2024-05-15 20:30:59.280000+00:00,2024-05-16 05:30:59.280000+09:00,2024,5,15,20,30,59,280,,,,,,,,,0.54126,-0.068359,0.808105,-19.592285,-10.925293,8.544922,,,,,,,,,,,0.0,1.0,1.0,11.0,0.0,0.0,0.0,4.0,0.0,-0.15755214666666664,-0.1719531466666667,0.9696614266666665,2.342122373333334,0.3572591333333333,-2.547200506666667,-0.324384042344689,0.8952307098342971,-4.051024567142479,9.696904183401786,12.404197860291337,-14.152906404298472,21.17070700255813,-2.313739058668686,20.92280699096832,-2.3191436840354362,0.6988121466666666,0.10359414666666669,-0.16155642666666659,0.9639627199999998,0.7246865822890414,0.7026904395790737,0.6952722479757091,0.6966694906164936
LBP05_S11,LBP05,-1542,109,11,108,-1542,1715805059.32,2024-05-15 20:30:59.320000+00:00,2024-05-16 05:30:59.320000+09:00,2024,5,15,20,30,59,320,,,,,,,,,-0.160889,-0.238037,1.46875,21.362305,110.107422,12.939453,,,,,,,,,,,0.0,1.0,1.0,11.0,0.0,0.0,0.0,4.0,0.0,-0.15664068,-0.17449872,0.9917056933333334,3.8053385200000003,-1.4591471200000001,-2.1598307066666664,-2.889440522585691,-0.4387344680863059,-4.90147811799778,9.581326562498358,12.386648481567885,-14.348965529018383,21.239672574126992,-2.303771688439206,20.987153540456543,-2.3165321162694577,-0.00424832,-0.06353828,0.47704430666666664,0.5448309066666667,0.4812758375103216,0.7088533216371671,0.692263241506786,0.6936779121011301
LBP05_S11,LBP05,-1541,110,11,109,-1541,1715805059.36,2024-05-15 20:30:59.360000+00:00,2024-05-16 05:30:59.360000+09:00,2024,5,15,20,30,59,360,,,,,,,,,-0.965576,-0.239258,1.753662,6.530762,-46.99707,-11.962891,,,,,,,,,,,0.0,1.0,1.0,11.0,0.0,0.0,0.0,4.0,0.0,-0.15890304,-0.17488609333333335,0.9976822533333333,3.220214826666667,1.0742187733333333,-1.9034830533333336,-5.995373917897131,-1.9266100963595323,-5.708991692019818,9.341511605782472,12.309584077713504,-14.577325196699176,21.24354276333369,-2.3096449421763654,21.0075107026858,-2.310480179967789,-0.80667296,-0.06437190666666665,0.7559797466666668,1.6270246133333335,1.1074160844656635,0.7112625375600371,0.7055578097783683,0.6993455582979046
LBP05_S11,LBP05,-1540,111,11,110,-1540,1715805059.4,2024-05-15 20:30:59.400000+00:00,2024-05-16 05:30:59.400000+09:00,2024,5,15,20,30,59,400,,,,,,,,,-0.29126,-0.309082,1.623291,18.066406,-124.206543,-13.427734,,,,,,,,,,,0.0,1.0,1.0,11.0,0.0,0.0,0.0,4.0,0.0,-0.16899418666666666,-0.17661136000000002,0.9887239199999999,2.2591145733333335,1.782226586666667,-1.8977864400000002,-9.181580347679429,-3.3927984319380373,-6.227237326180217,8.974248391875294,12.173872140435982,-14.826414689746384,21.179302860176655,-2.3348106314650807,20.985389177893374,-2.3091827996294634,-0.12226581333333336,-0.13247064,0.6345670800000002,0.8893035333333336,0.659676268022276,0.7096324068903759,0.6983846738411253,0.6988094868076933
LBP05_S11,LBP05,-1539,112,11,111,-1539,1715805059.44,2024-05-15 20:30:59.440000+00:00,2024-05-16 05:30:59.440000+09:00,2024,5,15,20,30,59,440,,,,,,,,,-0.078613,-0.102783,0.845703,-2.990723,98.937988,-13.549805,,,,,,,,,,,0.0,1.0,1.0,11.0,0.0,0.0,0.0,4.0,0.0,-0.16984054666666665,-0.1739844,0.9755761333333334,2.1166992133333338,-0.5338541333333334,-2.0068359200000003,-11.813387558933238,-4.679753699631275,-6.253400869477592,8.501712889517965,11.98668199245073,-15.076550724525488,21.053789421221264,-2.344505728249257,20.923962713073685,-2.3119768059147208,0.09122754666666665,0.07120140000000001,-0.1298731333333334,0.29230208,0.17395153173972522,0.6893131186024947,0.685297478394023,0.6918113807401204
LBP05_S11,LBP05,-1538,113,11,112,-1538,1715805059.48,2024-05-15 20:30:59.480000+00:00,2024-05-16 05:30:59.480000+09:00,2024,5,15,20,30,59,480,,,,,,,,,-0.269531,-0.249756,-0.009766,-76.599121,18.005371,-17.63916,,,,,,,,,,,0.0,1.0,1.0,11.0,0.0,0.0,0.0,4.0,0.0,-0.15255214666666667,-0.17217450666666667,0.9636848533333333,1.6788736933333341,-0.6331379866666668,-1.7130533733333335,-13.258912221341008,-5.692556459966202,-5.700313023930071,7.971356400664324,11.758979734052083,-15.30456324548269,20.881709302335366,-2.297496544859711,20.828834272918037,-2.3145434138497545,-0.11697885333333335,-0.07758149333333333,-0.9734508533333334,1.1680112,0.9835189393653823,0.7160723892382765,0.6998268286108232,0.6966262700851086
LBP05_S11,LBP05,-1537,114,11,113,-1537,1715805059.52,2024-05-15 20:30:59.520000+00:00,2024-05-16 05:30:59.520000+09:00,2024,5,15,20,30,59,520,,,,,,,,,0.016602,-0.027344,0.319336,-15.930176,-88.562012,-5.92041,,,,,,,,,,,0.0,1.0,1.0,11.0,0.0,0.0,0.0,4.0,0.0,-0.15030930666666664,-0.17240237333333333,0.9588248266666667,1.3883463466666672,2.0906575866666666,-1.51855468,-13.100566915214824,-6.390020559196738,-4.629056921510135,7.447333724055731,11.503378911684214,-15.489725522343095,20.6814434394886,-2.289708502857023,20.708833007462673,-2.3188732087399684,0.16691130666666665,0.14505837333333332,-0.6394888266666667,0.9514585066666668,0.6766441275876093,0.7050768824447086,0.6944956446459584,0.7005666052483959
LBP05_S11,LBP05,-1536,115,11,114,-1536,1715805059.56,2024-05-15 20:30:59.560000+00:00,2024-05-16 05:30:59.560000+09:00,2024,5,15,20,30,59,560,,,,,,,,,0.599854,-0.185791,0.834473,-39.978027,-8.361816,14.038086,,,,,,,,,,,0.0,1.0,1.0,11.0,0.0,0.0,0.0,4.0,0.0,-0.16447922666666667,-0.17454105333333333,0.9687369333333333,1.884765613333334,0.7161458666666667,-1.4892578133333334,-11.285692446210417,-6.741827566612421,-3.2269788091565723,6.995906026207314,11.233705809019717,-15.618804674709358,20.471587793765536,-2.3274042669158574,20.57627552767113,-2.324466523774735,0.7643332266666667,-0.011249946666666677,-0.1342639333333333,0.9098471066666667,0.776117675665758,0.7042842596632769,0.6959839937079483,0.6994572658892936
LBP05_S11,LBP05,-1535,116,11,115,-1535,1715805059.6,2024-05-15 20:30:59.600000+00:00,2024-05-16 05:30:59.600000+09:00,2024,5,15,20,30,59,600,,,,,,,,,-0.202637,-0.292236,1.431152,28.930664,119.750977,6.04248,,,,,,,,,,,0.0,1.0,1.0,11.0,0.0,0.0,0.0,4.0,0.0,-0.1619304,-0.17706384,0.9884537333333333,2.49023436,-1.8790689733333332,-0.9635416666666671,-8.142507627139018,-6.685575854675545,-1.7442193585820245,6.670205721121754,10.966282774832695,-15.688573449052639,20.270232833541826,-2.3128521167110425,20.446286629951047,-2.3242481229632364,-0.04070660000000001,-0.11517216,0.4426982666666667,0.5985770266666667,0.45924221172742463,0.7111577059851336,0.6910710391826627,0.6937663505371245
LBP05_S11,LBP05,-1534,117,11,116,-1534,1715805059.64,2024-05-15 20:30:59.640000+00:00,2024-05-16 05:30:59.640000+09:00,2024,5,15,20,30,59,640,,,,,,,,,-0.890137,-0.360352,1.790771,1.89209,-43.273926,-8.850098,,,,,,,,,,,0.0,1.0,1.0,11.0,0.0,0.0,0.0,4.0,0.0,-0.16258144000000002,-0.17827152000000002,0.9953938266666665,3.2023111866666674,0.24739586666666677,-0.8154296933333335,-4.257667892367621,-6.114685285310247,-0.42101880603615616,6.499899005427049,10.721695363420286,-15.705414201294085,20.096354738632318,-2.3115006581553175,20.33520342510298,-2.321033840435812,-0.7275555599999999,-0.18208048,0.7953771733333334,1.7050132133333333,1.0932132646211659,0.7108257877061145,0.7047108911230382,0.703392683908367
LBP05_S11,LBP05,-1533,118,11,117,-1533,1715805059.68,2024-05-15 20:30:59.680000+00:00,2024-05-16 05:30:59.680000+09:00,2024,5,15,20,30,59,680,,,,,,,,,-0.199707,-0.258789,1.624023,30.700684,-129.089355,-0.061035,,,,,,,,,,,0.0,1.0,1.0,11.0,0.0,0.0,0.0,4.0,0.0,-0.17259770666666666,-0.17229821333333334,0.9846744133333332,3.1966145733333335,1.0628255600000003,-1.2386067733333337,-0.28266704804650866,-4.918790420685843,0.5636448090947567,6.4885923235051886,10.524943746592852,-15.682868408930295,19.970694348004486,-2.3570370075708245,20.258490319033527,-2.3195830618021684,-0.02710929333333334,-0.08649078666666665,0.6393485866666668,0.7529486666666668,0.6457415777506633,0.7082935432800926,0.6981066624648227,0.699881114857639
LBP05_S11,LBP05,-1532,119,11,118,-1532,1715805059.72,2024-05-15 20:30:59.720000+00:00,2024-05-16 05:30:59.720000+09:00,2024,5,15,20,30,59,720,,,,,,,,,-0.03418,-0.135986,0.805176,-0.549316,94.299316,17.944336,,,,,,,,,,,0.0,1.0,1.0,11.0,0.0,0.0,0.0,4.0,0.0,-0.17279301333333333,-0.17154625333333334,0.97097324,2.4519856666666673,-1.5275064666666665,-1.553548186666667,3.238181012236086,-3.064246215016915,1.1094350582195138,6.618119563994632,10.402373897992176,-15.638491006601514,19.914097776211552,-2.359704838786868,20.228751569506564,-2.320287969544812,0.1386130133333333,0.03556025333333335,-0.16579723999999996,0.3399705066666666,0.21901329611257686,0.6872031775324128,0.6888500816196131,0.6927522139365901
LBP05_S11,LBP05,-1531,120,11,119,-1531,1715805059.76,2024-05-15 20:30:59.760000+00:00,2024-05-16 05:30:59.760000+09:00,2024,5,15,20,30,59,760,,,,,,,,,-0.361816,0.021973,-0.051514,-12.268066,24.902344,-21.240234,,,,,,,,,,,0.0,1.0,1.0,11.0,0.0,0.0,0.0,4.0,0.0,-0.15599938666666666,-0.17249026666666667,0.9579719466666667,1.3191731600000005,-2.2989908399999996,-1.1759440266666668,5.9551841088931585,-0.6646143173163781,1.1842106929994065,6.8563269283503585,10.37578932529952,-15.591122578881539,19.943653786132856,-2.3074609340613836,20.25430788627221,-2.3221767348348354,-0.20581661333333337,0.19446326666666666,-1.0094859466666668,1.4097658266666668,1.0484456671302382,0.7126143837968462,0.7060546354948686,0.6983308721607687
LBP05_S11,LBP05,-1530,121,11,120,-1530,1715805059.8,2024-05-15 20:30:59.800000+00:00,2024-05-16 05:30:59.800000+09:00,2024,5,15,20,30,59,800,,,,,,,,,0.124023,-0.085205,0.295654,-4.455566,-89.904785,-6.530762,,,,,,,,,,,0.0,1.0,1.0,11.0,0.0,0.0,0.0,4.0,0.0,-0.15010094666666668,-0.16759768,0.9493065733333335,1.2263997333333336,0.23681645333333373,-0.8911132933333334,7.711469877521629,2.003062178792686,0.8024270383056378,7.1647857234512236,10.455911812451227,-15.559025497349314,20.06847081169598,-2.3026678061908346,20.338499170447687,-2.3247645827322065,0.2741239466666667,0.08239268,-0.6536525733333335,1.0101692000000002,0.7135784319042868,0.7022457732141106,0.7009878641598827,0.702872097849597
LBP05_S11,LBP05,-1529,122,11,121,-1529,1715805059.84,2024-05-15 20:30:59.840000+00:00,2024-05-16 05:30:59.840000+09:00,2024,5,15,20,30,59,840,,,,,,,,,0.669922,-0.285645,0.85498,-2.685547,-3.295898,2.685547,,,,,,,,,,,0.0,1.0,1.0,11.0,0.0,0.0,0.0,4.0,0.0,-0.1605273866666667,-0.16943036,0.9560839066666665,2.190755200000001,-0.25634761333333295,-0.8268229333333335,8.494265187544881,4.544452094543811,0.010909450698653683,7.504556330953019,10.63768989623298,-15.558589119321368,20.28665836052674,-2.3299979419128234,20.47958114203939,-2.3275850934203066,0.8304493866666667,-0.11621463999999998,-0.10110390666666658,1.0477679333333332,0.8446147206322149,0.7026659120962785,0.7020943034793913,0.700863244287649
LBP05_S11,LBP05,-1528,123,11,122,-1528,1715805059.88,2024-05-15 20:30:59.880000+00:00,2024-05-16 05:30:59.880000+09:00,2024,5,15,20,30,59,880,,,,,,,,,-0.317139,-0.350342,1.449707,9.155273,134.338379,16.235352,,,,,,,,,,,0.0,1.0,1.0,11.0,0.0,0.0,0.0,4.0,0.0,-0.15949873333333334,-0.17743165333333336,0.9779491466666667,2.648111960000001,-2.532552053333333,-0.2994791866666668,8.390273386027555,6.5413341419065345,-1.1076995471596465,7.840167266394121,10.899343261909241,-15.602897101207754,20.584321807065724,-2.3045456222861427,20.671011665732205,-2.326016446393587,-0.15764026666666667,-0.17291034666666663,0.4717578533333334,0.8023084666666667,0.5265965380068498,0.7071618757200032,0.6969229773703773,0.6970793651007209
LBP05_S11,LBP05,-1527,124,11,123,-1527,1715805059.92,2024-05-15 20:30:59.920000+00:00,2024-05-16 05:30:59.920000+09:00,2024,5,15,20,30,59,920,,,,,,,,,-0.790771,-0.174316,1.677002,36.315918,-38.818359,-7.019043,,,,,,,,,,,0.0,1.0,1.0,11.0,0.0,0.0,0.0,4.0,0.0,-0.15701826666666666,-0.17318685333333333,0.9864940666666666,3.124186186666667,-0.8544921466666665,-0.11230470666666684,7.567958779580847,7.661900987910135,-2.4206243752530066,8.142885617577354,11.205819301425647,-15.699722076217874,20.93700660714503,-2.3085961557572614,20.90208411314088,-2.3181797428905506,-0.6337527333333334,-0.0011291466666666639,0.6905079333333335,1.3253898133333335,0.9372539719712781,0.706573121459533,0.7068841863498393,0.7039226346983023
LBP05_S11,LBP05,-1526,125,11,124,-1526,1715805059.96,2024-05-15 20:30:59.960000+00:00,2024-05-16 05:30:59.960000+09:00,2024,5,15,20,30,59,960,,,,,,,,,-0.2146,-0.222168,1.661133,35.27832,-91.674805,-1.037598,,,,,,,,,,,0.0,1.0,1.0,11.0,0.0,0.0,0.0,4.0,0.0,-0.1693132,-0.17033204,0.9770441999999999,2.347005200000001,0.6079102000000004,-0.39306642666666686,6.270453230160887,7.745617982545285,-3.7399836457919715,8.393703746783789,11.515644020727459,-15.849321422049552,21.313500635520366,-2.3532827458895644,21.15901832144988,-2.3132078036792665,-0.045286800000000016,-0.051835960000000014,0.6840888,0.78121156,0.6875429785030182,0.7047971193808319,0.7033197672589375,0.7000561629281529
LBP05_S11,LBP05,-1525,126,11,125,-1525,1715805060.0,2024-05-15 20:31:00+00:00,2024-05-16 05:31:00+09:00,2024,5,15,20,31,0,0,20.0,31.0,0.0,40.611259,141.576767,20.559,3.0,9.0,-0.08374,-0.115234,0.752441,-19.592285,114.440918,3.417969,-573.0,61.0,548.0,45.0,0.0,1018.900024,16.52,0.058468,-46.906914,3.747656,0.0,1.0,1.0,11.0,0.0,0.0,0.0,12.0,0.0,-0.16856450666666664,-0.17391276,0.9635969333333334,1.5966796800000005,-1.4217121866666662,-0.28564456000000016,4.785460442576739,6.836195352771885,-4.8444435464571045,8.585122164486858,11.789091834838334,-16.043099163907836,21.68105254945884,-2.3410572235920464,21.426556395308644,-2.311932270355306,0.08482450666666665,0.058678759999999996,-0.21115593333333338,0.3546592,0.23500047231495536,0.6895164660410328,0.6925795826101069,0.6922557873606419
LBP05_S11,LBP05,-1524,127,11,126,-1524,1715805060.04,2024-05-15 20:31:00.040000+00:00,2024-05-16 05:31:00.040000+09:00,2024,5,15,20,31,0,40,,,,,,,,,-0.218018,-0.000244,-0.102051,-45.043945,11.535645,-16.235352,,,,,,,,,,,0.0,1.0,1.0,11.0,0.0,0.0,0.0,12.0,0.0,-0.15117518666666666,-0.17122394666666668,0.9503677733333334,1.7122395733333338,-1.9873046399999994,0.2164713333333332,3.3796096699808786,5.168638562721328,-5.528358775096996,8.720306551286093,11.995837377347188,-16.264233514911716,22.01065997556049,-2.2958141878881193,21.68988261661024,-2.310422188413306,-0.06684281333333333,0.1709799466666667,-1.0524187733333334,1.2902415333333335,1.0683105252317275,0.7160000697079418,0.7094222909082804,0.6980676428360891
LBP05_S11,LBP05,-1523,128,11,127,-1523,1715805060.08,2024-05-15 20:31:00.080000+00:00,2024-05-16 05:31:00.080000+09:00,2024,5,15,20,31,0,80,,,,,,,,,0.066162,-0.149902,0.334961,20.263672,-69.885254,-18.066406,,,,,,,,,,,0.0,1.0,1.0,11.0,0.0,0.0,0.0,12.0,0.0,-0.14478194666666666,-0.16990233333333335,0.9433039733333334,2.0808919200000005,1.1059570800000005,0.7657877466666664,2.2262458993931094,3.1238418006717206,-5.6617399097258865,8.809356387261818,12.120791049374057,-16.49070311130075,22.281418822091226,-2.278669972540465,21.936485042989297,-2.3111093418569992,0.21094394666666666,0.020000333333333342,-0.6083429733333334,0.8392872533333334,0.6441882761839078,0.7033851798340872,0.7034005503232278,0.7015893336650546
LBP05_S11,LBP05,-1522,129,11,128,-1522,1715805060.12,2024-05-15 20:31:00.120000+00:00,2024-05-16 05:31:00.120000+09:00,2024,5,15,20,31,0,120,,,,,,,,,0.493652,-0.03418,0.891846,9.094238,11.84082,-2.502441,,,,,,,,,,,0.0,1.0,1.0,11.0,0.0,0.0,0.0,12.0,0.0,-0.15659836,-0.17225910666666666,0.9508072266666666,2.339680986666667,0.6909180133333339,0.7804361866666664,1.3743657365378261,1.1545970104506187,-5.234985525928066,8.864331016723332,12.166974929792081,-16.700102532337873,22.48343985930156,-2.3099854466740215,22.15751845321531,-2.3149585619216593,0.65025036,0.13807910666666667,-0.05896122666666659,0.8472906933333333,0.6673588214956272,0.6944283017295462,0.7006828872757472,0.6989811008370036
LBP05_S11,LBP05,-1521,130,11,129,-1521,1715805060.16,2024-05-15 20:31:00.160000+00:00,2024-05-16 05:31:00.160000+09:00,2024,5,15,20,31,0,160,,,,,,,,,-0.333252,-0.280029,1.44043,5.187988,104.553223,-3.295898,,,,,,,,,,,0.0,1.0,1.0,11.0,0.0,0.0,0.0,12.0,0.0,-0.15745122666666667,-0.17876301333333336,0.9754426533333332,2.9622395866666675,-1.801757773333333,1.024576813333333,0.7795387269816147,-0.3096994676488601,-4.365747801958015,8.895512565802596,12.154586951086127,-16.874732444416193,22.61903452472049,-2.294705600821778,22.34832941764236,-2.314136526965393,-0.17580077333333333,-0.10126598666666661,0.46498734666666686,0.7420541066666668,0.5073203568952054,0.7026651508941952,0.6950236178958161,0.6926560866131876
LBP05_S11,LBP05,-1520,131,11,130,-1520,1715805060.2,2024-05-15 20:31:00.200000+00:00,2024-05-16 05:31:00.200000+09:00,2024,5,15,20,31,0,200,,,,,,,,,-0.880127,-0.326416,1.788574,6.103516,-69.091797,-5.065918,,,,,,,,,,,0.0,1.0,1.0,11.0,0.0,0.0,0.0,12.0,0.0,-0.15472662666666667,-0.17826170666666666,0.9877375733333335,3.127441413333334,-0.3035481333333328,1.2296549466666662,0.37148232279409266,-0.9643293492831452,-3.26120284496846,8.91037185871436,12.116013777114802,-17.00518055821493,22.701733024711913,-2.2875669867708366,22.50804895097329,-2.3073134901131707,-0.7254003733333333,-0.14815429333333333,0.8008364266666667,1.6743910933333332,1.0906394356254838,0.7063811973678301,0.7110351065080479,0.7009539043381917
LBP05_S11,LBP05,-1519,132,11,131,-1519,1715805060.24,2024-05-15 20:31:00.240000+00:00,2024-05-16 05:31:00.240000+09:00,2024,5,15,20,31,0,240,,,,,,,,,-0.139404,-0.222656,1.573975,35.705566,-117.370605,1.159668,,,,,,,,,,,0.0,1.0,1.0,11.0,0.0,0.0,0.0,12.0,0.0,-0.16868170666666665,-0.17554034666666665,0.9785709066666666,3.1095377733333334,1.7236328533333338,0.8707682266666664,0.10965813959160414,-0.7157348520085822,-2.1487852062930397,8.914758184298023,12.087384383034458,-17.09113196646665,22.752682624317337,-2.3368694763497566,22.638482568116036,-2.3061276353802147,0.029277706666666653,-0.04711565333333334,0.5954040933333333,0.6717974533333333,0.5979825275497395,0.7027732048120856,0.7058250733551386,0.6976735466976678
LBP05_S11,LBP05,-1518,133,11,132,-1518,1715805060.28,2024-05-15 20:31:00.280000+00:00,2024-05-16 05:31:00.280000+09:00,2024,5,15,20,31,0,280,,,,,,,,,-0.163818,-0.041992,0.717773,-5.371094,126.77002,13.122559,,,,,,,,,,,0.0,1.0,1.0,11.0,0.0,0.0,0.0,12.0,0.0,-0.17182949333333333,-0.17656248,0.9659569733333332,1.7993164266666672,-0.3409830266666661,0.786946613333333,-0.00823111327278651,0.2818898663953867,-1.2013688555594966,8.914428939767111,12.098659977690273,-17.139186720689032,22.794655909325876,-2.3430378229327418,22.742764697219176,-2.3070994124614246,0.008011493333333342,0.13457048,-0.2481839733333332,0.39076594666666653,0.28243350143419793,0.685083081577892,0.6938867605784829,0.6918758591764367
LBP05_S11,LBP05,-1517,134,11,133,-1517,1715805060.32,2024-05-15 20:31:00.320000+00:00,2024-05-16 05:31:00.320000+09:00,2024,5,15,20,31,0,320,,,,,,,,,-0.261475,-0.30249,0.059326,-102.966309,0.244141,-1.77002,,,,,,,,,,,0.0,1.0,1.0,11.0,0.0,0.0,0.0,12.0,0.0,-0.155739,-0.1747590933333333,0.9533625733333332,1.119791693333334,-1.0538736533333326,1.2003580666666664,0.017922848925698575,1.6746515571828389,-0.484613259121306,8.91514585372414,12.165646039977586,-17.158571251053885,22.84511625141553,-2.300375806194601,22.82422468469441,-2.3094884502758517,-0.10573600000000002,-0.12773090666666667,-0.8940365733333332,1.12750348,0.9092836084915956,0.7022033924171428,0.705528357027155,0.6955766251435717
LBP05_S11,LBP05,-1516,135,11,134,-1516,1715805060.36,2024-05-15 20:31:00.360000+00:00,2024-05-16 05:31:00.360000+09:00,2024,5,15,20,31,0,360,,,,,,,,,0.118896,-0.060547,0.380615,56.091309,-66.650391,-4.577637,,,,,,,,,,,0.0,1.0,1.0,11.0,0.0,0.0,0.0,12.0,0.0,-0.1499414666666667,-0.17367185333333332,0.9474250666666666,1.4501953466666673,1.6048177466666673,1.5828450399999996,0.1516764490735165,3.033964320172397,0.054713589064067425,8.92121291168708,12.287004612784482,-17.15638270749132,22.91069596882964,-2.2850523773673395,22.88565384524012,-2.313121839668816,0.2688374666666667,0.11312485333333333,-0.5668100666666667,0.9487723866666666,0.6374515413740173,0.683404810693477,0.6973336741267571,0.6981734767500711
LBP05_S11,LBP05,-1515,136,11,135,-1515,1715805060.4,2024-05-15 20:31:00.400000+00:00,2024-05-16 05:31:00.400000+09:00,2024,5,15,20,31,0,400,,,,,,,,,0.486328,-0.084229,1.000977,18.554688,39.733887,-4.455566,,,,,,,,,,,0.0,1.0,1.0,11.0,0.0,0.0,0.0,12.0,0.0,-0.1649968,-0.17445310666666666,0.9532291066666668,1.024576853333334,0.7055664533333339,1.45833332,0.3247902190842985,4.003396725535706,0.5575088740927671,8.934204520450452,12.44714048180591,-17.13408235252761,22.985388720886295,-2.3291986762624863,22.928889440321207,-2.3189475564428212,0.6513248,0.09022410666666666,0.04774789333333318,0.7892967999999999,0.6592755462146381,0.6833887818211715,0.6965105943557737,0.6933860431678074
LBP05_S11,LBP05,-1514,137,11,136,-1514,1715805060.44,2024-05-15 20:31:00.440000+00:00,2024-05-16 05:31:00.440000+09:00,2024,5,15,20,31,0,440,,,,,,,,,-0.54834,-0.389893,1.52002,8.300781,112.365723,5.187988,,,,,,,,,,,0.0,1.0,1.0,11.0,0.0,0.0,0.0,12.0,0.0,-0.16319666666666668,-0.18120114666666667,0.9765396533333334,1.434733093333334,-2.4308267733333326,1.6471353999999998,0.4904960049387021,4.405183822437424,1.1934836974481169,8.953824360648,12.623347834703408,-17.086343004629686,23.053481266591877,-2.3055319587002168,22.954549620566418,-2.3204458343168484,-0.3851433333333334,-0.20869185333333332,0.5434803466666666,1.1373155333333331,0.6980390849169785,0.7043522839482615,0.6968327012753782,0.6916490802454359
LBP05_S11,LBP05,-1513,138,11,137,-1513,1715805060.48,2024-05-15 20:31:00.480000+00:00,2024-05-16 05:31:00.480000+09:00,2024,5,15,20,31,0,480,,,,,,,,,-0.804688,-0.507324,1.799072,-2.319336,-81.115723,-5.187988,,,,,,,,,,,0.0,1.0,1.0,11.0,0.0,0.0,0.0,12.0,0.0,-0.16233404,-0.18134112,0.9877343199999999,1.7675781466666676,-0.7543944799999994,1.6813150933333332,0.6779495038215783,4.266007907500204,2.097828348188729,8.980942340800862,12.793988151003417,-17.002429870702137,23.096018696843615,-2.3025603506847405,22.96185835089151,-2.3163068171641146,-0.6423539599999999,-0.32598288,0.8113376800000001,1.77967452,1.0849664874863916,0.708410185873102,0.7122412875556893,0.7026879476982495
LBP05_S11,LBP05,-1512,139,11,138,-1512,1715805060.52,2024-05-15 20:31:00.520000+00:00,2024-05-16 05:31:00.520000+09:00,2024,5,15,20,31,0,520,,,,,,,,,-0.147705,-0.153809,1.598389,34.851074,-94.055176,7.446289,,,,,,,,,,,0.0,1.0,1.0,11.0,0.0,0.0,0.0,12.0,0.0,-0.17308924,-0.17665362666666665,0.9775650533333333,1.326497413333334,0.5777995333333339,1.3981119733333331,0.9918246063796874,3.756125485846151,3.3228797185885752,9.020615325056049,12.944233170437263,-16.869514681958595,23.097731464758635,-2.3463193406036593,22.948637116497775,-2.31485226606049,0.025384240000000002,0.022844626666666645,0.6208239466666667,0.6690528133333333,0.6217625023774699,0.7062149208646964,0.7056459016547026,0.6984020700522044
LBP05_S11,LBP05,-1511,140,11,139,-1511,1715805060.56,2024-05-15 20:31:00.560000+00:00,2024-05-16 05:31:00.560000+09:00,2024,5,15,20,31,0,560,,,,,,,,,-0.202393,-0.049072,0.62085,-20.935059,131.286621,7.995605,,,,,,,,,,,0.0,1.0,1.0,11.0,0.0,0.0,0.0,12.0,0.0,-0.17396489333333331,-0.17513018666666666,0.9623827599999999,-0.07242835999999926,-1.8815103733333332,1.2288411333333331,1.5410413457328604,3.0822827955460506,4.815351068429022,9.082256978885363,13.067524482259104,-16.676900639221433,23.051390475531345,-2.352962768561835,22.911598089430207,-2.3160152251296466,-0.028428106666666675,0.12605818666666666,-0.3415327599999999,0.4960190533333332,0.3651622239875821,0.6897767027975693,0.6970304812304232,0.693914896737822
LBP05_S11,LBP05,-1510,141,11,140,-1510,1715805060.6,2024-05-15 20:31:00.600000+00:00,2024-05-16 05:31:00.600000+09:00,2024,5,15,20,31,0,600,,,,,,,,,-0.314209,-0.140869,0.062256,-71.472168,-9.82666,-5.187988,,,,,,,,,,,0.0,1.0,1.0,11.0,0.0,0.0,0.0,12.0,0.0,-0.15818364000000001,-0.17672522666666668,0.94893224,-0.8341471066666659,-1.9596353733333327,1.822916653333333,2.334094147628737,2.397816825707967,6.4220255402515605,9.175620744790512,13.163437155287424,-16.42001961761137,22.958334827164048,-2.3025497655111056,22.847013393907652,-2.318799760482979,-0.15602536,0.035856226666666685,-0.88667624,1.0785578266666667,0.9010129502590063,0.7074475323388326,0.7093026191619832,0.6965298702347192
LBP05_S11,LBP05,-1509,142,11,141,-1509,1715805060.64,2024-05-15 20:31:00.640000+00:00,2024-05-16 05:31:00.640000+09:00,2024,5,15,20,31,0,640,,,,,,,,,0.234863,-0.13916,0.47168,25.32959,-75.378418,7.141113,,,,,,,,,,,0.0,1.0,1.0,11.0,0.0,0.0,0.0,12.0,0.0,-0.15377934666666665,-0.17432613333333333,0.94294592,-0.5891926799999994,1.0636393733333338,2.3022460799999998,3.2120851631750855,1.7640250724171838,7.9223058934078825,9.304104151317516,13.23399815818411,-16.103127381875055,22.825769927568235,-2.29547930482242,22.751649509376282,-2.3212731384764806,0.38864234666666664,0.03516613333333332,-0.47126592,0.8950743999999999,0.6118587238159129,0.6881933507066225,0.6995095692063685,0.6992050443175662
LBP05_S11,LBP05,-1508,143,11,142,-1508,1715805060.68,2024-05-15 20:31:00.680000+00:00,2024-05-16 05:31:00.680000+09:00,2024,5,15,20,31,0,680,,,,,,,,,0.547607,-0.036133,0.836914,10.314941,11.291504,14.831543,,,,,,,,,,,0.0,1.0,1.0,11.0,0.0,0.0,0.0,12.0,0.0,-0.16651697333333335,-0.17632482666666666,0.9516861600000001,-0.44840491999999915,-0.13427729333333305,2.3242187466666664,3.8807631390054755,1.1561103708710652,9.082240296007244,9.459334676877734,13.280242573018953,-15.739837770034764,22.66244356538852,-2.328492311896501,22.62364014314523,-2.32609145283341,0.7141239733333333,0.14019182666666666,-0.11477216000000001,0.96908796,0.736749242459461,0.6918336572949744,0.7000636002875334,0.69601566074154
LBP05_S11,LBP05,-1507,144,11,143,-1507,1715805060.72,2024-05-15 20:31:00.720000+00:00,2024-05-16 05:31:00.720000+09:00,2024,5,15,20,31,0,720,,,,,,,,,-0.35083,-0.360352,1.472168,43.09082,120.056152,17.944336,,,,,,,,,,,0.0,1.0,1.0,11.0,0.0,0.0,0.0,12.0,0.0,-0.16643884,-0.18235346666666666,0.9755989200000001,0.06673180000000076,-2.7294921333333333,2.3681640666666666,4.0442466326075746,0.4949510508473418,9.718196935045325,9.621104542182037,13.300040615052847,-15.351109892632952,22.474725980739883,-2.312005396886162,22.46292866199068,-2.3248718273848104,-0.18439115999999997,-0.17799853333333335,0.4965690799999998,0.858958773333333,0.5588062535145876,0.7054253755910548,0.6963142765617338,0.6943751796100937
LBP05_S11,LBP05,-1506,145,11,144,-1506,1715805060.76,2024-05-15 20:31:00.760000+00:00,2024-05-16 05:31:00.760000+09:00,2024,5,15,20,31,0,760,,,,,,,,,-0.844727,-0.339111,1.746582,-5.737305,-59.143066,6.591797,,,,,,,,,,,0.0,1.0,1.0,11.0,0.0,0.0,0.0,12.0,0.0,-0.16515302666666667,-0.18059240000000001,0.9850878533333334,-0.46874997333333257,-1.1336262533333332,2.365722666666666,3.57187869155689,-0.316482298862503,9.750926929345189,9.763979689844312,13.287381323098346,-14.961072815459143,22.264849013604056,-2.3128977309006653,22.271139965660748,-2.319466405253274,-0.6795739733333334,-0.15851859999999998,0.7614941466666667,1.59958672,1.0328708860189684,0.704802384346604,0.7087083840717251,0.705637218445447
LBP05_S11,LBP05,-1505,146,11,145,-1505,1715805060.8,2024-05-15 20:31:00.800000+00:00,2024-05-16 05:31:00.800000+09:00,2024,5,15,20,31,0,800,,,,,,,,,-0.210449,-0.297607,1.689697,44.006348,-110.839844,17.089844,,,,,,,,,,,0.0,1.0,1.0,11.0,0.0,0.0,0.0,12.0,0.0,-0.17781253333333336,-0.17864578666666667,0.9752245733333332,-0.6559244533333325,-0.042317653333333094,1.752929693333333,2.6008413307412384,-1.3737611086954404,9.229712153871189,9.868013343073962,13.23243087875053,-14.591884329304296,22.031749875572583,-2.353932456197502,22.051087323845785,-2.3157988569908623,-0.03263646666666664,-0.11896121333333334,0.7144724266666668,0.8660701066666667,0.7250432798814005,0.7052609782656887,0.7037533757398997,0.7024122355284846
LBP05_S11,LBP05,-1504,147,11,146,-1504,1715805060.84,2024-05-15 20:31:00.840000+00:00,2024-05-16 05:31:00.840000+09:00,2024,5,15,20,31,0,840,,,,,,,,,-0.197021,-0.108643,0.66333,1.89209,108.947754,11.352539,,,,,,,,,,,0.0,1.0,1.0,11.0,0.0,0.0,0.0,12.0,0.0,-0.17605146666666666,-0.17695633333333333,0.9594303066666666,-1.6910807066666658,-2.3404947333333332,1.5543619866666665,1.5099091780280587,-2.766596894913995,8.315763074682456,9.928409710195083,13.12176700295397,-14.259253806316998,21.773387604281364,-2.3537151022695095,21.80631881541128,-2.317807307488846,-0.020969533333333346,0.06831333333333332,-0.29610030666666665,0.38538317333333333,0.3046010906865288,0.6836604330678613,0.6931631725820699,0.6959496800088812
LBP05_S11,LBP05,-1503,148,11,147,-1503,1715805060.88,2024-05-15 20:31:00.880000+00:00,2024-05-16 05:31:00.880000+09:00,2024,5,15,20,31,0,880,,,,,,,,,-0.300049,-0.017334,-0.058594,-66.040039,4.516602,-4.821777,,,,,,,,,,,0.0,1.0,1.0,11.0,0.0,0.0,0.0,12.0,0.0,-0.1569792,-0.17988601333333332,0.9472883866666668,-2.3331705599999992,-2.172037706666666,2.141927093333333,0.7691178410005285,-4.561804031787288,7.2299278494031265,9.959174423835105,12.939294841682479,-13.970056692340874,21.488903885298107,-2.2903640961987457,21.541020810158948,-2.3201240063306594,-0.1430698,0.16255201333333333,-1.0058823866666669,1.3115042000000001,1.0289273543438282,0.7037536657213405,0.7054577707206718,0.699199873487365
LBP05_S11,LBP05,-1502,149,11,148,-1502,1715805060.92,2024-05-15 20:31:00.920000+00:00,2024-05-16 05:31:00.920000+09:00,2024,5,15,20,31,0,920,,,,,,,,,0.037109,-0.183105,0.302734,-11.047363,-83.312988,-5.615234,,,,,,,,,,,0.0,1.0,1.0,11.0,0.0,0.0,0.0,12.0,0.0,-0.15345054666666666,-0.17512038666666666,0.94277992,-1.4933267999999993,1.112467506666667,2.7058919333333327,0.7381433656486847,-6.760647486643814,6.184876773658228,9.988700158461052,12.668868942216726,-13.722661621394545,21.179844501459357,-2.2922651192882917,21.260296699788206,-2.3245170399398143,0.19055954666666666,-0.007984613333333335,-0.6400459199999999,0.8385900799999999,0.6678588732543236,0.6929778617726621,0.6997754916160975,0.7022487448241137
LBP05_S11,LBP05,-1501,150,11,149,-1501,1715805060.96,2024-05-15 20:31:00.960000+00:00,2024-05-16 05:31:00.960000+09:00,2024,5,15,20,31,0,960,,,,,,,,,0.556396,-0.178467,0.767578,12.878418,-2.075195,7.995605,,,,,,,,,,,0.0,1.0,1.0,11.0,0.0,0.0,0.0,12.0,0.0,-0.16330081333333335,-0.17733393333333333,0.9546907333333333,-1.4933267999999993,-0.39550774666666655,2.737630213333333,1.5166314987199347,-9.24970993802607,5.329286913440089,10.049365418409849,12.298880544695683,-13.509490144856942,20.850864057381713,-2.3162872859377197,20.970546486685556,-2.330139786405586,0.7196968133333334,-0.0011330666666666545,-0.18711273333333334,0.9079426133333334,0.7436235350886208,0.6952210840360862,0.700009101708459,0.7006202061846538
LBP05_S11,LBP05,-1500,151,11,150,-1500,1715805061.0,2024-05-15 20:31:01+00:00,2024-05-16 05:31:01+09:00,2024,5,15,20,31,1,0,20.0,31.0,1.0,40.611172,141.576736,20.75,3.0,9.0,-0.226318,-0.286377,1.384277,-1.831055,100.952148,12.512207,-576.0,58.0,547.0,34.0,0.0,1019.299988,16.6,0.062432,-50.219452,3.747656,0.0,1.0,1.0,11.0,0.0,0.0,0.0,12.0,0.0,-0.16662438666666668,-0.17857415999999998,0.9780403466666666,-0.24820961333333258,-2.3999022799999996,2.6977539066666663,2.9198442142899834,-11.773017160480588,4.725123729212995,10.166159186981448,11.82795985827646,-13.320485195688422,20.510649742818998,-2.322634270490948,20.679580314721008,-2.331443159811015,-0.05969361333333331,-0.10780284000000001,0.40623665333333336,0.5737331066666667,0.42451501539559466,0.7028016657593118,0.6961590659001723,0.6959869436598418
LBP05_S11,LBP05,-1499,152,11,151,-1499,1715805061.04,2024-05-15 20:31:01.040000+00:00,2024-05-16 05:31:01.040000+09:00,2024,5,15,20,31,1,40,,,,,,,,,-1.022217,-0.319092,1.69873,24.780273,-53.283691,4.760742,,,,,,,,,,,0.0,1.0,1.0,11.0,0.0,0.0,0.0,12.0,0.0,-0.16516932,-0.17846673333333332,0.9897428133333334,0.16194664000000075,-0.6901040933333334,2.644856773333333,4.579500960691597,-13.94840451912739,4.360342995676877,10.349339225409112,11.270023677511364,-13.146071475861346,20.172789875044895,-2.3186462932405503,20.396237138287248,-2.3281075808617953,-0.85704768,-0.14062526666666667,0.7089871866666667,1.7066601333333333,1.12114629833754,0.7049150966835444,0.710457583195743,0.7079198928333682
LBP05_S11,LBP05,-1498,153,11,152,-1498,1715805061.08,2024-05-15 20:31:01.080000+00:00,2024-05-16 05:31:01.080000+09:00,2024,5,15,20,31,1,80,,,,,,,,,-0.23584,-0.146973,1.585205,44.98291,-132.446289,11.474609,,,,,,,,,,,0.0,1.0,1.0,11.0,0.0,0.0,0.0,12.0,0.0,-0.18131190666666666,-0.17533197333333334,0.97958656,0.23844402666666734,0.6754557999999999,2.1044921866666666,6.103021051971711,-15.342240502331835,4.180858836717847,10.59346006748798,10.656334057418091,-12.978837122392632,19.855202461681124,-2.3724226479880444,20.129542700256376,-2.327912984119986,-0.05452809333333333,0.028358973333333343,0.60561844,0.6885055066666667,0.6087292002188847,0.7034967336449434,0.7034409567395152,0.7034326114304664
LBP05_S11,LBP05,-1497,154,11,153,-1497,1715805061.12,2024-05-15 20:31:01.120000+00:00,2024-05-16 05:31:01.120000+09:00,2024,5,15,20,31,1,120,,,,,,,,,-0.095703,-0.102539,0.724609,8.239746,85.083008,9.94873,,,,,,,,,,,0.0,1.0,1.0,11.0,0.0,0.0,0.0,12.0,0.0,-0.17904302666666666,-0.17464187999999997,0.9644010133333334,-0.9765624799999993,-1.676432226666667,2.0076497466666665,7.203990262509687,-15.585859849944177,4.1205620646849646,10.881619677988368,10.032899663420324,-12.814014639805233,19.577223849713377,-2.368232861543886,19.88768800047955,-2.3330160509459397,0.08334002666666666,0.07210287999999997,-0.23979201333333344,0.39523492000000005,0.2639026241012936,0.68735848574917,0.690893393739358,0.6962414201002215
LBP05_S11,LBP05,-1496,155,11,154,-1496,1715805061.16,2024-05-15 20:31:01.160000+00:00,2024-05-16 05:31:01.160000+09:00,2024,5,15,20,31,1,160,,,,,,,,,-0.210449,0.046631,-0.065186,-24.536133,14.343262,-17.272949,,,,,,,,,,,0.0,1.0,1.0,11.0,0.0,0.0,0.0,12.0,0.0,-0.16127609333333334,-0.17166336000000001,0.9511327866666667,-1.1523437333333326,-1.3802082666666668,2.045898453333333,7.747564741596002,-14.485216740498196,4.11804183791904,11.191522267652209,9.453490993800395,-12.64929296628847,19.355187293958572,-2.3259314649549494,19.677204116128244,-2.3380197163867056,-0.049172906666666655,0.21829436000000002,-1.0163187866666668,1.2837860533333334,1.0406605010710572,0.708692091516204,0.7056786212051998,0.6995797757692789
LBP05_S11,LBP05,-1495,156,11,155,-1495,1715805061.2,2024-05-15 20:31:01.200000+00:00,2024-05-16 05:31:01.200000+09:00,2024,5,15,20,31,1,200,,,,,,,,,0.006836,-0.06665,0.198486,-10.253906,-91.369629,-5.371094,,,,,,,,,,,0.0,1.0,1.0,11.0,0.0,0.0,0.0,12.0,0.0,-0.15988286666666668,-0.17207352,0.94800128,-1.3411458266666658,1.7073568266666665,2.080891946666666,7.7156271947934645,-12.083410274067905,4.124214018227839,11.500147355443948,8.97015458283768,-12.484324405559358,19.198318111234986,-2.3205766667053083,19.50257031804445,-2.345196964379494,0.1667188666666667,0.10542352,-0.74951528,1.0216576666666666,0.7750370662266978,0.6960679967402525,0.7012245970540414,0.7060460699187828
LBP05_S11,LBP05,-1494,157,11,156,-1494,1715805061.24,2024-05-15 20:31:01.240000+00:00,2024-05-16 05:31:01.240000+09:00,2024,5,15,20,31,1,240,,,,,,,,,0.508057,-0.279785,0.667725,-24.902344,-49.377441,19.287109,,,,,,,,,,,0.0,1.0,1.0,11.0,0.0,0.0,0.0,12.0,0.0,-0.17198246666666667,-0.17356116,0.9599771866666666,-1.2573242133333327,0.1831055333333332,1.6910807466666664,7.148963503862195,-8.6639381299084,4.113128162746494,11.786105895598435,8.623597057641343,-12.319799279049498,19.10644322397262,-2.351769134851416,19.3662063644108,-2.3517971268919498,0.6800394666666667,-0.10622384000000001,-0.29225218666666664,1.0785154933333332,0.7477623426063111,0.7020591893425154,0.7024161970773006,0.7045697786842643
LBP05_S11,LBP05,-1493,158,11,157,-1493,1715805061.28,2024-05-15 20:31:01.280000+00:00,2024-05-16 05:31:01.280000+09:00,2024,5,15,20,31,1,280,,,,,,,,,0.023438,-0.050781,1.162109,31.860352,96.435547,18.554688,,,,,,,,,,,0.0,1.0,1.0,11.0,0.0,0.0,0.0,12.0,0.0,-0.17323898666666668,-0.17861325333333333,0.9835644266666667,-0.668131506666666,-2.2005207733333334,1.8164062666666663,6.128393880874841,-4.692612864125728,4.100003037502628,12.03124165083343,8.435892543076314,-12.155799157549392,19.070356887529876,-2.3413947644582844,19.2686067149424,-2.3548423035384634,0.19667698666666666,0.12783225333333334,0.1785445733333334,0.5030538133333334,0.2947899027160526,0.7025534453937897,0.6938182634858407,0.6967756555169184
LBP05_S11,LBP05,-1492,159,11,158,-1492,1715805061.32,2024-05-15 20:31:01.320000+00:00,2024-05-16 05:31:01.320000+09:00,2024,5,15,20,31,1,320,,,,,,,,,-0.671387,-0.216064,1.635986,61.706543,12.878418,3.662109,,,,,,,,,,,0.0,1.0,1.0,11.0,0.0,0.0,0.0,12.0,0.0,-0.17363286666666666,-0.17868161333333332,0.9936002399999999,-1.040039066666666,-0.4231770266666668,1.921386733333333,4.807735927514603,-0.7070831269049768,4.152644915879863,12.223551087934014,8.407609218000115,-11.989693360914197,19.0750056579463,-2.34230177369595,19.208416758226672,-2.351503809780259,-0.4977541333333333,-0.037382386666666684,0.64238576,1.17752228,0.8135207955142213,0.6987229328746946,0.7004631626459188,0.7032598823096682
LBP05_S11,LBP05,-1491,160,11,159,-1491,1715805061.36,2024-05-15 20:31:01.360000+00:00,2024-05-16 05:31:01.360000+09:00,2024,5,15,20,31,1,360,,,,,,,,,-0.346191,-0.429199,1.665039,8.361816,-96.679688,7.995605,,,,,,,,,,,0.0,1.0,1.0,11.0,0.0,0.0,0.0,12.0,0.0,-0.18716152,-0.17521806666666664,0.98274412,-1.3639322933333327,0.42236333333333326,1.7496744933333328,3.4487751617752487,2.8081578421921973,4.375103787291575,12.361502094405024,8.519935531687803,-11.814689209422534,19.10452607654378,-2.3880597658656004,19.182409015430075,-2.350117457732197,-0.15902948000000003,-0.2539809333333334,0.6822948799999999,1.0953052933333334,0.7451999686528146,0.7030328699658466,0.6932188403296619,0.6992334060731203
LBP05_S11,LBP05,-1490,161,11,160,-1490,1715805061.4,2024-05-15 20:31:01.400000+00:00,2024-05-16 05:31:01.400000+09:00,2024,5,15,20,31,1,400,,,,,,,,,0.140381,0.004639,0.939453,3.845215,60.424805,-0.854492,,,,,,,,,,,0.0,1.0,1.0,11.0,0.0,0.0,0.0,12.0,0.0,-0.18413742666666666,-0.17218096,0.9659114399999998,-1.5283203066666657,-2.282714786666667,1.440429693333333,2.3889316843691515,5.514102474876507,4.857615387930828,12.45705936177979,8.740499630682864,-11.620384593905301,19.147010206482484,-2.388635895615508,19.185421694495883,-2.3518323437482413,0.32451842666666664,0.17681996,-0.02645843999999986,0.5277968266666665,0.3705098602572459,0.691482242527551,0.6874355121743612,0.6948344770796994
LBP05_S11,LBP05,-1489,162,11,161,-1489,1715805061.44,2024-05-15 20:31:01.440000+00:00,2024-05-16 05:31:01.440000+09:00,2024,5,15,20,31,1,440,,,,,,,,,-0.459229,0.175781,0.035889,-48.76709,69.152832,-23.864746,,,,,,,,,,,0.0,1.0,1.0,11.0,0.0,0.0,0.0,12.0,0.0,-0.16815436,-0.17063474666666667,0.9517708133333334,-2.1573893199999996,-2.4666340666666673,1.4713541733333328,1.9201124551993118,7.2559132042592775,5.613869380166707,12.533863859987761,9.030736158853236,-11.395829818698633,19.196793380360884,-2.349098059705688,19.210373990085944,-2.3541493515786422,-0.29107464,0.34641574666666664,-0.9158818133333334,1.5533722,1.0215516685829007,0.7044227458741879,0.7043875149112248,0.6993627161416481
LBP05_S11,LBP05,-1488,163,11,162,-1488,1715805061.48,2024-05-15 20:31:01.480000+00:00,2024-05-16 05:31:01.480000+09:00,2024,5,15,20,31,1,480,,,,,,,,,0.015381,-0.416992,0.28418,-44.189453,-62.988281,1.281738,,,,,,,,,,,0.0,1.0,1.0,11.0,0.0,0.0,0.0,12.0,0.0,-0.16358729333333333,-0.16947914666666666,0.9462727599999999,-2.555338533333333,-0.08544917333333349,1.4347330799999998,2.1368393652552005,8.050756020355037,6.5437249371594195,12.61933743459797,9.352766399667438,-11.134080821212256,19.253302894523852,-2.3390377104060023,19.248497734775224,-2.357760488615817,0.17896829333333333,-0.2475128533333333,-0.66209276,1.0885739066666666,0.7291495631406987,0.69019006890036,0.699300127386731,0.7048908813372462
LBP05_S11,LBP05,-1487,164,11,163,-1487,1715805061.52,2024-05-15 20:31:01.520000+00:00,2024-05-16 05:31:01.520000+09:00,2024,5,15,20,31,1,520,,,,,,,,,0.465332,-0.0354,0.68042,20.324707,-39.794922,23.254395,,,,,,,,,,,0.0,1.0,1.0,11.0,0.0,0.0,0.0,12.0,0.0,-0.17158534666666667,-0.17223305333333333,0.9584863066666666,-1.8432617066666659,-1.3460286000000001,1.2784830799999998,2.8549107711728223,8.035420476775446,7.451392731251464,12.733533865444883,9.674183218738456,-10.836025111962197,19.317146421747385,-2.3543693410632605,19.289846834904463,-2.3612340449674245,0.6369173466666667,0.13683305333333334,-0.27806630666666654,1.0518167066666666,0.7083133924137467,0.6936521045018113,0.6999335126832539,0.7016479692704055
LBP05_S11,LBP05,-1486,165,11,164,-1486,1715805061.56,2024-05-15 20:31:01.560000+00:00,2024-05-16 05:31:01.560000+09:00,2024,5,15,20,31,1,560,,,,,,,,,0.065186,-0.208496,1.213379,29.602051,106.750488,35.522461,,,,,,,,,,,0.0,1.0,1.0,11.0,0.0,0.0,0.0,12.0,0.0,-0.17466802666666667,-0.17946286666666666,0.9837206799999999,-1.0099283733333326,-2.932942666666667,1.6967773599999996,3.667368129745362,7.395978715081124,8.116534379499756,12.880228590634697,9.9700223673417,-10.511363736782206,19.385314084616667,-2.3430803251153955,19.323958479875802,-2.3609969619218285,0.23985402666666666,-0.029033133333333322,0.22965832000000008,0.4985454800000001,0.33334039791868547,0.6923792314590554,0.6910779671283123,0.6954800646399671
LBP05_S11,LBP05,-1485,166,11,165,-1485,1715805061.6,2024-05-15 20:31:01.600000+00:00,2024-05-16 05:31:01.600000+09:00,2024,5,15,20,31,1,600,,,,,,,,,-0.799561,-0.278809,1.665771,31.188965,9.033203,5.126953,,,,,,,,,,,0.0,1.0,1.0,11.0,0.0,0.0,0.0,12.0,0.0,-0.17370773333333334,-0.17822589333333333,0.9944368266666667,-0.9008788933333326,-1.4388020400000001,2.1679687599999995,4.115417194513497,6.307630081657234,8.379699695261438,13.044845278415238,10.22232757060799,-10.17617574897175,19.447841067135585,-2.3437467450093177,19.34040300548511,-2.35543165113731,-0.6258532666666666,-0.10058310666666664,0.6713341733333332,1.3977705466666666,0.9233086401790063,0.6932710590558554,0.7003592956973439,0.7039587657932739
LBP05_S11,LBP05,-1484,167,11,166,-1484,1715805061.64,2024-05-15 20:31:01.640000+00:00,2024-05-16 05:31:01.640000+09:00,2024,5,15,20,31,1,640,,,,,,,,,-0.517334,-0.296387,1.827393,28.747559,-110.168457,4.150391,,,,,,,,,,,0.0,1.0,1.0,11.0,0.0,0.0,0.0,12.0,0.0,-0.1869694533333333,-0.17510414666666665,0.9830370800000001,-1.1832682133333325,-0.17415360000000002,1.8912760399999995,3.876434185480983,4.898879437033659,8.193543218346445,13.199902645834477,10.418282748089336,-9.84843402023789,19.487680670865455,-2.3878805052231646,19.32902658108022,-2.351700648146213,-0.33036454666666665,-0.12128285333333336,0.8443559199999999,1.29600332,0.9147607249144408,0.7053871390997964,0.6967902449032094,0.7014687591708445
LBP05_S11,LBP05,-1483,168,11,167,-1483,1715805061.68,2024-05-15 20:31:01.680000+00:00,2024-05-16 05:31:01.680000+09:00,2024,5,15,20,31,1,680,,,,,,,,,0.050781,-0.151123,1.185303,-3.845215,37.902832,5.79834,,,,,,,,,,,0.0,1.0,1.0,11.0,0.0,0.0,0.0,12.0,0.0,-0.18354497333333333,-0.17612628,0.9680175466666666,-1.7065429466666657,-2.278645786666667,1.9514973866666665,2.8641725309781156,3.2447704098496417,7.616826438572319,13.314469547073601,10.548073564483321,-9.543760962694998,19.483847888822247,-2.376130327974357,19.279940129766548,-2.353021164609016,0.23432597333333333,0.02500327999999999,0.21728545333333338,0.4766147066666667,0.3205414076521856,0.6887388257075056,0.6902862415012399,0.6962886754275242
LBP05_S11,LBP05,-1482,169,11,168,-1482,1715805061.72,2024-05-15 20:31:01.720000+00:00,2024-05-16 05:31:01.720000+09:00,2024,5,15,20,31,1,720,,,,,,,,,-0.502686,0.075928,0.045898,-18.859863,93.261719,-19.042969,,,,,,,,,,,0.0,1.0,1.0,11.0,0.0,0.0,0.0,12.0,0.0,-0.16662765333333332,-0.17231442666666666,0.9540885066666668,-1.4900715999999992,-1.6577148,2.0328775999999995,1.1973169803925652,1.3964859173199535,6.767474763326803,13.362362226289305,10.603933001176118,-9.273061972161926,19.416122107659678,-2.339930943239991,19.183555210021552,-2.3551395496058882,-0.3360583466666667,0.24824242666666665,-0.9081905066666668,1.49249128,0.9996847058753804,0.7063739638019371,0.705899669696496,0.6996675056418016
LBP05_S11,LBP05,-1481,170,11,169,-1481,1715805061.76,2024-05-15 20:31:01.760000+00:00,2024-05-16 05:31:01.760000+09:00,2024,5,15,20,31,1,760,,,,,,,,,-0.082764,-0.183838,0.315918,-47.058105,-61.706543,0.0,,,,,,,,,,,0.0,1.0,1.0,11.0,0.0,0.0,0.0,12.0,0.0,-0.16494797333333333,-0.17324868,0.9510416266666666,-1.5006510266666657,1.4705404,2.208658853333333,-0.9241057270199913,-0.5621925579331549,5.7734031452960215,13.325397997208505,10.581445298858792,-9.042125846350086,19.26897133263687,-2.3324066580204166,19.031023853616336,-2.3597580096507285,0.08218397333333333,-0.010589320000000013,-0.6351236266666667,0.7278969200000001,0.6405063312108131,0.690679381609611,0.6977408829781075,0.7026987165843537
LBP05_S11,LBP05,-1480,171,11,170,-1480,1715805061.8,2024-05-15 20:31:01.800000+00:00,2024-05-16 05:31:01.800000+09:00,2024,5,15,20,31,1,800,,,,,,,,,0.439453,-0.206543,0.792725,-12.207031,-35.766602,28.991699,,,,,,,,,,,0.0,1.0,1.0,11.0,0.0,0.0,0.0,12.0,0.0,-0.17418952,-0.17595050666666665,0.96356768,-1.3208007599999994,-0.2530924133333333,1.9840494666666662,-3.3427943740282857,-2.4709779831400214,4.751832667006153,13.191686222247373,10.482606179533192,-8.85205253966984,19.033245962433572,-2.351325865704533,18.815246917254825,-2.3643913722811774,0.61364252,-0.03059249333333336,-0.17084268000000002,0.8150776933333334,0.6377148769708002,0.6871862454931869,0.6962236118794377,0.6982309989909954
LBP05_S11,LBP05,-1479,172,11,171,-1479,1715805061.84,2024-05-15 20:31:01.840000+00:00,2024-05-16 05:31:01.840000+09:00,2024,5,15,20,31,1,840,,,,,,,,,-0.075195,-0.154541,1.302246,26.916504,96.130371,23.498535,,,,,,,,,,,0.0,1.0,1.0,11.0,0.0,0.0,0.0,12.0,0.0,-0.17745774666666664,-0.17523435999999998,0.98640948,0.5102539333333341,-2.1622721066666664,1.8562825466666664,-5.987381862805541,-4.09977629282802,3.8175407019965593,12.95219094773515,10.318615127820072,-8.699350911589978,18.705928867224184,-2.3623032243337216,18.532265783247176,-2.3654092567056897,0.10226274666666664,0.020693359999999966,0.31583652000000006,0.4387926266666667,0.3326237993132946,0.6883071538382575,0.6859837934530593,0.6915444996674658
LBP05_S11,LBP05,-1478,173,11,172,-1478,1715805061.88,2024-05-15 20:31:01.880000+00:00,2024-05-16 05:31:01.880000+09:00,2024,5,15,20,31,1,880,,,,,,,,,-0.959961,-0.206787,1.655762,-4.333496,-13.000488,-2.075195,,,,,,,,,,,0.0,1.0,1.0,11.0,0.0,0.0,0.0,12.0,0.0,-0.17819993333333334,-0.17672524,0.9959765466666666,0.021972680000000792,-0.7958983999999997,2.06542968,-8.817755271588382,-5.211776894258622,3.0919163891765593,12.599480736871616,10.110144052049728,-8.575674256022916,18.289453697073885,-2.360221560374725,18.18254482237031,-2.3614178987454655,-0.7817610666666666,-0.030061759999999993,0.6597854533333334,1.4716082799999999,1.0234114124829634,0.6880865161638229,0.6959200909425816,0.6996673525350555
LBP05_S11,LBP05,-1477,174,11,173,-1477,1715805061.92,2024-05-15 20:31:01.920000+00:00,2024-05-16 05:31:01.920000+09:00,2024,5,15,20,31,1,920,,,,,,,,,-0.366943,-0.523193,1.843018,25.939941,-151.550293,-6.225586,,,,,,,,,,,0.0,1.0,1.0,11.0,0.0,0.0,0.0,12.0,0.0,-0.19100917333333334,-0.17423825333333334,0.9832258933333332,-0.5566406133333325,-0.3857421599999998,1.8473307199999995,-11.727530690399236,-5.657545378969742,2.6832240277926322,12.130379509255647,9.883842236890938,-8.468345294911211,17.791832857695223,-2.400553941511662,17.771611631647943,-2.3599887435854483,-0.17593382666666668,-0.3489547466666667,0.8597921066666668,1.3846806800000002,0.9444387715850505,0.699149712097052,0.696063786934857,0.6995668984430824
LBP05_S11,LBP05,-1476,175,11,174,-1476,1715805061.96,2024-05-15 20:31:01.960000+00:00,2024-05-16 05:31:01.960000+09:00,2024,5,15,20,31,1,960,,,,,,,,,0.091064,-0.061768,1.100098,-4.760742,52.185059,-2.441406,,,,,,,,,,,0.0,1.0,1.0,11.0,0.0,0.0,0.0,12.0,0.0,-0.18390955999999997,-0.17169268000000001,0.9662857866666666,-0.9041340933333326,-2.8198242,1.7480468666666662,-14.487343467740253,-5.450837280433309,2.6370592184450476,11.550885770546037,9.665808745673607,-8.36286292617341,17.227544721001568,-2.3894139514198853,17.30982110512928,-2.3614101316753002,0.27497355999999995,0.10992468000000001,0.13381221333333337,0.5187104533333333,0.3249609244345257,0.6824032076708884,0.6888121458534873,0.6941404703626021
LBP05_S11,LBP05,-1475,176,11,175,-1475,1715805062.0,2024-05-15 20:31:02+00:00,2024-05-16 05:31:02+09:00,2024,5,15,20,31,2,0,20.0,31.0,2.0,40.61108,141.576736,20.937,3.0,9.0,-0.392822,0.205078,-0.018799,-47.119141,78.125,-22.399902,-577.0,53.0,549.0,55.0,0.0,1018.700012,16.66,0.056486,-45.25,3.747656,0.0,1.0,1.0,11.0,0.0,0.0,0.0,5.0,0.0,-0.1666244,-0.16740557333333336,0.9527083199999998,-0.817057266666666,-2.233886693333333,1.8424479066666664,-16.780482725107362,-4.772471502465689,2.8892321984830946,10.879666461541742,9.474909885574979,-8.247293638234085,16.618029727059074,-2.3539255892544375,16.811439786551443,-2.3647044752676605,-0.2261976,0.3724835733333334,-0.9715073199999998,1.5701884933333332,1.0647703223993947,0.7080134199510403,0.705407542855176,0.7001105172504616
LBP05_S11,LBP05,-1474,177,11,176,-1474,1715805062.04,2024-05-15 20:31:02.040000+00:00,2024-05-16 05:31:02.040000+09:00,2024,5,15,20,31,2,40,,,,,,,,,-0.16333,-0.159668,0.241455,-55.664062,-67.016602,-5.67627,,,,,,,,,,,0.0,1.0,1.0,11.0,0.0,0.0,0.0,5.0,0.0,-0.16461593333333333,-0.16743161333333334,0.9486262799999999,-0.8479817466666659,0.3157552400000003,1.7789713466666663,-18.314010910487454,-3.89049450306802,3.2626585179752614,10.147106025122245,9.319290105452259,-8.116787297515074,15.990471062096782,-2.347966925620925,16.293468276696892,-2.369380009674497,0.0012859333333333223,0.007763613333333336,-0.70717128,0.7162208266666666,0.7072150638761632,0.691456170572585,0.6981856336280647,0.7041237789880238
LBP05_S11,LBP05,-1473,178,11,177,-1473,1715805062.08,2024-05-15 20:31:02.080000+00:00,2024-05-16 05:31:02.080000+09:00,2024,5,15,20,31,2,80,,,,,,,,,0.428467,-0.29248,0.738037,-57.861328,-36.254883,30.700684,,,,,,,,,,,0.0,1.0,1.0,11.0,0.0,0.0,0.0,5.0,0.0,-0.17313154666666666,-0.17112628,0.9623925466666666,-0.14892574666666594,-1.5917968399999998,1.489257813333333,-18.930910876479697,-3.044535148053033,3.5269724531161186,9.389869590063057,9.197508699530138,-7.975708399390429,15.374515981598593,-2.361838776374189,15.774501630151747,-2.3726309736513542,0.6015985466666667,-0.12135372000000003,-0.22435554666666657,0.9473078133333332,0.6534393223776656,0.6932445754589364,0.6983706545519399,0.7000421629793223
LBP05_S11,LBP05,-1472,179,11,178,-1472,1715805062.12,2024-05-15 20:31:02.120000+00:00,2024-05-16 05:31:02.120000+09:00,2024,5,15,20,31,2,120,,,,,,,,,-0.037598,-0.214355,1.375977,41.320801,113.647461,36.865234,,,,,,,,,,,0.0,1.0,1.0,11.0,0.0,0.0,0.0,5.0,0.0,-0.17290693333333332,-0.1736393066666667,0.9830338266666666,0.8854167066666673,-3.2031249733333325,1.5144856799999997,-18.645518028303442,-2.3584926325699023,3.4974013200868224,8.64404886893092,9.103168994227342,-7.835812346586956,14.798216842473032,-2.3541448241385092,15.27367241135497,-2.3723852202813993,0.13530893333333333,-0.0407156933333333,0.3929431733333334,0.5689678,0.4175770738351048,0.6993915534482887,0.6933750195987295,0.6937261136423349
LBP05_S11,LBP05,-1471,180,11,179,-1471,1715805062.16,2024-05-15 20:31:02.160000+00:00,2024-05-16 05:31:02.160000+09:00,2024,5,15,20,31,2,160,,,,,,,,,-0.838623,-0.225586,1.681885,1.403809,-14.526367,3.78418,,,,,,,,,,,0.0,1.0,1.0,11.0,0.0,0.0,0.0,5.0,0.0,-0.17480472000000002,-0.17153644,0.9889127333333333,0.49072269333333407,-1.2679036133333326,1.4274088666666662,-17.583772580423656,-1.818620311645253,3.115482510066594,7.940697965713974,9.030424181761532,-7.711193046184293,14.285158146858524,-2.365350093944016,14.809574991699469,-2.3666443991474644,-0.66381828,-0.054049559999999996,0.6929722666666668,1.410840106666667,0.9611381930646029,0.6962106611280308,0.7024513763221174,0.70252263451281
LBP05_S11,LBP05,-1470,181,11,180,-1470,1715805062.2,2024-05-15 20:31:02.200000+00:00,2024-05-16 05:31:02.200000+09:00,2024,5,15,20,31,2,200,,,,,,,,,-0.399902,-0.41333,1.813721,9.277344,-139.404297,-9.94873,,,,,,,,,,,0.0,1.0,1.0,11.0,0.0,0.0,0.0,5.0,0.0,-0.18610354666666665,-0.17065428000000002,0.9773502400000001,-0.2815754799999993,-0.6835937199999995,0.970052093333333,-15.886495793984935,-1.3198644137722615,2.457763792934577,7.305238133954576,8.977629605210641,-7.612882494466909,13.853530863888073,-2.3980812097728985,14.399065966025239,-2.3642621540706235,-0.21379845333333333,-0.24267571999999996,0.8363707599999998,1.292844933333333,0.8967258956382497,0.7010782143044928,0.6985731055223726,0.7011758028041919
LBP05_S11,LBP05,-1469,182,11,181,-1469,1715805062.24,2024-05-15 20:31:02.240000+00:00,2024-05-16 05:31:02.240000+09:00,2024,5,15,20,31,2,240,,,,,,,,,0.067627,-0.043457,0.991699,-21.789551,59.936523,-10.253906,,,,,,,,,,,0.0,1.0,1.0,11.0,0.0,0.0,0.0,5.0,0.0,-0.18227542666666666,-0.16828122666666664,0.9613281066666667,-0.8666991733333327,-3.2275390266666664,0.579427093333333,-13.661616555758679,-0.7479395291315295,1.6643365620037516,6.758773471724229,8.94771202404538,-7.546309031986759,13.516262401772702,-2.3948128641022937,14.055919441580524,-2.364570275204436,0.24990242666666668,0.12482422666666665,0.030370893333333315,0.40509754666666664,0.2809887926211378,0.6824072723050858,0.6922332308238007,0.6957465554865624
