file_name,test_id,_program_index,program_index,session_id,index,_index,unixtime,datetime_utc,datetime_jst,rtc_year,rtc_month,rtc_day,rtc_hour,rtc_min,rtc_sec,rtc_msec,gps_hour,gps_min,gps_sec,latitude,longitude,altitude,fix_type,SIV,acc_x,acc_y,acc_z,gyro_x,gyro_y,gyro_z,mag_x,mag_y,mag_z,illuminance,atmopress,water_pressure,water_temp,depth,alt_wps,battery_level,behavior_class,camera_command,camera_recording,camera_count,play_audio,speaker_on,audio_file,prev_sd_write_time_ms,delay_occurred_counter,acc_x_ma,acc_y_ma,acc_z_ma,gyro_x_ma,gyro_y_ma,gyro_z_ma,gyro_x_lowpass,gyro_y_lowpass,gyro_z_lowpass,angle_x,angle_y,angle_z,combined_angle_change,gravity_adjusted_angle,smoothed_angle_change,smoothed_gravity_angle,acc_x_dy,acc_y_dy,acc_z_dy,ODBA,VeDBA,smoothed_VeDBA_1s,smoothed_VeDBA_2s,smoothed_VeDBA_3s
LBP05_S02,LBP05,-1650,1,2,0,-1650,1715762132.0,2024-05-15 08:35:32+00:00,2024-05-15 17:35:32+09:00,2024,5,15,8,35,32,0,8.0,35.0,31.0,40.545292,141.523346,8.413,3.0,14.0,0.327637,-0.29248,0.528809,119.445801,-59.509277,14.404297,-550.0,73.0,538.0,23.0,0.0,1023.099976,20.450001,0.100089,-81.638939,3.972656,0.0,1.0,1.0,2.0,0.0,0.0,0.0,4.0,0.0,,,,,,,120.228840236753,-60.296787592626316,14.801528322868736,4.80915360947012,-2.411871503705053,0.5920611329147495,5.412542745787071,,7.707755566289895,,,,,,,,,
LBP05_S02,LBP05,-1649,2,2,1,-1649,1715762132.04,2024-05-15 08:35:32.040000+00:00,2024-05-15 17:35:32.040000+09:00,2024,5,15,8,35,32,40,,,,,,,,,0.04248,0.246094,0.717529,122.741699,21.118164,41.503906,,,,,,,,,,,0.0,1.0,1.0,2.0,0.0,0.0,0.0,4.0,0.0,,,,,,,67.98212048212352,-34.06970277166293,-0.38053556955114765,7.528438428755061,-3.7746596145715703,0.5768397101327036,8.44145629809333,,7.301783997235053,,,,,,,,,
LBP05_S02,LBP05,-1648,3,2,2,-1648,1715762132.08,2024-05-15 08:35:32.080000+00:00,2024-05-15 17:35:32.080000+09:00,2024,5,15,8,35,32,80,,,,,,,,,-0.300781,-0.09082,1.363281,-14.404297,16.723633,7.202148,,,,,,,,,,,0.0,1.0,1.0,2.0,0.0,0.0,0.0,4.0,0.0,,,,,,,19.9712363821176,-10.726873061430096,-14.261387876910286,8.327287884039766,-4.203734537028774,0.0063841950562921745,9.328191052901442,,7.034292983753798,,,,,,,,,
LBP05_S02,LBP05,-1647,4,2,3,-1647,1715762132.12,2024-05-15 08:35:32.120000+00:00,2024-05-15 17:35:32.120000+09:00,2024,5,15,8,35,32,120,,,,,,,,,-0.22998,-0.052734,1.353271,-34.606934,37.536621,-62.744141,,,,,,,,,,,0.0,1.0,1.0,2.0,0.0,0.0,0.0,4.0,0.0,,,,,,,-19.88738219690364,7.431179365776678,-25.528630908473406,7.53179259616362,-3.906487362397707,-1.014761041282644,8.545073621397487,,7.053447466894246,,,,,,,,,
LBP05_S02,LBP05,-1646,5,2,4,-1646,1715762132.16,2024-05-15 08:35:32.160000+00:00,2024-05-15 17:35:32.160000+09:00,2024,5,15,8,35,32,160,,,,,,,,,-0.181396,-0.096191,0.884521,-134.155273,70.739746,-61.218262,,,,,,,,,,,0.0,1.0,1.0,2.0,0.0,0.0,0.0,4.0,0.0,,,,,,,-48.934906179886354,19.31299759646945,-33.26691553061674,5.574396348968166,-3.133967458538929,-2.3454376625073134,6.811514113270143,,7.295460794399691,,,,,,,,,
LBP05_S02,LBP05,-1645,6,2,5,-1645,1715762132.2,2024-05-15 08:35:32.200000+00:00,2024-05-15 17:35:32.200000+09:00,2024,5,15,8,35,32,200,,,,,,,,,-0.418213,0.095703,0.255859,-99.54834,50.598145,-51.940918,,,,,,,,,,,0.0,1.0,1.0,2.0,0.0,0.0,0.0,4.0,0.0,,,,,,,-66.06809629064884,25.126996969361585,-37.105700999411674,2.931672497342212,-2.1288875797644655,-3.8296657024837804,5.271926151960848,,7.6487288173194115,,,,,,,,,
LBP05_S02,LBP05,-1644,7,2,6,-1644,1715762132.24,2024-05-15 08:35:32.240000+00:00,2024-05-15 17:35:32.240000+09:00,2024,5,15,8,35,32,240,,,,,,,,,0.005371,-0.338867,0.424805,-67.504883,-72.570801,-31.25,,,,,,,,,,,0.0,1.0,1.0,2.0,0.0,0.0,0.0,4.0,0.0,,,,,,,-71.65606084748735,26.08350113365476,-37.241235210242664,0.06543006344271785,-1.085547534418275,-5.319315110893487,5.429346902866265,,8.276195074649596,,,,,,,,,
LBP05_S02,LBP05,-1643,8,2,7,-1643,1715762132.28,2024-05-15 08:35:32.280000+00:00,2024-05-15 17:35:32.280000+09:00,2024,5,15,8,35,32,280,,,,,,,,,0.311768,-0.235596,0.745605,76.477051,-48.461914,-21.850586,,,,,,,,,,,0.0,1.0,1.0,2.0,0.0,0.0,0.0,4.0,0.0,,,,,,,-67.12304086672398,23.859518034782468,-34.31481746148786,-2.6194915712262414,-0.1311668130269763,-6.691907809353001,7.187528848877385,,8.607371755453437,,,,,,,,,
LBP05_S02,LBP05,-1642,9,2,8,-1642,1715762132.32,2024-05-15 08:35:32.320000+00:00,2024-05-15 17:35:32.320000+09:00,2024,5,15,8,35,32,320,,,,,,,,,0.085693,-0.144043,1.245117,-10.681152,34.973145,10.620117,,,,,,,,,,,0.0,1.0,1.0,2.0,0.0,0.0,0.0,4.0,0.0,,,,,,,-54.393333433111515,20.064593130984324,-29.197938200197456,-4.795224908550702,0.6714169122123966,-7.859825337360899,9.231567414443242,,8.79342155706741,,,,,,,,,
LBP05_S02,LBP05,-1641,10,2,9,-1641,1715762132.36,2024-05-15 08:35:32.360000+00:00,2024-05-15 17:35:32.360000+09:00,2024,5,15,8,35,32,360,,,,,,,,,-0.532715,-0.205566,1.636963,-75.073242,44.006348,-7.446289,,,,,,,,,,,0.0,1.0,1.0,2.0,0.0,0.0,0.0,4.0,0.0,,,,,,,-35.454620364763564,15.915448394841423,-22.78048028404468,-6.213409723141245,1.3080348480060535,-8.771044548722687,10.82814102359691,,8.98377955469198,,,,,,,,,
LBP05_S02,LBP05,-1640,11,2,10,-1640,1715762132.4,2024-05-15 08:35:32.400000+00:00,2024-05-15 17:35:32.400000+09:00,2024,5,15,8,35,32,400,,,,,,,,,-0.38623,-0.248779,1.771973,-34.362793,-4.516602,-29.541016,,,,,,,,,,,0.0,1.0,1.0,2.0,0.0,0.0,0.0,4.0,0.0,,,,,,,-12.205237932433803,12.191208082105355,-15.849636779230924,-6.701619240438597,1.7956831712902677,-9.405030019891925,11.687205319088912,,9.333493948789307,,,,,,,,,
LBP05_S02,LBP05,-1639,12,2,11,-1639,1715762132.44,2024-05-15 08:35:32.440000+00:00,2024-05-15 17:35:32.440000+09:00,2024,5,15,8,35,32,440,,,,,,,,,-0.276367,-0.441162,1.576172,3.540039,39.367676,-21.118164,,,,,,,,,,,0.0,1.0,1.0,2.0,0.0,0.0,0.0,4.0,0.0,,,,,,,13.434208880498854,9.391525157559482,-9.089227632914943,-6.164250885218642,2.1713441775926468,-9.768599125208523,11.75322310613174,,9.953017543719545,,,,,,,,,
LBP05_S02,LBP05,-1638,13,2,12,-1638,1715762132.48,2024-05-15 08:35:32.480000+00:00,2024-05-15 17:35:32.480000+09:00,2024,5,15,8,35,32,480,,,,,,,,,-0.380859,-0.136719,0.781982,23.254395,96.984863,-17.089844,,,,,,,,,,,0.0,1.0,1.0,2.0,0.0,0.0,0.0,4.0,0.0,,,,,,,39.3142671304193,7.942873389797442,-3.1559740292728717,-4.59168020000187,2.4890591131845445,-9.894838086379437,11.188689069041168,,10.798837417059948,,,,,,,,,
LBP05_S02,LBP05,-1637,14,2,13,-1637,1715762132.52,2024-05-15 08:35:32.520000+00:00,2024-05-15 17:35:32.520000+09:00,2024,5,15,8,35,32,520,,,,,,,,,-0.140869,0.067627,0.246338,-36.315918,-38.574219,-38.269043,,,,,,,,,,,0.0,1.0,1.0,2.0,0.0,0.0,0.0,4.0,0.0,,,,,,,62.9612918999986,8.309255463138514,1.2566214905712318,-2.073228524001926,2.8214293317100854,-9.844573226756587,10.448653597643183,,11.778899820472105,,,,,,,,,
LBP05_S02,LBP05,-1636,15,2,14,-1636,1715762132.56,2024-05-15 08:35:32.560000+00:00,2024-05-15 17:35:32.560000+09:00,2024,5,15,8,35,32,560,,,,,,,,,0.20874,-0.547607,1.015869,71.472168,-47.363281,-7.141113,,,,,,,,,,,0.0,1.0,1.0,2.0,0.0,0.0,0.0,4.0,0.0,,,,,,,81.73907927087117,10.93690225643253,3.4510483428997842,1.1963346468329208,3.2589054219673868,-9.706531293040596,10.308658054243415,,12.877984244882004,,,,,,,,,
LBP05_S02,LBP05,-1635,16,2,15,-1635,1715762132.6,2024-05-15 08:35:32.600000+00:00,2024-05-15 17:35:32.600000+09:00,2024,5,15,8,35,32,600,,,,,,,,,-0.0896,-0.265381,1.587646,158.26416,59.265137,28.381348,,,,,,,,,,,0.0,1.0,1.0,2.0,0.0,0.0,0.0,4.0,0.0,,,,,,,93.29525330062641,16.06163253178239,2.886690767436571,4.928144778857977,3.9013707232386823,-9.591063662343133,11.46716210126324,,14.120860881909062,,,,,,,,,
LBP05_S02,LBP05,-1634,17,2,16,-1634,1715762132.64,2024-05-15 08:35:32.640000+00:00,2024-05-15 17:35:32.640000+09:00,2024,5,15,8,35,32,640,,,,,,,,,-0.70752,-0.466553,1.959229,120.422363,54.504395,38.208008,,,,,,,,,,,0.0,1.0,1.0,2.0,0.0,0.0,0.0,4.0,0.0,,,,,,,96.17144833841694,23.479355426129104,-0.5778028755170105,8.775002712394654,4.840544940283847,-9.614175777363814,13.887545636270298,,15.544750885291702,,,,,,,,,
LBP05_S02,LBP05,-1633,18,2,17,-1633,1715762132.68,2024-05-15 08:35:32.680000+00:00,2024-05-15 17:35:32.680000+09:00,2024,5,15,8,35,32,680,,,,,,,,,-0.906982,-0.561523,2.045166,243.469238,-62.805176,31.555176,,,,,,,,,,,0.0,1.0,1.0,2.0,0.0,0.0,0.0,4.0,0.0,,,,,,,90.3288134246221,32.390324777758984,-6.473624810077916,12.388155249379539,6.136157931394206,-9.873120769766931,16.988152882998936,,17.184470071553363,,,,,,,,,
LBP05_S02,LBP05,-1632,19,2,18,-1632,1715762132.72,2024-05-15 08:35:32.720000+00:00,2024-05-15 17:35:32.720000+09:00,2024,5,15,8,35,32,720,,,,,,,,,-0.343994,0.19165,2.219238,116.699219,-2.075195,-19.104004,,,,,,,,,,,0.0,1.0,1.0,2.0,0.0,0.0,0.0,4.0,0.0,,,,,,,77.31680542401821,41.39928831133907,-13.667461359120438,15.480827466340267,7.792129463847769,-10.419819224131748,20.222411658542246,,19.05274864403451,,,,,,,,,
LBP05_S02,LBP05,-1631,20,2,19,-1631,1715762132.76,2024-05-15 08:35:32.760000+00:00,2024-05-15 17:35:32.760000+09:00,2024,5,15,8,35,32,760,,,,,,,,,-0.492676,-0.783936,2.062988,-127.13623,118.103027,-42.236328,,,,,,,,,,,0.0,1.0,1.0,2.0,0.0,0.0,0.0,4.0,0.0,,,,,,,59.94221329198103,48.715570153638915,-20.529598849265966,17.87851599801951,9.740752269993326,-11.241003178102387,23.256907393867476,,21.110632043331666,,,,,,,,,
LBP05_S02,LBP05,-1630,21,2,20,-1630,1715762132.8,2024-05-15 08:35:32.800000+00:00,2024-05-15 17:35:32.800000+09:00,2024,5,15,8,35,32,800,,,,,,,,,-0.472168,-0.605713,1.674316,12.573242,95.458984,-47.668457,,,,,,,,,,,0.0,1.0,1.0,2.0,0.0,0.0,0.0,4.0,0.0,,,,,,,41.529389425597756,52.535222203454275,-25.29033297746813,19.53969157504342,11.842161158131496,-12.252616497201112,25.926105352915346,,23.236729092232373,,,,,,,,,
LBP05_S02,LBP05,-1629,22,2,21,-1629,1715762132.84,2024-05-15 08:35:32.840000+00:00,2024-05-15 17:35:32.840000+09:00,2024,5,15,8,35,32,840,,,,,,,,,-0.268311,-0.008545,1.632324,56.091309,17.456055,-39.550781,,,,,,,,,,,0.0,1.0,1.0,2.0,0.0,0.0,0.0,4.0,0.0,,,,,,,25.060644383216463,51.50404443013681,-26.468953449249476,20.542117350372077,13.902322935336969,-13.311374635171092,28.150414968748333,,25.23981306484659,,,,,,,,,
LBP05_S02,LBP05,-1628,23,2,22,-1628,1715762132.88,2024-05-15 08:35:32.880000+00:00,2024-05-15 17:35:32.880000+09:00,2024,5,15,8,35,32,880,,,,,,,,,-0.361328,-0.579346,2.109131,-11.901855,50.537109,-28.747559,,,,,,,,,,,0.0,1.0,1.0,2.0,0.0,0.0,0.0,4.0,0.0,,,,,,,12.513295298779727,45.11499129287398,-23.239251170478724,21.042649162323265,15.706922587051928,-14.240944681990241,29.871474793852617,,26.9397900860489,,,,,,,,,
LBP05_S02,LBP05,-1627,24,2,23,-1627,1715762132.92,2024-05-15 08:35:32.920000+00:00,2024-05-15 17:35:32.920000+09:00,2024,5,15,8,35,32,920,,,,,,,,,-0.553467,-0.241699,1.972168,-24.291992,50.231934,-9.521484,,,,,,,,,,,0.0,1.0,1.0,2.0,0.0,0.0,0.0,4.0,0.0,,,,,,,4.5716026210835405,33.92291832972633,-15.634794990187478,21.22551326716661,17.06383932024098,-14.86633648159774,31.02748759061474,,28.22909858934611,,,,,,,,,
LBP05_S02,LBP05,-1626,25,2,24,-1626,1715762132.96,2024-05-15 08:35:32.960000+00:00,2024-05-15 17:35:32.960000+09:00,2024,5,15,8,35,32,960,,,,,,,,,-0.707764,-0.328857,2.075439,56.640625,29.907227,11.169434,,,,,,,,,,,0.0,1.0,1.0,2.0,0.0,0.0,0.0,4.0,0.0,,,,,,,0.7167043266738736,19.52248979080223,-4.561695436659766,21.254181440233562,17.84473891187307,-15.04880429906413,31.569628543250502,,29.072229256678078,,,,,,,,,
LBP05_S02,LBP05,-1625,26,2,25,-1625,1715762133.0,2024-05-15 08:35:33+00:00,2024-05-15 17:35:33+09:00,2024,5,15,8,35,33,0,8.0,35.0,32.0,40.545284,141.523193,7.748,3.0,15.0,-0.47998,-0.153809,1.580078,23.4375,51.513672,3.90625,-547.0,73.0,544.0,0.0,0.0,1023.200012,20.440001,0.10108,-82.46479,3.972656,0.0,1.0,1.0,2.0,0.0,0.0,0.0,4.0,0.0,,,,,,,-0.4142236351613262,4.280602254752568,8.360579474499598,21.237612494827108,18.01596300206317,-14.714381120084147,31.498001827405403,,29.482250298017807,,,,,,,,,
LBP05_S02,LBP05,-1624,27,2,26,-1624,1715762133.04,2024-05-15 08:35:33.040000+00:00,2024-05-15 17:35:33.040000+09:00,2024,5,15,8,35,33,40,,,,,,,,,-0.314697,-0.264893,0.550537,-18.859863,19.53125,-13.244629,,,,,,,,,,,0.0,1.0,1.0,2.0,0.0,0.0,0.0,4.0,0.0,,,,,,,-0.5483429102518698,-9.151380821699682,21.086898944020927,21.215678778417033,17.649907769195185,-13.870905162323309,30.887315848293436,,29.49849138768377,,,,,,,,,
LBP05_S02,LBP05,-1623,28,2,27,-1623,1715762133.08,2024-05-15 08:35:33.080000+00:00,2024-05-15 17:35:33.080000+09:00,2024,5,15,8,35,33,80,,,,,,,,,-0.190674,0.039551,0.288574,-7.385254,-103.881836,17.700195,,,,,,,,,,,0.0,1.0,1.0,2.0,0.0,0.0,0.0,4.0,0.0,,,,,,,-1.3124269048049007,-18.464517927345835,31.519618598286794,21.163181702224836,16.911327052101353,-12.610120418391837,29.881237915970985,,29.172841740623653,,,,,,,,,
LBP05_S02,LBP05,-1622,29,2,28,-1622,1715762133.12,2024-05-15 08:35:33.120000+00:00,2024-05-15 17:35:33.120000+09:00,2024,5,15,8,35,33,120,,,,,,,,,0.301758,-0.447998,0.668457,-20.202637,-125.610352,57.678223,,,,,,,,,,,0.0,1.0,1.0,2.0,0.0,0.0,0.0,4.0,0.0,,,,,,,-3.86943958794076,-22.297454006639295,37.921497863653606,21.008404118707205,16.01942889183578,-11.093260503845693,28.653718331861914,,28.56568287625087,,,,,,,,,
LBP05_S02,LBP05,-1621,30,2,29,-1621,1715762133.16,2024-05-15 08:35:33.160000+00:00,2024-05-15 17:35:33.160000+09:00,2024,5,15,8,35,33,160,,,,,,,,,0.031006,0.050293,1.042236,60.546875,-5.554199,92.651367,,,,,,,,,,,0.0,1.0,1.0,2.0,0.0,0.0,0.0,4.0,0.0,,,,,,,-8.694247229704333,-20.606941962172915,39.29597486325642,20.660634229519033,15.195151213348863,-9.521421509315436,27.357117807264814,,27.74709708884425,,,,,,,,,
LBP05_S02,LBP05,-1620,31,2,30,-1620,1715762133.2,2024-05-15 08:35:33.200000+00:00,2024-05-15 17:35:33.200000+09:00,2024,5,15,8,35,33,200,,,,,,,,,-0.290283,-0.04126,1.467773,-64.941406,-1.342773,83.740234,,,,,,,,,,,0.0,1.0,1.0,2.0,0.0,0.0,0.0,4.0,0.0,,,,,,,-15.506053228618217,-14.637320183313914,35.62622806076649,20.040392100374305,14.609658406016306,-8.096372386884777,26.088516249574983,,26.79672556718861,,,,,,,,,
LBP05_S02,LBP05,-1619,32,2,31,-1619,1715762133.24,2024-05-15 08:35:33.240000+00:00,2024-05-15 17:35:33.240000+09:00,2024,5,15,8,35,33,240,,,,,,,,,-0.322754,0.035889,1.608154,12.451172,-14.587402,17.822266,,,,,,,,,,,0.0,1.0,1.0,2.0,0.0,0.0,0.0,4.0,0.0,,,,,,,-23.369475024163997,-6.477739570655858,27.86620116921925,19.105613099407744,14.350548823190072,-6.981724340116007,24.893918498147116,,25.798284825706606,,,,,,,,,
LBP05_S02,LBP05,-1618,33,2,32,-1618,1715762133.28,2024-05-15 08:35:33.280000+00:00,2024-05-15 17:35:33.280000+09:00,2024,5,15,8,35,33,280,,,,,,,,,-0.172363,-0.44043,1.165039,27.526855,106.018066,-5.554199,,,,,,,,,,,0.0,1.0,1.0,2.0,0.0,0.0,0.0,4.0,0.0,,,,,,,-30.95561432717443,1.6233303664249754,17.64966212743715,17.867388526320767,14.415482037847072,-6.275737855018521,23.799886150124816,,24.829867119675868,,,,,,,,,
LBP05_S02,LBP05,-1617,34,2,33,-1617,1715762133.32,2024-05-15 08:35:33.320000+00:00,2024-05-15 17:35:33.320000+09:00,2024,5,15,8,35,33,320,,,,,,,,,-0.48999,0.400146,0.113281,-104.064941,108.398438,-56.57959,,,,,,,,,,,0.0,1.0,1.0,2.0,0.0,0.0,0.0,4.0,0.0,,,,,,,-36.91150624801515,7.914913327502705,6.803099989408325,16.39092827640016,14.73207857094718,-6.003613855442188,22.841629716548532,,23.954769398388635,-2.350180537863262,,,,,,,,
LBP05_S02,LBP05,-1616,35,2,34,-1616,1715762133.36,2024-05-15 08:35:33.360000+00:00,2024-05-15 17:35:33.360000+09:00,2024,5,15,8,35,33,360,,,,,,,,,-0.095703,-0.689941,0.282959,-173.095703,-69.274902,-24.475098,,,,,,,,,,,0.0,1.0,1.0,2.0,0.0,0.0,0.0,4.0,0.0,,,,,,,-40.23219854611199,11.527037626694778,-3.1568535589994715,14.78164033455568,15.193160076014971,-6.129887997802166,22.06591332669413,,23.21743788172326,-2.356373640647469,,,,,,,,
LBP05_S02,LBP05,-1615,36,2,35,-1615,1715762133.4,2024-05-15 08:35:33.400000+00:00,2024-05-15 17:35:33.400000+09:00,2024,5,15,8,35,33,400,,,,,,,,,0.158447,-0.380859,0.526611,-25.756836,-75.98877,-12.207031,,,,,,,,,,,0.0,1.0,1.0,2.0,0.0,0.0,0.0,4.0,0.0,,,,,,,-40.49406000892347,12.480082567822322,-11.3535393159606,13.161877934198742,15.692363378727864,-6.58402957044059,21.51359441258534,,22.64574914442884,-2.3587433941722518,,,,,,,,
LBP05_S02,LBP05,-1614,37,2,36,-1614,1715762133.44,2024-05-15 08:35:33.440000+00:00,2024-05-15 17:35:33.440000+09:00,2024,5,15,8,35,33,440,,,,,,,,,0.237305,-0.140381,0.963623,64.025879,16.418457,3.78418,,,,,,,,,,,0.0,1.0,1.0,2.0,0.0,0.0,0.0,4.0,0.0,,,,,,,-37.84584011858365,11.406168719450772,-17.60544324841463,11.648044329455395,16.148610127505894,-7.288247300377176,21.203138787986063,,22.256783605348332,-2.3580847132578833,,,,,,,,
LBP05_S02,LBP05,-1613,38,2,37,-1613,1715762133.48,2024-05-15 08:35:33.480000+00:00,2024-05-15 17:35:33.480000+09:00,2024,5,15,8,35,33,480,,,,,,,,,-0.310303,-0.071533,1.443604,19.470215,61.096191,-9.033203,,,,,,,,,,,0.0,1.0,1.0,2.0,0.0,0.0,0.0,4.0,0.0,-0.21366210666666666,-0.21634441333333332,1.11451492,6.685384146666667,7.470703173333333,-2.373046866666667,-32.78450336270077,9.179561177749937,-22.228841297144086,10.336664194947364,16.51579257461589,-8.17740095226294,21.13026070309865,-2.350180537863262,22.061376487376407,-2.356578798220513,-0.09664089333333334,0.1448114133333333,0.32908908000000014,0.5705413866666668,0.3723028743793267,0.3723028743793267,0.3723028743793267,0.3723028743793267
LBP05_S02,LBP05,-1612,39,2,38,-1612,1715762133.52,2024-05-15 08:35:33.520000+00:00,2024-05-15 17:35:33.520000+09:00,2024,5,15,8,35,33,520,,,,,,,,,-0.518555,-0.739014,1.886475,-24.780273,-32.226562,-14.648438,,,,,,,,,,,0.0,1.0,1.0,2.0,0.0,0.0,0.0,4.0,0.0,-0.22044596,-0.21754884,1.1233625733333334,5.900878933333334,7.572428426666667,-2.2493489466666663,-25.876764355398233,6.622929360095535,-25.705823431216206,9.301593620731435,16.78070974901971,-9.205633889511587,21.280403165208153,-2.362566743431676,22.064502090065826,-2.352822223797767,-0.29810904,-0.52146516,0.7631124266666665,1.5826866266666664,0.9711516300540485,0.6717272522166876,0.6717272522166876,0.6717272522166876
LBP05_S02,LBP05,-1611,40,2,39,-1611,1715762133.56,2024-05-15 08:35:33.560000+00:00,2024-05-15 17:35:33.560000+09:00,2024,5,15,8,35,33,560,,,,,,,,,-0.174316,-0.459961,1.478271,-68.115234,-38.513184,-8.361816,,,,,,,,,,,0.0,1.0,1.0,2.0,0.0,0.0,0.0,4.0,0.0,-0.22305662666666667,-0.21970378666666665,1.1213834133333334,5.194498733333333,8.24788416,-2.534179666666667,-17.599699711273423,4.348716446132577,-28.364845335891697,8.597605632280498,16.954658406865015,-10.340227702947255,21.64023043432065,-2.3634829012218175,22.262433709028276,-2.345562289343534,0.048740626666666675,-0.24025721333333336,0.35688758666666653,0.6458854266666666,0.4329756653246411,0.5921433899193388,0.5921433899193388,0.5921433899193388
LBP05_S02,LBP05,-1610,41,2,40,-1610,1715762133.6,2024-05-15 08:35:33.600000+00:00,2024-05-15 17:35:33.600000+09:00,2024,5,15,8,35,33,600,,,,,,,,,-0.291504,0.166504,0.803467,-16.479492,120.910645,-22.216797,,,,,,,,,,,0.0,1.0,1.0,2.0,0.0,0.0,0.0,4.0,0.0,-0.21906574666666667,-0.21910482666666667,1.1056933066666665,5.388997426666666,7.891438839999999,-2.2501627333333336,-8.354783037975897,2.7124712694790154,-30.191891150005592,8.263414310761462,17.063157257644175,-11.547903348947479,22.19886085876987,-2.3561086705147773,22.640239265410422,-2.3428691189908903,-0.07243825333333331,0.3856088266666667,-0.3022263066666665,0.7602733866666664,0.49525973810779483,0.5679224769664528,0.5679224769664528,0.5679224769664528
LBP05_S02,LBP05,-1609,42,2,41,-1609,1715762133.64,2024-05-15 08:35:33.640000+00:00,2024-05-15 17:35:33.640000+09:00,2024,5,15,8,35,33,640,,,,,,,,,0.105225,-0.052002,0.209961,-49.560547,-11.047363,-10.192871,,,,,,,,,,,0.0,1.0,1.0,2.0,0.0,0.0,0.0,4.0,0.0,-0.2163444,-0.21889649333333328,1.0913638799999998,5.44108076,6.682942746666667,-1.7854817333333335,1.4258497927625922,1.8256974958726806,-30.83126208611181,8.320448302471966,17.136185157479083,-12.78115383239195,22.939847318427876,-2.3505551380710332,23.17250214141324,-2.3432594426661546,0.3215694,0.16689449333333328,-0.8814028799999998,1.369866773333333,0.9529594365940472,0.6449298688919717,0.6449298688919717,0.6449298688919717
LBP05_S02,LBP05,-1608,43,2,42,-1608,1715762133.68,2024-05-15 08:35:33.680000+00:00,2024-05-15 17:35:33.680000+09:00,2024,5,15,8,35,33,680,,,,,,,,,0.124023,-0.316895,0.448242,7.873535,-66.833496,-40.95459,,,,,,,,,,,0.0,1.0,1.0,2.0,0.0,0.0,0.0,4.0,0.0,-0.20994141333333333,-0.21983725333333334,1.0862792533333334,7.491862000000001,4.990234413333334,-1.0872395466666667,11.206915112646342,1.5810169332508168,-29.76736795434147,8.76872490697782,17.199425834809116,-13.97184855056561,23.831142177019018,-2.3340393516840368,23.827205071783165,-2.3447785897934628,0.3339644133333333,-0.09705774666666664,-0.6380372533333334,1.0690594133333333,0.7266663417292922,0.6585526143648585,0.6585526143648585,0.6585526143648585
LBP05_S02,LBP05,-1607,44,2,43,-1607,1715762133.72,2024-05-15 08:35:33.720000+00:00,2024-05-15 17:35:33.720000+09:00,2024,5,15,8,35,33,720,,,,,,,,,0.244629,-0.145508,0.699219,83.496094,-27.770996,-72.753906,,,,,,,,,,,0.0,1.0,1.0,2.0,0.0,0.0,0.0,4.0,0.0,-0.20246094666666667,-0.22662761333333337,1.09487952,9.298502626666666,4.7526041999999995,-0.3588866800000001,20.380095061946975,1.678542664080148,-26.613775053383172,9.583928709455698,17.26656754137232,-15.036399552700937,24.820945906173,-2.3020026826181375,24.570270787634314,-2.3461155842507955,0.4470899466666667,0.08111961333333337,-0.39566052000000007,0.9238700800000001,0.6025089701941564,0.6505463794833296,0.6505463794833296,0.6505463794833296
LBP05_S02,LBP05,-1606,45,2,44,-1606,1715762133.76,2024-05-15 08:35:33.760000+00:00,2024-05-15 17:35:33.760000+09:00,2024,5,15,8,35,33,760,,,,,,,,,-0.234375,-0.059814,1.224854,101.074219,47.546387,-55.969238,,,,,,,,,,,0.0,1.0,1.0,2.0,0.0,0.0,0.0,4.0,0.0,-0.20996094666666668,-0.22448244000000003,1.1075064666666667,12.023112000000001,6.146647173333333,0.5891927466666665,28.367017241399747,1.6873081283383977,-21.38752966485165,10.718609399111688,17.334059866505857,-15.891900739295004,25.843968890515626,-2.324016926522382,25.368226844754826,-2.3458702012226182,-0.024414053333333324,0.16466844000000003,0.11734753333333336,0.30643002666666674,0.20367175727531356,0.5946870517073276,0.5946870517073276,0.5946870517073276
LBP05_S02,LBP05,-1605,46,2,45,-1605,1715762133.8,2024-05-15 08:35:33.800000+00:00,2024-05-15 17:35:33.800000+09:00,2024,5,15,8,35,33,800,,,,,,,,,-0.460938,-0.217285,1.589111,-22.460938,-4.150391,-24.108887,,,,,,,,,,,0.0,1.0,1.0,2.0,0.0,0.0,0.0,4.0,0.0,-0.22131186666666663,-0.22587566666666664,1.1175129866666667,10.970052106666667,6.236165400000001,1.29720056,34.7035611515038,1.1749319132260254,-14.640194133487212,12.106751845171841,17.381057143034898,-16.477508504634493,26.836223172613508,-2.346382032068269,26.188361715699063,-2.345707833937193,-0.23962613333333338,0.008590666666666635,0.4715980133333333,0.7198148133333333,0.5290549777764207,0.5873945990483379,0.5873945990483379,0.5873945990483379
LBP05_S02,LBP05,-1604,47,2,46,-1604,1715762133.84,2024-05-15 08:35:33.840000+00:00,2024-05-15 17:35:33.840000+09:00,2024,5,15,8,35,33,840,,,,,,,,,-0.256348,-0.453125,1.426758,-4.821777,-6.286621,9.338379,,,,,,,,,,,0.0,1.0,1.0,2.0,0.0,0.0,0.0,4.0,0.0,-0.2257487066666667,-0.22469077333333332,1.1139159866666666,11.151529973333332,6.0986328400000005,1.2890625466666665,39.03945049286736,-0.11788821417969828,-7.370750748787103,13.668329864886536,17.37634161446771,-16.772338534585977,27.750168091685303,-2.3584509139392345,26.997726987406356,-2.3425664017050987,-0.030599293333333333,-0.22843422666666668,0.3128420133333334,0.5718755333333334,0.3885725646153508,0.5675123956050392,0.5675123956050392,0.5675123956050392
LBP05_S02,LBP05,-1603,48,2,47,-1603,1715762133.88,2024-05-15 08:35:33.880000+00:00,2024-05-15 17:35:33.880000+09:00,2024,5,15,8,35,33,880,,,,,,,,,-0.24585,-0.071289,0.739014,43.457031,76.416016,41.442871,,,,,,,,,,,0.0,1.0,1.0,2.0,0.0,0.0,0.0,4.0,0.0,-0.22279948,-0.21941408,1.09584632,12.30468752,6.4908854400000005,1.2955729599999999,41.077953476383364,-2.1362732085989573,-0.7441288788277719,15.31144800394187,17.29089068612375,-16.802103689739088,28.560917861610125,-2.363550482436594,27.7630868073857,-2.3401715397726717,-0.02305052000000002,0.14812508000000002,-0.35683232,0.5280079200000001,0.3870422075095418,0.551106014869085,0.551106014869085,0.551106014869085
LBP05_S02,LBP05,-1602,49,2,48,-1602,1715762133.92,2024-05-15 08:35:33.920000+00:00,2024-05-15 17:35:33.920000+09:00,2024,5,15,8,35,33,920,,,,,,,,,-0.250244,-0.183105,0.103516,-1.403809,0.976562,26.855469,,,,,,,,,,,0.0,1.0,1.0,2.0,0.0,0.0,0.0,4.0,0.0,-0.21872722666666666,-0.21694989333333334,1.0745670133333332,11.490071640000002,5.936686226666668,1.7366536933333332,40.54968615305598,-4.4850072541269235,4.269341811425448,16.93343545006411,17.111490395958672,-16.63133001728207,29.2599637364133,-2.360112913149901,28.453167673959843,-2.341171354569376,-0.03151677333333336,0.03384489333333335,-0.9710510133333332,1.03641268,0.9721516621915445,0.5861931521459566,0.5861931521459566,0.5861931521459566
LBP05_S02,LBP05,-1601,50,2,49,-1601,1715762133.96,2024-05-15 08:35:33.960000+00:00,2024-05-15 17:35:33.960000+09:00,2024,5,15,8,35,33,960,,,,,,,,,-0.05542,-0.144287,0.44458,54.321289,-84.411621,0.915527,,,,,,,,,,,0.0,1.0,1.0,2.0,0.0,0.0,0.0,4.0,0.0,-0.2151725466666667,-0.21264976,1.0569726133333333,9.979654973333334,4.008789093333333,2.2111003066666663,37.29659851709784,-6.54920232743413,7.186730072303207,18.425299390748023,16.849522302861306,-16.34386081438994,29.841579143763003,-2.3618592283675643,29.042894796178615,-2.3472377270453686,0.1597525466666667,0.06836276,-0.6123926133333333,0.84050792,0.6365681864392317,0.5900681547839007,0.5900681547839007,0.5900681547839007
LBP05_S02,LBP05,-1600,51,2,50,-1600,1715762134.0,2024-05-15 08:35:34+00:00,2024-05-15 17:35:34+09:00,2024,5,15,8,35,34,0,8.0,35.0,33.0,40.545273,141.523026,8.536,3.0,14.0,0.381592,-0.118164,0.770508,80.078125,-50.65918,-4.699707,-545.0,72.0,548.0,0.0,0.0,1022.900024,20.48,0.098107,-79.988037,3.972656,0.0,1.0,1.0,2.0,0.0,0.0,0.0,6.0,0.0,-0.20486655999999998,-0.21875326666666667,1.05425452,9.669596373333334,1.5030924799999998,3.063964893333333,31.45551628288465,-7.715537990888752,8.132712088803196,19.68352004206341,16.540900783225755,-16.018552330837814,30.292513575842793,-2.3246943481938347,29.51784036292554,-2.349997865433644,0.58645856,0.10058926666666666,-0.28374652,0.9707943466666666,0.6592146317990232,0.5950071888564095,0.5950071888564095,0.5950071888564095
LBP05_S02,LBP05,-1599,52,2,51,-1599,1715762134.04,2024-05-15 08:35:34.040000+00:00,2024-05-15 17:35:34.040000+09:00,2024,5,15,8,35,34,40,,,,,,,,,-0.087402,-0.04126,1.398926,65.979004,59.204102,11.535645,,,,,,,,,,,0.0,1.0,1.0,2.0,0.0,0.0,0.0,6.0,0.0,-0.20269208000000002,-0.2155501466666667,1.0619856399999998,11.042480493333334,2.2086588933333333,4.374186253333333,23.64208815720326,-7.587572291258506,7.763398828079102,20.629203568351542,16.237397891575416,-15.70801637771465,30.59344551822134,-2.326606518746763,29.876887816431925,-2.350812648862522,0.11529008000000003,0.1742901466666667,0.33694036000000005,0.6265205866666668,0.3964816060909058,0.581772150005376,0.581772150005376,0.581772150005376
LBP05_S02,LBP05,-1598,53,2,52,-1598,1715762134.08,2024-05-15 08:35:34.080000+00:00,2024-05-15 17:35:34.080000+09:00,2024,5,15,8,35,34,80,,,,,,,,,-0.728516,-0.423584,1.765625,15.686035,-11.047363,22.399902,,,,,,,,,,,0.0,1.0,1.0,2.0,0.0,0.0,0.0,6.0,0.0,-0.21015952,-0.21554038666666667,1.0683951466666666,9.00390628,2.6953125333333334,5.238444066666667,15.002708168271317,-6.096581856733115,7.038665238677605,21.229311895082397,15.993534617306091,-15.426469768167545,30.731950842760412,-2.344037499651081,30.132181770413588,-2.349363510074038,-0.51835648,-0.20804361333333335,0.6972298533333334,1.4236299466666669,0.8933672558281961,0.6012468441193022,0.6012468441193022,0.6012468441193022
LBP05_S02,LBP05,-1597,54,2,53,-1597,1715762134.12,2024-05-15 08:35:34.120000+00:00,2024-05-15 17:35:34.120000+09:00,2024,5,15,8,35,34,120,,,,,,,,,-0.446289,-0.119141,1.789551,15.808105,-75.683594,-0.854492,,,,,,,,,,,0.0,1.0,1.0,2.0,0.0,0.0,0.0,6.0,0.0,-0.21538411999999998,-0.21250328,1.065957,6.445312533333335,1.2182617466666668,5.013834693333333,7.047754437288752,-3.4782565276660784,6.9187153907476455,21.511222072573947,15.854404356199447,-15.149721152537639,30.718217128360735,-2.362666407378065,30.3067501306012,-2.347766391084376,-0.23090488,0.09336227999999999,0.7235939999999998,1.0478611599999998,0.7652593388980056,0.6108946379298141,0.6108946379298141,0.6108946379298141
LBP05_S02,LBP05,-1596,55,2,54,-1596,1715762134.16,2024-05-15 08:35:34.160000+00:00,2024-05-15 17:35:34.160000+09:00,2024,5,15,8,35,34,160,,,,,,,,,-0.067627,-0.274414,1.403564,-53.588867,50.842285,-22.949219,,,,,,,,,,,0.0,1.0,1.0,2.0,0.0,0.0,0.0,6.0,0.0,-0.20777669333333335,-0.20976238666666666,1.0541177999999998,4.707845093333334,0.82031252,4.519043026666666,1.284549145199935,-0.1519837157711543,8.066006559276087,21.562604038381945,15.8483250075686,-14.827080890166595,30.593424557984893,-2.3516183104051374,30.430707491131436,-2.3438044700635263,0.14014969333333333,-0.06465161333333333,0.34944620000000026,0.5542475066666669,0.3820136310951095,0.5981790264389972,0.5981790264389972,0.5981790264389972
LBP05_S02,LBP05,-1595,56,2,55,-1595,1715762134.2,2024-05-15 08:35:34.200000+00:00,2024-05-15 17:35:34.200000+09:00,2024,5,15,8,35,34,200,,,,,,,,,-0.473145,-0.163574,0.296387,-29.35791,102.600098,-10.375977,,,,,,,,,,,0.0,1.0,1.0,2.0,0.0,0.0,0.0,6.0,0.0,-0.20030925333333333,-0.20100262666666668,1.0302734,1.2003581200000009,3.1380208533333334,3.628743546666667,-1.2249117008498913,3.430715515917945,10.633016347236106,21.51360757034795,15.985553628205318,-14.40176023627715,30.42669770767729,-2.3545298663570433,30.536659210674905,-2.339271105503454,-0.27283574666666666,0.03742862666666669,-0.7338864,1.0441507733333335,0.7838555318796127,0.6079514740937665,0.6079514740937665,0.6079514740937665
LBP05_S02,LBP05,-1594,57,2,56,-1594,1715762134.24,2024-05-15 08:35:34.240000+00:00,2024-05-15 17:35:34.240000+09:00,2024,5,15,8,35,34,240,,,,,,,,,-0.045654,-0.054932,0.351318,-27.34375,-42.84668,1.89209,,,,,,,,,,,0.0,1.0,1.0,2.0,0.0,0.0,0.0,6.0,0.0,-0.19812176,-0.20322918666666667,1.0026887733333332,-1.4396158399999992,2.858886733333333,3.5319010933333335,-0.20775074420245493,6.896405828094954,14.205297891008806,21.505297540579853,16.261409861329117,-13.833548320636798,30.303107631502005,-2.343959526054399,30.654592282681012,-2.339549327507203,0.15246776,0.14829718666666666,-0.6513707733333332,0.9521357199999998,0.6852170150875782,0.6118147511434571,0.6118147511434571,0.6118147511434571
LBP05_S02,LBP05,-1593,58,2,57,-1593,1715762134.28,2024-05-15 08:35:34.280000+00:00,2024-05-15 17:35:34.280000+09:00,2024,5,15,8,35,34,280,,,,,,,,,0.290771,-0.378174,0.741699,-19.836426,-65.307617,37.353516,,,,,,,,,,,0.0,1.0,1.0,2.0,0.0,0.0,0.0,6.0,0.0,-0.19123048,-0.19468425333333333,0.9797167733333333,-1.5437825066666662,0.030924493333333393,4.1772461466666675,3.7130848978364592,9.970526157984338,17.92976751118399,21.65382093649331,16.66023090764849,-13.116357620189438,30.306601463486196,-2.3475792925399697,30.806664706690707,-2.339125825118464,0.48200148,-0.18348974666666668,-0.2380177733333333,0.9035089999999999,0.5680196953245071,0.6097292722949357,0.6097292722949357,0.6097292722949357
LBP05_S02,LBP05,-1592,59,2,58,-1592,1715762134.32,2024-05-15 08:35:34.320000+00:00,2024-05-15 17:35:34.320000+09:00,2024,5,15,8,35,34,320,,,,,,,,,0.168213,-0.164551,1.302246,108.276367,30.700684,44.067383,,,,,,,,,,,0.0,1.0,1.0,2.0,0.0,0.0,0.0,6.0,0.0,-0.17984050666666668,-0.19367838666666667,0.9666178266666666,-1.1507160933333327,-1.9026692533333334,5.3011068266666665,9.186413716051682,12.425928029938705,20.79203506834749,22.02127748513538,17.157268028846037,-12.284676217455539,30.4995373417157,-2.3204937029414063,31.002708448529678,-2.3359092234205705,0.3480535066666667,0.02912738666666667,0.3356281733333334,0.7128090666666668,0.484392319191854,0.6040321380629773,0.6040321380629773,0.6040321380629773
LBP05_S02,LBP05,-1591,60,2,59,-1591,1715762134.36,2024-05-15 08:35:34.360000+00:00,2024-05-15 17:35:34.360000+09:00,2024,5,15,8,35,34,360,,,,,,,,,-0.672607,-0.123047,1.71582,16.235352,42.480469,38.085938,,,,,,,,,,,0.0,1.0,1.0,2.0,0.0,0.0,0.0,6.0,0.0,-0.17710286666666666,-0.19230794666666665,0.9587076666666667,-0.9708658399999992,-1.7114257733333333,6.585286506666666,14.496066612728926,14.034596670173114,21.94535843969237,22.601120149644537,17.71865189565296,-11.406861879867844,30.90109633919769,-2.3165255827668436,31.23753512279406,-2.332471976448515,-0.4955041333333333,0.06926094666666664,0.7571123333333332,1.321877413333333,0.9074913278753823,0.617226015880908,0.617226015880908,0.617226015880908
LBP05_S02,LBP05,-1590,61,2,60,-1590,1715762134.4,2024-05-15 08:35:34.400000+00:00,2024-05-15 17:35:34.400000+09:00,2024,5,15,8,35,34,400,,,,,,,,,-0.418701,-0.663574,1.804932,4.089355,-31.738281,29.541016,,,,,,,,,,,0.0,1.0,1.0,2.0,0.0,0.0,0.0,6.0,0.0,-0.18029947999999998,-0.19138346666666667,0.95130532,-0.5761718399999994,-2.59684244,7.356770893333334,17.975331241037242,14.586543685241633,20.973470473676098,23.320133399286025,18.302113643062626,-10.5679230609208,31.47184429590386,-2.327476568231323,31.491014285077178,-2.329322548110177,-0.23840152,-0.47219053333333333,0.85362668,1.5642187333333333,1.0042299006282132,0.6333511777453791,0.6333511777453791,0.6333511777453791
LBP05_S02,LBP05,-1589,62,2,61,-1589,1715762134.44,2024-05-15 08:35:34.440000+00:00,2024-05-15 17:35:34.440000+09:00,2024,5,15,8,35,34,440,,,,,,,,,-0.199219,-0.109131,1.324951,-1.525879,30.883789,23.742676,,,,,,,,,,,0.0,1.0,1.0,2.0,0.0,0.0,0.0,6.0,0.0,-0.17828125333333336,-0.19126302666666664,0.9445116933333333,-0.2140299199999994,-4.28466796,7.613932346666667,18.34854699351552,13.974200102801683,18.00079684214974,24.054075279026645,18.861081647174693,-9.84789118723481,32.11416975831833,-2.322371494859369,31.731277260984477,-2.321944721205388,-0.020937746666666646,0.08213202666666664,0.3804393066666667,0.48350908,0.38976675730090893,0.6236078009276003,0.6236078009276003,0.6236078009276003
LBP05_S02,LBP05,-1588,63,2,62,-1588,1715762134.48,2024-05-15 08:35:34.480000+00:00,2024-05-15 17:35:34.480000+09:00,2024,5,15,8,35,34,480,,,,,,,,,-0.476807,0.027344,0.357666,-2.380371,112.976074,5.981445,,,,,,,,,,,0.0,1.0,1.0,2.0,0.0,0.0,0.0,6.0,0.0,-0.17086588,-0.18734050666666666,0.9304003733333334,-1.1360676799999996,-3.928222653333333,7.364095106666666,14.953431317928878,12.284865184979825,13.626953860283349,24.6522125317438,19.352476254573887,-9.302813032823476,32.692388261150064,-2.311871482672149,31.92044349711993,-2.3169685160363507,-0.30594111999999996,0.21468450666666666,-0.5727343733333334,1.09336,0.6838962411850869,0.6360715355998307,0.6259265870913497,0.6259265870913497
LBP05_S02,LBP05,-1587,64,2,63,-1587,1715762134.52,2024-05-15 08:35:34.520000+00:00,2024-05-15 17:35:34.520000+09:00,2024,5,15,8,35,34,520,,,,,,,,,-0.165527,-0.171387,0.266602,12.756348,-30.761719,-14.953613,,,,,,,,,,,0.0,1.0,1.0,2.0,0.0,0.0,0.0,6.0,0.0,-0.17124674666666667,-0.18145833333333333,0.9112174266666667,-2.4853515333333327,-3.3634440133333334,6.818033906666666,7.860014132138299,9.829643465556005,8.726883732851933,24.96661309702933,19.745661993196126,-8.953737683509399,33.06648387100453,-2.3282939376575085,32.021472991428226,-2.313813358066072,0.005719746666666664,0.010071333333333321,-0.6446154266666667,0.6604065066666667,0.6447194704316682,0.6230142492149355,0.6266226198076579,0.6266226198076579
LBP05_S02,LBP05,-1586,65,2,64,-1586,1715762134.56,2024-05-15 08:35:34.560000+00:00,2024-05-15 17:35:34.560000+09:00,2024,5,15,8,35,34,560,,,,,,,,,0.143799,-0.053711,0.743408,23.55957,-55.908203,-13.73291,,,,,,,,,,,0.0,1.0,1.0,2.0,0.0,0.0,0.0,6.0,0.0,-0.16936523999999997,-0.18254230666666668,0.9061751066666667,-4.473470026666666,-4.1414388,6.594238333333333,-2.0950931897156484,7.067305689393835,4.199508051521843,24.882809369440704,20.02835422077188,-8.785757361448525,33.128216180816075,-2.3201240270217576,32.00463416866847,-2.3133120175908997,0.31316424,0.12883130666666667,-0.16276710666666672,0.6047626533333333,0.3757159536203598,0.6207238607467641,0.6176616674438258,0.6176616674438258
LBP05_S02,LBP05,-1585,66,2,65,-1585,1715762134.6,2024-05-15 08:35:34.600000+00:00,2024-05-15 17:35:34.600000+09:00,2024,5,15,8,35,34,600,,,,,,,,,0.071045,-0.36084,1.109131,24.597168,22.338867,0.976562,,,,,,,,,,,0.0,1.0,1.0,2.0,0.0,0.0,0.0,6.0,0.0,-0.16378906666666665,-0.19167317333333334,0.9110514133333332,-4.1113280933333325,-3.42122396,6.1100260933333335,-13.377034412979155,4.447107212030369,0.7535379343442469,24.347727992921538,20.206238509253097,-8.755615844074756,32.82932746675038,-2.280751597309156,31.852665000058344,-2.3117019643413133,0.23483406666666665,-0.16916682666666666,0.19807958666666692,0.6020804800000003,0.350713525210694,0.6149420122308802,0.6084565590909592,0.6084565590909592
LBP05_S02,LBP05,-1584,67,2,66,-1584,1715762134.64,2024-05-15 08:35:34.640000+00:00,2024-05-15 17:35:34.640000+09:00,2024,5,15,8,35,34,640,,,,,,,,,-0.417969,0.215576,1.544189,4.150391,19.348145,21.179199,,,,,,,,,,,0.0,1.0,1.0,2.0,0.0,0.0,0.0,6.0,0.0,-0.16535157333333333,-0.18810872,0.9147167733333333,-3.854166626666666,-1.3419596266666665,5.115559946666666,-23.96572310595576,2.2525411231967722,-1.2116200094538623,23.389099068683308,20.296340154180967,-8.80408064445291,32.19476999285647,-2.2941974743640245,31.56446135519392,-2.311009369830117,-0.25261742666666664,0.40368472,0.6294722266666667,1.2857743733333333,0.7893112197111216,0.6083960835555631,0.6144850477782978,0.6144850477782978
LBP05_S02,LBP05,-1583,68,2,67,-1583,1715762134.68,2024-05-15 08:35:34.680000+00:00,2024-05-15 17:35:34.680000+09:00,2024,5,15,8,35,34,680,,,,,,,,,-0.626953,-0.228516,1.684082,-85.144043,-52.856445,-1.220703,,,,,,,,,,,0.0,1.0,1.0,2.0,0.0,0.0,0.0,6.0,0.0,-0.17337241333333334,-0.18847656000000002,0.9194824,-3.7158202666666655,-0.5143229066666667,3.6767578666666667,-31.729587378138113,0.5277455373116278,-1.622139717017718,22.119915573557783,20.317449975673433,-8.868966233133618,31.316896406569104,-2.3160277128371862,31.157419343743573,-2.307570102064468,-0.4535805866666667,-0.04003943999999998,0.7645996,1.2582196266666668,0.8899163183561425,0.6149260826206371,0.6233699274743574,0.6233699274743574
LBP05_S02,LBP05,-1582,69,2,68,-1582,1715762134.72,2024-05-15 08:35:34.720000+00:00,2024-05-15 17:35:34.720000+09:00,2024,5,15,8,35,34,720,,,,,,,,,-0.233887,-0.484131,1.292725,-57.373047,-9.216309,-0.610352,,,,,,,,,,,0.0,1.0,1.0,2.0,0.0,0.0,0.0,6.0,0.0,-0.17847006666666668,-0.19427408,0.9217252399999999,-2.8621418799999994,-1.3680012933333334,2.5276693333333333,-34.902893070925835,-0.8832379091827339,-0.6751416136890083,20.72379985072075,20.282120459306125,-8.895971897681179,30.33114911411816,-2.315480298189678,30.668146490636996,-2.3064691244808997,-0.055416933333333335,-0.28985691999999996,0.37099976,0.7162736133333333,0.47405579048463814,0.6097879554322564,0.6187038606934286,0.6187038606934286
LBP05_S02,LBP05,-1581,70,2,69,-1581,1715762134.76,2024-05-15 08:35:34.760000+00:00,2024-05-15 17:35:34.760000+09:00,2024,5,15,8,35,34,760,,,,,,,,,-0.355225,-0.113037,0.539307,-30.578613,113.098145,-9.277344,,,,,,,,,,,0.0,1.0,1.0,2.0,0.0,0.0,0.0,6.0,0.0,-0.17732422666666667,-0.19922525333333332,0.9189648266666666,-2.4943033466666655,-1.8033854133333334,2.4739583866666663,-32.53442623751468,-2.212275056164504,1.2464073543418595,19.42242280122016,20.193629457059544,-8.846115603507505,29.381404653096467,-2.3004250502709804,30.15055045880073,-2.304178320574094,-0.17790077333333335,0.08618825333333333,-0.3796578266666666,0.6437468533333333,0.4280387430064077,0.6187626348615002,0.612926129854428,0.612926129854428
LBP05_S02,LBP05,-1580,71,2,70,-1580,1715762134.8,2024-05-15 08:35:34.800000+00:00,2024-05-15 17:35:34.800000+09:00,2024,5,15,8,35,34,800,,,,,,,,,-0.236328,-0.407227,0.207275,-109.558105,-24.902344,1.647949,,,,,,,,,,,0.0,1.0,1.0,2.0,0.0,0.0,0.0,6.0,0.0,-0.17788411999999998,-0.19159829333333334,0.9128840933333333,-3.0558267733333326,-2.02067056,2.73030604,-24.753683774304076,-3.6257993437045677,3.66427914798062,18.432275450248,20.04859748331136,-8.69954443758828,28.589807847259607,-2.3205506231193618,29.670236295380512,-2.304328246048014,-0.05844388000000003,-0.21562870666666667,-0.7056090933333333,0.97968168,0.7401321630917566,0.6272057222741136,0.616667483773173,0.616667483773173
LBP05_S02,LBP05,-1579,72,2,71,-1579,1715762134.84,2024-05-15 08:35:34.840000+00:00,2024-05-15 17:35:34.840000+09:00,2024,5,15,8,35,34,840,,,,,,,,,0.105957,-0.044922,0.524658,55.358887,-78.430176,27.22168,,,,,,,,,,,0.0,1.0,1.0,2.0,0.0,0.0,0.0,6.0,0.0,-0.17263673333333335,-0.19907876,0.9134732933333334,-2.375488239999999,-3.48795572,3.54166672,-12.751810976921355,-5.139850522695387,6.091846976810175,17.922203011171145,19.843003462403548,-8.455870558515873,28.043749643814873,-2.2879788172028808,29.29528333652278,-2.308812264573347,0.27859373333333337,0.15415676,-0.3888152933333334,0.8215657866666668,0.5025496067416511,0.6317648039591657,0.6134069730008438,0.6134069730008438
LBP05_S02,LBP05,-1578,73,2,72,-1578,1715762134.88,2024-05-15 08:35:34.880000+00:00,2024-05-15 17:35:34.880000+09:00,2024,5,15,8,35,34,880,,,,,,,,,0.238281,-0.301514,0.963623,-52.246094,1.159668,5.67627,,,,,,,,,,,0.0,1.0,1.0,2.0,0.0,0.0,0.0,6.0,0.0,-0.17052736000000002,-0.19135090666666668,0.9160351466666666,0.2189128000000009,-3.355305986666667,3.6726888533333333,1.5268588687581157,-6.6221641593208895,8.111012042472932,17.98327736592147,19.57811689603071,-8.131430076816955,27.799659730084286,-2.300861706836461,29.085236348634687,-2.3130341771320846,0.40880836,-0.11016309333333332,0.047587853333333374,0.5665593066666667,0.4260572568605458,0.6333254059332059,0.6082028142191689,0.6082028142191689
LBP05_S02,LBP05,-1577,74,2,73,-1577,1715762134.92,2024-05-15 08:35:34.920000+00:00,2024-05-15 17:35:34.920000+09:00,2024,5,15,8,35,34,920,,,,,,,,,-0.345947,-0.348633,1.373779,128.173828,52.124023,-11.962891,,,,,,,,,,,0.0,1.0,1.0,2.0,0.0,0.0,0.0,6.0,0.0,-0.16942058666666665,-0.18829752,0.9196191333333333,1.2312825866666677,-2.6318359333333334,3.85660812,15.882663907176328,-7.852610194899655,9.431006644989512,18.618583922208522,19.264012488234723,-7.754189811017374,27.890523552641866,-2.3053858985894564,29.08117359337503,-2.316497232311975,-0.17652641333333335,-0.16033548000000003,0.45415986666666674,0.7910217600000001,0.5129622064458996,0.61495782770338,0.6056287437388103,0.6056287437388103
LBP05_S02,LBP05,-1576,75,2,74,-1576,1715762134.96,2024-05-15 08:35:34.960000+00:00,2024-05-15 17:35:34.960000+09:00,2024,5,15,8,35,34,960,,,,,,,,,-0.705078,-0.469238,1.676514,8.728027,-41.07666,9.216309,,,,,,,,,,,0.0,1.0,1.0,2.0,0.0,0.0,0.0,6.0,0.0,-0.17513348,-0.18818358666666665,0.9242187466666667,0.6518555066666676,-2.12483724,4.010416706666667,28.37859625623021,-8.596550584229927,9.9254219782195,19.75372777245773,18.920150464865525,-7.357172931888594,28.325074546613873,-2.3216232817609557,29.299258705750226,-2.3190518176145076,-0.5299445199999999,-0.28105441333333336,0.7522952533333334,1.5632941866666665,0.9621751013822997,0.6279821043011027,0.6150115426241652,0.6150115426241652
LBP05_S02,LBP05,-1575,76,2,75,-1575,1715762135.0,2024-05-15 08:35:35+00:00,2024-05-15 17:35:35+09:00,2024,5,15,8,35,35,0,8.0,35.0,34.0,40.545269,141.522873,9.655,3.0,14.0,-0.181152,-0.382812,1.192383,60.60791,-51.879883,23.681641,-551.0,69.0,551.0,0.0,0.0,1022.599976,20.540001,0.095134,-77.510185,3.972656,0.0,1.0,1.0,2.0,0.0,0.0,0.0,5.0,0.0,-0.179834,-0.19166341333333334,0.9260774666666667,0.45003258666666757,-3.1551106666666664,4.247233106666666,37.706088150848,-8.67214876603241,9.650332842658974,21.26197129849165,18.573264514224228,-6.971159618182235,29.079797878173057,-2.3255917825624848,29.728679255017266,-2.322965921003032,-0.0013180000000000136,-0.19114858666666665,0.2663055333333333,0.45877211999999995,0.3278081091013693,0.6147258433931966,0.6076473520210166,0.6076473520210166
LBP05_S02,LBP05,-1574,77,2,76,-1574,1715762135.04,2024-05-15 08:35:35.040000+00:00,2024-05-15 17:35:35.040000+09:00,2024,5,15,8,35,35,40,,,,,,,,,-0.15332,0.084473,0.569092,69.763184,71.777344,20.141602,,,,,,,,,,,0.0,1.0,1.0,2.0,0.0,0.0,0.0,5.0,0.0,-0.17752605333333332,-0.18497396,0.9211588399999999,0.6542969066666675,-3.155110666666667,4.524739626666666,43.29458838298419,-8.012641684364151,8.842196498049157,22.993754833811018,18.252758846849662,-6.617471758260269,30.094300113975542,-2.336416599951404,30.333298771055144,-2.32507971807781,0.02420605333333331,0.26944696,-0.3520668399999999,0.6457198533333333,0.4440029922182995,0.6166266988382924,0.6035562430259487,0.6035562430259487
LBP05_S02,LBP05,-1573,78,2,77,-1573,1715762135.08,2024-05-15 08:35:35.080000+00:00,2024-05-15 17:35:35.080000+09:00,2024,5,15,8,35,35,80,,,,,,,,,-0.001465,-0.045898,0.186523,0.183105,-10.009766,28.503418,,,,,,,,,,,0.0,1.0,1.0,2.0,0.0,0.0,0.0,5.0,0.0,-0.17815432,-0.18021484000000002,0.9125846266666667,0.7291666933333342,-1.7626952933333333,4.527994826666666,45.170222098157126,-6.722064658214341,7.882780689041121,24.8005637177373,17.98387626052109,-6.302160530698624,31.276268853972613,-2.3506582646360865,31.055572612733158,-2.3319808216240645,0.17668932,0.13431684000000002,-0.7260616266666667,1.0370677866666669,0.7592269851813055,0.6112610880124167,0.6073530903955915,0.6073530903955915
LBP05_S02,LBP05,-1572,79,2,78,-1572,1715762135.12,2024-05-15 08:35:35.120000+00:00,2024-05-15 17:35:35.120000+09:00,2024,5,15,8,35,35,120,,,,,,,,,-0.025879,-0.037109,0.278564,-30.700684,-53.100586,-27.893066,,,,,,,,,,,0.0,1.0,1.0,2.0,0.0,0.0,0.0,5.0,0.0,-0.17733726666666666,-0.18302082666666666,0.9039908799999998,-0.16276038666666562,-3.27067056,4.759114626666666,43.67188659229052,-5.114692565772175,7.219946205823516,26.54743918142892,17.7792885578902,-6.013362682465684,32.512000237870076,-2.3410261512150057,31.821716205135296,-2.3384184600706344,0.15145826666666667,0.14591182666666666,-0.6254268799999998,0.9227969733333331,0.6598398668839347,0.6070443091318539,0.6086027755500759,0.6086027755500759
LBP05_S02,LBP05,-1571,80,2,79,-1571,1715762135.16,2024-05-15 08:35:35.160000+00:00,2024-05-15 17:35:35.160000+09:00,2024,5,15,8,35,35,160,,,,,,,,,0.298828,-0.166748,0.503174,19.65332,-56.213379,-8.850098,,,,,,,,,,,0.0,1.0,1.0,2.0,0.0,0.0,0.0,5.0,0.0,-0.17948570666666666,-0.18580728000000002,0.9060677066666667,0.6070963866666677,-4.05110676,4.8258464000000005,39.1877740879732,-3.7140180834431695,7.256874040024679,28.114950144947848,17.630727834552474,-5.723087720864696,33.675610145766896,-2.3395660841562256,32.54823045529019,-2.343738661889872,0.4783137066666666,0.019059280000000012,-0.4028937066666667,0.9002666933333333,0.6256761119068959,0.6167908083643252,0.6089998298839554,0.6089998298839554
LBP05_S02,LBP05,-1570,81,2,80,-1570,1715762135.2,2024-05-15 08:35:35.200000+00:00,2024-05-15 17:35:35.200000+09:00,2024,5,15,8,35,35,200,,,,,,,,,0.142822,-0.413574,0.900879,35.949707,32.775879,2.685547,,,,,,,,,,,0.0,1.0,1.0,2.0,0.0,0.0,0.0,5.0,0.0,-0.17667645333333332,-0.18208332,0.9095768266666666,1.6967773733333342,-3.9436848799999997,5.71777348,32.05029733525551,-3.17137247715553,8.249155508275097,29.39696203835807,17.50387293546625,-5.3931215005336925,34.636003007638344,-2.3416885938671403,33.15033097516731,-2.3489827431077854,0.3194984533333333,-0.23149068,-0.00869782666666663,0.55968696,0.3946426849670192,0.6012222944878216,0.6041280765903887,0.6041280765903887
LBP05_S02,LBP05,-1569,82,2,81,-1569,1715762135.24,2024-05-15 08:35:35.240000+00:00,2024-05-15 17:35:35.240000+09:00,2024,5,15,8,35,35,240,,,,,,,,,-0.557129,-0.177979,1.371826,136.84082,31.982422,39.855957,,,,,,,,,,,0.0,1.0,1.0,2.0,0.0,0.0,0.0,5.0,0.0,-0.17948569333333333,-0.17918944,0.9142643199999999,0.7812500266666675,-3.065592426666667,7.20296228,22.620927489990695,-4.083278610341038,10.24934871658038,30.301799137957698,17.34054179105261,-4.983147551870477,35.26648806059499,-2.3569898526654236,33.551798807960246,-2.355650422330911,-0.3776433066666667,0.001210440000000007,0.4575616800000001,0.8364154266666668,0.5932778634329365,0.5975447284216359,0.6038869607424453,0.6038869607424453
LBP05_S02,LBP05,-1568,83,2,82,-1568,1715762135.28,2024-05-15 08:35:35.280000+00:00,2024-05-15 17:35:35.280000+09:00,2024,5,15,8,35,35,280,,,,,,,,,-0.539551,-0.340088,1.496094,-2.502441,-41.748047,31.25,,,,,,,,,,,0.0,1.0,1.0,2.0,0.0,0.0,0.0,5.0,0.0,-0.18355470666666668,-0.18013670666666667,0.9187923066666667,-1.3419596133333325,-3.610839826666667,8.146972693333334,11.466025092068696,-6.750220469387536,13.106911750429443,30.760440141640444,17.070532972277107,-4.4588710818532995,35.46109565410568,-2.365238091302163,33.694165192205766,-2.3589508078562567,-0.3559962933333333,-0.15995129333333333,0.5773016933333334,1.09324928,0.6968464839773627,0.6026977999677502,0.6059078199432044,0.6059078199432044
LBP05_S02,LBP05,-1567,84,2,83,-1567,1715762135.32,2024-05-15 08:35:35.320000+00:00,2024-05-15 17:35:35.320000+09:00,2024,5,15,8,35,35,320,,,,,,,,,-0.24707,-0.055176,0.975342,2.929688,24.658203,10.009766,,,,,,,,,,,0.0,1.0,1.0,2.0,0.0,0.0,0.0,5.0,0.0,-0.18236004,-0.18145506666666666,0.9177897066666666,-2.0646158533333323,-4.143880186666667,8.426920613333333,-0.5366202586081178,-10.977697127445467,16.498258153896508,30.73897533129612,16.631425087179288,-3.7989407556974393,35.15566605419085,-2.35858791678183,33.54273866288332,-2.3593946039322353,-0.06470996000000001,0.12627906666666666,0.05755229333333345,0.24854132000000012,0.15312102425641,0.5894469481703324,0.5962740583328471,0.5962740583328471
LBP05_S02,LBP05,-1566,85,2,84,-1566,1715762135.36,2024-05-15 08:35:35.360000+00:00,2024-05-15 17:35:35.360000+09:00,2024,5,15,8,35,35,360,,,,,,,,,-0.311523,0.190186,0.281738,11.413574,73.425293,-6.958008,,,,,,,,,,,0.0,1.0,1.0,2.0,0.0,0.0,0.0,5.0,0.0,-0.18115561333333333,-0.17455728,0.9129068933333334,-2.035318986666666,-3.705240866666667,8.199869826666667,-12.267567971209616,-16.026085708906738,19.961468841435337,30.248272612447735,15.990381658823019,-3.000482002040026,34.34607974538499,-2.3740640939400923,33.08839955104245,-2.362140664922964,-0.13036738666666667,0.36474328,-0.6311688933333335,1.1262795600000002,0.7405453988264862,0.5827691110083765,0.5992797112597978,0.5992797112597978
LBP05_S02,LBP05,-1565,86,2,85,-1565,1715762135.4,2024-05-15 08:35:35.400000+00:00,2024-05-15 17:35:35.400000+09:00,2024,5,15,8,35,35,400,,,,,,,,,-0.080811,-0.063965,0.176025,-95.458984,-46.081543,3.540039,,,,,,,,,,,0.0,1.0,1.0,2.0,0.0,0.0,0.0,5.0,0.0,-0.18448568,-0.17115558666666666,0.9047330666666666,-3.900553359999999,-3.8151041466666666,7.53499352,-22.59687012340817,-20.770343815756444,22.941343504922237,29.34439780751141,15.15956790619276,-2.082828261843136,33.09447620610246,-2.39226857479374,32.34604625974701,-2.365286002865509,0.10367468000000002,0.10719058666666667,-0.7287080666666667,0.9395733333333334,0.7438102631505684,0.5723523255092707,0.6022293143596095,0.6022293143596095
LBP05_S02,LBP05,-1564,87,2,86,-1564,1715762135.44,2024-05-15 08:35:35.440000+00:00,2024-05-15 17:35:35.440000+09:00,2024,5,15,8,35,35,440,,,,,,,,,-0.009766,-0.118652,0.256592,-109.741211,-105.224609,14.465332,,,,,,,,,,,0.0,1.0,1.0,2.0,0.0,0.0,0.0,5.0,0.0,-0.18188802666666667,-0.17695637333333333,0.9079459466666666,-4.7908528399999994,-4.573567679999999,7.201334666666667,-30.65789460933158,-24.0488951464359,24.875509964752318,28.118082023138147,14.197612100335325,-1.0878078632530435,31.517963956430748,-2.369420455204859,31.351380603981664,-2.369001897980831,0.17212202666666668,0.05830437333333334,-0.6513539466666667,0.8817803466666667,0.6762302535763068,0.5838108653602867,0.6037093331439434,0.6037093331439434
LBP05_S02,LBP05,-1563,88,2,87,-1563,1715762135.48,2024-05-15 08:35:35.480000+00:00,2024-05-15 17:35:35.480000+09:00,2024,5,15,8,35,35,480,,,,,,,,,0.39209,-0.594482,0.578125,0.0,-90.942383,46.875,,,,,,,,,,,0.0,1.0,1.0,2.0,0.0,0.0,0.0,5.0,0.0,-0.17818034666666668,-0.17858724,0.9096516799999999,-3.9217122133333326,-4.196777320000001,7.26562504,-36.01946283391104,-25.079714584586068,25.337534697109444,26.677303509781705,13.194423516951883,-0.07430647536866575,29.762003560748155,-2.355096225395877,30.157000990014193,-2.370561494774522,0.5702703466666666,-0.4158947599999999,-0.33152667999999985,1.3176917866666664,0.7797991146664632,0.5876469802995418,0.6118592579496862,0.6071620739581105
LBP05_S02,LBP05,-1562,89,2,88,-1562,1715762135.52,2024-05-15 08:35:35.520000+00:00,2024-05-15 17:35:35.520000+09:00,2024,5,15,8,35,35,520,,,,,,,,,0.022217,0.307861,0.826172,66.650391,14.343262,59.997559,,,,,,,,,,,0.0,1.0,1.0,2.0,0.0,0.0,0.0,5.0,0.0,-0.17995444,-0.17541992,0.9116145733333334,-4.299316386666666,-3.3723958000000005,7.53011072,-38.67847301075579,-23.75698553449678,24.20239219405877,25.130164589351473,12.244144095572011,0.8937892123936851,27.968609119461355,-2.368486761122289,28.82759305719989,-2.3722047177016536,0.20217143999999998,0.48328092,-0.08544257333333338,0.7708949333333334,0.5307863714579926,0.5830896563405947,0.603051952777765,0.6056933104484928
LBP05_S02,LBP05,-1561,90,2,89,-1561,1715762135.56,2024-05-15 08:35:35.560000+00:00,2024-05-15 17:35:35.560000+09:00,2024,5,15,8,35,35,560,,,,,,,,,-0.351318,-0.546875,1.496582,-81.420898,-10.864258,57.678223,,,,,,,,,,,0.0,1.0,1.0,2.0,0.0,0.0,0.0,5.0,0.0,-0.18434246666666668,-0.17874673333333332,0.9135188666666666,-5.010579413333333,-3.5709635200000003,7.5415039466666665,-38.91406942455121,-20.68106328909985,21.75186328844885,23.573601812369425,11.416901564008016,1.7638637439316391,26.252077232812496,-2.3710194635816713,27.43354662287809,-2.373158988349842,-0.16697553333333334,-0.36812826666666665,0.5830631333333335,1.1181669333333335,0.7094799975358292,0.5964402180972135,0.6085820394219889,0.6076515498274991
LBP05_S02,LBP05,-1560,91,2,90,-1560,1715762135.6,2024-05-15 08:35:35.600000+00:00,2024-05-15 17:35:35.600000+09:00,2024,5,15,8,35,35,600,,,,,,,,,-0.481445,-0.037598,1.404785,-33.630371,-51.513672,11.535645,,,,,,,,,,,0.0,1.0,1.0,2.0,0.0,0.0,0.0,5.0,0.0,-0.18258465333333335,-0.17419269333333331,0.9129101466666666,-4.868164039999999,-3.8273111866666665,6.98486332,-37.12581351284878,-16.905226921405433,18.635279013771495,22.088569271855473,10.740692487151799,2.509274904482499,24.68934644998491,-2.3788475450203608,26.042849341955993,-2.370091473116042,-0.29886034666666667,0.13659469333333332,0.49187485333333336,0.9273298933333334,0.5915373939137202,0.6060731728453345,0.6105075925381074,0.6073531395327996
LBP05_S02,LBP05,-1559,92,2,91,-1559,1715762135.64,2024-05-15 08:35:35.640000+00:00,2024-05-15 17:35:35.640000+09:00,2024,5,15,8,35,35,640,,,,,,,,,-0.136963,-0.260986,1.071289,-9.887695,24.658203,1.098633,,,,,,,,,,,0.0,1.0,1.0,2.0,0.0,0.0,0.0,5.0,0.0,-0.17963869333333332,-0.17362953333333334,0.9100292799999999,-5.425618466666665,-3.1209309733333335,6.51448572,-33.759320821699376,-13.513853739690331,15.659552264482597,20.738196438987497,10.200138337564185,3.135656995061803,23.32269192092029,-2.37258582060234,24.712190342478454,-2.3670461262533076,0.04267569333333332,-0.08735646666666666,0.16125972,0.29129187999999995,0.18830046299582895,0.5820327425767229,0.595214413066143,0.5997339999594001
LBP05_S02,LBP05,-1558,93,2,92,-1558,1715762135.68,2024-05-15 08:35:35.680000+00:00,2024-05-15 17:35:35.680000+09:00,2024,5,15,8,35,35,680,,,,,,,,,-0.346924,0.095459,0.256836,-19.592285,111.022949,-35.217285,,,,,,,,,,,0.0,1.0,1.0,2.0,0.0,0.0,0.0,5.0,0.0,-0.18142254666666666,-0.17207029333333335,0.9030729066666667,-5.696614559999999,-2.5537109200000003,6.508789106666667,-29.337178372540478,-11.210847031280903,13.474723808765692,19.564709304085877,9.751704456312948,3.674645947412431,22.16701632596261,-2.3816703205734804,23.479366076187997,-2.3686521474161304,-0.16550145333333335,0.26752929333333336,-0.6462369066666667,1.0792676533333334,0.7187383344340138,0.5751856232198377,0.5950558529202374,0.6018590773607325
LBP05_S02,LBP05,-1557,94,2,93,-1557,1715762135.72,2024-05-15 08:35:35.720000+00:00,2024-05-15 17:35:35.720000+09:00,2024,5,15,8,35,35,720,,,,,,,,,-0.179932,0.024658,0.150391,-81.298828,-23.010254,-26.367188,,,,,,,,,,,0.0,1.0,1.0,2.0,0.0,0.0,0.0,5.0,0.0,-0.17669922666666668,-0.17237628,0.9015787599999999,-6.441243466666665,-3.995768213333333,6.427408906666667,-24.535305643855462,-10.089637986653425,12.29276139413677,18.583297078331658,9.348118936846811,4.166356403177902,21.21520171097285,-2.36813062326371,22.359659222020852,-2.3705252058666733,-0.0032327733333333275,0.19703428,-0.7511877599999999,0.9514548133333331,0.7766054397777294,0.5872876091915613,0.5985377823119089,0.604924803017171
LBP05_S02,LBP05,-1556,95,2,94,-1556,1715762135.76,2024-05-15 08:35:35.760000+00:00,2024-05-15 17:35:35.760000+09:00,2024,5,15,8,35,35,760,,,,,,,,,0.02417,-0.143066,0.340088,-134.94873,-93.994141,6.164551,,,,,,,,,,,0.0,1.0,1.0,2.0,0.0,0.0,0.0,5.0,0.0,-0.17376302666666668,-0.1784439866666667,0.9056575466666668,-6.122233053333333,-4.042154933333333,6.538899786666667,-20.205950404297088,-9.681319551540334,11.780851868043536,17.775059062159773,8.960866154785197,4.637590477899644,20.43910693616403,-2.3433889416020937,21.347998103956307,-2.3722308634498033,0.19793302666666668,0.035377986666666694,-0.5655695466666668,0.7988805600000002,0.6002482795500153,0.5941759906533055,0.6064693127574029,0.6048441733022201
LBP05_S02,LBP05,-1555,96,2,95,-1555,1715762135.8,2024-05-15 08:35:35.800000+00:00,2024-05-15 17:35:35.800000+09:00,2024,5,15,8,35,35,800,,,,,,,,,0.38208,-0.530273,0.691895,42.053223,-49.560547,36.621094,,,,,,,,,,,0.0,1.0,1.0,2.0,0.0,0.0,0.0,5.0,0.0,-0.17425130666666666,-0.1722330533333333,0.9087304666666667,-4.472656226666666,-2.901204413333334,6.32731124,-17.25506604990967,-9.244951464722071,11.196166248839544,17.084856420163387,8.591068096196315,5.0854371278532255,19.787886211327077,-2.361815106166392,20.426354899011468,-2.373958121267507,0.5563313066666666,-0.3580399466666667,-0.21683546666666664,1.13120672,0.6962145831502392,0.592419287455645,0.6098125048648793,0.6063928243165932
LBP05_S02,LBP05,-1554,97,2,96,-1554,1715762135.84,2024-05-15 08:35:35.840000+00:00,2024-05-15 17:35:35.840000+09:00,2024,5,15,8,35,35,840,,,,,,,,,-0.062988,0.094238,1.039062,69.580078,31.799316,56.762695,,,,,,,,,,,0.0,1.0,1.0,2.0,0.0,0.0,0.0,5.0,0.0,-0.18234376,-0.17158526666666668,0.9116536399999999,-5.9643554399999985,-2.6171874933333337,6.145019573333333,-16.356403996323078,-8.141786154945754,9.712520432281492,16.430600260310463,8.265396649998484,5.473937945144486,19.18972129352621,-2.3854806668330872,19.573403319656812,-2.373365921760498,0.11935575999999999,0.26582326666666667,0.12740836,0.5125873866666666,0.31802625165920656,0.5850383532523471,0.6084015786057564,0.6015867147723035
LBP05_S02,LBP05,-1553,98,2,97,-1553,1715762135.88,2024-05-15 08:35:35.880000+00:00,2024-05-15 17:35:35.880000+09:00,2024,5,15,8,35,35,880,,,,,,,,,-0.601074,-0.51001,1.553955,17.700195,-15.869141,29.11377,,,,,,,,,,,0.0,1.0,1.0,2.0,0.0,0.0,0.0,5.0,0.0,-0.18058594666666666,-0.17409502666666665,0.9119759066666667,-6.340332013333333,-3.589680986666667,5.534668,-17.613390993337866,-6.112465785777664,6.793682176820436,15.726064620576949,8.020898018567378,5.745685232217303,18.564935019076692,-2.373826809901307,18.772609232710266,-2.371210388194934,-0.42048805333333333,-0.3359149733333333,0.6419790933333333,1.39838212,0.8377268221697803,0.6015051358647165,0.6174152708989612,0.6054578640739015
LBP05_S02,LBP05,-1552,99,2,98,-1552,1715762135.92,2024-05-15 08:35:35.920000+00:00,2024-05-15 17:35:35.920000+09:00,2024,5,15,8,35,35,920,,,,,,,,,-0.4021,-0.232666,1.462646,2.868652,-76.35498,9.765625,,,,,,,,,,,0.0,1.0,1.0,2.0,0.0,0.0,0.0,5.0,0.0,-0.17870444,-0.16815101333333332,0.9085188666666666,-6.431477839999999,-3.5058593733333336,4.963378933333334,-20.36882404669742,-3.355992563662173,2.4469593730326853,14.911311658709053,7.886658316020891,5.84356360713861,17.851997938815945,-2.3855433369535937,18.016168950535974,-2.3688322338569665,-0.22339556000000002,-0.06451498666666669,0.5541271333333333,0.84203768,0.6009364688788088,0.6050241063620329,0.6099909670327065,0.6053849383449483
LBP05_S02,LBP05,-1551,100,2,99,-1551,1715762135.96,2024-05-15 08:35:35.960000+00:00,2024-05-15 17:35:35.960000+09:00,2024,5,15,8,35,35,960,,,,,,,,,-0.151611,-0.034668,1.01709,-12.512207,56.640625,-7.568359,,,,,,,,,,,0.0,1.0,1.0,2.0,0.0,0.0,0.0,5.0,0.0,-0.17907878666666668,-0.16753902666666667,0.9020442533333333,-6.782226533333333,-2.6643880133333333,4.63134768,-23.32017669912707,-0.41226245722556387,-2.7471154712047015,13.97850459074397,7.870167817731868,5.733678988290422,17.03564518336408,-2.3882920417587106,17.3047200081585,-2.3700093542685594,0.027467786666666688,0.13287102666666667,0.11504574666666678,0.2753845600000001,0.1778896086282457,0.5736526866518706,0.6008173954764867,0.598599298190715
LBP05_S02,LBP05,-1550,101,2,100,-1550,1715762136.0,2024-05-15 08:35:36+00:00,2024-05-15 17:35:36+09:00,2024,5,15,8,35,36,0,8.0,35.0,35.0,40.545254,141.522736,10.38,3.0,14.0,-0.508545,0.287354,0.141357,-77.758789,93.87207,-37.04834,-551.0,69.0,550.0,23.0,0.0,1022.900024,20.610001,0.098107,-79.988037,3.972656,0.0,1.0,1.0,2.0,0.0,0.0,0.0,5.0,0.0,-0.17561524,-0.1696256133333333,0.8991634,-7.553710906666665,-4.289550773333334,4.291178413333333,-24.94076184000948,2.0774105129706806,-7.82762593701409,12.98087411714359,7.9532642382506955,5.4205739508098585,16.159830656438334,-2.3729255499502613,16.644973963467038,-2.3727851942350413,-0.33292976,0.4569796133333333,-0.7578064,1.5477157733333333,0.9454856593184798,0.5983597886605552,0.6065428160268759,0.6040193975833363
LBP05_S02,LBP05,-1549,102,2,101,-1549,1715762136.04,2024-05-15 08:35:36.040000+00:00,2024-05-15 17:35:36.040000+09:00,2024,5,15,8,35,36,40,,,,,,,,,-0.173584,-0.346191,0.172363,-167.96875,-38.818359,-30.029297,,,,,,,,,,,0.0,1.0,1.0,2.0,0.0,0.0,0.0,5.0,0.0,-0.17207682666666668,-0.173929,0.9043912533333333,-7.545572893333332,-4.56542968,4.17968752,-24.03686390876121,3.6184242747033033,-11.775686710825271,12.019399560793142,8.098001209238827,4.949546482376848,15.314751051454833,-2.351030484946702,16.047773180331856,-2.3718014742040943,-0.001507173333333306,-0.17226200000000003,-0.7320282533333333,0.9057974266666666,0.75202515376396,0.6106806751223816,0.613653686980337,0.6062964092168844
LBP05_S02,LBP05,-1548,103,2,102,-1548,1715762136.08,2024-05-15 08:35:36.080000+00:00,2024-05-15 17:35:36.080000+09:00,2024,5,15,8,35,36,80,,,,,,,,,0.227539,-0.645264,0.654297,19.775391,-49.865723,-18.615723,,,,,,,,,,,0.0,1.0,1.0,2.0,0.0,0.0,0.0,5.0,0.0,-0.17101237333333336,-0.17041337333333334,0.9062597466666666,-7.206217426666665,-3.8126627600000007,4.124348973333333,-20.1881329770933,4.014383637478701,-13.83498141346815,11.21187424170941,8.258576554737974,4.396147225838122,14.60261350421968,-2.357888777193807,15.527293537388962,-2.369818482325347,0.39855137333333335,-0.4748506266666666,-0.2519627466666666,1.1253647466666665,0.6691872238315842,0.6070790846683927,0.6091700863404047,0.6072493003474102
LBP05_S02,LBP05,-1547,104,2,103,-1547,1715762136.12,2024-05-15 08:35:36.120000+00:00,2024-05-15 17:35:36.120000+09:00,2024,5,15,8,35,36,120,,,,,,,,,0.18457,-0.180664,0.943359,-0.915527,30.334473,-16.906738,,,,,,,,,,,0.0,1.0,1.0,2.0,0.0,0.0,0.0,5.0,0.0,-0.17565104,-0.16723302666666667,0.9112271866666667,-8.103027319999997,-3.3666992133333338,4.182942733333333,-13.872584846344086,3.3820202218554742,-13.719554117625403,10.656970847855646,8.393857363612193,3.8473650611331056,14.1007122871981,-2.379901827379636,15.100000745225401,-2.369028293963011,0.36022104,-0.013430973333333318,0.03213181333333326,0.40578382666666657,0.3619005970310777,0.5951615138742784,0.6011029115030662,0.6035873794023902
LBP05_S02,LBP05,-1546,105,2,104,-1546,1715762136.16,2024-05-15 08:35:36.160000+00:00,2024-05-15 17:35:36.160000+09:00,2024,5,15,8,35,36,160,,,,,,,,,-0.570557,0.022705,1.399658,70.922852,56.518555,-15.258789,,,,,,,,,,,0.0,1.0,1.0,2.0,0.0,0.0,0.0,5.0,0.0,-0.17924153333333334,-0.17376622666666666,0.9148599999999999,-8.441568986666667,-3.799641933333334,3.604329453333333,-6.244388491237079,2.063701274223102,-11.655970724096264,10.407195308206163,8.476405414581118,3.381126232169255,13.841646489249445,-2.371147341266912,14.781589244246202,-2.3670947095820773,-0.3913154666666666,0.19647122666666667,0.4847980000000002,1.0725846933333334,0.6532670496546231,0.5962651513841876,0.6065279798742564,0.6043179627884525
LBP05_S02,LBP05,-1545,106,2,105,-1545,1715762136.2,2024-05-15 08:35:36.200000+00:00,2024-05-15 17:35:36.200000+09:00,2024,5,15,8,35,36,200,,,,,,,,,-0.672607,-0.476074,1.635986,-0.915527,-65.368652,-2.441406,,,,,,,,,,,0.0,1.0,1.0,2.0,0.0,0.0,0.0,5.0,0.0,-0.17597656,-0.17752273333333332,0.9151106533333333,-8.136393199999999,-3.2958984533333333,3.623860706666667,1.2918521831495016,0.49588239011465884,-8.270204693987596,10.458869395532142,8.496240710185704,3.0503180444097513,13.815878379975247,-2.351977905856924,14.58168284738072,-2.3644437696677985,-0.49663043999999995,-0.29855126666666665,0.7208753466666666,1.5160570533333333,0.924897787971542,0.6174753555043684,0.609348824996095,0.6089640472113959
LBP05_S02,LBP05,-1544,107,2,106,-1544,1715762136.24,2024-05-15 08:35:36.240000+00:00,2024-05-15 17:35:36.240000+09:00,2024,5,15,8,35,36,240,,,,,,,,,-0.236816,-0.335449,1.401123,40.039062,-47.241211,13.793945,,,,,,,,,,,0.0,1.0,1.0,2.0,0.0,0.0,0.0,5.0,0.0,-0.17684244000000002,-0.17340814666666668,0.9119335600000001,-7.508137986666664,-2.05647788,3.7638346666666664,7.496150962885566,-0.921995697710066,-4.375324875575274,10.758715434047565,8.459360882277302,2.8753050493867405,13.984924864097252,-2.3656507480456197,14.498108688078187,-2.36495887730372,-0.05997355999999998,-0.16204085333333332,0.48918943999999975,0.711203853333333,0.5188066829326525,0.6144965082843571,0.6060206183529965,0.6076760848645567
LBP05_S02,LBP05,-1543,108,2,107,-1543,1715762136.28,2024-05-15 08:35:36.280000+00:00,2024-05-15 17:35:36.280000+09:00,2024,5,15,8,35,36,280,,,,,,,,,-0.214355,0.131592,0.708984,-14.587402,89.72168,13.671875,,,,,,,,,,,0.0,1.0,1.0,2.0,0.0,0.0,0.0,5.0,0.0,-0.17675454666666668,-0.1732226,0.9082193599999999,-7.708333306666667,-3.2893880400000004,3.8680013333333334,11.543735673550987,-1.9250188120946747,-0.7372037226908705,11.220464860989605,8.382360129793515,2.8458169004791056,14.292007097441104,-2.365924926277941,14.513531805873328,-2.3683627131595246,-0.03760045333333331,0.3048146,-0.19923535999999997,0.5416504133333333,0.36608805380449355,0.6012661710774423,0.6019819855225962,0.6042734365397671
LBP05_S02,LBP05,-1542,109,2,108,-1542,1715762136.32,2024-05-15 08:35:36.320000+00:00,2024-05-15 17:35:36.320000+09:00,2024,5,15,8,35,36,320,,,,,,,,,-0.096436,-0.160889,0.157471,-53.039551,-1.647949,4.272461,,,,,,,,,,,0.0,1.0,1.0,2.0,0.0,0.0,0.0,5.0,0.0,-0.17425129333333333,-0.17067375999999998,0.9113150666666666,-6.050618466666665,-3.965657573333334,3.6075846666666664,13.08119296023512,-2.426539409000286,2.1085549930458845,11.74371257939901,8.285298553433503,2.930159100200941,14.667882929023952,-2.3662074931442585,14.59645310792123,-2.371491698872941,0.07781529333333334,0.009784759999999976,-0.7538440666666666,0.8414441199999999,0.7579128170530882,0.6254578427893095,0.6074523954798209,0.6064073168246743
LBP05_S02,LBP05,-1541,110,2,109,-1541,1715762136.36,2024-05-15 08:35:36.360000+00:00,2024-05-15 17:35:36.360000+09:00,2024,5,15,8,35,36,360,,,,,,,,,0.0625,-0.110352,0.475098,21.484375,-59.326172,-14.648438,,,,,,,,,,,0.0,1.0,1.0,2.0,0.0,0.0,0.0,5.0,0.0,-0.17262044,-0.17063469333333334,0.9144595999999999,-6.093749986666666,-3.440755226666667,2.8735351866666665,12.157825274170936,-2.51361779287076,3.943226281832083,12.230025590365846,8.184753841718672,3.0878881514742242,15.036581214709246,-2.3617826426159225,14.706399332996734,-2.3731082583811864,0.23512044,0.06028269333333333,-0.4393615999999999,0.7347647333333333,0.5019504357761573,0.6159140442672962,0.5993415776378365,0.6049764006459275
LBP05_S02,LBP05,-1540,111,2,110,-1540,1715762136.4,2024-05-15 08:35:36.400000+00:00,2024-05-15 17:35:36.400000+09:00,2024,5,15,8,35,36,400,,,,,,,,,0.241455,-0.151855,0.79541,50.170898,-21.728516,1.586914,,,,,,,,,,,0.0,1.0,1.0,2.0,0.0,0.0,0.0,5.0,0.0,-0.1766503866666667,-0.16882153333333336,0.9172753600000001,-4.863281239999999,-3.050130226666667,2.6529948133333336,9.125674771006638,-2.410291290574435,4.85109264573863,12.595052581206112,8.088342190095695,3.2819318573037695,15.324089063413007,-2.378076626309475,14.801003386709633,-2.3765514782085098,0.4181053866666667,0.016966533333333367,-0.12186536000000014,0.5569372800000002,0.4358338485948098,0.6035949876850659,0.5879736565971683,0.6026906904830746
LBP05_S02,LBP05,-1539,112,2,111,-1539,1715762136.44,2024-05-15 08:35:36.440000+00:00,2024-05-15 17:35:36.440000+09:00,2024,5,15,8,35,36,440,,,,,,,,,-0.191162,-0.131836,1.308594,20.568848,54.443359,15.319824,,,,,,,,,,,0.0,1.0,1.0,2.0,0.0,0.0,0.0,5.0,0.0,-0.18064128,-0.17014314666666666,0.9215592133333333,-6.831054679999999,-3.6043294400000008,2.823893253333333,4.553779537429441,-2.4097840530454397,5.133973780788683,12.777203762703289,7.991950827973877,3.4872908085353167,15.46898222940625,-2.3850688435047505,14.842265803322126,-2.3816824771142113,-0.010520720000000011,0.03830714666666665,0.3870347866666667,0.43586265333333335,0.3890681805611609,0.5921085047644601,0.5879596850623734,0.5998423903507824
LBP05_S02,LBP05,-1538,113,2,112,-1538,1715762136.48,2024-05-15 08:35:36.480000+00:00,2024-05-15 17:35:36.480000+09:00,2024,5,15,8,35,36,480,,,,,,,,,-0.662842,-0.33252,1.583008,4.333496,-16.174316,8.728027,,,,,,,,,,,0.0,1.0,1.0,2.0,0.0,0.0,0.0,5.0,0.0,-0.17702149333333334,-0.16533521333333334,0.9209049066666667,-6.469726546666666,-3.3715820400000007,2.6416015866666664,-0.8604068246498457,-2.7741952736739375,5.191777703332679,12.742787489717296,7.88098301702692,3.694961916668624,15.431826524698684,-2.3891786343279713,14.800760411270653,-2.383241279475657,-0.4858205066666667,-0.16718478666666664,0.6621030933333333,1.3151083866666666,0.8380649281482935,0.5944391373037332,0.5910430588016375,0.6060525510677018
LBP05_S02,LBP05,-1537,114,2,113,-1537,1715762136.52,2024-05-15 08:35:36.520000+00:00,2024-05-15 17:35:36.520000+09:00,2024,5,15,8,35,36,520,,,,,,,,,-0.345459,-0.237305,1.517578,-9.460449,-32.226562,6.164551,,,,,,,,,,,0.0,1.0,1.0,2.0,0.0,0.0,0.0,5.0,0.0,-0.17706056,-0.16303053333333334,0.9202864133333333,-7.521972639999998,-2.165527346666667,2.159830746666667,-6.4134396799763485,-3.6271996212414446,5.397360887308956,12.486249902518242,7.735895032177262,3.910856352160982,15.20017453795316,-2.3960674224620906,14.658146771511278,-2.3854797702595305,-0.16839844,-0.07427446666666665,0.5972915866666668,0.8399644933333335,0.6250055763717919,0.5982079055002852,0.5906487809204399,0.6014372703519385
LBP05_S02,LBP05,-1536,115,2,114,-1536,1715762136.56,2024-05-15 08:35:36.560000+00:00,2024-05-15 17:35:36.560000+09:00,2024,5,15,8,35,36,560,,,,,,,,,-0.221436,-0.103027,0.835205,-62.5,65.917969,-8.117676,,,,,,,,,,,0.0,1.0,1.0,2.0,0.0,0.0,0.0,5.0,0.0,-0.18114910666666667,-0.16351230666666666,0.9156054266666667,-9.01855468,-2.4210612000000005,1.6951497466666667,-11.53906692099321,-4.88747757755181,5.986163050727815,12.024687225678514,7.540395929075189,4.1503028741900945,14.787687026378407,-2.4055795395401454,14.408619808577788,-2.3908821533550557,-0.04028689333333332,0.06048530666666667,-0.08040042666666669,0.18117262666666667,0.10837774081975568,0.5741638152316423,0.5853020166644278,0.5971092980252066
LBP05_S02,LBP05,-1535,116,2,115,-1535,1715762136.6,2024-05-15 08:35:36.600000+00:00,2024-05-15 17:35:36.600000+09:00,2024,5,15,8,35,36,600,,,,,,,,,-0.230225,-0.043945,0.158936,-83.374023,7.8125,-4.882812,,,,,,,,,,,0.0,1.0,1.0,2.0,0.0,0.0,0.0,5.0,0.0,-0.18210288,-0.16515293333333333,0.91769528,-9.591471346666664,-3.17220052,1.10677084,-15.905144147024409,-6.282389242483519,6.9836543642316675,11.388481459797537,7.2891003593758485,4.429649048759361,14.228502546100207,-2.403287894913939,14.05920167840064,-2.396796580423048,-0.04812212000000002,0.12120793333333334,-0.75875928,0.9280893333333333,0.7698848917353495,0.5812977151445075,0.5936854439949211,0.6007709667402407
LBP05_S02,LBP05,-1534,117,2,116,-1534,1715762136.64,2024-05-15 08:35:36.640000+00:00,2024-05-15 17:35:36.640000+09:00,2024,5,15,8,35,36,640,,,,,,,,,-0.055908,-0.260986,0.365723,8.178711,-69.580078,-5.187988,,,,,,,,,,,0.0,1.0,1.0,2.0,0.0,0.0,0.0,5.0,0.0,-0.17837892000000002,-0.16935866666666666,0.9219335733333335,-9.235839826666666,-3.600260413333334,1.45345052,-19.391428113558753,-7.449622535874335,8.195894007001655,10.612824335255187,6.991115457940875,4.757484809039427,13.569870943582531,-2.381238771660077,13.628233447328475,-2.4001847406638337,0.12247092000000002,-0.09162733333333334,-0.5562105733333335,0.7703088266666669,0.5768577782670696,0.5968400077553572,0.58943637516604,0.5957562779625477
LBP05_S02,LBP05,-1533,118,2,117,-1533,1715762136.68,2024-05-15 08:35:36.680000+00:00,2024-05-15 17:35:36.680000+09:00,2024,5,15,8,35,36,680,,,,,,,,,0.334717,-0.037598,0.711426,89.599609,-58.776855,25.939941,,,,,,,,,,,0.0,1.0,1.0,2.0,0.0,0.0,0.0,5.0,0.0,-0.17849285333333334,-0.16700841333333333,0.9273600000000001,-8.827311173333333,-2.84505208,1.5568033866666666,-21.942391341182013,-8.088458005872917,9.274895422085871,9.735128681607906,6.667577137705958,5.128480625922862,12.865870699847337,-2.388309834116676,13.141812156165727,-2.402439572541954,0.5132098533333334,0.12941041333333334,-0.21593400000000007,0.8585542666666668,0.5716282891823372,0.5909556059452901,0.5830706145825638,0.5936891039285883
LBP05_S02,LBP05,-1532,119,2,118,-1532,1715762136.72,2024-05-15 08:35:36.720000+00:00,2024-05-15 17:35:36.720000+09:00,2024,5,15,8,35,36,720,,,,,,,,,0.033936,0.071533,1.050781,14.831543,38.085938,38.635254,,,,,,,,,,,0.0,1.0,1.0,2.0,0.0,0.0,0.0,5.0,0.0,-0.18694012,-0.16367182666666666,0.9357616933333333,-9.439290333333332,-2.729492186666667,1.5364583333333333,-23.3930626608311,-8.082526340485542,9.839438701729662,8.799406175174662,6.344276084086537,5.522058173992048,12.17261329968905,-2.4202313240995106,12.629040863453877,-2.4031385289483693,0.22087611999999998,0.23520482666666664,0.11501930666666671,0.5711002533333334,0.3425449047637869,0.5735931845447323,0.5804403968681469,0.5902229163895167
LBP05_S02,LBP05,-1531,120,2,119,-1531,1715762136.76,2024-05-15 08:35:36.760000+00:00,2024-05-15 17:35:36.760000+09:00,2024,5,15,8,35,36,760,,,,,,,,,-0.539551,-0.130859,1.564453,-58.166504,6.652832,14.831543,,,,,,,,,,,0.0,1.0,1.0,2.0,0.0,0.0,0.0,5.0,0.0,-0.18673504,-0.16326492,0.9403743200000001,-11.47054033333333,-3.4798177066666667,0.7763671866666667,-23.4162563987556,-7.523762309805899,9.601603732439578,7.862755919224438,6.043325591694301,5.906122323289631,11.54239991293779,-2.420926913295848,12.117661615834294,-2.4015383351137816,-0.35281596000000004,0.032405920000000005,0.62407868,1.00930056,0.7176374043431059,0.578288749536456,0.5862323700948808,0.5970757916837539
LBP05_S02,LBP05,-1530,121,2,120,-1530,1715762136.8,2024-05-15 08:35:36.800000+00:00,2024-05-15 17:35:36.800000+09:00,2024,5,15,8,35,36,800,,,,,,,,,-0.371338,-0.316162,1.513916,-76.660156,-44.128418,-3.112793,,,,,,,,,,,0.0,1.0,1.0,2.0,0.0,0.0,0.0,5.0,0.0,-0.18286133333333335,-0.16291010666666667,0.9406933333333334,-11.909179666666665,-2.8792317733333337,0.21484374666666672,-21.669873663939388,-6.629386347771131,8.445202574083781,6.995960972666863,5.778150137783456,6.243930426252983,11.014406752691341,-2.411958228717329,11.631089677241969,-2.398989600110327,-0.18847666666666665,-0.15325189333333333,0.5732226666666667,0.9149512266666666,0.6225703351979386,0.5753429796183639,0.5838811335370044,0.5983226631160409
LBP05_S02,LBP05,-1529,122,2,121,-1529,1715762136.84,2024-05-15 08:35:36.840000+00:00,2024-05-15 17:35:36.840000+09:00,2024,5,15,8,35,36,840,,,,,,,,,-0.166016,0.064209,1.060547,-2.624512,26.611328,-7.69043,,,,,,,,,,,0.0,1.0,1.0,2.0,0.0,0.0,0.0,5.0,0.0,-0.18329428,-0.16476557333333333,0.9380696266666666,-12.155761706666665,-1.619466146666667,0.12776692000000003,-18.075730785474395,-5.607591335025946,6.432984187666215,6.272931741247887,5.553846484382418,6.501249793759632,10.604769317778763,-2.4076171622859563,11.186818734689812,-2.4019591173931145,0.017278280000000007,0.22897457333333332,0.1224773733333333,0.36873022666666666,0.2602471924374462,0.5730318172494936,0.5790350852509203,0.5966116581536688
LBP05_S02,LBP05,-1528,123,2,122,-1528,1715762136.88,2024-05-15 08:35:36.880000+00:00,2024-05-15 17:35:36.880000+09:00,2024,5,15,8,35,36,880,,,,,,,,,-0.495605,0.183838,0.125977,-96.435547,68.17627,-8.422852,,,,,,,,,,,0.0,1.0,1.0,2.0,0.0,0.0,0.0,5.0,0.0,-0.18191733333333335,-0.16745764,0.9354329066666666,-12.916666653333332,-2.648111986666667,-0.028483079999999935,-13.054509177859174,-4.548170087502081,3.763100006651853,5.75075137413352,5.371919680882335,6.651773794025706,10.304113597580175,-2.396168198392121,10.795856641608085,-2.4057868868098473,-0.3136876666666667,0.35129564,-0.8094559066666666,1.4744392133333333,0.9364974339203191,0.5769826417195151,0.5892438887921158,0.6039377278391458
LBP05_S02,LBP05,-1527,124,2,123,-1527,1715762136.92,2024-05-15 08:35:36.920000+00:00,2024-05-15 17:35:36.920000+09:00,2024,5,15,8,35,36,920,,,,,,,,,-0.05542,-0.618164,0.344482,-68.17627,-55.908203,1.831055,,,,,,,,,,,0.0,1.0,1.0,2.0,0.0,0.0,0.0,5.0,0.0,-0.17976563999999998,-0.17109696,0.9399055733333334,-11.261393226666664,-3.0151367200000005,-0.22054037333333326,-7.548790141056808,-3.3952988288981456,0.7177431143336992,5.448799768491248,5.2361077277264085,6.680483518599054,10.086382061757332,-2.3800654841162157,10.46316336445731,-2.4100257841199078,0.12434563999999998,-0.4470670400000001,-0.5954235733333333,1.1668362533333334,0.7548907259480716,0.5831408120022856,0.5940824591821593,0.6010409153558995
LBP05_S02,LBP05,-1526,125,2,124,-1526,1715762136.96,2024-05-15 08:35:36.960000+00:00,2024-05-15 17:35:36.960000+09:00,2024,5,15,8,35,36,960,,,,,,,,,0.222656,-0.266602,0.57251,119.506836,-56.152344,5.737305,,,,,,,,,,,0.0,1.0,1.0,2.0,0.0,0.0,0.0,5.0,0.0,-0.17573894666666667,-0.16727209333333332,0.9480956800000001,-8.430989586666666,-1.8595377733333331,-0.3141276133333333,-2.772611048324413,-2.0151114995821007,-2.366443099183252,5.337895326558272,5.155503267743125,6.585825794631724,9.921967640455156,-2.3800921895056013,10.189033647245958,-2.409652406432382,0.39839494666666664,-0.09932990666666669,-0.37558568000000014,0.8733105333333335,0.556461649090939,0.5982836936207934,0.5859681901363321,0.5999728281912556
LBP05_S02,LBP05,-1525,126,2,125,-1525,1715762137.0,2024-05-15 08:35:37+00:00,2024-05-15 17:35:37+09:00,2024,5,15,8,35,37,0,8.0,35.0,36.0,40.545231,141.522598,10.075,3.0,13.0,0.248535,0.119385,0.917725,51.757812,11.169434,15.136719,-549.0,75.0,544.0,18.0,0.0,1023.200012,20.68,0.10108,-82.46479,3.972656,0.0,1.0,1.0,2.0,0.0,0.0,0.0,5.0,0.0,-0.18434897333333333,-0.15723629333333333,0.9572786266666669,-8.53759765333333,-0.11962891999999992,-0.4191080799999998,0.22498709367319925,-0.3130637768492367,-5.110750104755683,5.3468948103052,5.142980716669156,6.381395790441497,9.785793120578623,-2.432983067741811,9.970888702332973,-2.4111426529855278,0.43288397333333334,0.27662129333333335,-0.03955362666666684,0.7490588933333335,0.5152401029391502,0.5810738713656202,0.5897168300130876,0.5980531678064573
LBP05_S02,LBP05,-1524,127,2,126,-1524,1715762137.04,2024-05-15 08:35:37.040000+00:00,2024-05-15 17:35:37.040000+09:00,2024,5,15,8,35,37,40,,,,,,,,,-0.416504,-0.290771,1.541748,12.634277,44.311523,12.390137,,,,,,,,,,,0.0,1.0,1.0,2.0,0.0,0.0,0.0,5.0,0.0,-0.19140301333333334,-0.16784826666666666,0.9711718533333333,-9.654947919999998,-0.45166017333333325,-1.1442057466666666,0.9759928396768053,1.6756923621634443,-7.12108311416812,5.385934523892272,5.210008411155694,6.096552465874772,9.660250012765275,-2.4195164658274058,9.80475756944666,-2.411709796907979,-0.22510098666666664,-0.12292273333333334,0.5705761466666666,0.9185998666666666,0.625569813620691,0.5760156577598895,0.5933481664411355,0.6011076772401878
LBP05_S02,LBP05,-1523,128,2,127,-1523,1715762137.08,2024-05-15 08:35:37.080000+00:00,2024-05-15 17:35:37.080000+09:00,2024,5,15,8,35,37,80,,,,,,,,,-0.59668,-0.082031,1.719971,26.367188,-30.273438,-19.348145,,,,,,,,,,,0.0,1.0,1.0,2.0,0.0,0.0,0.0,5.0,0.0,-0.19163738666666666,-0.16419592,0.9737825333333334,-8.927408866666665,-0.48095703999999995,-2.00602216,-0.22768075118330566,3.7734464239814574,-8.05895339111045,5.376827293844939,5.360946268114952,5.774194330230354,9.538937928339605,-2.4306988072172784,9.686070323314008,-2.4094516178306504,-0.40504261333333336,0.08216491999999999,0.7461884666666665,1.233396,0.8529993086051438,0.5833681411508318,0.5952236129096122,0.6005694379438804
LBP05_S02,LBP05,-1522,129,2,128,-1522,1715762137.12,2024-05-15 08:35:37.120000+00:00,2024-05-15 17:35:37.120000+09:00,2024,5,15,8,35,37,120,,,,,,,,,-0.225342,-0.076904,1.573486,-26.000977,-22.705078,-36.132812,,,,,,,,,,,0.0,1.0,1.0,2.0,0.0,0.0,0.0,5.0,0.0,-0.18728192,-0.16529292,0.9689127466666666,-8.46272788,1.4615885333333334,-2.15738936,-2.4901705501175813,5.7196159198726395,-7.754216784552468,5.277220471840236,5.589730904909858,5.464025658848255,9.431316127575524,-2.4164975472242536,9.609739571608255,-2.4088277166400864,-0.038060079999999996,0.08838892000000001,0.6045732533333333,0.7310222533333334,0.6121846041141705,0.5933795014341555,0.594270507654217,0.5985284414800959
LBP05_S02,LBP05,-1521,130,2,129,-1521,1715762137.16,2024-05-15 08:35:37.160000+00:00,2024-05-15 17:35:37.160000+09:00,2024,5,15,8,35,37,160,,,,,,,,,-0.201416,-0.157471,0.881836,-73.913574,93.383789,-23.376465,,,,,,,,,,,0.0,1.0,1.0,2.0,0.0,0.0,0.0,5.0,0.0,-0.18956708,-0.1606868,0.9573697733333334,-8.121744813333331,1.6153971333333335,-2.5545247733333336,-4.725605906143006,7.264186319818055,-6.313113580131536,5.088196235594515,5.88029835770258,5.211501115642994,9.360950463807937,-2.4358293788273064,9.56971276540016,-2.4148447439647738,-0.011848920000000013,0.003215799999999991,-0.07553377333333344,0.09059849333333345,0.0765250886231293,0.5703098229928958,0.5832874871885416,0.5944552609138027
LBP05_S02,LBP05,-1520,131,2,130,-1520,1715762137.2,2024-05-15 08:35:37.200000+00:00,2024-05-15 17:35:37.200000+09:00,2024,5,15,8,35,37,200,,,,,,,,,-0.118896,-0.186523,0.184326,-85.205078,-5.554199,-16.479492,,,,,,,,,,,0.0,1.0,1.0,2.0,0.0,0.0,0.0,5.0,0.0,-0.18517254666666666,-0.16305008,0.9594921733333333,-8.264973986666664,-0.8813476533333333,-2.3242187866666666,-6.125519871636534,8.251140667196832,-4.153488935732961,4.843175440729054,6.2103439843904535,5.045361558213676,9.353095423828204,-2.417629667941841,9.558556433924064,-2.420848545340448,0.06627654666666666,-0.023472920000000008,-0.7751661733333333,0.86491564,0.778348350606352,0.5644478454982882,0.5909616005013283,0.5943818318301595
LBP05_S02,LBP05,-1519,132,2,131,-1519,1715762137.24,2024-05-15 08:35:37.240000+00:00,2024-05-15 17:35:37.240000+09:00,2024,5,15,8,35,37,240,,,,,,,,,0.174561,-0.51001,0.657227,-3.417969,-46.325684,10.253906,,,,,,,,,,,0.0,1.0,1.0,2.0,0.0,0.0,0.0,5.0,0.0,-0.17813478666666666,-0.16783524,0.9676171733333333,-7.115885453333332,-1.4355468666666664,-2.030436226666667,-6.456501680424456,8.657452277939418,-1.9220807191690616,4.584915373512075,6.55664207550803,4.9684783294469135,9.417896856452252,-2.3850353715126715,9.567875592043794,-2.421099875952822,0.3526957866666667,-0.34217475999999997,-0.3103901733333333,1.0052607199999999,0.5812228006671565,0.5669444902076684,0.5907204992460128,0.5929952423045538
LBP05_S02,LBP05,-1518,133,2,132,-1518,1715762137.28,2024-05-15 08:35:37.280000+00:00,2024-05-15 17:35:37.280000+09:00,2024,5,15,8,35,37,280,,,,,,,,,0.25415,0.087646,0.972168,103.881836,20.263672,21.484375,,,,,,,,,,,0.0,1.0,1.0,2.0,0.0,0.0,0.0,5.0,0.0,-0.17814454666666665,-0.16616532,0.9779492000000001,-4.018554733333332,0.26611329333333344,-1.9498698266666668,-6.064020758216555,8.578582227501595,-0.30700572777837537,4.342354543183413,6.8997853646080936,4.9561981003357785,9.540806080522634,-2.38992918648648,9.589803148927492,-2.4235765897071704,0.43229454666666667,0.25381132,-0.005781200000000042,0.6918870666666667,0.5013304135112104,0.572354184595937,0.5868101778366897,0.5921060518803766
LBP05_S02,LBP05,-1517,134,2,133,-1517,1715762137.32,2024-05-15 08:35:37.320000+00:00,2024-05-15 17:35:37.320000+09:00,2024,5,15,8,35,37,320,,,,,,,,,-0.438721,-0.115967,1.521484,-3.601074,52.001953,30.395508,,,,,,,,,,,0.0,1.0,1.0,2.0,0.0,0.0,0.0,5.0,0.0,-0.19062826666666666,-0.16015946666666664,0.9909439866666667,-5.256347706666665,1.1816406400000001,-2.6570638399999997,-5.623278165905575,8.182786030984909,0.18347509090105987,4.11742341654719,7.22709680584749,4.963537103971821,9.686113999676397,-2.44023575736309,9.618797849962228,-2.4246961973648133,-0.24809273333333337,0.04419246666666664,0.5305400133333333,0.8228252133333334,0.587346306867271,0.5655315241885043,0.5954946834889069,0.5934787717160487
LBP05_S02,LBP05,-1516,135,2,134,-1516,1715762137.36,2024-05-15 08:35:37.360000+00:00,2024-05-15 17:35:37.360000+09:00,2024,5,15,8,35,37,360,,,,,,,,,-0.540771,-0.311279,1.73999,-11.962891,-30.456543,-7.69043,,,,,,,,,,,0.0,1.0,1.0,2.0,0.0,0.0,0.0,5.0,0.0,-0.1945410266666667,-0.16346349333333335,1.0001074,-6.618652386666665,0.694987,-3.8549805066666667,-5.802320268514659,7.663923632184085,-0.6170233309547023,3.8853306058066037,7.533653751134853,4.938856170733633,9.810404325694199,-2.440130203262339,9.652662037255565,-2.4216111448954987,-0.3462299733333333,-0.14781550666666662,0.7398825999999998,1.2339280799999996,0.830151118910457,0.5786595515138763,0.5972867978905864,0.5924475689298497
LBP05_S02,LBP05,-1515,136,2,135,-1515,1715762137.4,2024-05-15 08:35:37.400000+00:00,2024-05-15 17:35:37.400000+09:00,2024,5,15,8,35,37,400,,,,,,,,,-0.277588,-0.217773,1.545654,-2.746582,-25.45166,-13.305664,,,,,,,,,,,0.0,1.0,1.0,2.0,0.0,0.0,0.0,5.0,0.0,-0.189834,-0.16108393333333335,0.99387368,-7.425944053333331,1.95963544,-4.57438156,-7.0054059983057995,7.204933126057392,-2.495851756181676,3.6051143658743716,7.821851076177149,4.839022100486366,9.87898470177593,-2.4354963738655573,9.692232217385769,-2.4166500782043725,-0.087754,-0.05668906666666665,0.5517803200000001,0.6962233866666667,0.5615834188567539,0.583689534324354,0.59364226100471,0.5865456158395637
LBP05_S02,LBP05,-1514,137,2,136,-1514,1715762137.44,2024-05-15 08:35:37.440000+00:00,2024-05-15 17:35:37.440000+09:00,2024,5,15,8,35,37,440,,,,,,,,,-0.227295,-0.063232,0.839355,-27.832031,93.994141,-1.159668,,,,,,,,,,,0.0,1.0,1.0,2.0,0.0,0.0,0.0,5.0,0.0,-0.19113282666666664,-0.15920568000000002,0.9770247333333335,-7.879231813333331,3.859049493333333,-5.00976568,-9.269589916040596,6.949494301989207,-4.955967898298469,3.2343307692327476,8.099830848256717,4.640783384554427,9.87952558160225,-2.44428360337089,9.739865137658839,-2.418831910054714,-0.03616217333333335,0.09597368000000002,-0.13766973333333354,0.26980558666666693,0.17167296091406944,0.5749937255384704,0.5835511151514653,0.5836376985544057
LBP05_S02,LBP05,-1513,138,2,137,-1513,1715762137.48,2024-05-15 08:35:37.480000+00:00,2024-05-15 17:35:37.480000+09:00,2024,5,15,8,35,37,480,,,,,,,,,-0.217041,-0.12915,0.141602,-60.241699,-8.911133,-19.53125,,,,,,,,,,,0.0,1.0,1.0,2.0,0.0,0.0,0.0,5.0,0.0,-0.1907064,-0.1596321066666667,0.9685839733333332,-8.028971399999998,2.263997413333333,-5.08626308,-12.288144076163793,6.975426572163992,-7.394922595062214,2.742805006186196,8.378847911143277,4.344986480751938,9.828884938686953,-2.441894883793703,9.797289127290862,-2.4268662394016496,-0.026334600000000014,0.030482106666666703,-0.8269819733333332,0.88379868,0.8279624714939029,0.5745896272722948,0.5845143822880141,0.5855585816251899
LBP05_S02,LBP05,-1512,139,2,138,-1512,1715762137.52,2024-05-15 08:35:37.520000+00:00,2024-05-15 17:35:37.520000+09:00,2024,5,15,8,35,37,520,,,,,,,,,0.099854,-0.494141,0.658691,13.366699,-51.452637,-23.31543,,,,,,,,,,,0.0,1.0,1.0,2.0,0.0,0.0,0.0,5.0,0.0,-0.1798828266666667,-0.16926753333333333,0.9757454400000001,-7.1150716666666645,-0.21728513333333335,-4.60205084,-15.49535075771704,7.264907498884826,-9.296526154953737,2.1229909758775145,8.66944421109867,3.973125434553789,9.769958000508899,-2.3856470225311055,9.863803436740499,-2.4325327011070534,0.27973682666666666,-0.32487346666666667,-0.31705444000000005,0.9216647333333333,0.5332156969381792,0.5709180320949503,0.5845629687976178,0.5840718646452767
LBP05_S02,LBP05,-1511,140,2,139,-1511,1715762137.56,2024-05-15 08:35:37.560000+00:00,2024-05-15 17:35:37.560000+09:00,2024,5,15,8,35,37,560,,,,,,,,,0.223633,0.209961,0.883545,49.01123,0.549316,-17.883301,,,,,,,,,,,0.0,1.0,1.0,2.0,0.0,0.0,0.0,5.0,0.0,-0.1759896,-0.16542965333333332,0.9876790400000001,-3.6059570799999983,0.6559244933333334,-4.263509173333333,-18.16970735630556,7.681661324905337,-10.370466340557876,1.396202681625292,8.976710664094883,3.558306780931474,9.756652265109963,-2.386218711916049,9.935877688986714,-2.432465470050219,0.3996226,0.3753906533333333,-0.10413404000000004,0.8791472933333334,0.5580862507959755,0.5889063724939991,0.5815350938628207,0.5865034686076183
LBP05_S02,LBP05,-1510,141,2,140,-1510,1715762137.6,2024-05-15 08:35:37.600000+00:00,2024-05-15 17:35:37.600000+09:00,2024,5,15,8,35,37,600,,,,,,,,,-0.276855,-0.122314,1.481689,-42.663574,55.786133,5.371094,,,,,,,,,,,0.0,1.0,1.0,2.0,0.0,0.0,0.0,5.0,0.0,-0.18463542666666666,-0.15544266666666665,0.9998893200000002,-4.573567759999999,1.7879232000000003,-4.175618546666667,-19.55923951091358,7.984460662775748,-10.601411666121974,0.6138331011887487,9.296089090605912,3.134250314286595,9.829424626558916,-2.4394479864452556,10.008408551265331,-2.4315085974620283,-0.09221957333333336,0.03312866666666664,0.48179967999999984,0.6071479199999998,0.4916633908569921,0.5777775124588648,0.5795376138016861,0.5883828001495689
LBP05_S02,LBP05,-1509,142,2,141,-1509,1715762137.64,2024-05-15 08:35:37.640000+00:00,2024-05-15 17:35:37.640000+09:00,2024,5,15,8,35,37,640,,,,,,,,,-0.687256,-0.274414,1.81665,-21.240234,-13.122559,-22.216797,,,,,,,,,,,0.0,1.0,1.0,2.0,0.0,0.0,0.0,5.0,0.0,-0.19369466666666665,-0.1544205333333333,1.012171226666667,-5.463867239999998,0.9545898666666667,-4.542643293333334,-19.051769175426085,7.896093264865396,-10.203993032068922,-0.14823766582829467,9.611932821200527,2.726090593003838,9.99213675277246,-2.4653786649820244,10.076657086333624,-2.4288089308300913,-0.4935613333333333,-0.11999346666666669,0.8044787733333332,1.4180335733333331,0.9514133268713271,0.592759734403035,0.5947998710791961,0.5905441615783716
LBP05_S02,LBP05,-1508,143,2,142,-1508,1715762137.68,2024-05-15 08:35:37.680000+00:00,2024-05-15 17:35:37.680000+09:00,2024,5,15,8,35,37,680,,,,,,,,,-0.38208,-0.510254,1.702881,-62.255859,-15.075684,0.244141,,,,,,,,,,,0.0,1.0,1.0,2.0,0.0,0.0,0.0,5.0,0.0,-0.1902474,-0.15777990666666666,1.0143782666666668,-6.730957093333331,0.5582682533333334,-4.514974026666667,-16.37719423369077,7.207029488055451,-9.512317113637607,-0.8033254351759255,9.900214000722746,2.345597908458334,10.205949175019018,-2.4465938035405195,10.137243568422523,-2.424386840278945,-0.19183259999999996,-0.35247409333333335,0.6885027333333333,1.2328094266666667,0.7969151439779435,0.6017712085948592,0.5963634072700748,0.5893041459199957
LBP05_S02,LBP05,-1507,144,2,143,-1507,1715762137.72,2024-05-15 08:35:37.720000+00:00,2024-05-15 17:35:37.720000+09:00,2024,5,15,8,35,37,720,,,,,,,,,-0.298828,-0.175537,1.054443,-10.253906,83.740234,9.887695,,,,,,,,,,,0.0,1.0,1.0,2.0,0.0,0.0,0.0,5.0,0.0,-0.18455730666666664,-0.15534826666666668,1.0052897333333335,-6.905110746666664,3.0126953333333337,-4.00309252,-11.770070956183527,5.8631731348170115,-8.851104986893693,-1.2741282734232666,10.134740926115427,1.9915537089825863,10.406856522138558,-2.439563446794744,10.187130411288015,-2.4223630600638137,-0.11427069333333334,-0.02018873333333332,0.04915326666666653,0.1836126933333332,0.12602150583328858,0.5931102726376394,0.5833517285911859,0.5846636887913109
LBP05_S02,LBP05,-1506,145,2,144,-1506,1715762137.76,2024-05-15 08:35:37.760000+00:00,2024-05-15 17:35:37.760000+09:00,2024,5,15,8,35,37,760,,,,,,,,,-0.348633,-0.099121,0.260742,-45.593262,20.629883,-1.464844,,,,,,,,,,,0.0,1.0,1.0,2.0,0.0,0.0,0.0,5.0,0.0,-0.18225588,-0.15629878666666666,0.9898079599999999,-7.5268555333333325,3.6124674666666667,-4.185384186666667,-5.999709456762366,3.988990946099038,-8.436137275692856,-1.5141166516937612,10.29430056395939,1.654108217954872,10.535712948480363,-2.4305614773804383,10.221125900047578,-2.427342588844452,-0.16637712000000002,0.05717778666666666,-0.72906596,0.9526208666666667,0.7499918795415821,0.5944044516455784,0.5863466005910172,0.5889563972784466
LBP05_S02,LBP05,-1505,146,2,145,-1505,1715762137.8,2024-05-15 08:35:37.800000+00:00,2024-05-15 17:35:37.800000+09:00,2024,5,15,8,35,37,800,,,,,,,,,-0.048584,-0.216064,0.439453,14.770508,-75.622559,-17.883301,,,,,,,,,,,0.0,1.0,1.0,2.0,0.0,0.0,0.0,5.0,0.0,-0.1779101866666667,-0.15972001333333333,0.9882682533333333,-5.436197986666666,1.5681966266666665,-4.92513028,-0.2167623077428657,1.8258105213854972,-8.335893774608598,-1.522787144003476,10.367332984814809,1.320672466970528,10.561470052458862,-2.408499707546185,10.230108889118307,-2.432709147444504,0.12932618666666668,-0.05634398666666668,-0.5488152533333334,0.7344854266666667,0.566655177054411,0.5921678453198373,0.5837554124691006,0.5866433707979488
LBP05_S02,LBP05,-1504,147,2,146,-1504,1715762137.84,2024-05-15 08:35:37.840000+00:00,2024-05-15 17:35:37.840000+09:00,2024,5,15,8,35,37,840,,,,,,,,,0.228271,-0.041992,0.760498,52.124023,-39.0625,-27.832031,,,,,,,,,,,0.0,1.0,1.0,2.0,0.0,0.0,0.0,5.0,0.0,-0.17352541333333335,-0.1585481333333333,1.0006998933333333,-5.227864653333332,1.5364583466666666,-5.984700586666667,4.354051223093774,-0.38478475448028465,-8.497336419507626,-1.348625095079725,10.351941594635598,0.9807790101902231,10.485390402491225,-2.400062697859424,10.202438855888559,-2.4319425693614596,0.4017964133333334,0.11655613333333331,-0.2402018933333333,0.75855444,0.4824133492618821,0.6010544915928147,0.5870431544211542,0.5863748873648852
LBP05_S02,LBP05,-1503,148,2,147,-1503,1715762137.88,2024-05-15 08:35:37.880000+00:00,2024-05-15 17:35:37.880000+09:00,2024,5,15,8,35,37,880,,,,,,,,,-0.063965,-0.165527,1.174805,40.039062,30.456543,-10.864258,,,,,,,,,,,0.0,1.0,1.0,2.0,0.0,0.0,0.0,5.0,0.0,-0.18275718666666668,-0.15967442666666665,1.0162500133333332,-3.9046224666666647,3.2495117333333328,-6.58854172,6.769437169905132,-2.49574784006355,-8.808407706986587,-1.0778476082835198,10.252111681033055,0.6284427019107596,10.327753367341893,-2.4216570816423912,10.12908825682814,-2.4261748143035877,0.11879218666666669,-0.005852573333333361,0.1585549866666669,0.2831997466666669,0.19820575174433547,0.5715228243057754,0.5742527330126452,0.583336867296669
LBP05_S02,LBP05,-1502,149,2,148,-1502,1715762137.92,2024-05-15 08:35:37.920000+00:00,2024-05-15 17:35:37.920000+09:00,2024,5,15,8,35,37,920,,,,,,,,,-0.645264,-0.447754,1.695068,-19.40918,10.559082,0.854492,,,,,,,,,,,0.0,1.0,1.0,2.0,0.0,0.0,0.0,5.0,0.0,-0.19323570666666667,-0.16402013333333335,1.0318392133333334,-5.900065173333331,3.200683613333333,-6.94742844,6.635463626777389,-4.457625710650034,-9.157578581987002,-0.8124290632124243,10.073806652607054,0.2621395586312795,10.109912888104514,-2.435442310337489,10.010004018996618,-2.422342911411206,-0.4520282933333333,-0.28373386666666667,0.6632287866666666,1.3989909466666666,0.851297191661527,0.5753790829343136,0.5792599474682996,0.5878480004328774
LBP05_S02,LBP05,-1501,150,2,149,-1501,1715762137.96,2024-05-15 08:35:37.960000+00:00,2024-05-15 17:35:37.960000+09:00,2024,5,15,8,35,37,960,,,,,,,,,-0.433594,-0.108643,1.627441,35.827637,-23.620605,-4.455566,,,,,,,,,,,0.0,1.0,1.0,2.0,0.0,0.0,0.0,5.0,0.0,-0.1954264666666667,-0.16434565333333334,1.0370605599999998,-5.523274813333332,2.719726586666667,-6.87093104,4.188718731101554,-6.228876345071621,-9.464801770806535,-0.6448803139683621,9.82465159880419,-0.11645251220098185,9.846482155817252,-2.439884297916568,9.857606163390539,-2.4172598365076254,-0.2381675333333333,0.05570265333333334,0.5903804400000001,0.8842506266666668,0.6390427399298514,0.5786823265678701,0.5884830100943317,0.5835395689468448
LBP05_S02,LBP05,-1500,151,2,150,-1500,1715762138.0,2024-05-15 08:35:38+00:00,2024-05-15 17:35:38+09:00,2024,5,15,8,35,38,0,8.0,35.0,37.0,40.545197,141.522461,9.673,3.0,10.0,-0.184082,-0.209961,1.145996,-18.310547,38.574219,-12.451172,-549.0,77.0,541.0,0.0,0.0,1022.900024,20.75,0.098107,-79.988037,3.972656,0.0,1.0,1.0,2.0,0.0,0.0,0.0,5.0,0.0,-0.19172204,-0.16398432,1.02922852,-5.645345119999999,4.3815104400000005,-6.354166706666668,0.1747459090453655,-7.664304358146391,-9.683359929754921,-0.6378904776065475,9.518079424478334,-0.5037869093911786,9.552724294261445,-2.4317822056148124,9.694760950996443,-2.414814917097853,0.007640040000000015,-0.04597668000000002,0.11676748000000003,0.17038420000000007,0.12572537413177345,0.563101737415575,0.5720878043905976,0.5808451324805834
LBP05_S02,LBP05,-1499,152,2,151,-1499,1715762138.04,2024-05-15 08:35:38.040000+00:00,2024-05-15 17:35:38.040000+09:00,2024,5,15,8,35,38,40,,,,,,,,,-0.459961,0.04834,0.218018,-42.480469,52.612305,-14.709473,,,,,,,,,,,0.0,1.0,1.0,2.0,0.0,0.0,0.0,5.0,0.0,-0.18735029333333333,-0.16844394666666668,1.0126985733333334,-4.467773506666664,4.519042986666666,-5.882161506666666,-4.410030876817027,-8.47196407008859,-9.786180380376662,-0.8142917126792286,9.17920086167479,-0.8952341246062452,9.258630762168279,-2.4077011144033067,9.54806171812682,-2.415954038623754,-0.27261070666666665,0.21678394666666667,-0.7946805733333333,1.2840752266666666,0.8676572425532278,0.5727852345728764,0.574400446166383,0.5864938558183825
LBP05_S02,LBP05,-1498,153,2,152,-1498,1715762138.08,2024-05-15 08:35:38.080000+00:00,2024-05-15 17:35:38.080000+09:00,2024,5,15,8,35,38,80,,,,,,,,,-0.072998,-0.168945,0.343262,-42.785645,-66.345215,-15.625,,,,,,,,,,,0.0,1.0,1.0,2.0,0.0,0.0,0.0,5.0,0.0,-0.18381187999999998,-0.16508457333333332,1.0106770933333333,-1.783854239999998,2.583821626666667,-5.8211263466666665,-8.601854274420598,-8.29182310256026,-9.747681996105513,-1.1583658836560526,8.84752793757238,-1.2851414044504657,9.015106796703796,-2.4082747746167046,9.440166809907662,-2.4186300396511156,0.11081387999999999,-0.003860426666666694,-0.6674150933333334,0.7820894,0.6765630241920151,0.5657277831963513,0.5745479621735916,0.5853916696718587
LBP05_S02,LBP05,-1497,154,2,153,-1497,1715762138.12,2024-05-15 08:35:38.120000+00:00,2024-05-15 17:35:38.120000+09:00,2024,5,15,8,35,38,120,,,,,,,,,0.253418,-0.352539,0.596436,-4.02832,-85.205078,-1.89209,,,,,,,,,,,0.0,1.0,1.0,2.0,0.0,0.0,0.0,5.0,0.0,-0.17613283999999998,-0.16472976,1.0221451866666666,0.2180988800000019,2.21191408,-5.80810552,-11.672942708931245,-6.875511879783156,-9.525471397591017,-1.6252835920133024,8.572507462381054,-1.6661602603541064,8.882877966077762,-2.3887326977589334,9.385062277383474,-2.4187043107696584,0.42955084,-0.18780924,-0.4257091866666667,1.0430692666666666,0.6332570934355793,0.5665706827692077,0.5799750921016816,0.5850372326925473
LBP05_S02,LBP05,-1496,155,2,154,-1496,1715762138.16,2024-05-15 08:35:38.160000+00:00,2024-05-15 17:35:38.160000+09:00,2024,5,15,8,35,38,160,,,,,,,,,0.290283,0.009521,0.910156,50.292969,0.427246,-1.098633,,,,,,,,,,,0.0,1.0,1.0,2.0,0.0,0.0,0.0,5.0,0.0,-0.18021813333333334,-0.16262364,1.03745768,0.4028319466666686,3.7207031466666662,-5.576171933333334,-13.203661193031754,-4.269396830150528,-9.046959728251718,-2.1534300397345727,8.401731589175034,-2.028038649484175,8.907260824539408,-2.4061122832827135,9.387663650270314,-2.4165040198717453,0.4705011333333333,0.17214464000000002,-0.12730167999999997,0.7699474533333333,0.5169243767510903,0.5841866542943261,0.577248238643611,0.5835872095571365
LBP05_S02,LBP05,-1495,156,2,155,-1495,1715762138.2,2024-05-15 08:35:38.200000+00:00,2024-05-15 17:35:38.200000+09:00,2024,5,15,8,35,38,200,,,,,,,,,-0.490723,-0.16333,1.531006,-9.94873,41.442871,1.159668,,,,,,,,,,,0.0,1.0,1.0,2.0,0.0,0.0,0.0,5.0,0.0,-0.19110354666666665,-0.16756504000000003,1.0521647066666666,-1.0123698666666647,4.356282573333334,-5.708821666666667,-13.05157342078616,-0.8811726118831342,-8.212086333217998,-2.675492976566019,8.366484684699708,-2.3565221028128946,9.094477723762623,-2.4198909228051986,9.44640315671018,-2.412434825892141,-0.2996194533333334,0.004235040000000023,0.4788412933333335,0.7826957866666668,0.5648705485159469,0.5756475422107099,0.570047693854499,0.5858569144044555
LBP05_S02,LBP05,-1494,157,2,156,-1494,1715762138.24,2024-05-15 08:35:38.240000+00:00,2024-05-15 17:35:38.240000+09:00,2024,5,15,8,35,38,240,,,,,,,,,-0.541748,-0.147461,1.717773,-15.50293,-24.291992,-17.150879,,,,,,,,,,,0.0,1.0,1.0,2.0,0.0,0.0,0.0,5.0,0.0,-0.19501957333333333,-0.16854485333333333,1.05879232,-0.9130860133333314,3.8997396,-6.27766932,-11.294288557953093,2.6253173968478425,-6.923331140088305,-3.1272645188841426,8.471497380573622,-2.633455348416427,9.406441320299644,-2.426822708133037,9.55621398583497,-2.404900425156755,-0.3467284266666667,0.02108385333333332,0.65898068,1.0267929599999999,0.7449299747918497,0.5821958291756977,0.574570159691683,0.5878789425559077
LBP05_S02,LBP05,-1493,158,2,157,-1493,1715762138.28,2024-05-15 08:35:38.280000+00:00,2024-05-15 17:35:38.280000+09:00,2024,5,15,8,35,38,280,,,,,,,,,-0.249023,-0.313477,1.52002,-35.400391,3.295898,-10.864258,,,,,,,,,,,0.0,1.0,1.0,2.0,0.0,0.0,0.0,5.0,0.0,-0.19151695999999999,-0.16705072,1.0480110666666667,-0.8634440799999982,5.110677106666667,-6.5771484933333335,-8.203742779714599,5.559563005873452,-5.141539395082653,-3.4554142300727264,8.69387990080856,-2.839116924219733,9.776708042100012,-2.422399792827824,9.709944634549753,-2.4015254022656247,-0.05750604000000001,-0.14642628,0.47200893333333327,0.6759412533333333,0.49753395186418287,0.5820439707098166,0.5771990776528768,0.5852214421277321
LBP05_S02,LBP05,-1492,159,2,158,-1492,1715762138.32,2024-05-15 08:35:38.320000+00:00,2024-05-15 17:35:38.320000+09:00,2024,5,15,8,35,38,320,,,,,,,,,-0.279541,-0.194336,0.778564,-15.563965,119.140625,3.479004,,,,,,,,,,,0.0,1.0,1.0,2.0,0.0,0.0,0.0,5.0,0.0,-0.18839846666666665,-0.16740228,1.0299707066666668,-0.7348633599999982,5.411783880000001,-6.433919320000001,-4.244966865298189,7.445763410492294,-2.947644162403456,-3.625212904684654,8.991710437228251,-2.957022690715871,10.135926616972922,-2.4134394013583576,9.897974686078381,-2.400433592806247,-0.09114253333333333,-0.026933720000000022,-0.25140670666666676,0.36948296000000014,0.2687707551286702,0.5693009486402726,0.5674162364143884,0.5867634385393621
LBP05_S02,LBP05,-1491,160,2,159,-1491,1715762138.36,2024-05-15 08:35:38.360000+00:00,2024-05-15 17:35:38.360000+09:00,2024,5,15,8,35,38,360,,,,,,,,,-0.208252,-0.011719,0.083984,-45.654297,-3.723145,-18.676758,,,,,,,,,,,0.0,1.0,1.0,2.0,0.0,0.0,0.0,5.0,0.0,-0.1863021066666667,-0.17048496,1.0221809866666667,-0.5037435599999983,3.8712565333333333,-6.428222706666666,-0.04437650900118052,8.162557193232757,-0.5797335519108996,-3.6269879650447012,9.318212724957561,-2.980212032792307,10.433877220215896,-2.399192358120525,10.10751783617464,-2.401806056414221,-0.021949893333333304,0.15876595999999998,-0.9381969866666666,1.11891284,0.9517888493056008,0.5741664578560782,0.5764130046849774,0.5895800178790837
LBP05_S02,LBP05,-1490,161,2,160,-1490,1715762138.4,2024-05-15 08:35:38.400000+00:00,2024-05-15 17:35:38.400000+09:00,2024,5,15,8,35,38,400,,,,,,,,,0.080566,-0.336914,0.511475,28.686523,-73.608398,-10.864258,,,,,,,,,,,0.0,1.0,1.0,2.0,0.0,0.0,0.0,5.0,0.0,-0.17544598666666666,-0.1753580133333333,1.0299446533333332,1.2841796133333352,2.4405924666666667,-6.32812504,3.718013259388164,7.919634660916106,1.5811029715537877,-3.4782674346691747,9.634998111394205,-2.9169679139301556,10.650832585509361,-2.3564381982609524,10.32362084248964,-2.401164744804674,0.2560119866666667,-0.16155598666666668,-0.5184696533333332,0.9360376266666666,0.600377594162574,0.5757182248683111,0.5797038795963325,0.587667582292577
LBP05_S02,LBP05,-1489,162,2,161,-1489,1715762138.44,2024-05-15 08:35:38.440000+00:00,2024-05-15 17:35:38.440000+09:00,2024,5,15,8,35,38,440,,,,,,,,,0.292236,0.168213,0.87085,102.539062,-18.554688,7.446289,,,,,,,,,,,0.0,1.0,1.0,2.0,0.0,0.0,0.0,5.0,0.0,-0.17514325333333333,-0.16886713333333334,1.0398567733333333,3.0346679066666686,3.6678060000000006,-6.267089893333334,6.478513802042313,7.098960543664249,3.08606133496739,-3.2191268825874824,9.918956533140776,-2.79352546053146,10.795937249316104,-2.3739508854920026,10.532601617355946,-2.398753485015698,0.4673792533333333,0.3370801333333333,-0.16900677333333325,0.9734661599999999,0.6005244975577487,0.5928722863340583,0.5839330059362644,0.5866581722123296
LBP05_S02,LBP05,-1488,163,2,162,-1488,1715762138.48,2024-05-15 08:35:38.480000+00:00,2024-05-15 17:35:38.480000+09:00,2024,5,15,8,35,38,480,,,,,,,,,-0.253662,0.158203,1.266846,-7.995605,39.550781,39.001465,,,,,,,,,,,0.0,1.0,1.0,2.0,0.0,0.0,0.0,5.0,0.0,-0.18472658666666666,-0.16971673333333334,1.0540039066666667,1.6764322266666682,4.768066426666667,-6.184895893333334,7.9427817870491015,6.066931710151607,3.539162025266557,-2.9014156111055183,10.16163380154684,-2.6519589795207974,10.89540731199009,-2.3973566800229227,10.726562484855169,-2.394382234159397,-0.06893541333333333,0.32791973333333335,0.21284209333333326,0.6096972399999999,0.3969700233208514,0.5756325884071362,0.5751111078397154,0.5815537843277214
LBP05_S02,LBP05,-1487,164,2,163,-1487,1715762138.52,2024-05-15 08:35:38.520000+00:00,2024-05-15 17:35:38.520000+09:00,2024,5,15,8,35,38,520,,,,,,,,,-0.506836,-0.488037,1.868164,-17.150879,-10.559082,5.615234,,,,,,,,,,,0.0,1.0,1.0,2.0,0.0,0.0,0.0,5.0,0.0,-0.19392905333333335,-0.17627272,1.0639648400000001,1.7626952533333353,4.500325533333334,-6.207682360000001,8.12997511257954,5.06671998801658,2.7201929278586507,-2.576216606602337,10.364302601067504,-2.543151262406451,10.97830946704035,-2.402457333838676,10.906592926752975,-2.3899634096110476,-0.31290694666666663,-0.31176428,0.8041991599999998,1.4288703866666665,0.9175205787887701,0.5910047836811598,0.5809614078880551,0.5867102404254652
LBP05_S02,LBP05,-1486,165,2,164,-1486,1715762138.56,2024-05-15 08:35:38.560000+00:00,2024-05-15 17:35:38.560000+09:00,2024,5,15,8,35,38,560,,,,,,,,,-0.368896,-0.272949,1.692383,-26.855469,-13.061523,-6.958008,,,,,,,,,,,0.0,1.0,1.0,2.0,0.0,0.0,0.0,5.0,0.0,-0.19148764,-0.17505528,1.06005208,1.9986978666666684,4.41487632,-6.0611979866666665,7.27939345488848,4.225795124005651,0.6576121544512015,-2.2850408684067975,10.53333440602773,-2.516846776228403,11.068290887689399,-2.3996991671872476,11.082959438263725,-2.3846093834190167,-0.17740836000000001,-0.09789371999999999,0.63233092,0.907633,0.664002484183135,0.5952414330166462,0.5920739027553227,0.5861038735807625
LBP05_S02,LBP05,-1485,166,2,165,-1485,1715762138.6,2024-05-15 08:35:38.600000+00:00,2024-05-15 17:35:38.600000+09:00,2024,5,15,8,35,38,600,,,,,,,,,-0.154785,-0.119873,1.039551,1.220703,94.177246,0.183105,,,,,,,,,,,0.0,1.0,1.0,2.0,0.0,0.0,0.0,5.0,0.0,-0.18783204,-0.17310866666666666,1.0414876266666666,1.118977813333335,5.702311226666668,-5.8544922533333335,5.682548642250396,3.63027314696846,-2.3792021909887797,-2.0577389227167817,10.678545331906468,-2.6120148638679543,11.184285472425683,-2.395778324915435,11.272047839406971,-2.3827727879187917,0.03304704,0.05323566666666667,-0.0019366266666667187,0.08821933333333339,0.06268886329366716,0.5780824519141132,0.5779299821864889,0.5790525598391619
LBP05_S02,LBP05,-1484,167,2,166,-1484,1715762138.64,2024-05-15 08:35:38.640000+00:00,2024-05-15 17:35:38.640000+09:00,2024,5,15,8,35,38,640,,,,,,,,,-0.30835,0.084473,0.205566,15.686035,36.193848,-28.686523,,,,,,,,,,,0.0,1.0,1.0,2.0,0.0,0.0,0.0,5.0,0.0,-0.18685548,-0.17675775999999999,1.0238151066666665,0.6420898000000017,5.1432292,-5.530599026666667,3.545002799736774,3.3807009795717136,-5.95767377332813,-1.9159388107273108,10.813773371089336,-2.8503218148010796,11.346049995291883,-2.3831101995700252,11.491277810071923,-2.3873622412766697,-0.12149452000000002,0.26123076,-0.8182491066666665,1.2009743866666667,0.8674871923671298,0.5747254065339454,0.5837425704684902,0.5881083828974458
LBP05_S02,LBP05,-1483,168,2,167,-1483,1715762138.68,2024-05-15 08:35:38.680000+00:00,2024-05-15 17:35:38.680000+09:00,2024,5,15,8,35,38,680,,,,,,,,,-0.017334,-0.081787,0.416016,-30.334473,-76.23291,-17.944336,,,,,,,,,,,0.0,1.0,1.0,2.0,0.0,0.0,0.0,5.0,0.0,-0.18281250666666668,-0.17469721333333332,1.0177897200000001,1.964518186666668,2.3893229466666672,-5.49153652,0.9485225682460323,3.565586042821704,-9.587912560514674,-1.8779979079974696,10.956396812802204,-3.2338383172216667,11.577012461078041,-2.3782115473443306,11.754167888490928,-2.3884406736100563,0.1654785066666667,0.09291021333333332,-0.6017737200000002,0.8601624400000002,0.630988949184464,0.5680883587422062,0.5849297836685328,0.5869383910941185
LBP05_S02,LBP05,-1482,169,2,168,-1482,1715762138.72,2024-05-15 08:35:38.720000+00:00,2024-05-15 17:35:38.720000+09:00,2024,5,15,8,35,38,720,,,,,,,,,0.3479,-0.334229,0.759766,4.882812,-64.575195,-4.333496,,,,,,,,,,,0.0,1.0,1.0,2.0,0.0,0.0,0.0,5.0,0.0,-0.17690105333333334,-0.1755566,1.0234342533333334,3.7125650666666683,1.6666666933333336,-5.58186856,-2.084108117205214,4.1616561420780425,-12.813194600636967,-1.961362232685678,11.122863058485326,-3.7463661012471454,11.899591732080433,-2.3598991394380477,12.06765221757219,-2.3863740611793456,0.5248010533333334,-0.1586724,-0.2636682533333333,0.9471417066666666,0.6083699728926364,0.5873822974245801,0.5902462850311098,0.5846952515356506
LBP05_S02,LBP05,-1481,170,2,169,-1481,1715762138.76,2024-05-15 08:35:38.760000+00:00,2024-05-15 17:35:38.760000+09:00,2024,5,15,8,35,38,760,,,,,,,,,0.023438,-0.017822,1.11499,97.351074,33.630371,12.207031,,,,,,,,,,,0.0,1.0,1.0,2.0,0.0,0.0,0.0,5.0,0.0,-0.17845053333333333,-0.16962886666666666,1.0270865866666665,4.781901013333334,2.5984700800000002,-5.74055996,-5.475948463109886,4.9502354160979065,-15.265824265900486,-2.1804001712100733,11.320872475129242,-4.356999071883164,12.324761231648367,-2.3808264031182795,12.432524754346788,-2.3843472021206917,0.20188853333333334,0.15180686666666665,0.0879034133333334,0.4415988133333334,0.2674533879656162,0.5680807577615414,0.58124260470356,0.5802579863145253
LBP05_S02,LBP05,-1480,171,2,170,-1480,1715762138.8,2024-05-15 08:35:38.800000+00:00,2024-05-15 17:35:38.800000+09:00,2024,5,15,8,35,38,800,,,,,,,,,-0.554199,-0.079834,1.666504,-50.78125,19.104004,-16.418457,,,,,,,,,,,0.0,1.0,1.0,2.0,0.0,0.0,0.0,5.0,0.0,-0.18667318666666666,-0.16972977333333336,1.0336718666666667,3.2796223733333347,2.3876953333333337,-5.978190173333333,-9.014261765803036,5.551240774784687,-16.699624006321102,-2.5409706418421947,11.54292210612063,-5.024984032136008,12.843132292158876,-2.40233273183973,12.846186769053318,-2.3823430619047947,-0.36752581333333334,0.08989577333333336,0.6328321333333333,1.09025372,0.7373147106281984,0.574907139104493,0.5835374922121652,0.5808059880142314
LBP05_S02,LBP05,-1479,172,2,171,-1479,1715762138.84,2024-05-15 08:35:38.840000+00:00,2024-05-15 17:35:38.840000+09:00,2024,5,15,8,35,38,840,,,,,,,,,-0.356445,-0.153564,1.726318,-32.592773,-4.699707,-33.081055,,,,,,,,,,,0.0,1.0,1.0,2.0,0.0,0.0,0.0,5.0,0.0,-0.18498048,-0.17441076,1.03391276,2.696940080000002,1.9132487200000003,-6.319173253333333,-12.361661878326126,5.594803457194256,-17.021888868618376,-3.0354371169752397,11.7667142444084,-5.705859586880743,13.424838033506154,-2.3847352088258655,13.305751478576767,-2.379529052900521,-0.17146452,0.020846759999999992,0.69240524,0.88471652,0.7136243307236558,0.584155578362964,0.5926050349778893,0.5860806290684241
LBP05_S02,LBP05,-1478,173,2,172,-1478,1715762138.88,2024-05-15 08:35:38.880000+00:00,2024-05-15 17:35:38.880000+09:00,2024,5,15,8,35,38,880,,,,,,,,,-0.248047,-0.331543,1.086426,-42.84668,78.979492,-24.841309,,,,,,,,,,,0.0,1.0,1.0,2.0,0.0,0.0,0.0,5.0,0.0,-0.18150066666666667,-0.17399409333333332,1.0243717466666666,2.5236002400000013,3.432617213333333,-6.166178453333334,-15.157014158113599,4.94329352835382,-16.330427975682905,-3.6417176832997837,11.964445985542552,-6.35907670590806,14.030250602802722,-2.37669055571582,13.809700699358165,-2.37673493458506,-0.06654633333333332,-0.15754890666666665,0.062054253333333254,0.2861494933333332,0.18193626034611862,0.5835047987070352,0.5775138115064054,0.5773367549107753
LBP05_S02,LBP05,-1477,174,2,173,-1477,1715762138.92,2024-05-15 08:35:38.920000+00:00,2024-05-15 17:35:38.920000+09:00,2024,5,15,8,35,38,920,,,,,,,,,-0.499512,-0.091797,0.198975,-31.12793,66.101074,-22.888184,,,,,,,,,,,0.0,1.0,1.0,2.0,0.0,0.0,0.0,5.0,0.0,-0.18200848,-0.17250646666666666,1.0084212266666666,2.593587213333335,4.779459653333333,-6.011556053333334,-17.13385969620579,3.8274618376317253,-14.933460910018223,-4.327072071148015,12.11754445904782,-6.9564151423087885,14.627034834786329,-2.382188743252136,14.357537680997847,-2.375718842536501,-0.31750352000000004,0.08070946666666666,-0.8094462266666665,1.2076592133333333,0.8732271738138436,0.584381997993128,0.5798805404637207,0.5809672976432424
LBP05_S02,LBP05,-1476,175,2,174,-1476,1715762138.96,2024-05-15 08:35:38.960000+00:00,2024-05-15 17:35:38.960000+09:00,2024,5,15,8,35,38,960,,,,,,,,,-0.119629,-0.06665,0.384033,-23.742676,-62.988281,-13.305664,,,,,,,,,,,0.0,1.0,1.0,2.0,0.0,0.0,0.0,5.0,0.0,-0.18038738666666665,-0.1718652,1.0011849066666667,2.2615559600000013,2.74576824,-5.972493546666667,-18.16966780733619,2.797310259948445,-13.320603166856406,-5.053858783441463,12.229436869445758,-7.489239268983045,15.204911034754705,-2.379657765028278,14.948325211919746,-2.376999617752573,0.06075838666666665,0.1052152,-0.6171519066666666,0.7831254933333333,0.6289978503649103,0.5839802024105303,0.5813312644892001,0.5869820741997313
LBP05_S02,LBP05,-1475,176,2,175,-1475,1715762139.0,2024-05-15 08:35:39+00:00,2024-05-15 17:35:39+09:00,2024,5,15,8,35,39,0,8.0,35.0,38.0,40.545174,141.522308,9.428,3.0,10.0,0.303223,-0.435303,0.678467,-9.216309,-92.224121,-0.732422,-547.0,82.0,536.0,2.0,0.0,1022.900024,20.809999,0.098107,-79.988037,3.972656,0.0,1.0,1.0,2.0,0.0,0.0,0.0,4.0,0.0,-0.1749837466666667,-0.1709081733333333,1.0054524800000002,2.288411426666668,1.6560872533333335,-5.6420899066666665,-18.23266416576682,2.491810521481227,-12.071449396667838,-5.783165350072135,12.329109290305007,-7.972097244849759,15.779932567660147,-2.367638234872699,15.579569819675507,-2.3756217970532356,0.47820674666666674,-0.2643948266666667,-0.32698548000000016,1.0695870533333336,0.6367933896142804,0.6044229230298305,0.5837623302227029,0.582866177270342
LBP05_S02,LBP05,-1474,177,2,176,-1474,1715762139.04,2024-05-15 08:35:39.040000+00:00,2024-05-15 17:35:39.040000+09:00,2024,5,15,8,35,39,40,,,,,,,,,0.118408,-0.05835,1.067383,95.214844,26.672363,-4.638672,,,,,,,,,,,0.0,1.0,1.0,2.0,0.0,0.0,0.0,4.0,0.0,-0.17249026666666667,-0.17285478666666668,1.00870444,2.6025390400000017,2.08902996,-5.104980533333334,-17.27167032345666,3.3459950237496723,-11.718599807631742,-6.474032163010402,12.462949091254995,-8.440841237155029,16.385542203105874,-2.355169016415414,16.247221545883413,-2.3730934529987295,0.2908982666666667,0.11450478666666668,0.058678559999999935,0.4640816133333333,0.3180822552782905,0.5824399235388331,0.5776125790558547,0.5770802719571997
LBP05_S02,LBP05,-1473,178,2,177,-1473,1715762139.08,2024-05-15 08:35:39.080000+00:00,2024-05-15 17:35:39.080000+09:00,2024,5,15,8,35,39,80,,,,,,,,,-0.420898,0.10376,1.570068,-52.79541,35.03418,-12.023926,,,,,,,,,,,0.0,1.0,1.0,2.0,0.0,0.0,0.0,4.0,0.0,-0.17869143999999998,-0.17437822666666666,1.0135612133333334,3.4309895733333344,2.536621106666667,-4.52473964,-15.142087896473868,5.396141930121134,-12.60233233574767,-7.0797156788693565,12.67879476845984,-8.944934530584936,17.055382277474873,-2.3680506268587425,16.946278325231027,-2.3721059740462542,-0.24220656000000002,0.27813822666666665,0.5565067866666666,1.0768515733333333,0.6676261636922046,0.5820824491188407,0.573905116157596,0.577059457822008
LBP05_S02,LBP05,-1472,179,2,178,-1472,1715762139.12,2024-05-15 08:35:39.120000+00:00,2024-05-15 17:35:39.120000+09:00,2024,5,15,8,35,39,120,,,,,,,,,-0.494873,-0.104004,1.864502,-67.687988,-32.165527,-44.433594,,,,,,,,,,,0.0,1.0,1.0,2.0,0.0,0.0,0.0,4.0,0.0,-0.18126631999999998,-0.17519854666666668,1.0158724133333334,5.130208320000001,1.7415364666666668,-4.537760479999999,-11.6395431003545,8.276391637546528,-14.754175021482968,-7.545297402883536,13.0098504339617,-9.535101531444255,17.807467041299418,-2.3727068915987655,17.670782529630365,-2.3708238861192252,-0.31360668,0.07119454666666668,0.8486295866666667,1.2334308133333334,0.9075185885598885,0.593052908923813,0.5798117958465103,0.5843343643757255
LBP05_S02,LBP05,-1471,180,2,179,-1471,1715762139.16,2024-05-15 08:35:39.160000+00:00,2024-05-15 17:35:39.160000+09:00,2024,5,15,8,35,39,160,,,,,,,,,-0.312012,-0.229248,1.565186,-24.108887,26.794434,-13.183594,,,,,,,,,,,0.0,1.0,1.0,2.0,0.0,0.0,0.0,4.0,0.0,-0.17598312,-0.17209308,1.0108594000000002,4.293619773333335,1.8872070399999998,-4.589843813333333,-6.628383911534348,11.383777821710447,-17.834024320506693,-7.81043275934491,13.465201546830118,-10.248462504264523,18.637207309205966,-2.3670481961249075,18.412536574946984,-2.366391176623623,-0.13602888000000002,-0.05715492,0.5543265999999998,0.7475103999999998,0.573627510272843,0.5953210342646831,0.5897538442795046,0.5832725038506351
LBP05_S02,LBP05,-1470,181,2,180,-1470,1715762139.2,2024-05-15 08:35:39.200000+00:00,2024-05-15 17:35:39.200000+09:00,2024,5,15,8,35,39,200,,,,,,,,,-0.24585,-0.293701,0.954346,-13.977051,118.713379,35.949707,,,,,,,,,,,0.0,1.0,1.0,2.0,0.0,0.0,0.0,4.0,0.0,-0.17403325333333333,-0.16671873333333334,0.9976790533333334,3.5921223733333347,3.1730143333333336,-5.296224026666667,-0.1719191516145795,14.109598339297712,-21.138759360363295,-7.8173095254094935,14.029585480402027,-11.094012878679056,19.519649554237958,-2.3770492912946684,19.159241925219455,-2.36220660668282,-0.07181674666666668,-0.12698226666666665,-0.04333305333333337,0.2421320666666667,0.1521837529461609,0.5788135624418917,0.5772305523263008,0.5729696500502965
LBP05_S02,LBP05,-1469,182,2,181,-1469,1715762139.24,2024-05-15 08:35:39.240000+00:00,2024-05-15 17:35:39.240000+09:00,2024,5,15,8,35,39,240,,,,,,,,,-0.064209,-0.406738,0.23999,-6.591797,-2.258301,0.12207,,,,,,,,,,,0.0,1.0,1.0,2.0,0.0,0.0,0.0,4.0,0.0,-0.17164068,-0.16516925333333332,0.9847168133333333,2.935384093333335,1.8750000133333338,-6.001790426666666,7.4306898701789805,16.020889278668086,-23.706056689587008,-7.520081930602334,14.67042105154875,-12.042255146262537,20.415405826982305,-2.3748604193011125,19.893759707803447,-2.3599341077788454,0.10743167999999999,-0.24156874666666667,-0.7447268133333332,1.0937272399999998,0.7902626473086957,0.5806268693425656,0.5814113492591315,0.5765890629086438
LBP05_S02,LBP05,-1468,183,2,182,-1468,1715762139.28,2024-05-15 08:35:39.280000+00:00,2024-05-15 17:35:39.280000+09:00,2024,5,15,8,35,39,280,,,,,,,,,0.111572,-0.125,0.593506,142.211914,-63.598633,-41.809082,,,,,,,,,,,0.0,1.0,1.0,2.0,0.0,0.0,0.0,4.0,0.0,-0.16790043999999998,-0.16527016,0.9853613466666666,2.8011067600000015,0.380045586666667,-6.01074224,15.717272422129563,16.9177627365402,-24.531896313008044,-6.891391033717151,15.34713156101036,-13.023530998782858,21.275292646796082,-2.363869676445529,20.59575876479158,-2.3601260629191954,0.27947244,0.04027016,-0.39185534666666666,0.7115979466666666,0.4829877257417964,0.58004502029767,0.5810444955037434,0.5781477252011412
LBP05_S02,LBP05,-1467,184,2,183,-1467,1715762139.32,2024-05-15 08:35:39.320000+00:00,2024-05-15 17:35:39.320000+09:00,2024,5,15,8,35,39,320,,,,,,,,,0.232422,-0.072998,1.089844,-37.414551,-4.02832,-75.195312,,,,,,,,,,,0.0,1.0,1.0,2.0,0.0,0.0,0.0,4.0,0.0,-0.16304366666666667,-0.16930988000000002,0.98736656,2.8597005066666683,0.1562500133333335,-5.558268280000001,24.17240720826757,16.775790621848106,-22.874518765710615,-5.924494745386449,16.018163185884283,-13.938511749411283,22.04457528795251,-2.337861648296111,21.24531038993995,-2.357106723917826,0.39546566666666666,0.09631188000000003,0.10247744000000003,0.5942549866666667,0.41972693200484423,0.586083267372717,0.5776921080064947,0.5736385800671646
