file_name,test_id,_program_index,program_index,session_id,index,_index,unixtime,datetime_utc,datetime_jst,rtc_year,rtc_month,rtc_day,rtc_hour,rtc_min,rtc_sec,rtc_msec,gps_hour,gps_min,gps_sec,latitude,longitude,altitude,fix_type,SIV,acc_x,acc_y,acc_z,gyro_x,gyro_y,gyro_z,mag_x,mag_y,mag_z,illuminance,atmopress,water_pressure,water_temp,depth,alt_wps,battery_level,behavior_class,camera_command,camera_recording,camera_count,play_audio,speaker_on,audio_file,prev_sd_write_time_ms,delay_occurred_counter,acc_x_ma,acc_y_ma,acc_z_ma,gyro_x_ma,gyro_y_ma,gyro_z_ma,gyro_x_lowpass,gyro_y_lowpass,gyro_z_lowpass,angle_x,angle_y,angle_z,combined_angle_change,gravity_adjusted_angle,smoothed_angle_change,smoothed_gravity_angle,acc_x_dy,acc_y_dy,acc_z_dy,ODBA,VeDBA,smoothed_VeDBA_1s,smoothed_VeDBA_2s,smoothed_VeDBA_3s
LBP05_S08,LBP05,-1650,1,8,0,-1650,1715802643.0,2024-05-15 19:50:43+00:00,2024-05-16 04:50:43+09:00,2024,5,15,19,50,43,0,19.0,50.0,43.0,40.783875,141.678406,-0.211,3.0,9.0,-0.231445,0.034424,0.052246,-81.90918,-13.73291,-25.024414,-569.0,60.0,549.0,21.0,0.0,1019.900024,16.17,0.068377,-55.187038,3.825,0.0,1.0,1.0,8.0,0.0,0.0,0.0,5.0,0.0,,,,,,,-84.22920085155128,-13.006483163130188,-25.418913509486806,-3.3691680340620516,-0.5202593265252076,-1.0167565403794723,3.557493059864832,,5.9768760780931816,,,,,,,,,
LBP05_S08,LBP05,-1649,2,8,1,-1649,1715802643.04,2024-05-15 19:50:43.040000+00:00,2024-05-16 04:50:43.040000+09:00,2024,5,15,19,50,43,40,,,,,,,,,0.041504,-0.156006,0.365479,-3.540039,-69.091797,-19.470215,,,,,,,,,,,0.0,1.0,1.0,8.0,0.0,0.0,0.0,5.0,0.0,,,,,,,-52.350494699924205,-9.674676205364431,-19.00816898391128,-5.4631878220590195,-0.9072463747397848,-1.7770832997359234,5.816144961894672,,5.930586191370067,,,,,,,,,
LBP05_S08,LBP05,-1648,3,8,2,-1648,1715802643.08,2024-05-15 19:50:43.080000+00:00,2024-05-16 04:50:43.080000+09:00,2024,5,15,19,50,43,80,,,,,,,,,0.444824,-0.306396,0.785156,31.188965,-20.629883,0.0,,,,,,,,,,,0.0,1.0,1.0,8.0,0.0,0.0,0.0,5.0,0.0,,,,,,,-23.622376958857398,-6.076816729870332,-13.057337571242508,-6.408082900413316,-1.150319043934598,-2.299376802585624,6.9046284506609785,,5.76505083834808,,,,,,,,,
LBP05_S08,LBP05,-1647,4,8,3,-1647,1715802643.12,2024-05-15 19:50:43.120000+00:00,2024-05-16 04:50:43.120000+09:00,2024,5,15,19,50,43,120,,,,,,,,,-0.049072,0.134277,1.302979,-2.258301,84.655762,3.662109,,,,,,,,,,,0.0,1.0,1.0,8.0,0.0,0.0,0.0,5.0,0.0,,,,,,,-0.5849698641353713,-2.0593230129159066,-8.0618681861592,-6.43148169497873,-1.2326919644512344,-2.621851530031992,7.053906131896016,,5.545027107830656,,,,,,,,,
LBP05_S08,LBP05,-1646,5,8,4,-1646,1715802643.16,2024-05-15 19:50:43.160000+00:00,2024-05-16 04:50:43.160000+09:00,2024,5,15,19,50,43,160,,,,,,,,,-0.735107,-0.496582,1.789795,-0.305176,-17.76123,3.723145,,,,,,,,,,,0.0,1.0,1.0,8.0,0.0,0.0,0.0,5.0,0.0,,,,,,,15.386853830642893,2.296405350965359,-4.292709351406098,-5.816007541753015,-1.14083575041262,-2.793559904088236,6.55220778614941,,5.324613020775671,,,,,,,,,
LBP05_S08,LBP05,-1645,6,8,5,-1645,1715802643.2,2024-05-15 19:50:43.200000+00:00,2024-05-16 04:50:43.200000+09:00,2024,5,15,19,50,43,200,,,,,,,,,-0.164062,-0.229492,1.755615,41.931152,-103.088379,0.793457,,,,,,,,,,,0.0,1.0,1.0,8.0,0.0,0.0,0.0,5.0,0.0,,,,,,,24.185815808638438,6.660371527135454,-1.7800869692304682,-4.8485749094074775,-0.8744208893272019,-2.8647633828574546,5.699136757754492,,5.139848491563903,,,,,,,,,
LBP05_S08,LBP05,-1644,7,8,6,-1644,1715802643.24,2024-05-15 19:50:43.240000+00:00,2024-05-16 04:50:43.240000+09:00,2024,5,15,19,50,43,240,,,,,,,,,0.081787,-0.12793,1.104492,36.682129,73.791504,-1.89209,,,,,,,,,,,0.0,1.0,1.0,8.0,0.0,0.0,0.0,5.0,0.0,,,,,,,26.778915894410332,10.509334586885425,-0.38524177524097675,-3.7774182736310644,-0.4540475058517849,-2.8801730538670935,4.771838720216162,,5.149851402619406,,,,,,,,,
LBP05_S08,LBP05,-1643,8,8,7,-1643,1715802643.28,2024-05-15 19:50:43.280000+00:00,2024-05-16 04:50:43.280000+09:00,2024,5,15,19,50,43,280,,,,,,,,,-0.224609,0.205322,0.139648,-6.164551,59.082031,-36.376953,,,,,,,,,,,0.0,1.0,1.0,8.0,0.0,0.0,0.0,5.0,0.0,,,,,,,24.814102942920172,13.256566036968923,0.07688823053405466,-2.7848541559142577,0.07621513562697202,-2.8770975246457313,4.004860994208681,,4.966510883142515,,,,,,,,,
LBP05_S08,LBP05,-1642,9,8,8,-1642,1715802643.32,2024-05-15 19:50:43.320000+00:00,2024-05-16 04:50:43.320000+09:00,2024,5,15,19,50,43,320,,,,,,,,,0.173828,-0.412109,0.613525,-38.94043,-44.555664,-11.291504,,,,,,,,,,,0.0,1.0,1.0,8.0,0.0,0.0,0.0,5.0,0.0,,,,,,,20.15467986607896,14.433151766605565,-0.2728949343693749,-1.9786669612710992,0.6535412062911946,-2.888013322020506,3.5613003243358,,4.714724891696854,,,,,,,,,
LBP05_S08,LBP05,-1641,10,8,9,-1641,1715802643.36,2024-05-15 19:50:43.360000+00:00,2024-05-16 04:50:43.360000+09:00,2024,5,15,19,50,43,360,,,,,,,,,0.382812,-0.031006,1.077393,73.120117,41.381836,8.728027,,,,,,,,,,,0.0,1.0,1.0,8.0,0.0,0.0,0.0,5.0,0.0,,,,,,,14.470642824928817,13.856978447539753,-1.4157278750505469,-1.3998412482739466,1.2078203441927848,-2.944642437022528,3.476967728657991,,4.494506297808761,,,,,,,,,
LBP05_S08,LBP05,-1640,11,8,10,-1640,1715802643.4,2024-05-15 19:50:43.400000+00:00,2024-05-16 04:50:43.400000+09:00,2024,5,15,19,50,43,400,,,,,,,,,-0.422119,-0.181641,1.606689,-34.606934,92.041016,-0.976562,,,,,,,,,,,0.0,1.0,1.0,8.0,0.0,0.0,0.0,5.0,0.0,,,,,,,8.984521201989553,11.718298945687867,-3.374534934136713,-1.0404604001943645,1.6765523020202995,-3.0796238343879963,3.6575221704198606,,4.375799173724832,,,,,,,,,
LBP05_S08,LBP05,-1639,12,8,11,-1639,1715802643.44,2024-05-15 19:50:43.440000+00:00,2024-05-16 04:50:43.440000+09:00,2024,5,15,19,50,43,440,,,,,,,,,-0.828369,-0.318115,1.845459,-9.460449,-55.847168,2.197266,,,,,,,,,,,0.0,1.0,1.0,8.0,0.0,0.0,0.0,5.0,0.0,,,,,,,4.407447854410081,8.541942661906328,-6.083869543365638,-0.8641624860179613,2.0182300084965528,-3.322978616122622,3.98273976712576,,4.394445923185699,,,,,,,,,
LBP05_S08,LBP05,-1638,13,8,12,-1638,1715802643.48,2024-05-15 19:50:43.480000+00:00,2024-05-16 04:50:43.480000+09:00,2024,5,15,19,50,43,480,,,,,,,,,-0.2146,-0.329102,1.746094,45.654297,-55.053711,7.751465,,,,,,,,,,,0.0,1.0,1.0,8.0,0.0,0.0,0.0,5.0,0.0,,,,,,,1.0356423820240177,5.033947710254465,-9.257381224066647,-0.8227367907370006,2.219587916906731,-3.6932738650852874,4.386768536204366,,4.550963617514187,,,,,,,,,
LBP05_S08,LBP05,-1637,14,8,13,-1637,1715802643.52,2024-05-15 19:50:43.520000+00:00,2024-05-16 04:50:43.520000+09:00,2024,5,15,19,50,43,520,,,,,,,,,-0.335205,-0.010254,0.665283,38.757324,92.956543,7.446289,,,,,,,,,,,0.0,1.0,1.0,8.0,0.0,0.0,0.0,5.0,0.0,,,,,,,-1.0679704767579017,1.8696602987585529,-12.328382978736478,-0.8654556098073166,2.2943743288570735,-4.186409184234747,4.851720193015086,,4.813524805466281,,,,,,,,,
LBP05_S08,LBP05,-1636,15,8,14,-1636,1715802643.56,2024-05-15 19:50:43.560000+00:00,2024-05-16 04:50:43.560000+09:00,2024,5,15,19,50,43,560,,,,,,,,,-0.075439,-0.623535,0.287842,-97.65625,-52.307129,0.976562,,,,,,,,,,,0.0,1.0,1.0,8.0,0.0,0.0,0.0,5.0,0.0,,,,,,,-1.9004935716616587,-0.4945177543721929,-14.515423790652038,-0.9414753526737829,2.274593618682186,-4.767026135860828,5.365136545310116,,5.127212123248979,,,,,,,,,
LBP05_S08,LBP05,-1635,16,8,15,-1635,1715802643.6,2024-05-15 19:50:43.600000+00:00,2024-05-16 04:50:43.600000+09:00,2024,5,15,19,50,43,600,,,,,,,,,0.152344,-0.026855,0.545654,173.88916,-46.813965,-34.423828,,,,,,,,,,,0.0,1.0,1.0,8.0,0.0,0.0,0.0,5.0,0.0,,,,,,,-1.4334695084760358,-1.9212767312727603,-15.017852942153752,-0.9988141330128243,2.1977425494312754,-5.3677402535469785,5.885604252363169,,5.431730369400352,,,,,,,,,
LBP05_S08,LBP05,-1634,17,8,16,-1634,1715802643.64,2024-05-15 19:50:43.640000+00:00,2024-05-16 04:50:43.640000+09:00,2024,5,15,19,50,43,640,,,,,,,,,0.337158,0.122314,0.867676,-93.505859,18.798828,-45.593262,,,,,,,,,,,0.0,1.0,1.0,8.0,0.0,0.0,0.0,5.0,0.0,,,,,,,0.35091603581551123,-2.5794471196563373,-13.286957785296382,-0.9847774915802039,2.094564664645022,-5.899218564958834,6.3370156635010355,,5.680555862140067,,,,,,,,,
LBP05_S08,LBP05,-1633,18,8,17,-1633,1715802643.68,2024-05-15 19:50:43.680000+00:00,2024-05-16 04:50:43.680000+09:00,2024,5,15,19,50,43,680,,,,,,,,,-0.087891,-0.585449,1.33374,-82.519531,76.049805,-41.992188,,,,,,,,,,,0.0,1.0,1.0,8.0,0.0,0.0,0.0,5.0,0.0,,,,,,,3.330396917381128,-2.8312984452695056,-9.268565426062782,-0.8515616148849587,1.9813127268342416,-6.269961182001345,6.630472873729635,,5.848415455625725,,,,,,,,,
LBP05_S08,LBP05,-1632,19,8,18,-1632,1715802643.72,2024-05-15 19:50:43.720000+00:00,2024-05-16 04:50:43.720000+09:00,2024,5,15,19,50,43,720,,,,,,,,,-0.784668,-0.089355,1.6521,31.860352,-36.499023,-22.399902,,,,,,,,,,,0.0,1.0,1.0,8.0,0.0,0.0,0.0,5.0,0.0,,,,,,,7.108009572316878,-3.0704779083685416,-3.50422148862671,-0.5672412319922836,1.8584936104995,-6.410130041546413,6.698173502162765,,5.927015886148465,,,,,,,,,
LBP05_S08,LBP05,-1631,20,8,19,-1631,1715802643.76,2024-05-15 19:50:43.760000+00:00,2024-05-16 04:50:43.760000+09:00,2024,5,15,19,50,43,760,,,,,,,,,-0.203613,-0.807861,1.691406,32.897949,-76.721191,40.83252,,,,,,,,,,,0.0,1.0,1.0,8.0,0.0,0.0,0.0,5.0,0.0,,,,,,,10.977890007783673,-3.5793621855272533,2.972238135670057,-0.12812563168093666,1.71531912307841,-6.291240516119611,6.522150190171725,,5.916395289744958,,,,,,,,,
LBP05_S08,LBP05,-1630,21,8,20,-1630,1715802643.8,2024-05-15 19:50:43.800000+00:00,2024-05-16 04:50:43.800000+09:00,2024,5,15,19,50,43,800,,,,,,,,,-0.138184,0.014404,0.58667,28.503418,94.787598,38.635254,,,,,,,,,,,0.0,1.0,1.0,8.0,0.0,0.0,0.0,5.0,0.0,,,,,,,14.040519221464832,-4.4520105139719215,8.915848373097296,0.4334951371776566,1.537238702519533,-5.93460658119572,6.145777097817017,,5.817579167116511,,,,,,,,,
LBP05_S08,LBP05,-1629,22,8,21,-1629,1715802643.84,2024-05-15 19:50:43.840000+00:00,2024-05-16 04:50:43.840000+09:00,2024,5,15,19,50,43,840,,,,,,,,,-0.220947,-0.068848,0.038086,24.108887,4.882812,19.592285,,,,,,,,,,,0.0,1.0,1.0,8.0,0.0,0.0,0.0,5.0,0.0,,,,,,,15.422801175917112,-5.590700601921536,13.22219934262326,1.050407184214341,1.3136106784426715,-5.4057186074907895,5.66133570198234,,5.6311215085096205,,,,,,,,,
LBP05_S08,LBP05,-1628,23,8,22,-1628,1715802643.88,2024-05-15 19:50:43.880000+00:00,2024-05-16 04:50:43.880000+09:00,2024,5,15,19,50,43,880,,,,,,,,,0.072021,0.071289,0.344971,11.108398,-76.23291,2.01416,,,,,,,,,,,0.0,1.0,1.0,8.0,0.0,0.0,0.0,5.0,0.0,,,,,,,14.507408564626052,-6.76585803260934,15.219590705924988,1.6307035267993832,1.042976357138298,-4.79693497925379,5.172772841431758,,5.362697661689768,,,,,,,,,
LBP05_S08,LBP05,-1627,24,8,23,-1627,1715802643.92,2024-05-15 19:50:43.920000+00:00,2024-05-16 04:50:43.920000+09:00,2024,5,15,19,50,43,920,,,,,,,,,0.435547,-0.278564,0.734131,-7.202148,-33.02002,26.428223,,,,,,,,,,,0.0,1.0,1.0,8.0,0.0,0.0,0.0,5.0,0.0,,,,,,,11.093752822719667,-7.717621071129915,14.812145486023145,2.07445363970817,0.7342715142931013,-4.204449159812865,4.745514228980023,,5.032296881205857,,,,,,,,,
LBP05_S08,LBP05,-1626,25,8,24,-1626,1715802643.96,2024-05-15 19:50:43.960000+00:00,2024-05-16 04:50:43.960000+09:00,2024,5,15,19,50,43,960,,,,,,,,,0.010986,-0.052002,1.125,25.268555,67.321777,27.160645,,,,,,,,,,,0.0,1.0,1.0,8.0,0.0,0.0,0.0,5.0,0.0,,,,,,,5.458585926846969,-8.256849440115552,12.449948993879794,2.292797076782049,0.40399753668847926,-3.706451200057673,4.376975319025643,,4.6810442847246225,,,,,,,,,
LBP05_S08,LBP05,-1625,26,8,25,-1625,1715802644.0,2024-05-15 19:50:44+00:00,2024-05-16 04:50:44+09:00,2024,5,15,19,50,44,0,19.0,50.0,44.0,40.783806,141.678345,-0.486,3.0,9.0,-0.674805,-0.340576,1.652344,-7.751465,-18.798828,2.319336,-569.0,63.0,550.0,19.0,0.0,1020.099976,16.18,0.070359,-56.841873,3.825,0.0,1.0,1.0,8.0,0.0,0.0,0.0,6.0,0.0,,,,,,,-1.6856584946888866,-8.322449272980247,8.952956685522846,2.2253707369944933,0.0710995657692694,-3.348332932636759,4.021027666294261,,4.366415240358874,,,,,,,,,
LBP05_S08,LBP05,-1624,27,8,26,-1624,1715802644.04,2024-05-15 19:50:44.040000+00:00,2024-05-16 04:50:44.040000+09:00,2024,5,15,19,50,44,40,,,,,,,,,-0.419678,-0.231201,1.669434,71.411133,-97.473145,-5.004883,,,,,,,,,,,0.0,1.0,1.0,8.0,0.0,0.0,0.0,6.0,0.0,,,,,,,-9.32882225579442,-7.981918496076942,5.244643912147604,1.8522178467627164,-0.2481771740738083,-3.1385471761508548,3.652777195302511,,4.142075284731396,,,,,,,,,
LBP05_S08,LBP05,-1623,28,8,27,-1623,1715802644.08,2024-05-15 19:50:44.080000+00:00,2024-05-16 04:50:44.080000+09:00,2024,5,15,19,50,44,80,,,,,,,,,-0.032471,-0.058838,0.801025,-57.983398,70.007324,-10.253906,,,,,,,,,,,0.0,1.0,1.0,8.0,0.0,0.0,0.0,6.0,0.0,,,,,,,-16.382747947482244,-7.387453540003401,2.071605144151643,1.1969079288634266,-0.5436753156739443,-3.055682970384789,3.3264650688905344,,4.039809039282323,,,,,,,,,
LBP05_S08,LBP05,-1622,29,8,28,-1622,1715802644.12,2024-05-15 19:50:44.120000+00:00,2024-05-16 04:50:44.120000+09:00,2024,5,15,19,50,44,120,,,,,,,,,-0.256592,0.024902,0.019775,-147.460938,27.22168,-44.372559,,,,,,,,,,,0.0,1.0,1.0,8.0,0.0,0.0,0.0,6.0,0.0,,,,,,,-21.933988405544728,-6.706150020559088,-0.20354748538348802,0.3195483926416375,-0.8119213164963078,-3.0638248698001287,3.1856475373504094,,4.066635387643542,,,,,,,,,
LBP05_S08,LBP05,-1621,30,8,29,-1621,1715802644.16,2024-05-15 19:50:44.160000+00:00,2024-05-16 04:50:44.160000+09:00,2024,5,15,19,50,44,160,,,,,,,,,-0.054932,-0.481445,0.376709,-26.306152,-66.955566,-11.352539,,,,,,,,,,,0.0,1.0,1.0,8.0,0.0,0.0,0.0,6.0,0.0,,,,,,,-25.43339425357565,-6.050169842398032,-1.6617954053921264,-0.6977873775013884,-1.053928110192229,-3.130296686015814,3.375859746514244,,4.211874708934509,,,,,,,,,
LBP05_S08,LBP05,-1620,31,8,30,-1620,1715802644.2,2024-05-15 19:50:44.200000+00:00,2024-05-16 04:50:44.200000+09:00,2024,5,15,19,50,44,200,,,,,,,,,0.553223,-0.110596,0.796631,57.312012,-20.141602,38.818359,,,,,,,,,,,0.0,1.0,1.0,8.0,0.0,0.0,0.0,6.0,0.0,,,,,,,-26.727423664615436,-5.436989429688707,-2.714000470669965,-1.7668843240860057,-1.2714076873797775,-3.2388567048426125,3.902377541542233,,4.457151875462829,,,,,,,,,
LBP05_S08,LBP05,-1619,32,8,31,-1619,1715802644.24,2024-05-15 19:50:44.240000+00:00,2024-05-16 04:50:44.240000+09:00,2024,5,15,19,50,44,240,,,,,,,,,0.01416,-0.193115,1.44873,12.268066,83.618164,34.973145,,,,,,,,,,,0.0,1.0,1.0,8.0,0.0,0.0,0.0,6.0,0.0,,,,,,,-25.925991943618257,-4.793648010092166,-3.861068819058841,-2.803924001830736,-1.4631536077834641,-3.393299457604966,4.638673247491616,,4.783541436273775,,,,,,,,,
LBP05_S08,LBP05,-1618,33,8,32,-1618,1715802644.28,2024-05-15 19:50:44.280000+00:00,2024-05-16 04:50:44.280000+09:00,2024,5,15,19,50,44,280,,,,,,,,,-0.866699,-0.382324,1.778809,-1.525879,-24.719238,-9.460449,,,,,,,,,,,0.0,1.0,1.0,8.0,0.0,0.0,0.0,6.0,0.0,,,,,,,-23.219781607553323,-3.9989092375588675,-5.435264702177561,-3.732715266132869,-1.6231099772858189,-3.6107100456920684,5.4410363250439495,,5.172189363500891,,,,,,,,,
LBP05_S08,LBP05,-1617,34,8,33,-1617,1715802644.32,2024-05-15 19:50:44.320000+00:00,2024-05-16 04:50:44.320000+09:00,2024,5,15,19,50,44,320,,,,,,,,,-0.138428,-0.216309,1.619141,-33.691406,-114.990234,-29.296875,,,,,,,,,,,0.0,1.0,1.0,8.0,0.0,0.0,0.0,6.0,0.0,,,,,,,-18.791688334584684,-2.9487218911041846,-7.434224388737733,-4.484382799516256,-1.7410588529299862,-3.9080790212415777,6.1979074418896944,,5.598950192898732,-2.2413004188041845,,,,,,,,
LBP05_S08,LBP05,-1616,35,8,34,-1616,1715802644.36,2024-05-15 19:50:44.360000+00:00,2024-05-16 04:50:44.360000+09:00,2024,5,15,19,50,44,360,,,,,,,,,-0.071289,-0.055664,0.85791,-43.823242,87.890625,1.220703,,,,,,,,,,,0.0,1.0,1.0,8.0,0.0,0.0,0.0,6.0,0.0,,,,,,,-12.879002543263995,-1.618963300109803,-9.504129182430969,-4.999542901246816,-1.8058173849343784,-4.288244188538816,6.829746984308833,,6.027343535132603,-2.235617507769034,,,,,,,,
LBP05_S08,LBP05,-1615,36,8,35,-1615,1715802644.4,2024-05-15 19:50:44.400000+00:00,2024-05-16 04:50:44.400000+09:00,2024,5,15,19,50,44,400,,,,,,,,,-0.187012,-0.259766,0.056152,-104.125977,15.136719,5.065918,,,,,,,,,,,0.0,1.0,1.0,8.0,0.0,0.0,0.0,6.0,0.0,,,,,,,-5.915221059067914,-0.09108890187367386,-11.059151001187793,-5.236151743609533,-1.8094609410093254,-4.730610228586328,7.284923274403726,,6.409329439348497,-2.2345934719415763,,,,,,,,
LBP05_S08,LBP05,-1614,37,8,36,-1614,1715802644.44,2024-05-15 19:50:44.440000+00:00,2024-05-16 04:50:44.440000+09:00,2024,5,15,19,50,44,440,,,,,,,,,0.087646,-0.321045,0.439453,61.340332,-56.335449,-18.493652,,,,,,,,,,,0.0,1.0,1.0,8.0,0.0,0.0,0.0,6.0,0.0,,,,,,,1.3848058252125912,1.4735085600822357,-11.484013577658784,-5.180759510601029,-1.750520598606036,-5.189970771692679,7.539256467573666,,6.6996341885790685,-2.245841348379807,,,,,,,,
LBP05_S08,LBP05,-1613,38,8,37,-1613,1715802644.48,2024-05-15 19:50:44.480000+00:00,2024-05-16 04:50:44.480000+09:00,2024,5,15,19,50,44,480,,,,,,,,,0.403564,0.180176,0.664551,29.541016,-1.77002,-39.550781,,,,,,,,,,,0.0,1.0,1.0,8.0,0.0,0.0,0.0,6.0,0.0,-0.15160485333333334,-0.19250324,0.9876888133333334,-3.1705729466666677,0.19205729333333305,-4.12353512,8.093610061003695,2.8918671759573344,-10.354784282969625,-4.857015108160882,-1.6348459115677425,-5.6041621430114645,7.594073362868946,-2.2413004188041845,6.86909306596566,-2.2470263816346123,0.5551688533333333,0.37267923999999997,-0.32313781333333336,1.2509859066666666,0.7426441395744492,0.7426441395744492,0.7426441395744492,0.7426441395744492
LBP05_S08,LBP05,-1612,39,8,38,-1612,1715802644.52,2024-05-15 19:50:44.520000+00:00,2024-05-16 04:50:44.520000+09:00,2024,5,15,19,50,44,520,,,,,,,,,-0.162598,-0.428467,1.377441,12.207031,102.111816,-37.658691,,,,,,,,,,,0.0,1.0,1.0,8.0,0.0,0.0,0.0,6.0,0.0,-0.1525618933333333,-0.19843749333333333,1.0100553466666669,-2.1061198133333345,-0.8968098933333336,-3.729654906666667,13.284153647104084,4.020630826137588,-7.609063241978435,-4.325648962276718,-1.474020678522239,-5.908524672690602,7.4695809596891305,-2.2299345967338833,6.906783503276641,-2.242485693089092,-0.010036106666666683,-0.23002950666666666,0.36738565333333306,0.6074512666666664,0.4335741178270386,0.5881091287007438,0.5881091287007438,0.5881091287007438
LBP05_S08,LBP05,-1611,40,8,39,-1611,1715802644.56,2024-05-15 19:50:44.560000+00:00,2024-05-16 04:50:44.560000+09:00,2024,5,15,19,50,44,560,,,,,,,,,-0.8396,-0.38916,1.805176,17.150879,-24.719238,4.638672,,,,,,,,,,,0.0,1.0,1.0,8.0,0.0,0.0,0.0,6.0,0.0,-0.15297530666666667,-0.19785481333333332,1.0162467466666665,-2.5553385600000014,1.3126627599999996,-3.572591106666667,16.285772870081555,4.794857777034648,-3.602749353313557,-3.674218047473456,-1.282226367440853,-6.052634646823144,7.195718788673175,-2.2325454002866607,6.817459541676731,-2.2421704827976376,-0.6866246933333333,-0.19130518666666668,0.7889292533333334,1.6668591333333334,1.0632311652250197,0.7464831408755025,0.7464831408755025,0.7464831408755025
LBP05_S08,LBP05,-1610,41,8,40,-1610,1715802644.6,2024-05-15 19:50:44.600000+00:00,2024-05-16 04:50:44.600000+09:00,2024,5,15,19,50,44,600,,,,,,,,,-0.254883,-0.355469,1.692871,87.036133,-110.900879,30.395508,,,,,,,,,,,0.0,1.0,1.0,8.0,0.0,0.0,0.0,6.0,0.0,-0.16374678666666664,-0.19189128000000003,1.0069498799999999,-3.973795586666668,1.8400065066666662,-4.057617146666667,16.862359668161236,5.229273388582006,0.9745463958864907,-2.999723660747007,-1.0730554318975727,-6.013652790987684,6.805425033847943,-2.279584977694501,6.618916401514726,-2.245462910468834,-0.09113621333333338,-0.16357771999999995,0.6859211200000002,0.9406350533333335,0.7110212814840298,0.7376176760276343,0.7376176760276343,0.7376176760276343
LBP05_S08,LBP05,-1609,42,8,41,-1609,1715802644.64,2024-05-15 19:50:44.640000+00:00,2024-05-16 04:50:44.640000+09:00,2024,5,15,19,50,44,640,,,,,,,,,-0.07666,0.058594,0.878418,18.798828,102.600098,17.211914,,,,,,,,,,,0.0,1.0,1.0,8.0,0.0,0.0,0.0,6.0,0.0,-0.16063806666666666,-0.19961262666666665,0.9972460933333334,-3.9314778800000005,-0.11962892000000021,-4.118652293333334,15.236984340451016,5.391362224360502,5.294336649198483,-2.390244287128966,-0.8574009429231526,-5.801879325019744,6.333262021357535,-2.251766514653832,6.3393163540716255,-2.246250968494996,0.08397806666666666,0.25820662666666666,-0.11882809333333333,0.4610127866666667,0.29638335564077456,0.6493708119502624,0.6493708119502624,0.6493708119502624
LBP05_S08,LBP05,-1608,43,8,42,-1608,1715802644.68,2024-05-15 19:50:44.680000+00:00,2024-05-16 04:50:44.680000+09:00,2024,5,15,19,50,44,680,,,,,,,,,-0.331299,-0.010986,0.080811,-102.478027,25.085449,-3.173828,,,,,,,,,,,0.0,1.0,1.0,8.0,0.0,0.0,0.0,6.0,0.0,-0.14655604,-0.19478189333333332,0.9869921866666668,-2.3844401200000016,0.8430989333333332,-3.9396158399999996,11.961110361627236,5.376299831383787,8.617415580145693,-1.9117998726638765,-0.6423489496678011,-5.457182701813917,5.8179406981537705,-2.219782250361491,6.013712514030755,-2.2502711372382067,-0.18474296,0.18379589333333332,-0.9061811866666668,1.27472004,0.9429078612167617,0.698293653494679,0.698293653494679,0.698293653494679
LBP05_S08,LBP05,-1607,44,8,43,-1607,1715802644.72,2024-05-15 19:50:44.720000+00:00,2024-05-16 04:50:44.720000+09:00,2024,5,15,19,50,44,720,,,,,,,,,0.093506,-0.368896,0.510254,-3.723145,-59.509277,5.615234,,,,,,,,,,,0.0,1.0,1.0,8.0,0.0,0.0,0.0,6.0,0.0,-0.15138026666666665,-0.19264322666666667,0.9840527333333333,-2.3754882933333343,3.47737628,-3.87613928,7.703701404698603,5.297873581948478,10.476877616015097,-1.6036518164759324,-0.43043400638986196,-5.038107597173313,5.3046678258905935,-2.240279221048912,5.679454441823428,-2.256063413722362,0.24488626666666666,-0.17625277333333333,-0.47379873333333333,0.8949377733333334,0.5617112811915925,0.6787818860228094,0.6787818860228094,0.6787818860228094
LBP05_S08,LBP05,-1606,45,8,44,-1606,1715802644.76,2024-05-15 19:50:44.760000+00:00,2024-05-16 04:50:44.760000+09:00,2024,5,15,19,50,44,760,,,,,,,,,0.426758,-0.121338,0.99292,50.842285,25.634766,28.747559,,,,,,,,,,,0.0,1.0,1.0,8.0,0.0,0.0,0.0,6.0,0.0,-0.16387376,-0.19659504,0.9942578133333334,-2.881673186666668,1.3582356533333333,-3.9314778133333332,3.0754390576625297,5.2786988969777555,10.770689116182789,-1.480634254169431,-0.21928605051075173,-4.607280032526001,4.844315582688772,-2.2685099041672077,5.371110500281154,-2.260748842954221,0.5906317600000001,0.07525704,-0.001337813333333382,0.6672266133333334,0.5954085049231108,0.6683602133853471,0.6683602133853471,0.6683602133853471
LBP05_S08,LBP05,-1605,46,8,45,-1605,1715802644.8,2024-05-15 19:50:44.800000+00:00,2024-05-16 04:50:44.800000+09:00,2024,5,15,19,50,44,800,,,,,,,,,-0.453125,-0.295654,1.522461,-12.634277,93.62793,19.775391,,,,,,,,,,,0.0,1.0,1.0,8.0,0.0,0.0,0.0,6.0,0.0,-0.1632064533333333,-0.20246417333333333,1.0132454533333333,-2.491861986666668,-0.5664062666666668,-3.6678059333333333,-1.4371772633762285,5.419168397924433,9.752509308953922,-1.5381213447044801,-0.0025193145937744132,-4.217179660167844,4.488922799972718,-2.252555432704295,5.116750677158278,-2.26110988723068,-0.2899185466666667,-0.09318982666666664,0.5092155466666668,0.8923239200000002,0.5933275490506975,0.6600232506814971,0.6600232506814971,0.6600232506814971
LBP05_S08,LBP05,-1604,47,8,46,-1604,1715802644.84,2024-05-15 19:50:44.840000+00:00,2024-05-16 04:50:44.840000+09:00,2024,5,15,19,50,44,840,,,,,,,,,-0.827393,-0.722656,1.776367,58.227539,-69.335938,10.620117,,,,,,,,,,,0.0,1.0,1.0,8.0,0.0,0.0,0.0,6.0,0.0,-0.16852872,-0.19471353333333333,1.01350588,-2.5146484400000007,1.5266926933333331,-4.02425124,-5.450703171949197,5.743553712742754,7.9286394947897145,-1.756149471582448,0.22722283391593576,-3.900034080376255,4.283218067164963,-2.2864526559271003,4.937179859392259,-2.2582704379026945,-0.6588642800000001,-0.5279424666666667,0.76286112,1.9496678666666667,1.1378850890918895,0.7078094345225364,0.7078094345225364,0.7078094345225364
LBP05_S08,LBP05,-1603,48,8,47,-1603,1715802644.88,2024-05-15 19:50:44.880000+00:00,2024-05-16 04:50:44.880000+09:00,2024,5,15,19,50,44,880,,,,,,,,,-0.11499,0.075439,1.515137,44.311523,-94.482422,-5.187988,,,,,,,,,,,0.0,1.0,1.0,8.0,0.0,0.0,0.0,6.0,0.0,-0.17545905333333334,-0.19746418666666665,1.0004231866666666,-4.8445638,0.6892903466666667,-4.444986906666666,-8.66787203183206,6.145081445350923,5.885496088676869,-2.1028643528557303,0.4730260917299727,-3.6646142368291805,4.251492640795677,-2.2992231836457355,4.8477326548793,-2.2587917093497105,0.06046905333333334,0.2729031866666667,0.5147138133333333,0.8480860533333334,0.5857157718040317,0.6967100106390359,0.6967100106390359,0.6967100106390359
LBP05_S08,LBP05,-1602,49,8,48,-1602,1715802644.92,2024-05-15 19:50:44.920000+00:00,2024-05-16 04:50:44.920000+09:00,2024,5,15,19,50,44,920,,,,,,,,,-0.139648,-0.101807,0.541748,-87.463379,123.046875,-23.803711,,,,,,,,,,,0.0,1.0,1.0,8.0,0.0,0.0,0.0,6.0,0.0,-0.16754564,-0.19759113333333334,0.98533856,-4.275716133333334,-1.5291341333333335,-4.615071546666666,-10.935442001190221,6.373680801103615,4.0965733669208095,-2.540282032903339,0.7279733237741173,-3.500751302152348,4.386141544266398,-2.2767888890524763,4.860752304326188,-2.2627166003300525,0.02789764,0.09578413333333334,-0.44359055999999997,0.5672723333333333,0.4546707197930179,0.6765400697352012,0.6765400697352012,0.6765400697352012
LBP05_S08,LBP05,-1601,50,8,49,-1601,1715802644.96,2024-05-15 19:50:44.960000+00:00,2024-05-16 04:50:44.960000+09:00,2024,5,15,19,50,44,960,,,,,,,,,-0.278809,-0.156006,0.050293,-137.451172,-1.098633,-24.291992,,,,,,,,,,,0.0,1.0,1.0,8.0,0.0,0.0,0.0,6.0,0.0,-0.151364,-0.19435545333333332,0.9744661600000001,-3.448079413333334,-0.41422528000000003,-4.864094986666667,-12.353346963078916,6.103659726568034,2.7782630936923867,-3.0344159114264957,0.9721197128368386,-3.3896207784046526,4.652120557444404,-2.2361558430512445,4.986851436773351,-2.266045985786112,-0.12744499999999997,0.03834945333333331,-0.92417316,1.0899676133333334,0.9337070944682552,0.6963221485608208,0.6963221485608208,0.6963221485608208
LBP05_S08,LBP05,-1600,51,8,50,-1600,1715802645.0,2024-05-15 19:50:45+00:00,2024-05-16 04:50:45+09:00,2024,5,15,19,50,45,0,19.0,50.0,45.0,40.783741,141.678299,-0.29,3.0,8.0,0.124023,-0.289307,0.539551,-7.8125,-47.546387,6.835938,-570.0,65.0,549.0,22.0,0.0,1020.200012,16.23,0.07135,-57.669693,3.825,0.0,1.0,1.0,8.0,0.0,0.0,0.0,5.0,0.0,-0.15526373333333332,-0.19314776,0.9723079600000002,-4.099934880000001,1.4851887866666666,-5.363769466666667,-13.32124477740158,5.0671330297665484,1.8561439768500532,-3.567265702522559,1.1748050340275005,-3.3153750193306504,5.009716856187766,-2.251190484414651,5.2338966746546784,-2.267592768644171,0.2792867333333333,-0.09615923999999998,-0.4327569600000002,0.8082029333333335,0.5239525410586571,0.6840100337392376,0.6840100337392376,0.6840100337392376
LBP05_S08,LBP05,-1599,52,8,51,-1599,1715802645.04,2024-05-15 19:50:45.040000+00:00,2024-05-16 04:50:45.040000+09:00,2024,5,15,19,50,45,40,,,,,,,,,0.315674,-0.056885,1.077148,110.961914,57.739258,36.987305,,,,,,,,,,,0.0,1.0,1.0,8.0,0.0,0.0,0.0,5.0,0.0,-0.15943365333333331,-0.1959407333333333,0.9877181200000001,-4.965006493333334,-0.49479168000000007,-5.77473952,-14.413979385744813,3.1877505003490225,1.0570905839216855,-4.143824877952351,1.3023150540414614,-3.273091395973783,5.438789976227933,-2.256979229123992,5.604065715662069,-2.2705223986210825,0.4751076533333333,0.13905573333333332,0.08942987999999985,0.7035932666666666,0.5030521669425472,0.6719461759527916,0.6719461759527916,0.6719461759527916
LBP05_S08,LBP05,-1598,53,8,52,-1598,1715802645.08,2024-05-15 19:50:45.080000+00:00,2024-05-16 04:50:45.080000+09:00,2024,5,15,19,50,45,80,,,,,,,,,-0.561523,-0.261475,1.596436,-37.04834,76.599121,29.052734,,,,,,,,,,,0.0,1.0,1.0,8.0,0.0,0.0,0.0,5.0,0.0,-0.15954108,-0.19517901333333332,1.0061035333333335,-3.295084613333334,-0.24169922666666668,-5.8072916,-16.100582605103302,0.6453377437438671,0.07720705181422163,-4.787848182156483,1.3281285637912161,-3.2700031139012142,5.948137192622653,-2.259031160164913,6.090954488506215,-2.266252025259202,-0.40198192,-0.0662959866666667,0.5903324666666665,1.0586103733333332,0.7172705508075347,0.674778949381213,0.674778949381213,0.674778949381213
LBP05_S08,LBP05,-1597,54,8,53,-1597,1715802645.12,2024-05-15 19:50:45.120000+00:00,2024-05-16 04:50:45.120000+09:00,2024,5,15,19,50,45,120,,,,,,,,,-0.935791,-0.402832,1.734131,25.390625,-96.618652,4.211426,,,,,,,,,,,0.0,1.0,1.0,8.0,0.0,0.0,0.0,5.0,0.0,-0.16662116,-0.19777342666666667,1.0088541866666667,-5.489095026666668,2.370605466666667,-5.267740826666667,-18.460555348774967,-2.1640574975250986,-1.2662187461618064,-5.526270396107482,1.241566263890212,-3.3206518637476865,6.565659150362226,-2.273573075609505,6.67933510706438,-2.2647026943130775,-0.76916984,-0.20505857333333335,0.7252768133333334,1.6995052266666666,1.0768926210268517,0.6984326947721329,0.6984326947721329,0.6984326947721329
LBP05_S08,LBP05,-1596,55,8,54,-1596,1715802645.16,2024-05-15 19:50:45.160000+00:00,2024-05-16 04:50:45.160000+09:00,2024,5,15,19,50,45,160,,,,,,,,,-0.03125,-0.038574,1.490967,14.160156,-80.505371,-24.108887,,,,,,,,,,,0.0,1.0,1.0,8.0,0.0,0.0,0.0,5.0,0.0,-0.17297206666666665,-0.20096351999999998,1.0000879066666668,-5.49235024,1.68538412,-4.825846293333333,-21.078640972988826,-4.758156567598814,-2.975215208575076,-6.369416035027035,1.0512400011862595,-3.4396604720906896,7.314767961502042,-2.283977732747795,7.348579075468228,-2.2669934418358793,0.14172206666666665,0.16238951999999998,0.4908790933333331,0.7949906799999997,0.5361135930545472,0.6894149668989337,0.6894149668989337,0.6894149668989337
LBP05_S08,LBP05,-1595,56,8,55,-1595,1715802645.2,2024-05-15 19:50:45.200000+00:00,2024-05-16 04:50:45.200000+09:00,2024,5,15,19,50,45,200,,,,,,,,,-0.19043,0.150391,0.428223,-40.527344,117.492676,-26.123047,,,,,,,,,,,0.0,1.0,1.0,8.0,0.0,0.0,0.0,5.0,0.0,-0.16913092000000002,-0.19735349333333335,0.9913899866666666,-3.8053385200000003,-0.0870768266666667,-4.338378840000001,-23.19840453073559,-6.724243122361679,-4.916575720644791,-7.297352216256458,0.7822702762917924,-3.636323500916481,8.19061321004662,-2.2818517324734113,8.077791982672462,-2.2715299662104007,-0.02129907999999997,0.34774449333333335,-0.5631669866666665,0.9322105599999999,0.6622212155493936,0.6879837168279053,0.6879837168279053,0.6879837168279053
LBP05_S08,LBP05,-1594,57,8,56,-1594,1715802645.24,2024-05-15 19:50:45.240000+00:00,2024-05-16 04:50:45.240000+09:00,2024,5,15,19,50,45,240,,,,,,,,,-0.22583,-0.317627,0.13208,-161.499023,-32.409668,-24.719238,,,,,,,,,,,0.0,1.0,1.0,8.0,0.0,0.0,0.0,5.0,0.0,-0.1559343066666667,-0.19706053333333332,0.9836523466666666,-3.133138000000001,1.0221354133333334,-4.03727208,-24.067649920168243,-7.82677132797766,-6.919345720768047,-8.260058213063187,0.4691994231726859,-3.913097329747203,9.152105795606435,-2.243748922308295,8.84940844397996,-2.274606605179898,-0.06989569333333331,-0.12056646666666668,-0.8515723466666666,1.0420345066666665,0.862900424405044,0.6967295522067622,0.6967295522067622,0.6967295522067622
LBP05_S08,LBP05,-1593,58,8,57,-1593,1715802645.28,2024-05-15 19:50:45.280000+00:00,2024-05-16 04:50:45.280000+09:00,2024,5,15,19,50,45,280,,,,,,,,,0.041016,-0.149902,0.4104,-1.77002,-77.148438,1.159668,,,,,,,,,,,0.0,1.0,1.0,8.0,0.0,0.0,0.0,5.0,0.0,-0.16013678666666667,-0.18604490666666665,0.9807747466666666,-4.069824200000001,2.84586588,-4.715983026666666,-23.300364744202913,-8.036027911131773,-8.850374225257386,-9.192072802831303,0.14775830672741497,-4.267112298757499,10.135298826377316,-2.2837298741844925,9.649546704435641,-2.2809071762147797,0.20115278666666667,0.03614290666666664,-0.5703747466666667,0.80767044,0.6058845640228384,0.6924036003884801,0.6924036003884801,0.6924036003884801
LBP05_S08,LBP05,-1592,59,8,58,-1592,1715802645.32,2024-05-15 19:50:45.320000+00:00,2024-05-16 04:50:45.320000+09:00,2024,5,15,19,50,45,320,,,,,,,,,0.448242,-0.12207,0.849121,-8.850098,10.864258,1.403809,,,,,,,,,,,0.0,1.0,1.0,8.0,0.0,0.0,0.0,5.0,0.0,-0.16842127999999998,-0.18930336,0.9963118533333333,-4.506022120000001,0.5721028533333333,-5.646972613333334,-21.066466664828756,-7.491433828833314,-10.62536024294415,-10.034731469424454,-0.15189904642591762,-4.692126708475265,11.07858122830489,-2.2996963642804933,10.465742055101444,-2.2864753525829906,0.6166632799999999,0.06723336,-0.14719085333333326,0.8310874933333332,0.6375414283811232,0.6899098652972366,0.6899098652972366,0.6899098652972366
LBP05_S08,LBP05,-1591,60,8,59,-1591,1715802645.36,2024-05-15 19:50:45.360000+00:00,2024-05-16 04:50:45.360000+09:00,2024,5,15,19,50,45,360,,,,,,,,,-0.264648,-0.211426,1.394531,-15.075684,79.956055,-1.953125,,,,,,,,,,,0.0,1.0,1.0,8.0,0.0,0.0,0.0,5.0,0.0,-0.16716477333333335,-0.19512366666666667,1.0166503999999998,-4.411621080000001,-0.41503906666666673,-6.021321573333334,-18.015942817838276,-6.424550456721694,-12.16678353729998,-10.755369182137985,-0.4088810646947854,-5.178798049967265,11.944249629486743,-2.281521086796462,11.284151347767402,-2.287045674162187,-0.09748322666666664,-0.016302333333333335,0.3778806000000001,0.4916661600000001,0.39059249021174985,0.6768960663804764,0.6768960663804764,0.6768960663804764
LBP05_S08,LBP05,-1590,61,8,60,-1590,1715802645.4,2024-05-15 19:50:45.400000+00:00,2024-05-16 04:50:45.400000+09:00,2024,5,15,19,50,45,400,,,,,,,,,-0.834961,-0.490234,1.724365,7.507324,-36.865234,-5.737305,,,,,,,,,,,0.0,1.0,1.0,8.0,0.0,0.0,0.0,5.0,0.0,-0.17030604,-0.19863929333333333,1.0193522133333333,-4.576009093333335,2.1468098933333333,-6.130371053333334,-14.98903378107187,-5.071810170892057,-13.357237693195733,-11.354930533380859,-0.6117534715304677,-5.7130875576950935,12.725881469262747,-2.2819568741096212,12.088537420169278,-2.2869533518994,-0.66465496,-0.29159470666666665,0.7050127866666667,1.6612624533333333,1.0118481695255073,0.6908524040115193,0.6908524040115193,0.6908524040115193
LBP05_S08,LBP05,-1589,62,8,61,-1589,1715802645.44,2024-05-15 19:50:45.440000+00:00,2024-05-16 04:50:45.440000+09:00,2024,5,15,19,50,45,440,,,,,,,,,-0.241211,-0.387939,1.629883,39.123535,-93.383789,1.159668,,,,,,,,,,,0.0,1.0,1.0,8.0,0.0,0.0,0.0,5.0,0.0,-0.17943364,-0.19339841333333335,1.0107063733333332,-4.747721333333334,2.396647133333333,-6.85628252,-12.665165851143609,-3.6133073290193756,-14.037017596991006,-11.861537167426603,-0.7562857646912426,-6.274568261574734,13.440172580784754,-2.319984939472805,12.862045002399388,-2.2892662708208995,-0.06177736,-0.19454058666666663,0.6191766266666667,0.8754945733333334,0.651952588061044,0.6892964113735003,0.6892964113735003,0.6892964113735003
LBP05_S08,LBP05,-1588,63,8,62,-1588,1715802645.48,2024-05-15 19:50:45.480000+00:00,2024-05-16 04:50:45.480000+09:00,2024,5,15,19,50,45,480,,,,,,,,,-0.151611,-0.203369,0.757568,34.545898,101.5625,-22.644043,,,,,,,,,,,0.0,1.0,1.0,8.0,0.0,0.0,0.0,5.0,0.0,-0.17746749333333334,-0.19338538666666666,1.00258788,-5.100911440000001,0.67138672,-7.224934866666666,-11.31534586317385,-2.1555342323673448,-14.064372061819167,-12.314151001953556,-0.8425071339859365,-6.8371431440475,14.110090699280665,-2.314712923847024,13.590666873150681,-2.293887971501896,0.02585649333333334,-0.009983613333333335,-0.24501988000000008,0.2808599866666668,0.24658258733718538,0.6694539492840097,0.6722689566028728,0.6722689566028728
LBP05_S08,LBP05,-1587,64,8,63,-1587,1715802645.52,2024-05-15 19:50:45.520000+00:00,2024-05-16 04:50:45.520000+09:00,2024,5,15,19,50,45,520,,,,,,,,,-0.157715,0.229736,0.018799,-87.768555,-4.150391,-50.90332,,,,,,,,,,,0.0,1.0,1.0,8.0,0.0,0.0,0.0,5.0,0.0,-0.16378585333333331,-0.19208656,0.9937923066666667,-4.366861960000001,1.35823568,-7.145182266666666,-10.758973739106235,-0.7457401709776601,-13.414310195545738,-12.744509951517806,-0.8723367408250429,-7.37371555186933,14.749752077021812,-2.2792762914014686,14.266146745582484,-2.2960378319112293,0.00607085333333332,0.42182255999999996,-0.9749933066666667,1.4028867200000001,1.0623479069636035,0.6946049008494724,0.6867163251347518,0.6867163251347518
LBP05_S08,LBP05,-1586,65,8,64,-1586,1715802645.56,2024-05-15 19:50:45.560000+00:00,2024-05-16 04:50:45.560000+09:00,2024,5,15,19,50,45,560,,,,,,,,,0.021973,-0.154785,0.37793,-52.124023,-63.232422,-34.301758,,,,,,,,,,,0.0,1.0,1.0,8.0,0.0,0.0,0.0,5.0,0.0,-0.16412113333333334,-0.19096677333333334,0.9922298,-4.799804666666668,3.721516933333333,-7.240397106666667,-10.519449417052527,0.6007193276910059,-12.257979810203073,-13.165287928199907,-0.8483079677174026,-7.864034744277452,15.358628685520788,-2.283054510119926,14.88670456671386,-2.299347201292697,0.18609413333333333,0.036181773333333334,-0.6142998000000001,0.8365757066666667,0.6428875418474597,0.6777911559143699,0.6851510114459198,0.6851510114459198
LBP05_S08,LBP05,-1585,66,8,65,-1585,1715802645.6,2024-05-15 19:50:45.600000+00:00,2024-05-16 04:50:45.600000+09:00,2024,5,15,19,50,45,600,,,,,,,,,0.47876,-0.345459,0.748779,20.996094,-5.126953,1.098633,,,,,,,,,,,0.0,1.0,1.0,8.0,0.0,0.0,0.0,5.0,0.0,-0.17307621333333334,-0.19242836,1.0056119733333335,-4.368489573333334,1.9091796933333338,-7.520345026666667,-10.074797538714732,1.8716355109232916,-10.961080342552636,-13.568279829748496,-0.7734425472804709,-8.302477957979558,15.925689032347707,-2.3049809216884065,15.455493224053473,-2.3036176388450453,0.6518362133333333,-0.15303064000000002,-0.25683297333333355,1.0616998266666668,0.7171276050904672,0.6780354088586275,0.6862536526060766,0.6862536526060766
LBP05_S08,LBP05,-1584,67,8,66,-1584,1715802645.64,2024-05-15 19:50:45.640000+00:00,2024-05-16 04:50:45.640000+09:00,2024,5,15,19,50,45,640,,,,,,,,,-0.066895,0.050049,1.256104,-28.198242,79.833984,18.432617,,,,,,,,,,,0.0,1.0,1.0,8.0,0.0,0.0,0.0,5.0,0.0,-0.17154301333333333,-0.19675126666666667,1.02741536,-2.132975240000001,0.9586588533333334,-7.137858039999999,-9.070672248932919,3.041190617291716,-9.978193054392431,-13.931106719705813,-0.6517949225888022,-8.701605680155255,16.438324503119386,-2.2899659291182606,15.977872842597733,-2.304509495877879,0.10464801333333333,0.24680026666666668,0.2286886400000001,0.5801369200000002,0.35236355144424475,0.6802746166907663,0.675123982567349,0.675123982567349
LBP05_S08,LBP05,-1583,68,8,67,-1583,1715802645.68,2024-05-15 19:50:45.680000+00:00,2024-05-16 04:50:45.680000+09:00,2024,5,15,19,50,45,680,,,,,,,,,-0.72876,-0.286133,1.653076,-5.310059,-8.361816,-4.638672,,,,,,,,,,,0.0,1.0,1.0,8.0,0.0,0.0,0.0,5.0,0.0,-0.17385420000000001,-0.19316728,1.0311718666666667,-2.1240234266666675,3.652343746666667,-6.961262986666667,-7.415993261094015,4.073286904493431,-9.681719225713454,-14.227746450149574,-0.488863446409065,-9.088874449183793,16.89009755069534,-2.3052284782778245,16.458873795190144,-2.302551126108889,-0.5549058,-0.09296572000000003,0.6219041333333333,1.2697756533333333,0.838646423128271,0.6761041591672265,0.680398900004798,0.680398900004798
LBP05_S08,LBP05,-1582,69,8,68,-1582,1715802645.72,2024-05-15 19:50:45.720000+00:00,2024-05-16 04:50:45.720000+09:00,2024,5,15,19,50,45,720,,,,,,,,,-0.317627,-0.485107,1.713867,38.146973,-88.012695,0.793457,,,,,,,,,,,0.0,1.0,1.0,8.0,0.0,0.0,0.0,5.0,0.0,-0.18324222666666667,-0.19233069333333333,1.0217480399999999,-3.0314127600000007,3.7589518266666664,-7.477213506666667,-5.261532896703246,4.93531922626561,-10.206260185777102,-14.438207766017705,-0.2914506773584406,-9.497124856614876,17.28415943961866,-2.3327900580951733,16.901710860503492,-2.301325952835539,-0.13438477333333332,-0.29277630666666665,0.6921189600000002,1.11928004,0.7634172436097493,0.6841723976639529,0.6829932232424527,0.6829932232424527
LBP05_S08,LBP05,-1581,70,8,69,-1581,1715802645.76,2024-05-15 19:50:45.760000+00:00,2024-05-16 04:50:45.760000+09:00,2024,5,15,19,50,45,760,,,,,,,,,-0.05249,-0.079834,0.923584,-2.685547,84.838867,1.708984,,,,,,,,,,,0.0,1.0,1.0,8.0,0.0,0.0,0.0,5.0,0.0,-0.17989261333333334,-0.19219397333333332,1.0115429733333334,-2.6367187466666673,1.7724609466666668,-8.16650388,-2.9100717948213997,5.610255725510676,-11.382853318750907,-14.55461063781056,-0.06704044833801356,-9.952438989364913,17.632136202882865,-2.3242254623199434,17.30740426830668,-2.3033614893160945,0.12740261333333333,0.11235997333333332,-0.08795897333333347,0.32772156000000013,0.19129289187391227,0.668007773141985,0.6680932132009818,0.6680932132009818
LBP05_S08,LBP05,-1580,71,8,70,-1580,1715802645.8,2024-05-15 19:50:45.800000+00:00,2024-05-16 04:50:45.800000+09:00,2024,5,15,19,50,45,800,,,,,,,,,-0.371582,0.164307,0.11499,-64.208984,36.071777,-35.644531,,,,,,,,,,,0.0,1.0,1.0,8.0,0.0,0.0,0.0,5.0,0.0,-0.16494469333333334,-0.18880205333333333,1.00171224,-2.4039713466666677,2.6359049466666664,-8.425292946666668,-0.7079202680948707,6.106933956093302,-12.791947191907488,-14.582927448534354,0.17723690990571853,-10.464116877041212,17.949677654705344,-2.290875444437959,17.675052310698298,-2.306330519814903,-0.2066373066666667,0.3531090533333333,-0.88672224,1.4464686,0.9765558411903716,0.6833369048275719,0.6771656434359639,0.6771656434359639
LBP05_S08,LBP05,-1579,72,8,71,-1579,1715802645.84,2024-05-15 19:50:45.840000+00:00,2024-05-16 04:50:45.840000+09:00,2024,5,15,19,50,45,840,,,,,,,,,0.100342,-0.451172,0.516602,-22.338867,-71.777344,-21.728516,,,,,,,,,,,0.0,1.0,1.0,8.0,0.0,0.0,0.0,5.0,0.0,-0.16897463999999998,-0.18964514666666665,1.0004850266666665,-1.5120442666666674,5.013834626666667,-8.226725239999999,1.0596363333085266,6.4664908420948946,-13.909985685720757,-14.540541995202013,0.43589654358951435,-11.020516304470043,18.250182106708873,-2.3004012417829065,18.002361268595774,-2.3086446471888875,0.26931664,-0.26152685333333336,-0.4838830266666665,1.01472652,0.612430021383193,0.662318702119224,0.6753160542344562,0.6753160542344562
LBP05_S08,LBP05,-1578,73,8,72,-1578,1715802645.88,2024-05-15 19:50:45.880000+00:00,2024-05-16 04:50:45.880000+09:00,2024,5,15,19,50,45,880,,,,,,,,,0.370605,-0.053711,0.862549,108.215332,26.733398,-29.174805,,,,,,,,,,,0.0,1.0,1.0,8.0,0.0,0.0,0.0,5.0,0.0,-0.17674807999999997,-0.19756506666666668,1.0133593733333333,-0.7543945333333343,2.6318359333333334,-8.020019506666666,2.2649425581199187,6.7533539589959775,-14.287864358840995,-14.449944292877216,0.7060307019493535,-11.592030878823682,18.538461352414114,-2.3024611911135215,18.28643526896203,-2.3126102491936895,0.5473530799999999,0.14385406666666667,-0.15081037333333325,0.8420175199999999,0.5856903237948903,0.6623176841988584,0.6728264506111349,0.6728264506111349
LBP05_S08,LBP05,-1577,74,8,73,-1577,1715802645.92,2024-05-15 19:50:45.920000+00:00,2024-05-16 04:50:45.920000+09:00,2024,5,15,19,50,45,920,,,,,,,,,-0.167969,-0.178711,1.377197,-7.446289,83.374023,-7.141113,,,,,,,,,,,0.0,1.0,1.0,8.0,0.0,0.0,0.0,5.0,0.0,-0.1742708666666667,-0.19590490666666668,1.0307356799999998,1.3557942799999991,1.5079752533333335,-7.892252573333334,3.0038953833258106,7.025331050961483,-13.693822890840346,-14.329788477544184,0.9870439439878127,-12.139783794457296,18.806686155053715,-2.2996316562070223,18.52507817091356,-2.3110948290315987,0.006301866666666683,0.017193906666666675,0.3464613200000002,0.36995709333333354,0.34694493829149464,0.6580086529387974,0.6640188421700635,0.6640188421700635
LBP05_S08,LBP05,-1576,75,8,74,-1576,1715802645.96,2024-05-15 19:50:45.960000+00:00,2024-05-16 04:50:45.960000+09:00,2024,5,15,19,50,45,960,,,,,,,,,-0.786133,-0.254395,1.76709,14.892578,-34.667969,-11.291504,,,,,,,,,,,0.0,1.0,1.0,8.0,0.0,0.0,0.0,5.0,0.0,-0.17642581333333332,-0.192998,1.0347591200000001,0.7047526133333325,3.2804361866666665,-7.3950195066666655,3.577564584768428,7.289719608221092,-12.177723863693545,-14.186685894153447,1.2786327283166563,-12.626892749005037,19.035109109436984,-2.3127448151080134,18.71867059960868,-2.306845724272291,-0.6097071866666667,-0.06139699999999998,0.7323308799999999,1.4034350666666666,0.9548931683091862,0.6588560958924345,0.6716734297000404,0.6716734297000404
LBP05_S08,LBP05,-1575,76,8,75,-1575,1715802646.0,2024-05-15 19:50:46+00:00,2024-05-16 04:50:46+09:00,2024,5,15,19,50,46,0,19.0,50.0,46.0,40.783669,141.678253,-0.303,3.0,8.0,-0.303223,-0.410645,1.729736,-2.075195,-95.397949,4.516602,-568.0,74.0,541.0,15.0,0.0,1020.200012,16.290001,0.07135,-57.669693,3.825,0.0,1.0,1.0,8.0,0.0,0.0,0.0,5.0,0.0,-0.18375002666666665,-0.19473953333333335,1.0254557333333334,-0.5265299466666675,3.3585611866666665,-7.044270813333334,4.352633172096671,7.461451985307949,-10.051366509507698,-14.01258056726958,1.5770908077289743,-13.028947409385346,19.198778611322474,-2.3281221954282474,18.87218457106369,-2.3044765680381407,-0.11947297333333337,-0.21590546666666663,0.7042802666666665,1.0396587066666665,0.7462570977282088,0.6677482781592167,0.6735858314443524,0.6735858314443524
LBP05_S08,LBP05,-1574,77,8,76,-1574,1715802646.04,2024-05-15 19:50:46.040000+00:00,2024-05-16 04:50:46.040000+09:00,2024,5,15,19,50,46,40,,,,,,,,,0.010498,-0.112305,0.829834,-37.231445,96.618652,-7.69043,,,,,,,,,,,0.0,1.0,1.0,8.0,0.0,0.0,0.0,5.0,0.0,-0.18110028,-0.19133458666666667,1.01120444,-0.2669270800000009,1.0017903600000002,-6.955566386666668,5.5395333065106005,7.3537204118947255,-7.807732537217574,-13.790999235009156,1.8712396242047633,-13.341256710874049,19.279064506781936,-2.329621949166283,18.99651508645753,-2.304164579865288,0.19159828,0.07902958666666667,-0.18137044000000002,0.4519983066666667,0.2754102630140282,0.6586426020020761,0.6636314422335944,0.6636314422335944
LBP05_S08,LBP05,-1573,78,8,77,-1573,1715802646.08,2024-05-15 19:50:46.080000+00:00,2024-05-16 04:50:46.080000+09:00,2024,5,15,19,50,46,80,,,,,,,,,-0.363037,0.140869,0.087891,-75.195312,18.920898,-36.376953,,,,,,,,,,,0.0,1.0,1.0,8.0,0.0,0.0,0.0,5.0,0.0,-0.16363282666666665,-0.18761062666666667,0.9960351599999999,0.36865234666666585,0.9847005066666668,-7.390950506666668,7.003987779095135,6.7331887877409455,-6.008398316458651,-13.51083972384535,2.140567175714401,-13.581592643532394,19.27652657021064,-2.290074276656918,19.108401101209296,-2.303912456152683,-0.19940417333333335,0.32847962666666664,-0.90814416,1.43602796,0.9860967015561548,0.6693956480320208,0.6714964485585349,0.6714964485585349
LBP05_S08,LBP05,-1572,79,8,78,-1572,1715802646.12,2024-05-15 19:50:46.120000+00:00,2024-05-16 04:50:46.120000+09:00,2024,5,15,19,50,46,120,,,,,,,,,0.184082,-0.444824,0.575195,0.915527,-62.316895,-0.915527,,,,,,,,,,,0.0,1.0,1.0,8.0,0.0,0.0,0.0,5.0,0.0,-0.16007813333333334,-0.18342767999999998,0.9883854266666666,-1.000976560000001,3.3357747333333334,-8.151041653333333,8.24089383916588,5.435464282294803,-5.158769243117912,-13.181203970278716,2.357985747006193,-13.78794341325711,19.220083726569868,-2.2902990105020944,19.228750453874845,-2.306626442038137,0.34416013333333334,-0.26139632,-0.4131904266666666,1.01874688,0.5979135072688542,0.6502364834817008,0.6697444737659234,0.6697444737659234
LBP05_S08,LBP05,-1571,80,8,79,-1571,1715802646.16,2024-05-15 19:50:46.160000+00:00,2024-05-16 04:50:46.160000+09:00,2024,5,15,19,50,46,160,,,,,,,,,0.321045,-0.134277,1.020752,115.722656,54.443359,17.150879,,,,,,,,,,,0.0,1.0,1.0,8.0,0.0,0.0,0.0,5.0,0.0,-0.16703777333333333,-0.1874088,0.9969791733333333,-0.5297851466666675,2.25341796,-8.45703124,8.565204173545633,3.4896347988882757,-5.5843916130819355,-12.83859580333689,2.497571138961724,-14.011319077780389,19.167275917432995,-2.300533899978441,19.379828797266633,-2.3085964157625787,0.4880827733333334,0.05313179999999998,0.023772826666666802,0.5649874000000001,0.4915413808457244,0.6484535949933481,0.665600215791035,0.665600215791035
LBP05_S08,LBP05,-1570,81,8,80,-1570,1715802646.2,2024-05-15 19:50:46.200000+00:00,2024-05-16 04:50:46.200000+09:00,2024,5,15,19,50,46,200,,,,,,,,,-0.525879,-0.069092,1.535156,42.602539,94.482422,5.554199,,,,,,,,,,,0.0,1.0,1.0,8.0,0.0,0.0,0.0,5.0,0.0,-0.16640626666666666,-0.19170893333333333,1.0181542933333334,0.29296875999999905,0.7657877599999998,-8.48551432,7.443559384852572,1.186149215734391,-7.33105409473206,-12.540853427942787,2.5450171075910997,-14.30456124156967,19.19298280864371,-2.287755562709435,19.58215890425601,-2.3064289051423104,-0.3594727333333333,0.12261693333333333,0.5170017066666666,0.9990913733333332,0.6415187628171563,0.6476254968840586,0.6650529100416287,0.6650529100416287
LBP05_S08,LBP05,-1569,82,8,81,-1569,1715802646.24,2024-05-15 19:50:46.240000+00:00,2024-05-16 04:50:46.240000+09:00,2024,5,15,19,50,46,240,,,,,,,,,-0.855225,-0.424316,1.869873,-1.281738,-85.144043,-6.04248,,,,,,,,,,,0.0,1.0,1.0,8.0,0.0,0.0,0.0,5.0,0.0,-0.16663413333333332,-0.18795242666666667,1.0247884,0.5501302266666657,1.7936197866666665,-8.602701813333333,4.788743832961173,-0.958656443871998,-10.12492005965192,-12.349303674624341,2.50667084983622,-14.709558043955747,19.369042254226514,-2.2978800046568586,19.85191149137436,-2.301531399049032,-0.6885908666666667,-0.23636357333333335,0.8450845999999999,1.77003904,1.1154340418029265,0.6577268415799737,0.6750613796363242,0.6750613796363242
LBP05_S08,LBP05,-1568,83,8,82,-1568,1715802646.28,2024-05-15 19:50:46.280000+00:00,2024-05-16 04:50:46.280000+09:00,2024,5,15,19,50,46,280,,,,,,,,,-0.174561,-0.234863,1.563721,23.071289,-85.266113,-16.601562,,,,,,,,,,,0.0,1.0,1.0,8.0,0.0,0.0,0.0,5.0,0.0,-0.17655601333333332,-0.18652338666666665,1.0135969866666665,-0.4077148266666676,2.5122070266666667,-9.3001302,1.0504652949713718,-2.3449502532906137,-13.421744580262995,-12.307285062825486,2.4128728397045953,-15.246427827166267,19.741954879069635,-2.329601049968057,20.199112868847273,-2.2975081133565225,0.001995013333333323,-0.04833961333333334,0.5501240133333334,0.60045864,0.5522473434443935,0.6555813527568359,0.6723915092843257,0.6723915092843257
LBP05_S08,LBP05,-1567,84,8,83,-1567,1715802646.32,2024-05-15 19:50:46.320000+00:00,2024-05-16 04:50:46.320000+09:00,2024,5,15,19,50,46,320,,,,,,,,,-0.225342,0.169189,0.633057,-40.649414,112.426758,-38.024902,,,,,,,,,,,0.0,1.0,1.0,8.0,0.0,0.0,0.0,5.0,0.0,-0.17181642666666666,-0.18541336,0.9968163866666667,-1.3427734266666675,0.5761718666666666,-9.499511720000001,-2.9435776687348505,-2.4847818151664285,-16.540549386433543,-12.42502816957488,2.3134815670979383,-15.908049802623609,20.317469588971562,-2.3193313934514386,20.62649531411804,-2.2980264093280476,-0.053525573333333326,0.35460236,-0.36375938666666674,0.77188732,0.5108118167254367,0.6505121682906085,0.6689536434852004,0.6689536434852004
LBP05_S08,LBP05,-1566,85,8,84,-1566,1715802646.36,2024-05-15 19:50:46.360000+00:00,2024-05-16 04:50:46.360000+09:00,2024,5,15,19,50,46,360,,,,,,,,,-0.136963,-0.237305,0.096191,-101.623535,-21.42334,-22.827148,,,,,,,,,,,0.0,1.0,1.0,8.0,0.0,0.0,0.0,5.0,0.0,-0.15688804,-0.17946609333333335,0.9807421733333335,-2.6383463466666677,0.4402669199999999,-9.40755208,-6.30192824760741,-1.1674903653063737,-18.83907417639378,-12.677105299479177,2.266781952485683,-16.66161276967936,21.05841017933073,-2.2910697089053302,21.128695996568673,-2.29927431785581,0.019925040000000005,-0.057838906666666634,-0.8845511733333334,0.9623151200000001,0.8866640426840224,0.6703550303894994,0.6734892768018425,0.6734892768018425
LBP05_S08,LBP05,-1565,86,8,85,-1565,1715802646.4,2024-05-15 19:50:46.400000+00:00,2024-05-16 04:50:46.400000+09:00,2024,5,15,19,50,46,400,,,,,,,,,0.171387,-0.191162,0.475342,8.056641,-74.34082,-13.73291,,,,,,,,,,,0.0,1.0,1.0,8.0,0.0,0.0,0.0,5.0,0.0,-0.15236655999999998,-0.17865554666666666,0.9734146933333333,-2.185058586666668,2.37548828,-8.914388026666666,-8.372061788388995,1.4607007192842505,-19.87241743958748,-13.011987771014736,2.325209981257053,-17.45650946726286,21.896304482505997,-2.279147134495466,21.691869070495546,-2.3020904330298344,0.32375356,-0.012506453333333334,-0.4980726933333333,0.8343327066666666,0.5941794230970753,0.6536482805323621,0.6718707083588881,0.6718707083588881
LBP05_S08,LBP05,-1564,87,8,86,-1564,1715802646.44,2024-05-15 19:50:46.440000+00:00,2024-05-16 04:50:46.440000+09:00,2024,5,15,19,50,46,440,,,,,,,,,0.385254,-0.075439,1.030029,52.612305,27.770996,-16.479492,,,,,,,,,,,0.0,1.0,1.0,8.0,0.0,0.0,0.0,5.0,0.0,-0.15859052,-0.18205724,0.98677732,-1.035970040000001,1.6316731733333332,-8.572591146666666,-8.893999453882142,4.915639594476659,-19.489684668741674,-13.367747749170022,2.5218355650361195,-18.236096854012526,22.751078281511116,-2.2893890922411875,22.294248679507355,-2.3047231751341215,0.5438445199999999,0.10661824,0.043251680000000126,0.69371444,0.5558821987233898,0.649805464958856,0.6695509381661782,0.6695509381661782
LBP05_S08,LBP05,-1563,88,8,87,-1563,1715802646.48,2024-05-15 19:50:46.480000+00:00,2024-05-16 04:50:46.480000+09:00,2024,5,15,19,50,46,480,,,,,,,,,-0.50708,-0.238525,1.584229,-3.234863,87.402344,-29.724121,,,,,,,,,,,0.0,1.0,1.0,8.0,0.0,0.0,0.0,5.0,0.0,-0.16285809333333334,-0.18468744,1.0104296666666666,0.6567382933333324,0.84635416,-8.456217453333334,-7.972493928667506,8.483680125648883,-17.851435162223556,-13.686647506316723,2.861182770062075,-18.950154260501467,23.55035102291827,-2.2952572363721666,22.90829540526439,-2.3024631881297175,-0.34422190666666663,-0.05383755999999998,0.5737993333333335,0.9718588000000001,0.6712919475383025,0.6667938393669007,0.6681238943254552,0.6695850756048473
LBP05_S08,LBP05,-1562,89,8,88,-1562,1715802646.52,2024-05-15 19:50:46.520000+00:00,2024-05-16 04:50:46.520000+09:00,2024,5,15,19,50,46,520,,,,,,,,,-0.647949,-0.219727,1.821045,-26.123047,-55.541992,-23.376465,,,,,,,,,,,0.0,1.0,1.0,8.0,0.0,0.0,0.0,5.0,0.0,-0.1646093866666667,-0.18377597333333334,1.0220702933333332,0.5509440266666659,1.4957682266666663,-8.594563813333332,-5.939711940011633,11.393045276494407,-15.373395942342954,-13.924235983917187,3.316904581121851,-19.565090098195185,24.242090551076174,-2.3027780957797193,23.50457698369275,-2.296307322192882,-0.4833396133333333,-0.03595102666666666,0.7989747066666668,1.3182653466666667,0.9344892936939887,0.6616794948361161,0.6781421978427942,0.6746793874911768
LBP05_S08,LBP05,-1561,90,8,89,-1561,1715802646.56,2024-05-15 19:50:46.560000+00:00,2024-05-16 04:50:46.560000+09:00,2024,5,15,19,50,46,560,,,,,,,,,-0.083496,-0.566406,1.666748,27.587891,-33.325195,-1.464844,,,,,,,,,,,0.0,1.0,1.0,8.0,0.0,0.0,0.0,5.0,0.0,-0.17358074666666667,-0.18371412,1.01286132,-1.4111328000000007,2.3030598933333333,-9.22851564,-3.211074201334928,13.001499838254698,-12.61387121152674,-14.052678951970584,3.836964574652039,-20.069644946656254,24.799006656701728,-2.3286950517186824,24.056689429288276,-2.2915600618727776,0.09008474666666667,-0.38269188,0.6538866799999998,1.1266633066666665,0.7629784576784289,0.6664831314693549,0.6721371436918624,0.6763454076833891
LBP05_S08,LBP05,-1560,91,8,90,-1560,1715802646.6,2024-05-15 19:50:46.600000+00:00,2024-05-16 04:50:46.600000+09:00,2024,5,15,19,50,46,600,,,,,,,,,-0.378662,-0.221436,0.751953,9.338379,149.108887,6.04248,,,,,,,,,,,0.0,1.0,1.0,8.0,0.0,0.0,0.0,5.0,0.0,-0.16907554666666666,-0.18444002666666667,0.9956054533333334,-1.1254882666666675,0.7096354133333332,-9.815266933333334,-0.1947396385694737,12.952485031681473,-10.132017539183957,-14.060468537513364,4.355063975919298,-20.47492564822361,25.2167788987618,-2.3140829837523085,24.545825853769884,-2.2902094474278423,-0.20958645333333334,-0.03699597333333332,-0.2436524533333334,0.49023488000000004,0.32351460782950503,0.6507386115789164,0.6643870102187719,0.6698115039823913
LBP05_S08,LBP05,-1559,92,8,91,-1559,1715802646.64,2024-05-15 19:50:46.640000+00:00,2024-05-16 04:50:46.640000+09:00,2024,5,15,19,50,46,640,,,,,,,,,-0.13916,-0.116943,0.210205,-93.75,-32.592773,-12.451172,,,,,,,,,,,0.0,1.0,1.0,8.0,0.0,0.0,0.0,5.0,0.0,-0.15302412,-0.18087882666666666,0.9813541466666668,-0.7714843600000006,1.1816406133333333,-9.993489586666666,2.744228637333718,11.263851758202296,-8.35463174555389,-13.950699392020015,4.80561804624739,-20.809110918045768,25.509509511796924,-2.2752801346128195,24.96356594297466,-2.290789723941742,0.013864120000000008,0.06393582666666665,-0.7711491466666668,0.8489490933333335,0.773919252997141,0.6676008396410321,0.6739377281658991,0.6717043721462959
LBP05_S08,LBP05,-1558,93,8,92,-1558,1715802646.68,2024-05-15 19:50:46.680000+00:00,2024-05-16 04:50:46.680000+09:00,2024,5,15,19,50,46,680,,,,,,,,,0.200195,-0.314697,0.681396,44.006348,-56.884766,-5.432129,,,,,,,,,,,0.0,1.0,1.0,8.0,0.0,0.0,0.0,5.0,0.0,-0.14947594666666664,-0.17935538666666667,0.97647784,-0.5330403466666673,2.9524739466666663,-9.655761720000001,5.29928191566453,8.323704017089387,-7.49002685043409,-13.738728115393434,5.138566206930966,-21.10871199206313,25.704770663353226,-2.2680423905996996,25.31218706427665,-2.2941193824861363,0.34967094666666665,-0.13534161333333333,-0.29508184000000004,0.7800944000000001,0.47713773225371514,0.65314049200605,0.6646223255866383,0.6682299678624998
LBP05_S08,LBP05,-1557,94,8,93,-1557,1715802646.72,2024-05-15 19:50:46.720000+00:00,2024-05-16 04:50:46.720000+09:00,2024,5,15,19,50,46,720,,,,,,,,,0.205078,-0.067383,1.071777,82.275391,46.691895,0.183105,,,,,,,,,,,0.0,1.0,1.0,8.0,0.0,0.0,0.0,5.0,0.0,-0.15572919999999998,-0.18541333333333335,0.9924511466666667,-0.5957031066666674,2.071126293333333,-9.519042973333333,7.249454818216156,4.7913322021136695,-7.51160654624397,-13.448749922664787,5.330219495015513,-21.40917625391289,25.838594044926808,-2.271858790250395,25.602814596505233,-2.2964291689086282,0.3608072,0.11803033333333335,0.07932585333333331,0.5581633866666666,0.38782159063889066,0.6381166658872156,0.6611445317755843,0.6633105226480506
LBP05_S08,LBP05,-1556,95,8,94,-1556,1715802646.76,2024-05-15 19:50:46.760000+00:00,2024-05-16 04:50:46.760000+09:00,2024,5,15,19,50,46,760,,,,,,,,,-0.518799,0.018311,1.475586,-37.353516,60.058594,-10.070801,,,,,,,,,,,0.0,1.0,1.0,8.0,0.0,0.0,0.0,5.0,0.0,-0.15914392,-0.18722322666666666,1.0158300533333333,1.036783866666666,1.54947916,-9.2952474,8.49541312419258,1.4357551066548364,-8.208658520587356,-13.108933397697083,5.387649699281706,-21.737522594736383,25.949774424146792,-2.2775635644559746,25.852384876458153,-2.2941151593331233,-0.35965508,0.20553422666666665,0.45975594666666675,1.0249452533333334,0.6188470129172751,0.6552188307289503,0.6616133019354674,0.662543910411313
LBP05_S08,LBP05,-1555,96,8,95,-1555,1715802646.8,2024-05-15 19:50:46.800000+00:00,2024-05-16 04:50:46.800000+09:00,2024,5,15,19,50,46,800,,,,,,,,,-0.759521,-0.22998,1.751953,-4.211426,-75.744629,-31.188965,,,,,,,,,,,0.0,1.0,1.0,8.0,0.0,0.0,0.0,5.0,0.0,-0.16004886666666665,-0.1853938,1.0278515466666667,1.2304687733333326,2.63997396,-9.308268239999999,9.071082216354652,-1.0420700969549979,-9.28018209633194,-12.746090109042896,5.345966895403506,-22.10872987858966,26.073705374553775,-2.2849498996344653,26.080389805889837,-2.2885647536232394,-0.5994721333333334,-0.04458619999999999,0.7241014533333334,1.3681597866666668,0.941104501420062,0.6538007771381378,0.668568840982855,0.6672652763606138
LBP05_S08,LBP05,-1554,97,8,96,-1554,1715802646.84,2024-05-15 19:50:46.840000+00:00,2024-05-16 04:50:46.840000+09:00,2024,5,15,19,50,46,840,,,,,,,,,-0.126709,-0.505371,1.563477,31.188965,-69.152832,-8.483887,,,,,,,,,,,0.0,1.0,1.0,8.0,0.0,0.0,0.0,5.0,0.0,-0.17132490666666664,-0.18358065333333334,1.02114908,1.1051432533333327,3.978678386666666,-9.567871106666667,9.109403247282476,-2.163401263137702,-10.435210222027155,-12.381713979151597,5.259430844877998,-22.526138287470747,26.237289494531016,-2.3226856776851323,26.305910905075923,-2.286798691481188,0.04461590666666665,-0.32179034666666667,0.54232792,0.9087341733333333,0.6321860320721018,0.6545910175656942,0.658454859842459,0.6666806222891386
LBP05_S08,LBP05,-1553,98,8,97,-1553,1715802646.88,2024-05-15 19:50:46.880000+00:00,2024-05-16 04:50:46.880000+09:00,2024,5,15,19,50,46,880,,,,,,,,,-0.163574,-0.192383,0.547607,-1.220703,115.905762,-6.164551,,,,,,,,,,,0.0,1.0,1.0,8.0,0.0,0.0,0.0,5.0,0.0,-0.17017257333333333,-0.18399406666666668,1.0074023333333335,0.6697591466666659,2.2127278666666665,-9.523111986666667,8.779517499428914,-1.7647286253010541,-11.463408865165015,-12.03053327917444,5.1888416998659554,-22.984674642077348,26.45662634520405,-2.3183551005970857,26.544990001791934,-2.2881637086384186,0.00659857333333333,-0.00838893333333332,-0.45979533333333356,0.4747828400000002,0.4599191928237153,0.6495601723268472,0.6559389282628528,0.663291090658558
LBP05_S08,LBP05,-1552,99,8,98,-1552,1715802646.92,2024-05-15 19:50:46.920000+00:00,2024-05-16 04:50:46.920000+09:00,2024,5,15,19,50,46,920,,,,,,,,,-0.249023,0.114502,0.085693,-20.080566,-14.282227,-28.015137,,,,,,,,,,,0.0,1.0,1.0,8.0,0.0,0.0,0.0,5.0,0.0,-0.15504888,-0.181608,0.99430012,1.3362630533333326,2.1110025999999995,-9.496256520000001,8.233068175917362,-0.0058020325511055175,-12.254923130105938,-11.701210552137745,5.188609618563911,-23.474871567281586,26.73779335060541,-2.279638000024668,26.808280026994044,-2.2902132597117584,-0.09397412,0.29611,-0.90860712,1.29869124,0.9602495331133823,0.6740923561197226,0.6660505045292601,0.6680807429562164
LBP05_S08,LBP05,-1551,100,8,99,-1551,1715802646.96,2024-05-15 19:50:46.960000+00:00,2024-05-16 04:50:46.960000+09:00,2024,5,15,19,50,46,960,,,,,,,,,0.158447,-0.051025,0.516113,-1.220703,-62.072754,-0.488281,,,,,,,,,,,0.0,1.0,1.0,8.0,0.0,0.0,0.0,5.0,0.0,-0.14963872,-0.17760409333333332,0.9883691333333333,1.1344401333333327,4.1650390533333335,-9.488118493333333,7.588577336598711,2.6938982994850034,-12.772355110484787,-11.397667458673796,5.296365550543311,-23.985765771700976,27.079055951018596,-2.273190994619846,27.0991843110182,-2.296836635301652,0.30808572,0.12657909333333334,-0.4722561333333333,0.9069209466666666,0.5778969918661614,0.6590125090620016,0.6589343024772183,0.6666492548436759
LBP05_S08,LBP05,-1550,101,8,100,-1550,1715802647.0,2024-05-15 19:50:47+00:00,2024-05-16 04:50:47+09:00,2024,5,15,19,50,47,0,19.0,50.0,47.0,40.7836,141.678177,-0.076,3.0,8.0,0.351318,-0.243164,0.992676,47.302246,32.714844,8.300781,-563.0,76.0,541.0,20.0,0.0,1020.0,16.360001,0.069368,-56.014488,3.825,0.0,1.0,1.0,8.0,0.0,0.0,0.0,5.0,0.0,-0.15643234666666664,-0.17693351999999998,1.0006282533333333,0.763346386666666,3.3406575466666664,-9.471028653333333,6.959699262438097,5.7529680897827715,-12.998606308322895,-11.119279488176272,5.526484274134622,-24.505710024033892,27.471989890622595,-2.2964223623317923,27.41300569584733,-2.3020950738999724,0.5077503466666666,-0.06623048000000001,-0.00795225333333327,0.5819330799999999,0.5121133950154283,0.6496467609534904,0.6586975195563537,0.6642346320338595
LBP05_S08,LBP05,-1549,102,8,101,-1549,1715802647.04,2024-05-15 19:50:47.040000+00:00,2024-05-16 04:50:47.040000+09:00,2024,5,15,19,50,47,40,,,,,,,,,-0.444824,-0.147217,1.552246,38.94043,79.772949,-12.145996,,,,,,,,,,,0.0,1.0,1.0,8.0,0.0,0.0,0.0,5.0,0.0,-0.16191412,-0.18602530666666667,1.0249381466666667,1.8709310266666663,1.9596354133333334,-8.929036466666666,6.502851006055405,8.533813476408378,-12.893910856859964,-10.859165447934055,5.867836813190957,-25.02146645830829,27.900300478957043,-2.288930306185126,27.737638094129693,-2.3042204321671838,-0.28290988,0.03880830666666668,0.5273078533333333,0.84902604,0.5996646204796116,0.6626169352521137,0.6606297686270948,0.6632412472407171
LBP05_S08,LBP05,-1548,103,8,102,-1548,1715802647.08,2024-05-15 19:50:47.080000+00:00,2024-05-16 04:50:47.080000+09:00,2024,5,15,19,50,47,80,,,,,,,,,-0.704102,-0.168457,1.804688,-25.634766,-65.917969,-31.25,,,,,,,,,,,0.0,1.0,1.0,8.0,0.0,0.0,0.0,5.0,0.0,-0.16218105333333332,-0.18646801333333335,1.0383951733333332,2.6814778933333328,2.83121744,-8.45133464,6.4368267056215425,10.445018858433615,-12.388918039887566,-10.601692379709194,6.285637567528301,-25.51702317990379,28.33767091537437,-2.288537901333098,28.0559590070559,-2.3012443617595237,-0.5419209466666667,0.018011013333333353,0.7662928266666669,1.3262247866666668,0.9387264805246416,0.6607221264108531,0.6650588872214369,0.6674152659268372
LBP05_S08,LBP05,-1547,104,8,103,-1547,1715802647.12,2024-05-15 19:50:47.120000+00:00,2024-05-16 04:50:47.120000+09:00,2024,5,15,19,50,47,120,,,,,,,,,-0.141602,-0.299316,1.655029,20.202637,-44.067383,-15.686035,,,,,,,,,,,0.0,1.0,1.0,8.0,0.0,0.0,0.0,5.0,0.0,-0.17556646666666664,-0.18223949333333334,1.03005208,2.403157573333333,4.31803384,-8.329264333333334,6.998432846448848,11.03263368032229,-11.418434615821884,-10.32175506585124,6.726942914741192,-25.97376056453667,28.747636885168365,-2.338092546149334,28.349515186261737,-2.3002526020570935,0.03396446666666664,-0.11707650666666669,0.6249769200000002,0.7760178933333335,0.6367547753585423,0.6622757771344407,0.6562561303080707,0.6669576466646239
LBP05_S08,LBP05,-1546,105,8,104,-1546,1715802647.16,2024-05-15 19:50:47.160000+00:00,2024-05-16 04:50:47.160000+09:00,2024,5,15,19,50,47,160,,,,,,,,,-0.228271,-0.212646,0.658447,-25.634766,135.070801,1.89209,,,,,,,,,,,0.0,1.0,1.0,8.0,0.0,0.0,0.0,5.0,0.0,-0.17647792,-0.18622712,1.0176757733333333,3.0476888266666657,2.61149088,-8.636881520000001,8.344835313692158,10.057772269013295,-9.976385960766553,-9.987961653303554,7.129253805501724,-26.37281600296733,29.087988272438036,-2.330147950439176,28.602631017832902,-2.30152382148827,-0.05179307999999999,-0.026418880000000006,-0.35922877333333325,0.4374407333333332,0.36390354758769816,0.6571702638041197,0.6528119293987339,0.662500968737022
LBP05_S08,LBP05,-1545,106,8,105,-1545,1715802647.2,2024-05-15 19:50:47.200000+00:00,2024-05-16 04:50:47.200000+09:00,2024,5,15,19,50,47,200,,,,,,,,,-0.150879,-0.047852,0.089844,-10.742188,-12.145996,0.12207,,,,,,,,,,,0.0,1.0,1.0,8.0,0.0,0.0,0.0,5.0,0.0,-0.16204106666666665,-0.17962881333333333,1.0045117066666667,4.747721386666666,2.2745768133333333,-8.863118493333333,10.457265780555094,7.555047562441913,-8.165079218556958,-9.56967102208135,7.431455707999401,-26.699419171709607,29.32002935737744,-2.306203482306581,28.805919251455293,-2.305134470988387,0.011162066666666637,0.13177681333333333,-0.9146677066666666,1.0576065866666666,0.924178951222878,0.6684766713403485,0.6580510841122035,0.6662934032658026
LBP05_S08,LBP05,-1544,107,8,106,-1544,1715802647.24,2024-05-15 19:50:47.240000+00:00,2024-05-16 04:50:47.240000+09:00,2024,5,15,19,50,47,240,,,,,,,,,0.265381,-0.182861,0.68335,41.870117,-65.368652,-16.723633,,,,,,,,,,,0.0,1.0,1.0,8.0,0.0,0.0,0.0,5.0,0.0,-0.1560905466666667,-0.1778352,0.9983691333333333,3.898112013333333,4.338378893333333,-9.165039066666667,13.105446826845792,3.8485005704802995,-6.2203579466110615,-9.045453149007518,7.585395730818613,-26.94823348957405,29.420498623793097,-2.292924973608529,28.958362457031647,-2.3095251820758955,0.42147154666666664,-0.005025799999999997,-0.3150191333333333,0.7415164799999999,0.5262134335812005,0.6449078470114794,0.6513173442957267,0.6642922608417368
LBP05_S08,LBP05,-1543,108,8,107,-1543,1715802647.28,2024-05-15 19:50:47.280000+00:00,2024-05-16 04:50:47.280000+09:00,2024,5,15,19,50,47,280,,,,,,,,,0.254395,-0.12793,1.041504,15.930176,40.039062,-28.869629,,,,,,,,,,,0.0,1.0,1.0,8.0,0.0,0.0,0.0,5.0,0.0,-0.16349614666666665,-0.18041006666666665,1.0075976533333333,4.423014359999999,3.617350253333334,-9.265136720000001,15.895910487343677,-0.4992910056225808,-4.501094810325521,-8.40961672951377,7.56542409059371,-27.12827728198707,29.392188137262416,-2.3084375035727867,29.06755045581368,-2.314059151236815,0.4178911466666666,0.05248006666666666,0.0339063466666667,0.50427756,0.4225361620074658,0.6397193997540024,0.6476503762554192,0.6608872453651978
LBP05_S08,LBP05,-1542,109,8,108,-1542,1715802647.32,2024-05-15 19:50:47.320000+00:00,2024-05-16 04:50:47.320000+09:00,2024,5,15,19,50,47,320,,,,,,,,,-0.440674,-0.279541,1.5271,33.203125,63.354492,-14.404297,,,,,,,,,,,0.0,1.0,1.0,8.0,0.0,0.0,0.0,5.0,0.0,-0.16456385333333332,-0.18774405333333333,1.02930664,5.589192746666667,1.6292317733333337,-8.75,18.378203221411557,-4.80138004970011,-3.4304291971825798,-7.674488600657308,7.373368888605706,-27.265494449874375,29.268951666317122,-2.292350194336431,29.14814458218447,-2.316965545029668,-0.27611014666666667,-0.09179694666666666,0.49779335999999996,0.8657004533333332,0.5765949373431062,0.6423507245787091,0.6464314464346589,0.6597165188648909
LBP05_S08,LBP05,-1541,110,8,109,-1541,1715802647.36,2024-05-15 19:50:47.360000+00:00,2024-05-16 04:50:47.360000+09:00,2024,5,15,19,50,47,360,,,,,,,,,-0.654297,-0.649658,1.823486,13.000488,-90.759277,16.723633,,,,,,,,,,,0.0,1.0,1.0,8.0,0.0,0.0,0.0,5.0,0.0,-0.16598313333333334,-0.18281241333333334,1.0393164000000001,5.317382853333333,2.5756836,-8.307291666666666,20.154299190978993,-8.39653159240563,-3.383014316049909,-6.868316633018148,7.03750762490948,-27.400815022516372,29.11193828724243,-2.3092974896210188,29.219044002633574,-2.3137611762669303,-0.48831386666666665,-0.46684558666666665,0.7841695999999998,1.739329053333333,1.0350445380432935,0.6482859443930801,0.6593204873912897,0.6648579985796635
LBP05_S08,LBP05,-1540,111,8,110,-1540,1715802647.4,2024-05-15 19:50:47.400000+00:00,2024-05-16 04:50:47.400000+09:00,2024,5,15,19,50,47,400,,,,,,,,,-0.001221,-0.135254,1.359375,54.138184,-69.152832,14.648438,,,,,,,,,,,0.0,1.0,1.0,8.0,0.0,0.0,0.0,5.0,0.0,-0.17665044,-0.18252269333333332,1.0291308533333334,3.0037435333333335,3.1347656400000004,-7.447102866666666,20.94299321685295,-10.798488980367281,-4.54056137434516,-6.03059690434403,6.605568065694789,-27.582437477490178,28.996421946386167,-2.3403294732068756,29.29995243867482,-2.312936106938876,0.17542944,0.047268693333333306,0.33024414666666657,0.5529422799999999,0.37692308790487894,0.6395956909853922,0.6466219857588772,0.6609669862732476
LBP05_S08,LBP05,-1539,112,8,111,-1539,1715802647.44,2024-05-15 19:50:47.440000+00:00,2024-05-16 04:50:47.440000+09:00,2024,5,15,19,50,47,440,,,,,,,,,-0.073975,-0.103027,0.741211,12.512207,76.599121,18.798828,,,,,,,,,,,0.0,1.0,1.0,8.0,0.0,0.0,0.0,5.0,0.0,-0.17570317333333332,-0.18383454666666665,1.0144889333333333,4.598795613333333,1.5380859600000003,-7.194824226666668,20.582178278736922,-11.79849622178038,-6.77279144033089,-5.207309773194553,6.133628216823574,-27.853349135103414,28.99218046677738,-2.3342699977943213,29.408047945703288,-2.312563884493615,0.10172817333333332,0.08080754666666666,-0.2732779333333334,0.45581365333333335,0.3025876892653765,0.6294639106070716,0.6396346877829638,0.656188595646476
LBP05_S08,LBP05,-1538,113,8,112,-1538,1715802647.48,2024-05-15 19:50:47.480000+00:00,2024-05-16 04:50:47.480000+09:00,2024,5,15,19,50,47,480,,,,,,,,,-0.145752,0.049561,-0.033203,-62.805176,4.089355,-13.244629,,,,,,,,,,,0.0,1.0,1.0,8.0,0.0,0.0,0.0,5.0,0.0,-0.16240564,-0.17583974666666669,0.9988151066666666,7.26562504,1.748046906666667,-7.447102866666667,18.990140222413558,-11.48370587394776,-9.610057096440848,-4.447704164298011,5.674279981865664,-28.237751418961047,29.14361217908226,-2.3176018392616236,29.555278830617276,-2.315366139900741,0.016653639999999997,0.22540074666666668,-1.0320181066666667,1.2740724933333334,1.0564772656384953,0.6448713233310793,0.65583258134899,0.6603730373273299
LBP05_S08,LBP05,-1537,114,8,113,-1537,1715802647.52,2024-05-15 19:50:47.520000+00:00,2024-05-16 04:50:47.520000+09:00,2024,5,15,19,50,47,520,,,,,,,,,0.036133,-0.173096,0.308594,31.677246,-74.645996,-31.005859,,,,,,,,,,,0.0,1.0,1.0,8.0,0.0,0.0,0.0,5.0,0.0,-0.15633793333333335,-0.17333974666666668,0.9915266933333333,6.298828159999999,3.7841797200000005,-8.072102866666667,16.13596517609036,-10.174135814234523,-12.340319713110896,-3.802265557254396,5.267314549296283,-28.731364207485484,29.45663108965941,-2.3060488585219625,29.74656282805399,-2.3184400024232863,0.19247093333333334,0.0002437466666666832,-0.6829326933333333,0.8756473733333333,0.7095365975157043,0.6358732154839479,0.648776355160032,0.6640525370565121
LBP05_S08,LBP05,-1536,115,8,114,-1536,1715802647.56,2024-05-15 19:50:47.560000+00:00,2024-05-16 04:50:47.560000+09:00,2024,5,15,19,50,47,560,,,,,,,,,0.470459,-0.109863,0.66748,64.819336,-26.000977,-28.015137,,,,,,,,,,,0.0,1.0,1.0,8.0,0.0,0.0,0.0,5.0,0.0,-0.16530929333333333,-0.17741201333333334,1.00165364,7.605794306666667,3.1201172266666672,-8.027343746666666,12.065417070346653,-8.312584272752632,-14.20417202197562,-3.31964887444053,4.934811178386178,-29.29953108836451,29.897072632850495,-2.3218972571586303,29.97900353863746,-2.3220107455358328,0.6357682933333333,0.06754901333333334,-0.33417364000000005,1.0374909466666666,0.7214126514562492,0.6342105832350609,0.6503468573522079,0.6594949568729285
LBP05_S08,LBP05,-1535,116,8,115,-1535,1715802647.6,2024-05-15 19:50:47.600000+00:00,2024-05-16 04:50:47.600000+09:00,2024,5,15,19,50,47,600,,,,,,,,,0.011719,-0.041748,1.119141,-15.686035,65.429688,-26.611328,,,,,,,,,,,0.0,1.0,1.0,8.0,0.0,0.0,0.0,5.0,0.0,-0.16698246666666666,-0.1865558933333333,1.0232682133333335,8.789876333333334,1.5828450933333336,-7.243652346666666,6.9807887243252,-6.338196269532778,-14.615005085511537,-3.040417325467522,4.681283327604866,-29.88413129178497,30.40098442766214,-2.3024812578539735,30.24223106219538,-2.3205326329743547,0.17870146666666667,0.1448078933333333,0.09587278666666643,0.4193821466666664,0.2491889471539377,0.6312375568080381,0.6409880841934772,0.653337192415194
LBP05_S08,LBP05,-1534,117,8,116,-1534,1715802647.64,2024-05-15 19:50:47.640000+00:00,2024-05-16 04:50:47.640000+09:00,2024,5,15,19,50,47,640,,,,,,,,,-0.598633,-0.23999,1.522949,54.138184,21.42334,-5.737305,,,,,,,,,,,0.0,1.0,1.0,8.0,0.0,0.0,0.0,5.0,0.0,-0.16979822666666666,-0.18258454666666668,1.0333430933333334,9.650065146666666,2.4780273866666667,-6.57307944,1.315215360778277,-4.568516726334244,-13.324913943829655,-2.987808711036391,4.4985426585514965,-30.417127849538158,30.892807472932954,-2.320947527679787,30.520026133703034,-2.3156935198159005,-0.4288347733333333,-0.05740545333333333,0.4896059066666667,0.9758461333333334,0.6533824245686025,0.6264160836708966,0.6470084616559643,0.6580971800008982
LBP05_S08,LBP05,-1533,118,8,117,-1533,1715802647.68,2024-05-15 19:50:47.680000+00:00,2024-05-16 04:50:47.680000+09:00,2024,5,15,19,50,47,680,,,,,,,,,-0.283936,-0.333496,1.668945,-40.771484,-86.486816,-5.310059,,,,,,,,,,,0.0,1.0,1.0,8.0,0.0,0.0,0.0,5.0,0.0,-0.17807622666666667,-0.18444002666666667,1.0226497333333333,9.345703173333334,3.0997721866666668,-6.090494800000001,-4.272312306057661,-3.125659205228036,-10.488363382474466,-3.158701203278697,4.373516290342375,-30.836662384837137,31.305028111629515,-2.3391761287982415,30.793276017332904,-2.312062558000176,-0.10585977333333335,-0.14905597333333334,0.6462952666666666,0.9012110133333333,0.6716558244460251,0.634196807358589,0.6436686496823195,0.6544804861772885
LBP05_S08,LBP05,-1532,119,8,118,-1532,1715802647.72,2024-05-15 19:50:47.720000+00:00,2024-05-16 04:50:47.720000+09:00,2024,5,15,19,50,47,720,,,,,,,,,0.076416,-0.087158,1.007812,15.563965,17.578125,-3.173828,,,,,,,,,,,0.0,1.0,1.0,8.0,0.0,0.0,0.0,5.0,0.0,-0.17363937333333332,-0.18402336,1.00599284,9.577636773333333,1.3362630666666666,-5.998535159999999,-9.013753370187215,-1.9358795386428036,-6.619161275514863,-3.519251338086186,4.296081108796663,-31.10142883585773,31.59335877215184,-2.328057625461891,31.043916705084694,-2.3107328408641012,0.25005537333333333,0.09686536,0.0018191599999999308,0.3487398933333333,0.26816766591799973,0.6294106503697533,0.6337636581284845,0.6505665713069739
LBP05_S08,LBP05,-1531,120,8,119,-1531,1715802647.76,2024-05-15 19:50:47.760000+00:00,2024-05-16 04:50:47.760000+09:00,2024,5,15,19,50,47,760,,,,,,,,,-0.317383,-0.01416,0.153564,-20.996094,79.528809,-23.55957,,,,,,,,,,,0.0,1.0,1.0,8.0,0.0,0.0,0.0,5.0,0.0,-0.15750981333333333,-0.1788801333333333,0.9908886799999999,10.984700573333333,2.1004232266666665,-5.57291668,-12.231505884497858,-0.7978683578711475,-2.4658064572772678,-4.0085115734661,4.2641663744818175,-31.200061094148822,31.74421352282164,-2.2945163640062405,31.259008368933014,-2.3106848635260246,-0.1598731866666667,0.1647201333333333,-0.8373246799999998,1.1619179999999998,0.8682193143885986,0.6393855424286063,0.6473021865787781,0.6542040487665137
LBP05_S08,LBP05,-1530,121,8,120,-1530,1715802647.8,2024-05-15 19:50:47.800000+00:00,2024-05-16 04:50:47.800000+09:00,2024,5,15,19,50,47,800,,,,,,,,,-0.097656,-0.212402,0.263916,-82.763672,-51.574707,4.821777,,,,,,,,,,,0.0,1.0,1.0,8.0,0.0,0.0,0.0,5.0,0.0,-0.15505538666666666,-0.17702466666666666,0.9872558666666666,11.367187546666665,4.400227906666667,-4.746907573333333,-13.545118622491147,0.509697008560313,1.1610533677968309,-4.550316318365746,4.28455425482423,-31.153618959436947,31.774372661462685,-2.291938341622331,31.433819174513168,-2.313526491055609,0.05739938666666665,-0.035377333333333344,-0.7233398666666666,0.8161165866666666,0.7264756073075257,0.6308003866641048,0.6423005819011213,0.6559793562099382
LBP05_S08,LBP05,-1529,122,8,121,-1529,1715802647.84,2024-05-15 19:50:47.840000+00:00,2024-05-16 04:50:47.840000+09:00,2024,5,15,19,50,47,840,,,,,,,,,0.292236,-0.276611,0.570801,-38.94043,-79.528809,17.51709,,,,,,,,,,,0.0,1.0,1.0,8.0,0.0,0.0,0.0,5.0,0.0,-0.15995121333333331,-0.18036125333333333,1.0021907600000002,12.677408906666667,3.0932617600000003,-3.9672851866666665,-12.995460937883356,2.115851183118641,3.574711480657853,-5.07013475588108,4.3691883021489755,-31.010630500210635,31.724679303076066,-2.2979603796370767,31.572997009647516,-2.315873671674975,0.45218721333333334,-0.09624974666666666,-0.4313897600000002,0.9798267200000002,0.6323246117845017,0.6308059298526009,0.6426984737091475,0.6492385498458396
LBP05_S08,LBP05,-1528,123,8,122,-1528,1715802647.88,2024-05-15 19:50:47.880000+00:00,2024-05-16 04:50:47.880000+09:00,2024,5,15,19,50,47,880,,,,,,,,,0.224121,0.13623,0.965576,78.308105,50.65918,31.799316,,,,,,,,,,,0.0,1.0,1.0,8.0,0.0,0.0,0.0,5.0,0.0,-0.16266930666666668,-0.1810188,1.02570964,14.127604213333331,2.408040413333333,-3.6352539466666673,-11.025298927496719,3.982646237378395,4.371918925911482,-5.511146712980949,4.528494151644111,-30.835753743174177,31.6500190566002,-2.3043046679008805,31.68952903841685,-2.310745372678208,0.3867903066666667,0.3172488,-0.0601336400000001,0.7641727466666668,0.5038547380866668,0.6325633516631188,0.6410617619949829,0.6481470693962749
LBP05_S08,LBP05,-1527,124,8,123,-1527,1715802647.92,2024-05-15 19:50:47.920000+00:00,2024-05-16 04:50:47.920000+09:00,2024,5,15,19,50,47,920,,,,,,,,,-0.606445,-0.356934,1.543945,-1.281738,67.260742,1.831055,,,,,,,,,,,0.0,1.0,1.0,8.0,0.0,0.0,0.0,5.0,0.0,-0.16554692000000001,-0.18374992,1.0329003866666666,13.767903693333334,4.2602539466666665,-3.5196940533333336,-8.325868645296751,5.908403738038049,3.5204791631925754,-5.844181458792819,4.764830301165633,-30.694934576646475,31.60754772814258,-2.305569085141194,31.801905833009293,-2.305421250969144,-0.44089807999999997,-0.17318407999999996,0.5110446133333333,1.1251267733333332,0.6968144942021147,0.6220259501066682,0.6480591531131954,0.6513756530550627
LBP05_S08,LBP05,-1526,125,8,124,-1526,1715802647.96,2024-05-15 19:50:47.960000+00:00,2024-05-16 04:50:47.960000+09:00,2024,5,15,19,50,47,960,,,,,,,,,-0.598877,-0.353271,1.824219,-10.498047,-59.997559,-15.563965,,,,,,,,,,,0.0,1.0,1.0,8.0,0.0,0.0,0.0,5.0,0.0,-0.17647465333333334,-0.17862622666666667,1.0204752666666668,11.8579102,4.42138676,-3.8671875466666665,-5.630567205155111,7.609890669231455,1.3435254863316628,-6.069404146999023,5.069225927934891,-30.64119355719321,31.645180688652022,-2.3503135324544737,31.93036619536786,-2.3016816813710443,-0.42240234666666665,-0.17464477333333334,0.8037437333333333,1.4007908533333333,0.9246234521115947,0.6358950085164855,0.6474537587892435,0.6512545378236406
LBP05_S08,LBP05,-1525,126,8,125,-1525,1715802648.0,2024-05-15 19:50:48+00:00,2024-05-16 04:50:48+09:00,2024,5,15,19,50,48,0,19.0,50.0,48.0,40.78355,141.678101,0.29,3.0,8.0,-0.007324,-0.220947,1.412598,-15.74707,1.159668,-3.540039,-560.0,76.0,545.0,20.0,0.0,1020.299988,16.43,0.072341,-58.496948,3.825,0.0,1.0,1.0,8.0,0.0,0.0,0.0,11.0,0.0,-0.1696322,-0.1805468,1.0045996133333333,10.122070346666666,2.03287764,-3.01106776,-3.5487609142153165,8.83667327990264,-1.5936208124970108,-6.211354583567636,5.422692859130997,-30.70493838969309,31.792762779005628,-2.325953064047636,32.09314759146965,-2.3003913513813643,0.1623082,-0.0404002,0.40799838666666677,0.6107067866666668,0.4409521646050543,0.6330485593000705,0.6413476601267805,0.6501478661375926
LBP05_S08,LBP05,-1524,127,8,126,-1524,1715802648.04,2024-05-15 19:50:48.040000+00:00,2024-05-16 04:50:48.040000+09:00,2024,5,15,19,50,48,40,,,,,,,,,-0.357178,-0.052246,0.386475,-36.193848,118.286133,-10.559082,,,,,,,,,,,0.0,1.0,1.0,8.0,0.0,0.0,0.0,11.0,0.0,-0.15524093333333333,-0.18568350666666666,0.99059896,10.518391959999999,2.0621745066666666,-2.1435547333333336,-2.47711218785359,9.461254364055575,-4.649425055138283,-6.310439071081779,5.80114303369322,-30.890915391898623,32.058127760626355,-2.2696645377121127,32.30341494110551,-2.3012052288084233,-0.20193706666666666,0.13343750666666665,-0.60412396,0.9394985333333333,0.650807118987981,0.6350942592404053,0.6488555972462595,0.6521179321648649
LBP05_S08,LBP05,-1523,128,8,127,-1523,1715802648.08,2024-05-15 19:50:48.080000+00:00,2024-05-16 04:50:48.080000+09:00,2024,5,15,19,50,48,80,,,,,,,,,-0.223633,-0.315918,0.302246,-15.625,-42.907715,-14.953613,,,,,,,,,,,0.0,1.0,1.0,8.0,0.0,0.0,0.0,11.0,0.0,-0.15311202666666668,-0.17699536,0.9826660133333334,11.009928413333334,3.2706706,-1.621093786666667,-2.5633126963632917,9.509438946305647,-7.2660063292380075,-6.412971578936311,6.181520591545446,-31.181555645068144,32.428796057553946,-2.2859349117076087,32.567224849957256,-2.3049219980275177,-0.07052097333333332,-0.13892264,-0.6804200133333334,0.8898636266666666,0.6980287258623271,0.6254663490539127,0.643094237732383,0.6518613744989289
LBP05_S08,LBP05,-1522,129,8,128,-1522,1715802648.12,2024-05-15 19:50:48.120000+00:00,2024-05-16 04:50:48.120000+09:00,2024,5,15,19,50,48,120,,,,,,,,,0.268066,-0.135742,0.665283,51.940918,-61.218262,-9.155273,,,,,,,,,,,0.0,1.0,1.0,8.0,0.0,0.0,0.0,11.0,0.0,-0.15514328,-0.1775878,0.9942382799999999,10.771484399999999,1.3297526266666666,-1.67480472,-3.6857350581109514,9.122427824850275,-9.077763805483286,-6.5604009812607496,6.546417704539457,-31.544666197287476,32.87796239573745,-2.290661929480893,32.8826845030257,-2.3062482322062543,0.42320928,0.04184579999999999,-0.32895527999999996,0.7940103599999999,0.5376511340038602,0.6215022033997255,0.6418889902670831,0.644671488005289
LBP05_S08,LBP05,-1521,130,8,129,-1521,1715802648.16,2024-05-15 19:50:48.160000+00:00,2024-05-16 04:50:48.160000+09:00,2024,5,15,19,50,48,160,,,,,,,,,0.234863,0.075684,1.125244,32.043457,52.307129,1.220703,,,,,,,,,,,0.0,1.0,1.0,8.0,0.0,0.0,0.0,11.0,0.0,-0.15698573333333332,-0.18310864,1.0134863333333333,11.559244813333333,0.7535807466666665,-1.3728841466666668,-5.45051397738878,8.476019279002712,-9.950687791172374,-6.778421540356301,6.885458475699565,-31.94269370893437,33.37202748383959,-2.2816130641094365,33.24039349306409,-2.303734210413235,0.3918487333333333,0.25879264,0.11175766666666664,0.76239904,0.48270988843391754,0.6262544570335742,0.6417123604188469,0.6439594386103473
LBP05_S08,LBP05,-1520,131,8,130,-1520,1715802648.2,2024-05-15 19:50:48.200000+00:00,2024-05-16 04:50:48.200000+09:00,2024,5,15,19,50,48,200,,,,,,,,,-0.659424,-0.303955,1.626221,-45.227051,51.391602,-15.869141,,,,,,,,,,,0.0,1.0,1.0,8.0,0.0,0.0,0.0,11.0,0.0,-0.16008142666666667,-0.17969718666666665,1.0194889466666666,11.29150392,2.1386718933333335,-1.1914062800000003,-7.244318975490395,7.707263509857447,-9.959427403512931,-7.068194299375917,7.193749016093863,-32.341070805074885,33.877046157821205,-2.3000771158929223,33.62516121053075,-2.295749465753301,-0.4993425733333333,-0.12425781333333333,0.6067320533333334,1.23033244,0.7955543942808813,0.6211094747558943,0.6447930730481215,0.6457372143267671
LBP05_S08,LBP05,-1519,132,8,131,-1519,1715802648.24,2024-05-15 19:50:48.240000+00:00,2024-05-16 04:50:48.240000+09:00,2024,5,15,19,50,48,240,,,,,,,,,-0.481934,-0.453369,1.885498,-39.0625,-71.533203,-7.93457,,,,,,,,,,,0.0,1.0,1.0,8.0,0.0,0.0,0.0,11.0,0.0,-0.16900394666666665,-0.17649732,1.0077213733333334,10.65185548,2.764485693333333,-1.3020833600000001,-8.368719802737512,6.885500202560585,-9.324257896411869,-7.402943091485417,7.469169024196286,-32.71404112093136,34.362778391593615,-2.335128071828023,34.01873843399282,-2.2913091282444826,-0.31293005333333335,-0.27687168,0.8777766266666664,1.4675783599999999,0.9721496550364751,0.6389469236141053,0.6419273853127925,0.6471938707351862
LBP05_S08,LBP05,-1518,133,8,132,-1518,1715802648.28,2024-05-15 19:50:48.280000+00:00,2024-05-16 04:50:48.280000+09:00,2024,5,15,19,50,48,280,,,,,,,,,-0.026855,-0.012695,1.312012,12.756348,4.638672,0.183105,,,,,,,,,,,0.0,1.0,1.0,8.0,0.0,0.0,0.0,11.0,0.0,-0.16312829333333334,-0.17664381333333334,0.9920540533333334,9.876302093333333,1.1645508,-1.0823568000000001,-8.226753688533496,6.028971592368092,-8.333001609105136,-7.732013239026757,7.710327887891009,-33.04736118529557,34.804615587284616,-2.3175670096882417,34.40296854591238,-2.2916716722538917,0.13627329333333335,0.16394881333333333,0.31995794666666655,0.6201800533333333,0.3844771924373022,0.6374245648312988,0.6385719822926506,0.644241772447379
LBP05_S08,LBP05,-1517,134,8,133,-1517,1715802648.32,2024-05-15 19:50:48.320000+00:00,2024-05-16 04:50:48.320000+09:00,2024,5,15,19,50,48,320,,,,,,,,,-0.397461,0.013916,0.346436,-18.249512,111.26709,-18.066406,,,,,,,,,,,0.0,1.0,1.0,8.0,0.0,0.0,0.0,11.0,0.0,-0.15111331999999997,-0.17669916,0.9733040533333334,8.189290373333334,0.8154297066666664,-0.33365888000000016,-6.489587008391274,5.146859603541598,-7.267696816893103,-7.991596719362407,7.916202272032673,-33.338069057971296,35.18463762852649,-2.2804288672110027,34.762591605273116,-2.2906360349224,-0.24634768000000004,0.19061516,-0.6268680533333333,1.0638308933333334,0.6999891963117222,0.6423603351900435,0.6423555298843763,0.6450744093531204
LBP05_S08,LBP05,-1516,135,8,134,-1516,1715802648.36,2024-05-15 19:50:48.360000+00:00,2024-05-16 04:50:48.360000+09:00,2024,5,15,19,50,48,360,,,,,,,,,-0.178223,-0.242432,0.363525,-47.729492,-52.490234,1.403809,,,,,,,,,,,0.0,1.0,1.0,8.0,0.0,0.0,0.0,11.0,0.0,-0.1450879333333333,-0.17318353333333333,0.96124024,9.524739586666668,1.332194026666666,0.09358721333333321,-3.1789029702089064,4.278931376471825,-6.348632095083052,-8.118752838170764,8.087359527091547,-33.59201434177462,35.49285786331859,-2.270466085855137,35.08706909488199,-2.2929354607703867,-0.033135066666666685,-0.06924846666666667,-0.59771524,0.7000987733333334,0.6026249172635881,0.6250635503588552,0.6366747473759676,0.6479015083804782
LBP05_S08,LBP05,-1515,136,8,135,-1515,1715802648.4,2024-05-15 19:50:48.400000+00:00,2024-05-16 04:50:48.400000+09:00,2024,5,15,19,50,48,400,,,,,,,,,0.299316,-0.311279,0.741699,57.495117,-44.494629,-3.723145,,,,,,,,,,,0.0,1.0,1.0,8.0,0.0,0.0,0.0,11.0,0.0,-0.14480473333333332,-0.16887364,0.9689778800000001,9.2163086,0.19287110666666643,0.7104491999999999,1.356888674942119,3.5042314432495774,-5.702520788036905,-8.064477291173079,8.22752878482153,-33.820115173296095,35.72853501362638,-2.281549688959446,35.37115760847509,-2.2972789325440224,0.44412073333333335,-0.14240535999999998,-0.22727888000000007,0.8138049733333335,0.5188238637797242,0.6307395813938491,0.6351676361896206,0.6413278509705345
LBP05_S08,LBP05,-1514,137,8,136,-1514,1715802648.44,2024-05-15 19:50:48.440000+00:00,2024-05-16 04:50:48.440000+09:00,2024,5,15,19,50,48,440,,,,,,,,,0.164551,-0.087646,1.185059,23.986816,60.668945,1.77002,,,,,,,,,,,0.0,1.0,1.0,8.0,0.0,0.0,0.0,11.0,0.0,-0.1466439333333333,-0.17398106666666666,0.9890006666666666,9.710286453333334,0.23356121333333316,1.3151041466666664,6.549243470191568,2.9099330560355874,-5.357188029699641,-7.802507552365416,8.343926107062954,-34.03440269448408,35.900428879821916,-2.273289977806203,35.614359984388635,-2.2956009145878937,0.3111949333333333,0.08633506666666665,0.19605833333333345,0.5935883333333334,0.37780272674786247,0.6337481828931485,0.6316060467501101,0.6376725194863587
LBP05_S08,LBP05,-1513,138,8,137,-1513,1715802648.48,2024-05-15 19:50:48.480000+00:00,2024-05-16 04:50:48.480000+09:00,2024,5,15,19,50,48,480,,,,,,,,,-0.661133,-0.153076,1.677002,6.713867,39.733887,-21.362305,,,,,,,,,,,0.0,1.0,1.0,8.0,0.0,0.0,0.0,11.0,0.0,-0.15139002666666665,-0.17878250666666667,1.0030306133333333,9.370117186666667,0.49316407999999995,1.3655598666666664,11.74598916042987,2.5402523150296377,-5.2603402489175455,-7.332667985948222,8.44553619966414,-34.24481630444078,36.025026651161284,-2.2755785383926956,35.81968640998973,-2.289393196666511,-0.5097429733333333,0.025706506666666684,0.6739713866666668,1.2094208666666668,0.8454206960993447,0.6253059201115824,0.635088621721331,0.6456570276031875
LBP05_S08,LBP05,-1512,139,8,138,-1512,1715802648.52,2024-05-15 19:50:48.520000+00:00,2024-05-16 04:50:48.520000+09:00,2024,5,15,19,50,48,520,,,,,,,,,-0.568848,-0.452148,1.842041,-4.699707,-107.727051,-10.253906,,,,,,,,,,,0.0,1.0,1.0,8.0,0.0,0.0,0.0,11.0,0.0,-0.15801437333333335,-0.17246414666666665,1.0000325599999997,8.519694013333332,1.0644531333333331,1.0782877333333332,16.32670471016174,2.354075102918041,-5.313220675251759,-6.679599797541752,8.539699203780861,-34.45734513145085,36.122737291826255,-2.3136561879607593,35.99228265107233,-2.282773320690617,-0.4108336266666667,-0.27968385333333334,0.8420084400000003,1.5325259200000003,0.9777451302086355,0.6360342614192998,0.6359537384516238,0.644528990579788
LBP05_S08,LBP05,-1511,140,8,139,-1511,1715802648.56,2024-05-15 19:50:48.560000+00:00,2024-05-16 04:50:48.560000+09:00,2024,5,15,19,50,48,560,,,,,,,,,0.001953,-0.187988,1.387207,8.666992,2.13623,1.525879,,,,,,,,,,,0.0,1.0,1.0,8.0,0.0,0.0,0.0,11.0,0.0,-0.15738612000000002,-0.16779617333333333,0.9802994933333332,6.275227866666666,0.3670247466666665,1.1946614266666666,19.781795715715536,2.2149989387385647,-5.405128245268964,-5.8883279689131305,8.628299161330403,-34.67355026126161,36.21291261977051,-2.3250477818457935,36.13836401772018,-2.2797835674515374,0.15933912000000003,-0.020191826666666662,0.40690750666666686,0.5864384533333336,0.4374590083747215,0.6246761156960386,0.6294433494655497,0.6417899434668181
LBP05_S08,LBP05,-1510,141,8,140,-1510,1715802648.6,2024-05-15 19:50:48.600000+00:00,2024-05-16 04:50:48.600000+09:00,2024,5,15,19,50,48,600,,,,,,,,,-0.525146,-0.02832,0.123047,0.12207,106.384277,10.253906,,,,,,,,,,,0.0,1.0,1.0,8.0,0.0,0.0,0.0,11.0,0.0,-0.14839522666666666,-0.17247716000000002,0.9607877733333333,6.038411466666666,0.2596028799999997,1.566568973333333,21.779050148884362,1.9321585376058001,-5.438931832171118,-5.017165962957756,8.705585502834635,-34.89110753454845,36.3090699169567,-2.2832969363316327,36.264564026634595,-2.280666434328847,-0.37675077333333334,0.14415716,-0.8377407733333333,1.3586487066666666,0.9298021484658237,0.651900643748514,0.6415691002782761,0.6446256040451561
LBP05_S08,LBP05,-1509,142,8,141,-1509,1715802648.64,2024-05-15 19:50:48.640000+00:00,2024-05-16 04:50:48.640000+09:00,2024,5,15,19,50,48,640,,,,,,,,,-0.135254,-0.249023,0.327881,20.141602,-48.156738,-4.638672,,,,,,,,,,,0.0,1.0,1.0,8.0,0.0,0.0,0.0,11.0,0.0,-0.14235356000000002,-0.16899734666666666,0.9461588666666667,6.62434896,0.11637371999999971,1.74804684,22.24455416451718,1.3468860401745841,-5.348623440021203,-4.127383796377068,8.759460944441619,-35.1050524721493,36.416042647604506,-2.2730508926141977,36.37746864764456,-2.2820967393362177,0.007099560000000005,-0.08002565333333334,-0.6182778666666667,0.7054030800000001,0.6234757648485665,0.6507043773597125,0.6385602305153045,0.6482404335572137
LBP05_S08,LBP05,-1508,143,8,142,-1508,1715802648.68,2024-05-15 19:50:48.680000+00:00,2024-05-16 04:50:48.680000+09:00,2024,5,15,19,50,48,680,,,,,,,,,0.354004,0.20874,0.665771,122.192383,-33.630371,-21.606445,,,,,,,,,,,0.0,1.0,1.0,8.0,0.0,0.0,0.0,11.0,0.0,-0.13635746666666665,-0.1693424,0.9505826933333335,7.04508464,-1.128743466666667,1.7293293866666664,21.44696465079453,0.423309982391698,-5.113876626439676,-3.269505210345287,8.776393343737286,-35.309607537206894,36.530577998110694,-2.2513682499293006,36.4830197406158,-2.2843836539951066,0.49036146666666663,0.37808240000000004,-0.28481169333333345,1.1532555600000003,0.6815558449904492,0.6511003781814896,0.6426485927700392,0.6461458925153761
LBP05_S08,LBP05,-1507,144,8,143,-1507,1715802648.72,2024-05-15 19:50:48.720000+00:00,2024-05-16 04:50:48.720000+09:00,2024,5,15,19,50,48,720,,,,,,,,,0.128662,-0.350586,1.253174,-25.57373,66.772461,-21.850586,,,,,,,,,,,0.0,1.0,1.0,8.0,0.0,0.0,0.0,11.0,0.0,-0.13928063999999998,-0.1732812,0.9695605600000001,7.32259116,-0.33691404000000014,1.735026,20.028577383187102,-0.7076210833857354,-4.765880800082891,-2.4683621150178032,8.748088500401856,-35.50024276921021,36.64545129500495,-2.2505313348202063,36.585715553735255,-2.2864095222782557,0.26794264,-0.1773048,0.2836134399999999,0.7288608799999999,0.42856368696127667,0.6575162190232205,0.643463434696487,0.6416811784267299
LBP05_S08,LBP05,-1506,145,8,144,-1506,1715802648.76,2024-05-15 19:50:48.760000+00:00,2024-05-16 04:50:48.760000+09:00,2024,5,15,19,50,48,760,,,,,,,,,-0.60791,-0.272949,1.615723,36.682129,30.761719,-5.79834,,,,,,,,,,,0.0,1.0,1.0,8.0,0.0,0.0,0.0,11.0,0.0,-0.1488379333333333,-0.17441401333333334,0.9830338666666667,6.7561849066666655,0.02766929333333318,2.206217413333333,18.919189453935363,-1.7742532897094374,-4.366134360560265,-1.7115945368603886,8.67711836881348,-35.67488814363262,36.75485795246269,-2.279294754628234,36.68793520494431,-2.2810202221224785,-0.45907206666666667,-0.09853498666666666,0.6326891333333333,1.1902961866666666,0.7878780650767535,0.6543025690507469,0.6468440557396765,0.6496356474027677
LBP05_S08,LBP05,-1505,146,8,145,-1505,1715802648.8,2024-05-15 19:50:48.800000+00:00,2024-05-16 04:50:48.800000+09:00,2024,5,15,19,50,48,800,,,,,,,,,-0.45166,-0.385742,1.743164,23.254395,-113.037109,2.990723,,,,,,,,,,,0.0,1.0,1.0,8.0,0.0,0.0,0.0,11.0,0.0,-0.15316085333333335,-0.17342768,0.9888313866666666,8.038736986666667,-0.3279622133333335,2.7734374666666666,19.119120674609405,-2.452491411789509,-3.9462926381050485,-0.9468297098760124,8.579018712341899,-35.83273984915682,36.857581223726115,-2.295852739033157,36.78998923159355,-2.2751254913488146,-0.29849914666666666,-0.21231431999999997,0.7543326133333333,1.26514608,0.8385683052537144,0.6587862769685944,0.6447933318163496,0.647795813590279
LBP05_S08,LBP05,-1504,147,8,146,-1504,1715802648.84,2024-05-15 19:50:48.840000+00:00,2024-05-16 04:50:48.840000+09:00,2024,5,15,19,50,48,840,,,,,,,,,-0.006104,-0.081299,1.267334,-42.724609,-0.793457,11.474609,,,,,,,,,,,0.0,1.0,1.0,8.0,0.0,0.0,0.0,11.0,0.0,-0.15086918666666668,-0.17071934666666666,0.9782063866666668,7.0345052133333335,0.588378933333333,2.8027343466666665,21.415775413661944,-2.4805552223243925,-3.426465760630372,-0.09019869332953467,8.479796503448924,-35.96979847958204,36.95593980953434,-2.2961591243950905,36.89141823023253,-2.27412922487832,0.14476518666666668,0.08942034666666666,0.28912761333333314,0.5233131466666665,0.33548134741062896,0.6469125463936395,0.6388592381231201,0.6441031646039781
LBP05_S08,LBP05,-1503,148,8,147,-1503,1715802648.88,2024-05-15 19:50:48.880000+00:00,2024-05-16 04:50:48.880000+09:00,2024,5,15,19,50,48,880,,,,,,,,,-0.429443,-0.031982,0.098633,-65.307617,68.664551,35.339355,,,,,,,,,,,0.0,1.0,1.0,8.0,0.0,0.0,0.0,11.0,0.0,-0.1449023866666667,-0.16405918666666663,0.95556316,4.0901692800000005,1.183268253333333,2.5553385066666667,26.14935359261374,-1.7442564574902453,-2.561394773184331,0.9557754503750149,8.410026245149314,-36.07225427050941,37.05198478235578,-2.295837221224183,36.99347270739441,-2.2756991181211492,-0.28454061333333336,0.13207718666666662,-0.85693016,1.27354796,0.9125442690585025,0.6632601276325129,0.6479117396478158,0.648461217207493
LBP05_S08,LBP05,-1502,149,8,148,-1502,1715802648.92,2024-05-15 19:50:48.920000+00:00,2024-05-16 04:50:48.920000+09:00,2024,5,15,19,50,48,920,,,,,,,,,-0.096924,-0.2771,0.279053,112.182617,-36.376953,11.779785,,,,,,,,,,,0.0,1.0,1.0,8.0,0.0,0.0,0.0,11.0,0.0,-0.14072269333333334,-0.17176426666666667,0.9471093866666667,3.102213546666667,1.2068685199999998,2.8434244399999997,33.12925060742415,-0.29206649283492553,-0.9710313775742104,2.280945474671981,8.398343585435917,-36.11109552561238,37.14493380391681,-2.259763186402991,37.10168732993916,-2.2815753171347253,0.04379869333333335,-0.10533573333333335,-0.6680563866666667,0.8171908133333334,0.6777265510666535,0.6624966099070945,0.6422612800068813,0.6528716387111617
LBP05_S08,LBP05,-1501,150,8,149,-1501,1715802648.96,2024-05-15 19:50:48.960000+00:00,2024-05-16 04:50:48.960000+09:00,2024,5,15,19,50,48,960,,,,,,,,,0.211182,0.345215,0.591553,214.904785,-18.920898,-30.212402,,,,,,,,,,,0.0,1.0,1.0,8.0,0.0,0.0,0.0,11.0,0.0,-0.13798505333333333,-0.16615229333333334,0.9540494933333332,4.6565755200000005,1.1132812799999998,2.956542933333333,41.71701597459307,1.7117466699345838,1.721224046967687,3.949626113655704,8.4668134522333,-36.04224656373367,37.23345288626293,-2.2661004741091535,37.22661424251772,-2.289737106536289,0.3491670533333333,0.5113672933333333,-0.3624964933333332,1.2230308399999998,0.7175080818384595,0.654211995096169,0.6450535018063274,0.6497065042248854
LBP05_S08,LBP05,-1500,151,8,150,-1500,1715802649.0,2024-05-15 19:50:49+00:00,2024-05-16 04:50:49+09:00,2024,5,15,19,50,49,0,19.0,50.0,49.0,40.783508,141.678024,0.163,3.0,9.0,0.151855,-0.223145,1.183105,-74.584961,57.312012,-42.358398,-557.0,70.0,552.0,19.0,0.0,1020.5,16.5,0.074323,-60.15176,3.825,0.0,1.0,1.0,8.0,0.0,0.0,0.0,5.0,0.0,-0.14542645333333332,-0.17252599999999998,0.9773372533333332,4.799804693333334,1.5592448266666663,3.3260090799999995,50.984590520638996,4.052935033886587,5.683857033661103,5.989009734481264,8.628930853588763,-35.81489228238723,37.32335990334642,-2.2733342716266858,37.38108804171718,-2.292602203318981,0.29728145333333333,-0.050619000000000025,0.20576774666666686,0.5536682000000002,0.3650738435238225,0.6511768622529197,0.6421127107764951,0.6446240608354935
LBP05_S08,LBP05,-1499,152,8,151,-1499,1715802649.04,2024-05-15 19:50:49.040000+00:00,2024-05-16 04:50:49.040000+09:00,2024,5,15,19,50,49,40,,,,,,,,,-0.662354,-0.417725,1.589355,60.791016,46.813965,-4.333496,,,,,,,,,,,0.0,1.0,1.0,8.0,0.0,0.0,0.0,5.0,0.0,-0.15384117333333333,-0.17678381333333335,0.9978841199999999,3.867187506666667,1.3468424799999996,3.6735025599999993,59.828042748797316,6.511375590526832,10.705431630200158,8.382131444433156,8.889385877209836,-35.38667501717922,37.43658741922331,-2.2887498250424936,37.574279183643156,-2.2905609941694065,-0.5085128266666666,-0.24094118666666667,0.5914708800000001,1.3409248933333333,0.8163796618025461,0.6577997639655024,0.6464470116029538,0.6518369861526738
LBP05_S08,LBP05,-1498,153,8,152,-1498,1715802649.08,2024-05-15 19:50:49.080000+00:00,2024-05-16 04:50:49.080000+09:00,2024,5,15,19,50,49,80,,,,,,,,,-0.488525,-0.544922,1.708984,13.61084,-96.374512,22.399902,,,,,,,,,,,0.0,1.0,1.0,8.0,0.0,0.0,0.0,5.0,0.0,-0.16084964,-0.1768521733333333,1.0083007866666667,3.103027346666667,1.6691081066666662,3.871256466666667,67.00775832211363,8.864803151132834,16.159435868571155,11.062441777317702,9.24397800325515,-34.740297582436376,37.612724223558224,-2.310130240065058,37.8051706597029,-2.2901252379622763,-0.32767535999999997,-0.3680698266666667,0.7006832133333334,1.3964284,0.8566233152913159,0.6641435475426618,0.6448049482982873,0.6501106743358093
LBP05_S08,LBP05,-1497,154,8,153,-1497,1715802649.12,2024-05-15 19:50:49.120000+00:00,2024-05-16 04:50:49.120000+09:00,2024,5,15,19,50,49,120,,,,,,,,,-0.0271,-0.146973,1.330811,65.429688,4.821777,49.377441,,,,,,,,,,,0.0,1.0,1.0,8.0,0.0,0.0,0.0,5.0,0.0,-0.16666018666666665,-0.1751204,0.9988964800000001,2.4251302133333335,2.3982747733333327,4.06331376,71.20016253132647,10.865096550233682,21.145976866098735,13.91044827857076,9.678581865264496,-33.89445850779243,37.89472042079057,-2.3321492288358425,38.05897807634294,-2.289893353822353,0.13956018666666664,0.028147400000000017,0.3319145199999999,0.4996221066666665,0.3611600343559973,0.6570839035567474,0.6392930534782364,0.6469539613636378
LBP05_S08,LBP05,-1496,155,8,154,-1496,1715802649.16,2024-05-15 19:50:49.160000+00:00,2024-05-16 04:50:49.160000+09:00,2024,5,15,19,50,49,160,,,,,,,,,-0.299805,-0.273438,0.21875,92.895508,101.074219,53.344727,,,,,,,,,,,0.0,1.0,1.0,8.0,0.0,0.0,0.0,5.0,0.0,-0.15964196,-0.17633785333333332,0.9829036400000001,0.402018226666667,1.3240560266666663,4.108072880000001,71.16231241320477,12.227959765370418,24.75818009320294,16.75694077509895,10.167700255879312,-32.90413130406431,38.29959594445726,-2.3079457224551527,38.30853780065102,-2.2935536817865168,-0.14016304,-0.09710014666666669,-0.7641536400000001,1.0014168266666668,0.782946295597584,0.669093359843294,0.6476739084384342,0.650839360226996
LBP05_S08,LBP05,-1495,156,8,155,-1495,1715802649.2,2024-05-15 19:50:49.200000+00:00,2024-05-16 04:50:49.200000+09:00,2024,5,15,19,50,49,200,,,,,,,,,-0.193115,-0.037842,0.285889,59.997559,-37.780762,12.451172,,,,,,,,,,,0.0,1.0,1.0,8.0,0.0,0.0,0.0,5.0,0.0,-0.15077802666666665,-0.178151,0.9745117200000001,1.6455078000000003,1.975911493333333,4.586588506666666,66.0246027270787,12.669386771497368,26.361792204716266,19.3979248841821,10.674475726739207,-31.849659615875655,38.789492642985884,-2.2754406475374167,38.519936421266955,-2.2980462879177055,-0.04233697333333336,0.14030900000000002,-0.6886227200000001,0.8712686933333336,0.7040456556873467,0.6654330102995527,0.6432712425277235,0.6516730521319318
LBP05_S08,LBP05,-1494,157,8,156,-1494,1715802649.24,2024-05-15 19:50:49.240000+00:00,2024-05-16 04:50:49.240000+09:00,2024,5,15,19,50,49,240,,,,,,,,,0.354492,-0.038574,0.737061,104.248047,-27.832031,25.878906,,,,,,,,,,,0.0,1.0,1.0,8.0,0.0,0.0,0.0,5.0,0.0,-0.15335941333333333,-0.17513342666666668,0.9801529999999998,1.4811197733333337,2.746582066666666,4.7810872,55.623904475810015,11.982374138137192,25.78171764588181,21.6228810632145,11.153770692264695,-30.81839091004038,39.26485457013183,-2.29180156232379,38.65953285246522,-2.3037688626101103,0.5078514133333333,0.13655942666666668,-0.24309199999999986,0.8875028399999998,0.5793576231484253,0.6497213290240308,0.6443341263190681,0.6445253665498719
LBP05_S08,LBP05,-1493,158,8,157,-1493,1715802649.28,2024-05-15 19:50:49.280000+00:00,2024-05-16 04:50:49.280000+09:00,2024,5,15,19,50,49,280,,,,,,,,,0.009521,-0.095703,1.29126,51.757812,87.219238,45.349121,,,,,,,,,,,0.0,1.0,1.0,8.0,0.0,0.0,0.0,5.0,0.0,-0.15834963999999999,-0.18019853333333335,1.0033235733333334,1.9637044133333337,1.7220052399999997,5.020345013333333,40.737509867334026,10.119748193451441,23.340638803965817,23.252381457907862,11.558560620002753,-29.884765357881747,39.59005894875612,-2.293518379824948,38.69921558583705,-2.3072604654923214,0.16787064,0.08449553333333336,0.28793642666666663,0.5403026,0.34384216252353744,0.6480959278274799,0.6427602463293894,0.6417466308042604
LBP05_S08,LBP05,-1492,159,8,158,-1492,1715802649.32,2024-05-15 19:50:49.320000+00:00,2024-05-16 04:50:49.320000+09:00,2024,5,15,19,50,49,320,,,,,,,,,-0.592529,-0.081055,1.753174,57.617188,14.404297,20.446777,,,,,,,,,,,0.0,1.0,1.0,8.0,0.0,0.0,0.0,5.0,0.0,-0.16135419999999998,-0.18252926666666666,1.0256705733333333,3.151041653333334,1.2874349333333328,5.016276013333334,23.09208021505676,7.248855173159763,19.751321504148418,24.176064666510133,11.848514826929144,-29.09471249771581,39.640531046997594,-2.296366466044625,38.61831249423953,-2.303948640544289,-0.43117479999999997,0.10147426666666666,0.7275034266666667,1.2601524933333335,0.8517452499206085,0.6541661699718355,0.6482632525809394,0.6462924099135294
LBP05_S08,LBP05,-1491,160,8,159,-1491,1715802649.36,2024-05-15 19:50:49.360000+00:00,2024-05-16 04:50:49.360000+09:00,2024,5,15,19,50,49,360,,,,,,,,,-0.34082,-0.286621,1.860107,7.141113,-72.814941,2.075195,,,,,,,,,,,0.0,1.0,1.0,8.0,0.0,0.0,0.0,5.0,0.0,-0.16546226666666666,-0.18158851999999998,1.0349251333333334,3.6352538933333345,3.351237026666666,4.663085906666667,5.08822279670548,3.7510949381186505,15.903226614602683,24.37959357837835,11.99855862445389,-28.458583433131704,39.34743909242229,-2.3110265354210417,38.40301224547687,-2.2989749920924276,-0.17535773333333335,-0.10503248000000004,0.8251818666666666,1.10557208,0.8501219145335798,0.6640660498626352,0.6445648001107451,0.6458051815381901
LBP05_S08,LBP05,-1490,161,8,160,-1490,1715802649.4,2024-05-15 19:50:49.400000+00:00,2024-05-16 04:50:49.400000+09:00,2024,5,15,19,50,49,400,,,,,,,,,-0.044434,-0.395996,1.014648,-18.920898,64.575195,-5.065918,,,,,,,,,,,0.0,1.0,1.0,8.0,0.0,0.0,0.0,5.0,0.0,-0.17336590666666665,-0.18277341333333336,1.0237630266666666,2.152506506666667,3.758138066666666,3.8867187199999997,-10.721082753205286,0.15234339289040605,12.610187996041669,23.95075026825014,12.004652360169507,-27.954175913290037,38.719324215329124,-2.3305600185507336,38.04569345968723,-2.296352941786376,0.12893190666666665,-0.21322258666666666,-0.009115026666666637,0.35126951999999995,0.24933991203307238,0.6532866917927691,0.642013136593309,0.6412073213906702
LBP05_S08,LBP05,-1489,162,8,161,-1489,1715802649.44,2024-05-15 19:50:49.440000+00:00,2024-05-16 04:50:49.440000+09:00,2024,5,15,19,50,49,440,,,,,,,,,-0.434326,0.308838,0.098145,-90.637207,39.855957,-42.541504,,,,,,,,,,,0.0,1.0,1.0,8.0,0.0,0.0,0.0,5.0,0.0,-0.1662012,-0.17771806666666665,1.0074153733333335,1.5364583200000004,1.9718424933333327,3.763020799999999,-22.258929199948287,-3.0056178923318084,10.402365419519386,23.06039310025221,11.884427644476235,-27.53808129650926,37.833414752941664,-2.323665853864604,37.5458771843182,-2.2964837676715413,-0.2681248,0.4865560666666666,-0.9092703733333335,1.6639512400000003,1.0655516534673095,0.680796648861547,0.6572724158773476,0.648002914120589
LBP05_S08,LBP05,-1488,163,8,162,-1488,1715802649.48,2024-05-15 19:50:49.480000+00:00,2024-05-16 04:50:49.480000+09:00,2024,5,15,19,50,49,480,,,,,,,,,0.006104,-0.382568,0.393555,-133.422852,-91.73584,34.484863,,,,,,,,,,,0.0,1.0,1.0,8.0,0.0,0.0,0.0,5.0,0.0,-0.15212242666666667,-0.17913084,0.9945442800000001,1.321614573333334,2.4015299999999993,4.0275064799999996,-28.452481404563514,-5.320608513989029,9.4368678136194,21.92229384406967,11.671603303916674,-27.160606583964487,36.80369330758298,-2.277011990584732,36.91223777415162,-2.295348957778267,0.15822642666666667,-0.20343716,-0.6009892800000001,0.9626528666666667,0.6539192571254391,0.6731365913025908,0.6492212557070866,0.6477712782484175
LBP05_S08,LBP05,-1487,164,8,163,-1487,1715802649.52,2024-05-15 19:50:49.520000+00:00,2024-05-16 04:50:49.520000+09:00,2024,5,15,19,50,49,520,,,,,,,,,0.431396,-0.60498,0.770996,3.601074,-53.344727,41.687012,,,,,,,,,,,0.0,1.0,1.0,8.0,0.0,0.0,0.0,5.0,0.0,-0.1532650133333333,-0.17846352,0.9941504,1.7911783733333337,3.2609049999999997,4.2854817333333335,-29.4609932808988,-6.6634243354601495,9.552983368788253,20.74385411283372,11.405066330498268,-26.778487249212958,35.74171793316397,-2.282412744317232,36.16347201401564,-2.2969742693849353,0.5846610133333333,-0.42651648,-0.22315439999999998,1.2343318933333332,0.7573260159686253,0.6643198267329903,0.6501770440761451,0.6454091012120794
LBP05_S08,LBP05,-1486,165,8,164,-1486,1715802649.56,2024-05-15 19:50:49.560000+00:00,2024-05-16 04:50:49.560000+09:00,2024,5,15,19,50,49,560,,,,,,,,,0.076172,0.085205,1.071777,64.453125,57.312012,37.719727,,,,,,,,,,,0.0,1.0,1.0,8.0,0.0,0.0,0.0,5.0,0.0,-0.15745772,-0.18362302666666663,1.0120507866666666,2.7050781200000005,1.4713542133333328,4.664713506666667,-26.51325429179151,-7.227340314073781,10.426271854099157,19.683323941162058,11.115972717935318,-26.361436375048992,34.726408086560895,-2.2817252193946365,35.32631776664247,-2.2968351788895838,0.23362971999999999,0.2688280266666666,0.05972621333333339,0.56218396,0.3611351195161047,0.6612668711786458,0.6429714934373422,0.6400511900365817
LBP05_S08,LBP05,-1485,166,8,165,-1485,1715802649.6,2024-05-15 19:50:49.600000+00:00,2024-05-16 04:50:49.600000+09:00,2024,5,15,19,50,49,600,,,,,,,,,-0.531006,-0.265869,1.619873,-8.544922,3.540039,2.01416,,,,,,,,,,,0.0,1.0,1.0,8.0,0.0,0.0,0.0,5.0,0.0,-0.15944339999999999,-0.18787433333333334,1.0304817733333331,3.466796866666667,0.47770186666666614,5.179036413333333,-21.435996664552967,-7.451275737888885,11.727716337113261,18.82588407457994,10.817921688419762,-25.892327721564463,33.79132988929558,-2.2767489063890665,34.43089843556481,-2.2914712800963066,-0.37156259999999997,-0.07799466666666668,0.5893912266666668,1.0389484933333333,0.7010876919607436,0.6521182929184426,0.6520094683334783,0.6450854978249982
LBP05_S08,LBP05,-1484,167,8,166,-1484,1715802649.64,2024-05-15 19:50:49.640000+00:00,2024-05-16 04:50:49.640000+09:00,2024,5,15,19,50,49,640,,,,,,,,,-0.277344,-0.531006,1.653809,-34.667969,-75.805664,10.192871,,,,,,,,,,,0.0,1.0,1.0,8.0,0.0,0.0,0.0,5.0,0.0,-0.16140627999999999,-0.18873045333333335,1.0362532666666666,2.808430986666667,1.4819336399999996,5.63151036,-16.08460075080728,-7.835303065303855,13.206722583078868,18.18250004454765,10.504509565807608,-25.364058818241308,32.92846046846593,-2.2804534633910536,33.50517973693075,-2.2839406393086694,-0.11593772,-0.3422755466666666,0.6175557333333335,1.0757690000000002,0.7155202223121546,0.655800071216986,0.6532522242883494,0.6443068440825317
LBP05_S08,LBP05,-1483,168,8,167,-1483,1715802649.68,2024-05-15 19:50:49.680000+00:00,2024-05-16 04:50:49.680000+09:00,2024,5,15,19,50,49,680,,,,,,,,,-0.031982,-0.058838,1.131592,23.925781,46.99707,8.178711,,,,,,,,,,,0.0,1.0,1.0,8.0,0.0,0.0,0.0,5.0,0.0,-0.17014325333333333,-0.1872526,1.02238608,2.7140299466666673,1.822102906666666,5.493164013333333,-11.891211828965076,-8.724487191076792,14.677953925537063,17.706851571389045,10.155530078164535,-24.776940661219825,32.10240134739636,-2.309771495891628,32.57078784885531,-2.2763303071103707,0.13816125333333334,0.1284146,0.10920591999999996,0.3757817733333333,0.2179559000780752,0.6372560734204911,0.6441782258009903,0.6408510863201898
LBP05_S08,LBP05,-1482,169,8,168,-1482,1715802649.72,2024-05-15 19:50:49.720000+00:00,2024-05-16 04:50:49.720000+09:00,2024,5,15,19,50,49,720,,,,,,,,,-0.464111,0.172607,0.189209,34.301758,93.62793,-8.117676,,,,,,,,,,,0.0,1.0,1.0,8.0,0.0,0.0,0.0,5.0,0.0,-0.162334,-0.18420572,1.0037337333333334,2.736816413333334,0.29947919999999933,5.677083293333333,-9.646095394423302,-10.153035954624984,15.953670610383003,17.32100775561211,9.749408639979535,-24.138793836804506,31.268988573265904,-2.2949755610911096,31.641800564894606,-2.2736731989667702,-0.30177699999999996,0.35681271999999997,-0.8145247333333334,1.4731144533333334,0.9390608159722864,0.6576759585809314,0.6575960888020761,0.6482009426579685
LBP05_S08,LBP05,-1481,170,8,169,-1481,1715802649.76,2024-05-15 19:50:49.760000+00:00,2024-05-16 04:50:49.760000+09:00,2024,5,15,19,50,49,760,,,,,,,,,-0.078125,0.007324,0.300537,-95.52002,-59.936523,6.408691,,,,,,,,,,,0.0,1.0,1.0,8.0,0.0,0.0,0.0,5.0,0.0,-0.15115561333333333,-0.18548501333333334,0.9879557333333334,3.332519533333334,0.3743489866666662,5.84472652,-9.510165977623178,-11.822534297060205,16.788588837178473,16.940601116507185,9.276507268097127,-23.467250283317366,30.39324578164567,-2.2573875474882725,30.72674588449691,-2.2732932278534803,0.07303061333333333,0.19280901333333333,-0.6874187333333335,0.9532583600000002,0.7176721403565983,0.6548677215921253,0.6545851453214361,0.6495186110238261
LBP05_S08,LBP05,-1480,171,8,170,-1480,1715802649.8,2024-05-15 19:50:49.800000+00:00,2024-05-16 04:50:49.800000+09:00,2024,5,15,19,50,49,800,,,,,,,,,0.141602,-0.234131,0.345703,-130.737305,-101.928711,24.963379,,,,,,,,,,,0.0,1.0,1.0,8.0,0.0,0.0,0.0,5.0,0.0,-0.14821616,-0.18266601333333335,0.9842089866666667,5.500488280000001,1.133626333333333,6.101074186666667,-11.170568455515555,-13.235952877189114,16.888758591055055,16.493778378286564,8.747069153009562,-22.791699939675162,29.46213722898856,-2.25525361067436,29.832510434117324,-2.274970161171622,0.28981816000000005,-0.05146498666666666,-0.6385059866666667,0.9797891333333334,0.7030882631132164,0.6494485199065053,0.6541173984375499,0.6463450611797348
LBP05_S08,LBP05,-1479,172,8,171,-1479,1715802649.84,2024-05-15 19:50:49.840000+00:00,2024-05-16 04:50:49.840000+09:00,2024,5,15,19,50,49,840,,,,,,,,,0.325195,-0.241699,0.658691,131.347656,-30.395508,23.55957,,,,,,,,,,,0.0,1.0,1.0,8.0,0.0,0.0,0.0,5.0,0.0,-0.15007488,-0.18798177333333332,1.0008495999999998,5.96679688,0.3165690399999997,6.628417933333333,-14.01662899842498,-13.922049917900715,15.994186509353286,15.933113218349565,8.190187156293533,-22.15193247930103,28.48949587218723,-2.247562531881616,28.96802220434953,-2.273982778112039,0.47526988000000003,-0.05371722666666667,-0.34215859999999976,0.8711457066666665,0.5880812076830311,0.6595525143174014,0.6532325303555204,0.6457569968545472
LBP05_S08,LBP05,-1478,173,8,172,-1478,1715802649.88,2024-05-15 19:50:49.880000+00:00,2024-05-16 04:50:49.880000+09:00,2024,5,15,19,50,49,880,,,,,,,,,-0.142334,0.130859,1.12793,-24.353027,30.456543,40.100098,,,,,,,,,,,0.0,1.0,1.0,8.0,0.0,0.0,0.0,5.0,0.0,-0.15391276,-0.19163085333333332,1.0203450533333334,6.704915373333334,0.06184898666666622,6.886393186666666,-17.256040973409426,-13.621155959374939,13.998612437446205,15.242871579413187,7.645340917918535,-21.591987981803182,27.513820467975993,-2.2504409091487316,28.145971801081096,-2.269421900438017,0.011578760000000021,0.32248985333333335,0.10758494666666674,0.4416535600000001,0.34015921850710146,0.6366571122953454,0.649958619963929,0.6441601971969924
LBP05_S08,LBP05,-1477,174,8,173,-1477,1715802649.92,2024-05-15 19:50:49.920000+00:00,2024-05-16 04:50:49.920000+09:00,2024,5,15,19,50,49,920,,,,,,,,,-0.386963,-0.268555,1.587402,16.967773,-11.230469,17.333984,,,,,,,,,,,0.0,1.0,1.0,8.0,0.0,0.0,0.0,5.0,0.0,-0.15844074666666666,-0.18596028,1.0277571600000002,6.719563813333334,0.7511393466666664,7.035318973333334,-19.991968909336016,-12.33361016135402,11.043193084992804,14.443192823039746,7.151996511464374,-21.15026025840347,26.59117112918697,-2.2786130331843313,27.38208947789277,-2.2615854311482444,-0.22852225333333334,-0.08259471999999998,0.5596448399999998,0.8707618133333331,0.6101201971571241,0.6339528581389642,0.6482247340230294,0.6394918060509089
LBP05_S08,LBP05,-1476,175,8,174,-1476,1715802649.96,2024-05-15 19:50:49.960000+00:00,2024-05-16 04:50:49.960000+09:00,2024,5,15,19,50,49,960,,,,,,,,,-0.19751,-0.411133,1.568359,-26.733398,-42.602539,3.295898,,,,,,,,,,,0.0,1.0,1.0,8.0,0.0,0.0,0.0,5.0,0.0,-0.16491861333333332,-0.18577473333333336,1.01815104,5.299479186666668,1.289876333333333,6.663411413333333,-21.347023481393936,-10.232806647790904,7.529450101175809,13.589311883783989,6.742684245552738,-20.84908225435644,25.784053582765036,-2.2984945525760496,26.69260217587212,-2.2530459579141064,-0.032591386666666666,-0.22535826666666667,0.55020796,0.8081576133333334,0.5954639754739344,0.6290710938843831,0.6416415444902761,0.6397260324990125
LBP05_S08,LBP05,-1475,176,8,175,-1475,1715802650.0,2024-05-15 19:50:50+00:00,2024-05-16 04:50:50+09:00,2024,5,15,19,50,50,0,19.0,50.0,50.0,40.783466,141.677948,1.215,3.0,10.0,-0.145508,0.230713,0.767822,-16.479492,75.561523,-13.244629,-563.0,62.0,556.0,15.0,0.0,1020.0,16.559999,0.069368,-56.014488,3.825,0.0,1.0,1.0,8.0,0.0,0.0,0.0,5.0,0.0,-0.15668293333333333,-0.18851236,0.9991080666666668,3.3496094000000007,-0.19612628000000037,6.84407548,-20.681201024650072,-7.525227526220289,4.036101365616807,12.762063842797986,6.441675144503926,-20.687638199731765,25.146447591617633,-2.2668750757932368,26.090862073262752,-2.249903626661478,0.011174933333333331,0.41922536,-0.23128606666666685,0.6616863600000001,0.47892382091129265,0.633625092979882,0.6424009776164009,0.6392835048442908
LBP05_S08,LBP05,-1474,177,8,176,-1474,1715802650.04,2024-05-15 19:50:50.040000+00:00,2024-05-16 04:50:50.040000+09:00,2024,5,15,19,50,50,40,,,,,,,,,-0.397705,0.202881,0.072266,-129.394531,27.46582,-3.417969,,,,,,,,,,,0.0,1.0,1.0,8.0,0.0,0.0,0.0,5.0,0.0,-0.14597654666666665,-0.18784178666666668,0.9822591066666666,3.816731800000001,0.21402997333333304,7.08170568,-17.847140659924143,-4.353998368417607,1.1708693899953297,12.04817821640102,6.267515209767222,-20.640803424131953,24.70795643578159,-2.234844686650833,25.584031899938434,-2.2483268083169605,-0.2517284533333333,0.3907227866666667,-0.9099931066666667,1.5524443466666666,1.0218213955574669,0.6418427623300788,0.6498212631477907,0.6449122618453289
LBP05_S08,LBP05,-1473,178,8,177,-1473,1715802650.08,2024-05-15 19:50:50.080000+00:00,2024-05-16 04:50:50.080000+09:00,2024,5,15,19,50,50,80,,,,,,,,,-0.029785,-0.519531,0.341309,-43.395996,-73.974609,-3.356934,,,,,,,,,,,0.0,1.0,1.0,8.0,0.0,0.0,0.0,5.0,0.0,-0.14221026666666667,-0.18429361333333336,0.9757682266666667,4.736328160000001,0.45410159999999955,7.30061844,-13.348406627168092,-0.8043161717685088,-0.5850523065335178,11.514241951314297,6.235342562896482,-20.664205516393295,24.463578115513144,-2.231406802993903,25.170598447053944,-2.2493339911273385,0.11242526666666666,-0.3352373866666666,-0.6344592266666668,1.0821218799999999,0.7263346723836279,0.6366312166137713,0.6503873820782167,0.6420803710701154
LBP05_S08,LBP05,-1472,179,8,178,-1472,1715802650.12,2024-05-15 19:50:50.120000+00:00,2024-05-16 04:50:50.120000+09:00,2024,5,15,19,50,50,120,,,,,,,,,0.311523,-0.03833,0.557861,64.147949,-54.80957,-2.075195,,,,,,,,,,,0.0,1.0,1.0,8.0,0.0,0.0,0.0,5.0,0.0,-0.1391634,-0.18889647999999998,0.9942903599999999,4.564615920000001,-0.22623693333333383,7.519531199999999,-8.276299436692504,3.0009763722665572,-0.9871820528980135,11.183189973846597,6.355381617787144,-20.703692798509216,24.3741155530594,-2.2095808287497323,24.839376332059736,-2.249872926665933,0.4506864,0.15056647999999997,-0.4364293599999999,1.0376822399999999,0.6451814336406154,0.6479920725851561,0.6525379880709516,0.6421927265138764
LBP05_S08,LBP05,-1471,180,8,179,-1471,1715802650.16,2024-05-15 19:50:50.160000+00:00,2024-05-16 04:50:50.160000+09:00,2024,5,15,19,50,50,160,,,,,,,,,0.221436,-0.238525,0.990234,5.92041,41.687012,0.488281,,,,,,,,,,,0.0,1.0,1.0,8.0,0.0,0.0,0.0,5.0,0.0,-0.14438474666666665,-0.1892447866666667,1.01250976,4.322916693333333,-0.06754553333333387,7.654622346666667,-4.002364559937143,6.796825235803227,-0.06627387819603309,11.023095391449111,6.627254627219273,-20.706343753637057,24.375844755551963,-2.2259642349619835,24.570375864207882,-2.2465017702227557,0.36582074666666664,-0.049280213333333295,-0.022275759999999978,0.43737671999999994,0.36979665709888987,0.6314660870452083,0.6502797234442512,0.6422713013073588
LBP05_S08,LBP05,-1470,181,8,180,-1470,1715802650.2,2024-05-15 19:50:50.200000+00:00,2024-05-16 04:50:50.200000+09:00,2024,5,15,19,50,50,200,,,,,,,,,-0.370117,-0.343262,1.513184,10.070801,47.241211,0.549316,,,,,,,,,,,0.0,1.0,1.0,8.0,0.0,0.0,0.0,5.0,0.0,-0.15233397333333334,-0.19409504,1.02387696,3.0216471600000006,0.16357425333333278,7.978515573333334,-1.7359568205050513,10.155400982794882,1.9025369787418676,10.95365711862891,7.033470666531068,-20.630242274487383,24.393835495745417,-2.239485427229189,24.337496832642756,-2.2366571147744874,-0.21778302666666663,-0.14916696000000002,0.48930704000000014,0.8562570266666668,0.5559690711301281,0.6255430236629196,0.6454880169812361,0.6373618362394555
LBP05_S08,LBP05,-1469,182,8,181,-1469,1715802650.24,2024-05-15 19:50:50.240000+00:00,2024-05-16 04:50:50.240000+09:00,2024,5,15,19,50,50,240,,,,,,,,,-0.451416,-0.267822,1.693848,-0.610352,-38.024902,18.615723,,,,,,,,,,,0.0,1.0,1.0,8.0,0.0,0.0,0.0,5.0,0.0,-0.156416,-0.1918522,1.0167936266666666,2.9508463733333343,0.5533854533333327,8.357747346666667,-2.1281584710275823,12.580468959930403,4.478713301706743,10.868530779787806,7.5366894249282845,-20.451093742419115,24.355161343342296,-2.257634359985394,24.11264127172274,-2.229481916583165,-0.295,-0.0759698,0.6770543733333334,1.0480241733333333,0.7424277978105567,0.6320658306494048,0.6408935798367178,0.6402446944291803
LBP05_S08,LBP05,-1468,183,8,182,-1468,1715802650.28,2024-05-15 19:50:50.280000+00:00,2024-05-16 04:50:50.280000+09:00,2024,5,15,19,50,50,280,,,,,,,,,-0.069824,-0.053955,1.476318,112.121582,13.366699,13.671875,,,,,,,,,,,0.0,1.0,1.0,8.0,0.0,0.0,0.0,5.0,0.0,-0.15017250666666668,-0.18485350666666667,0.9964257866666668,1.324869813333334,-0.022786426666667314,8.085937453333333,-5.07865305147789,13.671437184918668,7.15480825185835,10.66538465772869,8.083546912325032,-20.16490141234478,24.201599318033892,-2.255830264534683,23.870512926851916,-2.2271135242879376,0.08034850666666668,0.13089850666666666,0.4798922133333332,0.6911392266666665,0.5038718467915152,0.638467018020124,0.6432814729238019,0.6413291702263009
