file_name,test_id,_program_index,program_index,session_id,index,_index,unixtime,datetime_utc,datetime_jst,rtc_year,rtc_month,rtc_day,rtc_hour,rtc_min,rtc_sec,rtc_msec,gps_hour,gps_min,gps_sec,latitude,longitude,altitude,fix_type,SIV,acc_x,acc_y,acc_z,gyro_x,gyro_y,gyro_z,mag_x,mag_y,mag_z,illuminance,atmopress,water_pressure,water_temp,depth,alt_wps,battery_level,behavior_class,camera_command,camera_recording,camera_count,play_audio,speaker_on,audio_file,prev_sd_write_time_ms,delay_occurred_counter,acc_x_ma,acc_y_ma,acc_z_ma,gyro_x_ma,gyro_y_ma,gyro_z_ma,gyro_x_lowpass,gyro_y_lowpass,gyro_z_lowpass,angle_x,angle_y,angle_z,combined_angle_change,gravity_adjusted_angle,smoothed_angle_change,smoothed_gravity_angle,acc_x_dy,acc_y_dy,acc_z_dy,ODBA,VeDBA,smoothed_VeDBA_1s,smoothed_VeDBA_2s,smoothed_VeDBA_3s
LBP05_S03,LBP05,-1650,1,3,0,-1650,1715766771.0,2024-05-15 09:52:51+00:00,2024-05-15 18:52:51+09:00,2024,5,15,9,52,51,0,9.0,52.0,50.0,40.559925,141.517746,21.51,3.0,16.0,-0.226074,-0.121338,1.101318,-1.403809,106.140137,21.484375,-526.0,23.0,559.0,0.0,0.0,1023.799988,19.52,0.107026,-87.416542,3.951562,0.0,1.0,1.0,3.0,0.0,0.0,0.0,6.0,0.0,,,,,,,-0.46461793264775086,105.19254563113029,21.855127510250473,-0.018584717305910034,4.207701825245212,0.8742051004100189,4.29759637465783,,7.503822622231505,,,,,,,,,
LBP05_S03,LBP05,-1649,2,3,1,-1649,1715766771.04,2024-05-15 09:52:51.040000+00:00,2024-05-15 18:52:51.040000+09:00,2024,5,15,9,52,51,40,,,,,,,,,-0.269775,0.086182,0.116211,-107.23877,39.978027,-16.174316,,,,,,,,,,,0.0,1.0,1.0,3.0,0.0,0.0,0.0,6.0,0.0,,,,,,,0.4281568513379419,68.56190100772221,13.638231546111147,-0.0014584432523923573,6.9501778655541,1.4197343622544647,7.093702851773604,,7.579970948582047,,,,,,,,,
LBP05_S03,LBP05,-1648,3,3,2,-1648,1715766771.08,2024-05-15 09:52:51.080000+00:00,2024-05-15 18:52:51.080000+09:00,2024,5,15,9,52,51,80,,,,,,,,,0.092041,-0.468262,0.510254,-61.035156,-61.706543,-13.061523,,,,,,,,,,,0.0,1.0,1.0,3.0,0.0,0.0,0.0,6.0,0.0,,,,,,,1.5408791389202865,35.75616470461702,6.7127970574244715,0.0601767223044191,8.380424453738781,1.6882462445514435,8.548994715460545,,7.529454751703435,,,,,,,,,
LBP05_S03,LBP05,-1647,4,3,3,-1647,1715766771.12,2024-05-15 09:52:51.120000+00:00,2024-05-15 18:52:51.120000+09:00,2024,5,15,9,52,51,120,,,,,,,,,0.282715,0.03833,0.941895,97.717285,12.268066,-18.432617,,,,,,,,,,,0.0,1.0,1.0,3.0,0.0,0.0,0.0,6.0,0.0,,,,,,,2.8861802046417617,9.682255263496506,1.9961472012623087,0.17562393049008956,8.76771466427864,1.7680921326019359,8.945938407374397,,7.41739787888084,,,,,,,,,
LBP05_S03,LBP05,-1646,5,3,4,-1646,1715766771.16,2024-05-15 09:52:51.160000+00:00,2024-05-15 18:52:51.160000+09:00,2024,5,15,9,52,51,160,,,,,,,,,-0.259521,-0.169189,1.497559,-8.789062,34.240723,8.239746,,,,,,,,,,,0.0,1.0,1.0,3.0,0.0,0.0,0.0,6.0,0.0,,,,,,,4.182756514690679,-8.090321140743306,-0.1414727373808154,0.3429341910777167,8.444101818648909,1.7624332231067033,8.632880761891144,,7.290431751941333,,,,,,,,,
LBP05_S03,LBP05,-1645,6,3,5,-1645,1715766771.2,2024-05-15 09:52:51.200000+00:00,2024-05-15 18:52:51.200000+09:00,2024,5,15,9,52,51,200,,,,,,,,,-0.733643,-0.403564,1.71582,-11.108398,-68.786621,4.821777,,,,,,,,,,,0.0,1.0,1.0,3.0,0.0,0.0,0.0,6.0,0.0,,,,,,,4.95196914050291,-17.5169627050992,0.09546287696896996,0.5410129566978331,7.743423310444941,1.766251738185462,7.960712580334764,,7.17651972465878,,,,,,,,,
LBP05_S03,LBP05,-1644,7,3,6,-1644,1715766771.24,2024-05-15 09:52:51.240000+00:00,2024-05-15 18:52:51.240000+09:00,2024,5,15,9,52,51,240,,,,,,,,,-0.148438,0.048096,1.626221,42.480469,-73.913574,11.230469,,,,,,,,,,,0.0,1.0,1.0,3.0,0.0,0.0,0.0,6.0,0.0,,,,,,,4.693794461280537,-19.88990365489457,2.0554704173819687,0.7287647351490546,6.947827164249158,1.8484705548807407,7.226357570431764,,7.367495861737083,,,,,,,,,
LBP05_S03,LBP05,-1643,8,3,7,-1643,1715766771.28,2024-05-15 09:52:51.280000+00:00,2024-05-15 18:52:51.280000+09:00,2024,5,15,9,52,51,280,,,,,,,,,-0.161377,-0.306885,0.986572,-11.047363,117.004395,27.038574,,,,,,,,,,,0.0,1.0,1.0,3.0,0.0,0.0,0.0,6.0,0.0,,,,,,,3.057492439202809,-17.3718516173343,4.857752495997909,0.8510644327171669,6.252953099555786,2.0427806547206573,6.632999769122675,,7.29547197047943,,,,,,,,,
LBP05_S03,LBP05,-1642,9,3,8,-1642,1715766771.32,2024-05-15 09:52:51.320000+00:00,2024-05-15 18:52:51.320000+09:00,2024,5,15,9,52,51,320,,,,,,,,,-0.209961,-0.142822,0.08252,-22.155762,23.071289,-3.845215,,,,,,,,,,,0.0,1.0,1.0,3.0,0.0,0.0,0.0,6.0,0.0,,,,,,,-0.04342113823690056,-12.407562440346888,7.6220020104227055,0.8493275871876909,5.75665060194191,2.3476607351375653,6.274702736425278,,7.099967195467623,,,,,,,,,
LBP05_S03,LBP05,-1641,10,3,9,-1641,1715766771.36,2024-05-15 09:52:51.360000+00:00,2024-05-15 18:52:51.360000+09:00,2024,5,15,9,52,51,360,,,,,,,,,0.076172,-0.100342,0.38623,23.803711,-73.303223,-4.638672,,,,,,,,,,,0.0,1.0,1.0,3.0,0.0,0.0,0.0,6.0,0.0,,,,,,,-4.388904970280735,-7.18845816155061,9.652628899794827,0.6737713883764614,5.469112275479886,2.7337658911293583,6.1513114791158,,6.889360283873382,,,,,,,,,
LBP05_S03,LBP05,-1640,11,3,10,-1640,1715766771.4,2024-05-15 09:52:51.400000+00:00,2024-05-15 18:52:51.400000+09:00,2024,5,15,9,52,51,400,,,,,,,,,0.273193,0.127197,0.715576,14.892578,-23.620605,11.230469,,,,,,,,,,,0.0,1.0,1.0,3.0,0.0,0.0,0.0,6.0,0.0,,,,,,,-9.482465765997937,-3.2995926458748763,10.553074654464266,0.29447275773654397,5.337128569644891,3.155888877307929,6.207357745440856,,6.73717743043228,,,,,,,,,
LBP05_S03,LBP05,-1639,12,3,11,-1639,1715766771.44,2024-05-15 09:52:51.440000+00:00,2024-05-15 18:52:51.440000+09:00,2024,5,15,9,52,51,440,,,,,,,,,-0.05835,-0.233398,1.253418,-65.490723,41.07666,33.508301,,,,,,,,,,,0.0,1.0,1.0,3.0,0.0,0.0,0.0,6.0,0.0,,,,,,,-14.646315384597157,-1.5781217298402783,10.269144100230132,-0.29137985764734237,5.27400370045128,3.5666546413171343,6.3734639391970695,,6.683921546341557,,,,,,,,,
LBP05_S03,LBP05,-1638,13,3,12,-1638,1715766771.48,2024-05-15 09:52:51.480000+00:00,2024-05-15 18:52:51.480000+09:00,2024,5,15,9,52,51,480,,,,,,,,,-0.566895,-0.414062,1.642822,1.220703,-14.953613,15.686035,,,,,,,,,,,0.0,1.0,1.0,3.0,0.0,0.0,0.0,6.0,0.0,,,,,,,-19.165781790269445,-2.1333894445124604,9.063187007689843,-1.0580111292581202,5.188668122670781,3.929182121624728,6.593946965342485,,6.742999588265986,,,,,,,,,
LBP05_S03,LBP05,-1637,14,3,13,-1637,1715766771.52,2024-05-15 09:52:51.520000+00:00,2024-05-15 18:52:51.520000+09:00,2024,5,15,9,52,51,520,,,,,,,,,-0.332031,-0.288574,1.513428,8.789062,-51.025391,13.549805,,,,,,,,,,,0.0,1.0,1.0,3.0,0.0,0.0,0.0,6.0,0.0,,,,,,,-22.452748468322444,-4.468446492778446,7.417267343140151,-1.9561210679910181,5.009930262959643,4.225872815350334,6.839869291431976,,6.90902996311209,,,,,,,,,
LBP05_S03,LBP05,-1636,15,3,14,-1636,1715766771.56,2024-05-15 09:52:51.560000+00:00,2024-05-15 18:52:51.560000+09:00,2024,5,15,9,52,51,560,,,,,,,,,-0.153809,0.069092,0.754883,-58.288574,67.260742,-7.69043,,,,,,,,,,,0.0,1.0,1.0,3.0,0.0,0.0,0.0,6.0,0.0,,,,,,,-24.187882711203766,-7.668850039473189,5.875450863672004,-2.923636376439169,4.703176261380715,4.460890849897214,7.111052227480131,,7.166940969735412,,,,,,,,,
LBP05_S03,LBP05,-1635,16,3,15,-1635,1715766771.6,2024-05-15 09:52:51.600000+00:00,2024-05-15 18:52:51.600000+09:00,2024,5,15,9,52,51,600,,,,,,,,,-0.27417,0.022461,0.018555,-90.026855,17.39502,-32.409668,,,,,,,,,,,0.0,1.0,1.0,3.0,0.0,0.0,0.0,6.0,0.0,,,,,,,-24.399859421890195,-10.643088317317147,4.865405608337621,-3.899630753314777,4.277452728688029,4.6555070742307185,7.428153739427537,,7.4999551418490995,,,,,,,,,
LBP05_S03,LBP05,-1634,17,3,16,-1634,1715766771.64,2024-05-15 09:52:51.640000+00:00,2024-05-15 18:52:51.640000+09:00,2024,5,15,9,52,51,640,,,,,,,,,-0.058105,-0.285889,0.321777,2.502441,-73.181152,-5.981445,,,,,,,,,,,0.0,1.0,1.0,3.0,0.0,0.0,0.0,6.0,0.0,,,,,,,-23.444294539510885,-12.397402406295138,4.5643087126373025,-4.8374025348952125,3.7815566324362235,4.838079422736211,7.817137989676053,,7.894568410745284,,,,,,,,,
LBP05_S03,LBP05,-1633,18,3,17,-1633,1715766771.68,2024-05-15 09:52:51.680000+00:00,2024-05-15 18:52:51.680000+09:00,2024,5,15,9,52,51,680,,,,,,,,,0.273193,-0.191406,0.516357,18.615723,-77.087402,21.66748,,,,,,,,,,,0.0,1.0,1.0,3.0,0.0,0.0,0.0,6.0,0.0,,,,,,,-21.870996943701837,-12.30098025175365,4.865950806728629,-5.7122424126432865,3.2895174223660777,5.032717455005356,8.29330351758371,,8.341997125156619,,,,,,,,,
LBP05_S03,LBP05,-1632,19,3,18,-1632,1715766771.72,2024-05-15 09:52:51.720000+00:00,2024-05-15 18:52:51.720000+09:00,2024,5,15,9,52,51,720,,,,,,,,,0.192139,0.019043,0.873291,31.188965,14.648438,27.46582,,,,,,,,,,,0.0,1.0,1.0,3.0,0.0,0.0,0.0,6.0,0.0,,,,,,,-20.225231904911816,-10.260202387308366,5.459458478361384,-6.521251688839759,2.879109326873743,5.251095794139811,8.853812802658503,,8.836977828929578,,,,,,,,,
LBP05_S03,LBP05,-1631,20,3,19,-1631,1715766771.76,2024-05-15 09:52:51.760000+00:00,2024-05-15 18:52:51.760000+09:00,2024,5,15,9,52,51,760,,,,,,,,,-0.366699,-0.128174,1.485107,-60.546875,33.874512,24.658203,,,,,,,,,,,0.0,1.0,1.0,3.0,0.0,0.0,0.0,6.0,0.0,,,,,,,-18.877044791268005,-6.724071780564315,5.972517144032954,-7.276333480490479,2.6101464556511704,5.489996479901129,9.481453200252682,,9.375176892767195,,,,,,,,,
LBP05_S03,LBP05,-1630,21,3,20,-1630,1715766771.8,2024-05-15 09:52:51.800000+00:00,2024-05-15 18:52:51.800000+09:00,2024,5,15,9,52,51,800,,,,,,,,,-0.515625,-0.125488,1.537109,-35.217285,-43.701172,-9.82666,,,,,,,,,,,0.0,1.0,1.0,3.0,0.0,0.0,0.0,6.0,0.0,,,,,,,-17.957340327623093,-2.511312846111734,6.1044172759452735,-7.994627093595403,2.509693941806701,5.7341731709389405,10.153490434402688,,9.950389303314875,,,,,,,,,
LBP05_S03,LBP05,-1629,22,3,21,-1629,1715766771.84,2024-05-15 09:52:51.840000+00:00,2024-05-15 18:52:51.840000+09:00,2024,5,15,9,52,51,840,,,,,,,,,-0.18335,-0.570068,1.337402,11.291504,10.559082,11.657715,,,,,,,,,,,0.0,1.0,1.0,3.0,0.0,0.0,0.0,6.0,0.0,,,,,,,-17.407432721232336,1.46746435549976,5.694522785322359,-8.690924402444697,2.5683925160266914,5.961954082351835,10.847751083310419,,10.552552379034445,,,,,,,,,
LBP05_S03,LBP05,-1628,23,3,22,-1628,1715766771.88,2024-05-15 09:52:51.880000+00:00,2024-05-15 18:52:51.880000+09:00,2024,5,15,9,52,51,880,,,,,,,,,-0.38501,-0.015625,0.467041,-36.315918,111.877441,-4.943848,,,,,,,,,,,0.0,1.0,1.0,3.0,0.0,0.0,0.0,6.0,0.0,,,,,,,-17.084051202339722,4.481613218039149,4.719217593079496,-9.374286450538285,2.7476570447482573,6.150722786075015,11.543754003072086,,11.167210048269192,,,,,,,,,
LBP05_S03,LBP05,-1627,24,3,23,-1627,1715766771.92,2024-05-15 09:52:51.920000+00:00,2024-05-15 18:52:51.920000+09:00,2024,5,15,9,52,51,920,,,,,,,,,-0.179932,-0.494873,0.218018,-107.299805,-31.860352,-22.399902,,,,,,,,,,,0.0,1.0,1.0,3.0,0.0,0.0,0.0,6.0,0.0,,,,,,,-16.84609799578177,6.149247630297662,3.2493137177276017,-10.048130370369556,2.9936269499601638,6.280695334784119,12.221859929808138,,11.776397519663442,,,,,,,,,
LBP05_S03,LBP05,-1626,25,3,24,-1626,1715766771.96,2024-05-15 09:52:51.960000+00:00,2024-05-15 18:52:51.960000+09:00,2024,5,15,9,52,51,960,,,,,,,,,0.184326,-0.272461,0.608398,63.537598,-69.580078,8.422852,,,,,,,,,,,0.0,1.0,1.0,3.0,0.0,0.0,0.0,6.0,0.0,,,,,,,-16.57452178140195,6.455872787880938,1.4100364796501348,-10.711111241625634,3.251861861475401,6.337096793970125,12.863176332956947,,12.36030640471777,,,,,,,,,
LBP05_S03,LBP05,-1625,26,3,25,-1625,1715766772.0,2024-05-15 09:52:52+00:00,2024-05-15 18:52:52+09:00,2024,5,15,9,52,52,0,9.0,52.0,51.0,40.560032,141.517731,21.517,3.0,16.0,0.220215,-0.028809,1.073975,18.371582,14.831543,19.592285,-524.0,42.0,556.0,0.0,0.0,1023.799988,19.51,0.107026,-87.416542,3.951562,0.0,1.0,1.0,3.0,0.0,0.0,0.0,5.0,0.0,,,,,,,-16.125906607099022,5.650374694723349,-0.6320827607856426,-11.356147505909595,3.477876849264335,6.3118134835387,13.449784496623225,,12.899069817972208,,,,,,,,,
LBP05_S03,LBP05,-1624,27,3,26,-1624,1715766772.04,2024-05-15 09:52:52.040000+00:00,2024-05-15 18:52:52.040000+09:00,2024,5,15,9,52,52,40,,,,,,,,,-0.351074,-0.182373,1.549316,7.263184,49.560547,13.61084,,,,,,,,,,,0.0,1.0,1.0,3.0,0.0,0.0,0.0,5.0,0.0,,,,,,,-15.277568083683189,4.104152660008186,-2.6627873519544485,-11.967250229256923,3.6420429556646625,6.205301989460522,13.963714682023518,,13.374553544686496,,,,,,,,,
LBP05_S03,LBP05,-1623,28,3,27,-1623,1715766772.08,2024-05-15 09:52:52.080000+00:00,2024-05-15 18:52:52.080000+09:00,2024,5,15,9,52,52,80,,,,,,,,,-0.560791,-0.332275,1.69165,-36.315918,-48.522949,-16.418457,,,,,,,,,,,0.0,1.0,1.0,3.0,0.0,0.0,0.0,5.0,0.0,,,,,,,-13.744140513501966,2.2122118547466454,-4.4242175606389145,-12.517015849797001,3.7305314298545285,6.0283332870349655,14.385178231526211,,13.772378542324423,,,,,,,,,
LBP05_S03,LBP05,-1622,29,3,28,-1622,1715766772.12,2024-05-15 09:52:52.120000+00:00,2024-05-15 18:52:52.120000+09:00,2024,5,15,9,52,52,120,,,,,,,,,-0.198975,-0.272949,1.381104,-40.649414,-18.615723,-11.352539,,,,,,,,,,,0.0,1.0,1.0,3.0,0.0,0.0,0.0,5.0,0.0,,,,,,,-11.297110467118605,0.3574199942320671,-5.653932149008604,-12.968900268481745,3.744828229623811,5.8021760010746215,14.69290165320178,,14.08403939164287,,,,,,,,,
LBP05_S03,LBP05,-1621,30,3,29,-1621,1715766772.16,2024-05-15 09:52:52.160000+00:00,2024-05-15 18:52:52.160000+09:00,2024,5,15,9,52,52,160,,,,,,,,,-0.311523,-0.005859,0.632324,-24.169922,121.704102,-10.375977,,,,,,,,,,,0.0,1.0,1.0,3.0,0.0,0.0,0.0,5.0,0.0,,,,,,,-7.9314465994899725,-1.0921535330120582,-6.154014336780665,-13.286158132461344,3.7011420883033286,5.556015427603395,14.869087332797058,,14.308362202385604,,,,,,,,,
LBP05_S03,LBP05,-1620,31,3,30,-1620,1715766772.2,2024-05-15 09:52:52.200000+00:00,2024-05-15 18:52:52.200000+09:00,2024,5,15,9,52,52,200,,,,,,,,,-0.093262,-0.170898,0.120605,-43.151855,-26.000977,-11.71875,,,,,,,,,,,0.0,1.0,1.0,3.0,0.0,0.0,0.0,5.0,0.0,,,,,,,-3.9714406765702037,-1.802613077653479,-5.859338374778674,-13.445015759524152,3.6290375651971893,5.321641892612248,14.908327701545563,,14.451444210126812,,,,,,,,,
LBP05_S03,LBP05,-1619,32,3,31,-1619,1715766772.24,2024-05-15 09:52:52.240000+00:00,2024-05-15 18:52:52.240000+09:00,2024,5,15,9,52,52,240,,,,,,,,,0.126709,-0.064453,0.50415,9.094238,-75.317383,-11.535645,,,,,,,,,,,0.0,1.0,1.0,3.0,0.0,0.0,0.0,5.0,0.0,,,,,,,-0.030616860503927253,-1.5466511048075364,-4.870718859835701,-13.44624043394431,3.5671715210048878,5.12681313821882,14.826001059689705,,14.524894329630976,,,,,,,,,
LBP05_S03,LBP05,-1618,33,3,32,-1618,1715766772.28,2024-05-15 09:52:52.280000+00:00,2024-05-15 18:52:52.280000+09:00,2024,5,15,9,52,52,280,,,,,,,,,0.308594,-0.299316,0.931641,50.720215,-14.587402,0.793457,,,,,,,,,,,0.0,1.0,1.0,3.0,0.0,0.0,0.0,5.0,0.0,,,,,,,3.179780046781381,-0.31441524584422026,-3.435582161746007,-13.319049232073054,3.554594911171119,4.98938985174898,14.660362496256534,,14.543166838100614,,,,,,,,,
LBP05_S03,LBP05,-1617,34,3,33,-1617,1715766772.32,2024-05-15 09:52:52.320000+00:00,2024-05-15 18:52:52.320000+09:00,2024,5,15,9,52,52,320,,,,,,,,,-0.302734,-0.105469,1.400635,44.189453,51.574707,13.916016,,,,,,,,,,,0.0,1.0,1.0,3.0,0.0,0.0,0.0,5.0,0.0,,,,,,,5.110118879253762,1.6084311496237356,-1.882695508756756,-13.114644476902903,3.618932157156068,4.91408203139871,14.465088037235507,,14.521279366657927,-2.2614483221212884,,,,,,,,
LBP05_S03,LBP05,-1616,35,3,34,-1616,1715766772.36,2024-05-15 09:52:52.360000+00:00,2024-05-15 18:52:52.360000+09:00,2024,5,15,9,52,52,360,,,,,,,,,-0.654541,-0.262695,1.70752,21.057129,-39.245605,-0.427246,,,,,,,,,,,0.0,1.0,1.0,3.0,0.0,0.0,0.0,5.0,0.0,,,,,,,5.569446757773672,3.668924763228808,-0.5366438944006405,-12.891866606591956,3.7656891476852206,4.892616275622684,14.29399641036904,,14.473796546366193,-2.2617476230956237,,,,,,,,
LBP05_S03,LBP05,-1615,36,3,35,-1615,1715766772.4,2024-05-15 09:52:52.400000+00:00,2024-05-15 18:52:52.400000+09:00,2024,5,15,9,52,52,400,,,,,,,,,-0.240967,-0.299805,1.578613,-30.456543,-34.912109,-5.493164,,,,,,,,,,,0.0,1.0,1.0,3.0,0.0,0.0,0.0,5.0,0.0,,,,,,,4.759991203365323,5.196837942314694,0.3566595872478387,-12.701466958457342,3.9735626653778082,4.906882659112598,14.18428569166484,,14.414921436716748,-2.2606158825449825,,,,,,,,
LBP05_S03,LBP05,-1614,37,3,36,-1614,1715766772.44,2024-05-15 09:52:52.440000+00:00,2024-05-15 18:52:52.440000+09:00,2024,5,15,9,52,52,440,,,,,,,,,-0.239014,-0.147705,0.946777,-8.605957,122.802734,6.04248,,,,,,,,,,,0.0,1.0,1.0,3.0,0.0,0.0,0.0,5.0,0.0,,,,,,,3.1415647183385507,5.626886078440965,0.6728274213455323,-12.5758043697238,4.198638108515447,4.933795755966419,14.146439766719915,,14.358700849417158,-2.266641265852053,,,,,,,,
LBP05_S03,LBP05,-1613,38,3,37,-1613,1715766772.48,2024-05-15 09:52:52.480000+00:00,2024-05-15 18:52:52.480000+09:00,2024,5,15,9,52,52,480,,,,,,,,,-0.182861,-0.113525,0.091553,-54.382324,16.052246,-12.451172,,,,,,,,,,,0.0,1.0,1.0,3.0,0.0,0.0,0.0,5.0,0.0,-0.15894860000000002,-0.19348956,0.9910123600000001,-4.4059244799999995,0.5143229333333333,1.3452148266666666,1.2138178195215612,4.705390692900185,0.4180740049991832,-12.527251656942937,4.386853736231455,4.950518716166386,14.166303517099339,-2.2614483221212884,14.318381078558417,-2.272827182929338,-0.023912399999999973,0.07996456,-0.8994593600000002,1.00333632,0.9033234603514754,0.9033234603514754,0.9033234603514754,0.9033234603514754
LBP05_S03,LBP05,-1612,39,3,38,-1612,1715766772.52,2024-05-15 09:52:52.520000+00:00,2024-05-15 18:52:52.520000+09:00,2024,5,15,9,52,52,520,,,,,,,,,0.116211,-0.48291,0.613281,-8.422852,-66.772461,0.915527,,,,,,,,,,,0.0,1.0,1.0,3.0,0.0,0.0,0.0,5.0,0.0,-0.15930342666666666,-0.1936686,0.9965266933333332,-3.3235677066666662,-0.25227862666666645,1.3940429466666666,-0.6601309171134699,2.590590739588729,-0.28492263429772385,-12.553656893627476,4.490477365815004,4.939121810794478,14.218073450284438,-2.262046924069959,14.304765354146522,-2.2774285236343705,0.27551442666666665,-0.2892414,-0.38324569333333325,0.9480015199999998,0.5535756933193232,0.7284495768353993,0.7284495768353993,0.7284495768353993
LBP05_S03,LBP05,-1611,40,3,39,-1611,1715766772.56,2024-05-15 09:52:52.560000+00:00,2024-05-15 18:52:52.560000+09:00,2024,5,15,9,52,52,560,,,,,,,,,0.187256,0.050293,1.153076,81.359863,17.39502,3.479004,,,,,,,,,,,0.0,1.0,1.0,3.0,0.0,0.0,0.0,5.0,0.0,-0.16500656000000002,-0.20221026666666667,1.01833984,-1.7985025999999997,-1.5885416399999999,1.929524706666667,-2.308735317726467,-0.1999616732989943,-1.2234174356227505,-12.646006306336535,4.482478898883045,4.890185113369568,14.28033623630258,-2.2583524014437,14.324353486851152,-2.277621020390842,0.35226256,0.25250326666666667,0.13473615999999988,0.7395019866666666,0.45387293779937676,0.6369240304900584,0.6369240304900584,0.6369240304900584
LBP05_S03,LBP05,-1610,41,3,40,-1610,1715766772.6,2024-05-15 09:52:52.600000+00:00,2024-05-15 18:52:52.600000+09:00,2024,5,15,9,52,52,600,,,,,,,,,-0.417725,-0.217773,1.663818,-12.207031,34.057617,15.380859,,,,,,,,,,,0.0,1.0,1.0,3.0,0.0,0.0,0.0,5.0,0.0,-0.17001632,-0.19712888,1.0331119733333332,-0.02115885333333305,-1.8945312266666663,2.2924804266666667,-3.6939936931592205,-2.965726119103463,-2.1307955709130266,-12.793766054062903,4.363849854118906,4.804953290533047,14.346121828549702,-2.284717415773265,14.378391904470543,-2.2744636597968846,-0.24770868000000001,-0.020644119999999988,0.6307060266666669,0.8990588266666668,0.6779202474565655,0.6471730847316852,0.6471730847316852,0.6471730847316852
LBP05_S03,LBP05,-1609,42,3,41,-1609,1715766772.64,2024-05-15 09:52:52.640000+00:00,2024-05-15 18:52:52.640000+09:00,2024,5,15,9,52,52,640,,,,,,,,,-0.74292,-0.374268,1.76709,-20.812988,-78.063965,-7.69043,,,,,,,,,,,0.0,1.0,1.0,3.0,0.0,0.0,0.0,5.0,0.0,-0.17579757333333335,-0.19848304,1.0327180933333333,-1.7374674399999996,-0.9619140399999999,2.5805663599999997,-4.815640247489516,-5.041683383417828,-2.7379176081903984,-12.986391663962484,4.162182518782193,4.695436586205431,14.42280335110227,-2.2975708512384756,14.463457197706589,-2.2707738255197563,-0.5671224266666667,-0.17578496,0.7343719066666667,1.4772792933333334,0.9443676700796813,0.7066120018012845,0.7066120018012845,0.7066120018012845
LBP05_S03,LBP05,-1608,43,3,42,-1608,1715766772.68,2024-05-15 09:52:52.680000+00:00,2024-05-15 18:52:52.680000+09:00,2024,5,15,9,52,52,680,,,,,,,,,-0.131348,-0.164307,1.550293,0.366211,-49.194336,-15.014648,,,,,,,,,,,0.0,1.0,1.0,3.0,0.0,0.0,0.0,5.0,0.0,-0.1754557866666667,-0.19694008,1.01417968,-2.7742513066666667,-1.1385090933333333,2.285970013333333,-5.651461614754038,-5.9757614154302106,-2.8417700430549266,-13.212450128552646,3.9231520621649842,4.581765784483234,14.5242052521376,-2.300435227159535,14.57316454839982,-2.2697447128950383,0.044107786666666704,0.03263307999999998,0.5361133199999999,0.6128541866666666,0.5389136356006785,0.6786622741011835,0.6786622741011835,0.6786622741011835
LBP05_S03,LBP05,-1607,44,3,43,-1607,1715766772.72,2024-05-15 09:52:52.720000+00:00,2024-05-15 18:52:52.720000+09:00,2024,5,15,9,52,52,720,,,,,,,,,-0.309326,-0.253174,0.788574,-22.338867,116.455078,-1.525879,,,,,,,,,,,0.0,1.0,1.0,3.0,0.0,0.0,0.0,5.0,0.0,-0.16643560000000002,-0.19542641333333333,0.9961588533333334,-2.858886733333333,-1.3289387866666666,2.055664026666667,-6.153938284913258,-5.612746136991965,-2.3781172549762597,-13.458607659949177,3.6986422166853057,4.486641094284184,14.660969364281785,-2.27877600092967,14.699796561427704,-2.269916796049143,-0.14289039999999997,-0.057747586666666684,-0.20758485333333343,0.4082228400000001,0.25854191441893076,0.6186450798608617,0.6186450798608617,0.6186450798608617
LBP05_S03,LBP05,-1606,45,3,44,-1606,1715766772.76,2024-05-15 09:52:52.760000+00:00,2024-05-15 18:52:52.760000+09:00,2024,5,15,9,52,52,760,,,,,,,,,-0.148193,-0.140137,0.187256,-6.835938,-24.841309,-9.765625,,,,,,,,,,,0.0,1.0,1.0,3.0,0.0,0.0,0.0,5.0,0.0,-0.15945317333333334,-0.19790362666666667,0.9847623600000001,-3.0948893466666663,-0.8699544133333335,1.9409179333333335,-6.275092093873889,-4.079479808261517,-1.4696368474216905,-13.709611343704132,3.535463024354845,4.427855620387316,14.834380586562988,-2.252362135639184,14.834766729022908,-2.2711294341212227,0.011260173333333345,0.057766626666666654,-0.7975063600000001,0.8665331600000001,0.7996750395631919,0.6412738248236529,0.6412738248236529,0.6412738248236529
LBP05_S03,LBP05,-1605,46,3,45,-1605,1715766772.8,2024-05-15 09:52:52.800000+00:00,2024-05-15 18:52:52.800000+09:00,2024,5,15,9,52,52,800,,,,,,,,,0.232178,-0.032959,0.578125,-16.845703,-66.467285,-9.155273,,,,,,,,,,,0.0,1.0,1.0,3.0,0.0,0.0,0.0,5.0,0.0,-0.15677088,-0.19917316,0.9897721333333332,-2.405598986666667,-1.4762369733333334,1.8969726266666664,-5.982035108526011,-1.710012429165854,-0.42046395410195525,-13.948892748045173,3.4670625271882107,4.4110370622232375,15.034938624025271,-2.2412551513027315,14.967836202848028,-2.275008245800205,0.38894888,0.16621416,-0.41164713333333325,0.9668101733333333,0.5902217724036543,0.6356013745547642,0.6356013745547642,0.6356013745547642
LBP05_S03,LBP05,-1604,47,3,46,-1604,1715766772.84,2024-05-15 09:52:52.840000+00:00,2024-05-15 18:52:52.840000+09:00,2024,5,15,9,52,52,840,,,,,,,,,0.308838,-0.379395,1.130371,-2.319336,14.465332,0.549316,,,,,,,,,,,0.0,1.0,1.0,3.0,0.0,0.0,0.0,5.0,0.0,-0.16365564,-0.19965168,1.0100813733333334,-1.949869813333333,-1.8261718666666664,2.1166991866666667,-5.245687340903869,1.045780556587466,0.35578989836207553,-14.158720241681328,3.508893749451709,4.42526865815772,15.243513273652201,-2.2604826992725764,15.08608578309764,-2.274599089635075,0.47249364,-0.17974331999999998,0.12028962666666665,0.7725265866666666,0.5196416988740203,0.6240054069866898,0.6240054069866898,0.6240054069866898
LBP05_S03,LBP05,-1603,48,3,47,-1603,1715766772.88,2024-05-15 09:52:52.880000+00:00,2024-05-15 18:52:52.880000+09:00,2024,5,15,9,52,52,880,,,,,,,,,-0.476074,-0.205566,1.711426,42.053223,60.668945,8.789062,,,,,,,,,,,0.0,1.0,1.0,3.0,0.0,0.0,0.0,5.0,0.0,-0.16839848,-0.20430337333333332,1.02702148,-1.6007487199999997,-1.6805012933333334,2.44710284,-4.013356450645133,3.7164827264368605,0.46263769610075844,-14.319254499707133,3.6575530585091838,4.4437741660017505,15.432623647378218,-2.2631691536623344,15.17394401926047,-2.269518798978145,-0.30767552,-0.001262626666666683,0.68440452,0.9933426666666666,0.7503834798486705,0.6354943227014153,0.6354943227014153,0.6354943227014153
LBP05_S03,LBP05,-1602,49,3,48,-1602,1715766772.92,2024-05-15 09:52:52.920000+00:00,2024-05-15 18:52:52.920000+09:00,2024,5,15,9,52,52,920,,,,,,,,,-0.624512,-0.55957,1.849854,-36.804199,-52.55127,7.629395,,,,,,,,,,,0.0,1.0,1.0,3.0,0.0,0.0,0.0,5.0,0.0,-0.17402998666666666,-0.2063574,1.0304036399999998,-2.262369813333333,-0.3849283866666665,2.3925780933333334,-2.1967641033991536,5.907267040172428,-0.3346178302461164,-14.4071250638431,3.893843740116081,4.430389452791906,15.567775126236473,-2.274173304790754,15.214891108484903,-2.2635800006871927,-0.45048201333333326,-0.3532126,0.8194503600000003,1.6231449733333334,0.9995959571945774,0.6658361255758455,0.6658361255758455,0.6658361255758455
LBP05_S03,LBP05,-1601,50,3,49,-1601,1715766772.96,2024-05-15 09:52:52.960000+00:00,2024-05-15 18:52:52.960000+09:00,2024,5,15,9,52,52,960,,,,,,,,,-0.168945,-0.09375,1.623291,55.908203,-10.803223,17.456055,,,,,,,,,,,0.0,1.0,1.0,3.0,0.0,0.0,0.0,5.0,0.0,-0.17787764,-0.20105793333333336,1.0156803333333333,-2.101237,-0.3686523466666664,1.6479491866666667,0.29326648638737035,7.387021553155728,-1.9983363206158782,-14.395394404387606,4.18932460224231,4.350455999967271,15.611030974553792,-2.2971405182335247,15.194324065917822,-2.2593111510110098,0.008932639999999992,0.10730793333333336,0.6076106666666667,0.7238512400000001,0.61707820157639,0.6620855160374257,0.6620855160374257,0.6620855160374257
LBP05_S03,LBP05,-1600,51,3,50,-1600,1715766773.0,2024-05-15 09:52:53+00:00,2024-05-15 18:52:53+09:00,2024,5,15,9,52,53,0,9.0,52.0,52.0,40.560139,141.517715,21.072001,3.0,16.0,-0.252197,-0.207764,0.83374,-42.419434,130.554199,12.268066,-525.0,43.0,557.0,0.0,0.0,1023.599976,19.540001,0.105044,-85.766052,3.951562,0.0,1.0,1.0,3.0,0.0,0.0,0.0,3.0,0.0,-0.17124352,-0.20034505333333333,0.99870768,-2.794596373333333,-1.1206054799999998,1.3777668933333334,3.4619563189053277,8.13440340642316,-4.191493302831945,-14.256916151631392,4.514700738499236,4.182796267853993,15.528617631045813,-2.2806258541219644,15.10230165851856,-2.2595239639906834,-0.08095348,-0.007418946666666676,-0.16496767999999995,0.2533401066666666,0.1839098750430102,0.6279301131092533,0.6279301131092533,0.6279301131092533
LBP05_S03,LBP05,-1599,52,3,51,-1599,1715766773.04,2024-05-15 09:52:53.040000+00:00,2024-05-15 18:52:53.040000+09:00,2024,5,15,9,52,53,40,,,,,,,,,-0.186523,-0.174805,0.097412,-42.053223,-14.587402,-27.282715,,,,,,,,,,,0.0,1.0,1.0,3.0,0.0,0.0,0.0,3.0,0.0,-0.16163089333333333,-0.20304037333333333,0.9886132799999999,-2.5594075599999995,-1.2280273466666665,1.4152017866666666,7.134854945053476,8.313781280548245,-6.3573592177860165,-13.971521953829253,4.847251989721166,3.928501899142552,15.30138571273057,-2.246767944669178,14.935026193421773,-2.262927137129801,-0.024892106666666663,0.02823537333333334,-0.89120128,0.94432876,0.891995837857563,0.6455344947591406,0.6455344947591406,0.6455344947591406
LBP05_S03,LBP05,-1598,53,3,52,-1598,1715766773.08,2024-05-15 09:52:53.080000+00:00,2024-05-15 18:52:53.080000+09:00,2024,5,15,9,52,53,80,,,,,,,,,0.257812,-0.180664,0.583252,-14.526367,-90.454102,-24.963379,,,,,,,,,,,0.0,1.0,1.0,3.0,0.0,0.0,0.0,3.0,0.0,-0.15905276,-0.20219728,0.9927604133333333,-0.24414063999999996,-1.379394533333333,1.9889322533333333,10.920079696647822,8.172074088410278,-7.885369269845045,-13.53471876596334,5.174134953257577,3.6130871283487505,14.933676144381911,-2.2410472442500105,14.694818067240098,-2.26811369194095,0.41686475999999995,0.021533280000000016,-0.4095084133333333,0.8479064533333333,0.5847538378396504,0.6417357037016724,0.6417357037016724,0.6417357037016724
LBP05_S03,LBP05,-1597,54,3,53,-1597,1715766773.12,2024-05-15 09:52:53.120000+00:00,2024-05-15 18:52:53.120000+09:00,2024,5,15,9,52,53,120,,,,,,,,,0.323486,-0.309814,0.994629,82.580566,5.432129,-30.029297,,,,,,,,,,,0.0,1.0,1.0,3.0,0.0,0.0,0.0,3.0,0.0,-0.16259442666666668,-0.20890952000000002,1.0144759066666666,0.7869465999999999,-1.362304693333333,2.8613280933333334,14.281754386969176,7.894958882668279,-8.30088549569825,-12.963448590484573,5.489933308564309,3.2810517085208204,14.45529893861098,-2.2360875041678385,14.38927507246421,-2.2707970957738755,0.4860804266666667,-0.10090447999999996,-0.019846906666666664,0.6068318133333332,0.49683980816431617,0.6332124157288869,0.6332124157288869,0.6332124157288869
LBP05_S03,LBP05,-1596,55,3,54,-1596,1715766773.16,2024-05-15 09:52:53.160000+00:00,2024-05-15 18:52:53.160000+09:00,2024,5,15,9,52,53,160,,,,,,,,,-0.362549,-0.1521,1.504395,52.124023,63.171387,-1.586914,,,,,,,,,,,0.0,1.0,1.0,3.0,0.0,0.0,0.0,3.0,0.0,-0.1680762,-0.20768230666666665,1.0315364533333333,1.2296549333333333,-1.2711588666666664,3.10872392,16.710274822916904,7.505776306811019,-7.403078307281652,-12.295037597567896,5.79016436083675,2.9849285762295543,13.914156512570353,-2.2544902654359227,14.030534283907155,-2.268817297230472,-0.1944728,0.05558230666666664,0.4728585466666666,0.7229136533333332,0.5142997840850602,0.6266061584153408,0.6266061584153408,0.6266061584153408
LBP05_S03,LBP05,-1595,56,3,55,-1595,1715766773.2,2024-05-15 09:52:53.200000+00:00,2024-05-15 18:52:53.200000+09:00,2024,5,15,9,52,53,200,,,,,,,,,-0.568848,-0.548584,1.736328,-1.220703,-35.27832,6.04248,,,,,,,,,,,0.0,1.0,1.0,3.0,0.0,0.0,0.0,3.0,0.0,-0.17317385333333332,-0.20482749333333333,1.0407194,1.03922524,0.25878904000000025,2.688802053333333,17.900715595499832,6.8742855242363134,-5.302223429192488,-11.579008973747904,6.065135781806203,2.772839639061855,13.362183973057439,-2.2752868826939108,13.63490594333555,-2.265071876638065,-0.39567414666666667,-0.34375650666666663,0.6956086000000001,1.4350392533333334,0.8709752525818544,0.6394676896872626,0.6394676896872626,0.6394676896872626
LBP05_S03,LBP05,-1594,57,3,56,-1594,1715766773.24,2024-05-15 09:52:53.240000+00:00,2024-05-15 18:52:53.240000+09:00,2024,5,15,9,52,53,240,,,,,,,,,-0.172852,-0.055664,1.514648,49.926758,-6.835938,8.666992,,,,,,,,,,,0.0,1.0,1.0,3.0,0.0,0.0,0.0,3.0,0.0,-0.18326174666666667,-0.20069012,1.0310839866666668,0.32796221333333336,1.6406249733333336,1.8929036266666666,17.837193605718568,5.8289170403681405,-2.3586108166964235,-10.86552122951916,6.298292463420928,2.6784952063939977,12.841432011835442,-2.31234824738406,13.22225799855939,-2.2625664439627777,0.010409746666666664,0.14502612,0.4835640133333332,0.6389998799999999,0.5049505850070466,0.6327418344532518,0.6327418344532518,0.6327418344532518
LBP05_S03,LBP05,-1593,58,3,57,-1593,1715766773.28,2024-05-15 09:52:53.280000+00:00,2024-05-15 18:52:53.280000+09:00,2024,5,15,9,52,53,280,,,,,,,,,-0.281982,-0.142822,0.787598,-26.184082,120.544434,9.94873,,,,,,,,,,,0.0,1.0,1.0,3.0,0.0,0.0,0.0,3.0,0.0,-0.17886070666666667,-0.20522788,1.0152018266666667,-0.6111653866666668,0.49967445333333366,1.4184570133333336,16.743875273511566,4.301509232548916,0.933722977869207,-10.195766218578697,6.4703528327228845,2.715844125508766,12.377193699619315,-2.29000319199159,12.814301657743618,-2.2656675249488103,-0.10312129333333334,0.06240588,-0.22760382666666668,0.393131,0.25754998914894917,0.6148755561054279,0.6148755561054279,0.6148755561054279
LBP05_S03,LBP05,-1592,59,3,58,-1592,1715766773.32,2024-05-15 09:52:53.320000+00:00,2024-05-15 18:52:53.320000+09:00,2024,5,15,9,52,53,320,,,,,,,,,-0.163574,-0.156494,0.072998,-43.151855,-13.48877,-9.460449,,,,,,,,,,,0.0,1.0,1.0,3.0,0.0,0.0,0.0,3.0,0.0,-0.16805341333333335,-0.20778322666666668,1.0040267066666666,0.05289710666666655,0.29541013333333355,1.7301432133333332,14.94978025436969,2.4171811877132066,4.066989372925516,-9.597775008403909,6.567040080231413,2.8785237004257866,11.980367240665931,-2.2543753193567184,12.431653125235346,-2.2711120326381646,0.004479413333333349,0.05128922666666669,-0.9310287066666666,0.9867973466666666,0.9324511260936315,0.6293108092867099,0.6293108092867099,0.6293108092867099
LBP05_S03,LBP05,-1591,60,3,59,-1591,1715766773.36,2024-05-15 09:52:53.360000+00:00,2024-05-15 18:52:53.360000+09:00,2024,5,15,9,52,53,360,,,,,,,,,0.090332,-0.195557,0.523926,30.151367,-79.223633,-3.78418,,,,,,,,,,,0.0,1.0,1.0,3.0,0.0,0.0,0.0,3.0,0.0,-0.16465172,-0.20124677333333335,1.0002311333333334,-0.09440106666666678,0.6689452933333336,1.7049153466666667,12.760844010268707,0.47267398369873403,6.612792497526123,-9.08734124799316,6.585947039579362,3.1430354003268315,11.654747568837761,-2.259686312309459,12.090610487912148,-2.2803782008028604,0.25498372,0.005689773333333342,-0.47630513333333335,0.7369786266666667,0.5402921904167296,0.6254404345532325,0.6254404345532325,0.6254404345532325
LBP05_S03,LBP05,-1590,61,3,60,-1590,1715766773.4,2024-05-15 09:52:53.400000+00:00,2024-05-15 18:52:53.400000+09:00,2024,5,15,9,52,53,400,,,,,,,,,0.261963,-0.010498,0.89209,51.208496,-10.314941,6.469727,,,,,,,,,,,0.0,1.0,1.0,3.0,0.0,0.0,0.0,3.0,0.0,-0.16643882666666665,-0.20520510666666666,1.0149479333333333,0.5159504933333333,-0.281575533333333,2.048339826666667,10.41073773163177,-1.185309980613034,8.284669642582715,-8.67091173872789,6.5385346403548406,3.4744221860301403,11.402138183284212,-2.2555715273690886,11.801083332643868,-2.285683564584679,0.42840182666666665,0.19470710666666666,-0.12285793333333328,0.7459668666666666,0.4863466400220928,0.6196448597811016,0.6196448597811016,0.6196448597811016
LBP05_S03,LBP05,-1589,62,3,61,-1589,1715766773.44,2024-05-15 09:52:53.440000+00:00,2024-05-15 18:52:53.440000+09:00,2024,5,15,9,52,53,440,,,,,,,,,-0.329346,-0.209229,1.463379,32.836914,42.907715,31.311035,,,,,,,,,,,0.0,1.0,1.0,3.0,0.0,0.0,0.0,3.0,0.0,-0.17143882666666668,-0.20170901333333335,1.03332032,2.0068359200000003,-0.6974283866666663,2.438151026666667,8.09003338253603,-2.3033732068139874,8.976662859991064,-8.347310403426448,6.446399712082281,3.833488700429783,11.221822304572852,-2.277778754529505,11.566635091993774,-2.285493647169732,-0.15790717333333334,-0.007519986666666645,0.4300586799999999,0.5954858399999999,0.4581939478353381,0.6131868233032711,0.6131868233032711,0.6131868233032711
LBP05_S03,LBP05,-1588,63,3,62,-1588,1715766773.48,2024-05-15 09:52:53.480000+00:00,2024-05-15 18:52:53.480000+09:00,2024,5,15,9,52,53,480,,,,,,,,,-0.542725,-0.273682,1.723877,-11.413574,-37.29248,12.451172,,,,,,,,,,,0.0,1.0,1.0,3.0,0.0,0.0,0.0,3.0,0.0,-0.17688153333333334,-0.20056969333333333,1.0431185066666666,1.4168294,0.23030598666666702,2.465820293333333,5.989210429700435,-2.800936797540969,8.775349824291856,-8.10774198623843,6.334362240180642,4.184502693401457,11.107190819299175,-2.295492321143556,11.386440283907882,-2.281415088070834,-0.3658434666666667,-0.07311230666666665,0.6807584933333335,1.1197142666666668,0.7762853713256971,0.60810529974224,0.6194598443810567,0.6194598443810567
LBP05_S03,LBP05,-1587,64,3,63,-1587,1715766773.52,2024-05-15 09:52:53.520000+00:00,2024-05-15 18:52:53.520000+09:00,2024,5,15,9,52,53,520,,,,,,,,,-0.22583,-0.210205,1.589355,30.090332,-35.949707,9.70459,,,,,,,,,,,0.0,1.0,1.0,3.0,0.0,0.0,0.0,3.0,0.0,-0.18601565333333334,-0.19688805333333334,1.03287436,0.4654947599999999,1.6129557200000002,2.0353190000000003,4.28842126662919,-2.7556550587530526,7.931836718822755,-7.936205135573263,6.22413603783052,4.501776162154368,11.044872565378984,-2.3287491858147926,11.257849496029973,-2.279513044291724,-0.03981434666666667,-0.013316946666666662,0.55648064,0.6096119333333333,0.5580620269860922,0.6082847530889107,0.6171858511442062,0.6171858511442062
LBP05_S03,LBP05,-1586,65,3,64,-1586,1715766773.56,2024-05-15 09:52:53.560000+00:00,2024-05-15 18:52:53.560000+09:00,2024,5,15,9,52,53,560,,,,,,,,,-0.251221,-0.183838,0.864502,-18.981934,105.773926,7.324219,,,,,,,,,,,0.0,1.0,1.0,3.0,0.0,0.0,0.0,3.0,0.0,-0.1825098,-0.20189456,1.0156575733333333,-1.8481445733333335,0.20589192000000034,1.81966144,3.0831112725512595,-2.3252307992302463,6.787080833766586,-7.812880684671213,6.13112680586131,4.773259395505031,11.018884959887579,-2.3075439032541145,11.177954990957492,-2.2828922436453527,-0.06871120000000003,0.01805656,-0.1511555733333333,0.23792333333333332,0.16701878850656984,0.5968105871171985,0.6011084560500048,0.6011084560500048
LBP05_S03,LBP05,-1585,66,3,65,-1585,1715766773.6,2024-05-15 09:52:53.600000+00:00,2024-05-15 18:52:53.600000+09:00,2024,5,15,9,52,53,600,,,,,,,,,-0.187012,0.083252,0.054932,-83.984375,-0.427246,-25.20752,,,,,,,,,,,0.0,1.0,1.0,3.0,0.0,0.0,0.0,3.0,0.0,-0.17231774666666666,-0.20470706666666666,1.0027181200000002,-0.31494145333333334,0.10253905333333364,2.1964518,2.3003406825375388,-1.6660469355928678,5.66847072456105,-7.720867057369711,6.0644849284375955,4.999998224487473,11.017701566556495,-2.2733877085444325,11.143342353434875,-2.2860300923757957,-0.014694253333333351,0.28795906666666665,-0.9477861200000002,1.25043944,0.9906739496026009,0.6093207352030399,0.6145417489311289,0.6145417489311289
LBP05_S03,LBP05,-1584,67,3,66,-1584,1715766773.64,2024-05-15 09:52:53.640000+00:00,2024-05-15 18:52:53.640000+09:00,2024,5,15,9,52,53,640,,,,,,,,,0.029297,-0.443604,0.458252,-0.793457,-76.11084,-3.662109,,,,,,,,,,,0.0,1.0,1.0,3.0,0.0,0.0,0.0,3.0,0.0,-0.1679362266666667,-0.20022138666666667,0.9986718933333333,1.4233398,0.748697906666667,2.501627586666667,1.6894645195203188,-0.9031575924374132,4.798622114810319,-7.653288476588898,6.028358624740099,5.191943109079886,11.039483930976523,-2.2715626563950844,11.148540430365234,-2.2926840570645117,0.19723322666666668,-0.24338261333333333,-0.5404198933333333,0.9810357333333333,0.6246516655582685,0.5965320950221833,0.6148787461520335,0.6148787461520335
LBP05_S03,LBP05,-1583,68,3,67,-1583,1715766773.68,2024-05-15 09:52:53.680000+00:00,2024-05-15 18:52:53.680000+09:00,2024,5,15,9,52,53,680,,,,,,,,,0.309082,-0.114258,0.826172,73.059082,-18.249512,10.437012,,,,,,,,,,,0.0,1.0,1.0,3.0,0.0,0.0,0.0,3.0,0.0,-0.16969730666666666,-0.20256514666666667,1.01072268,1.0970051600000001,-0.44514975999999973,2.9459635333333334,0.9381311631325298,-0.16223951655028435,4.257998014265455,-7.615763230063597,6.0218690440780875,5.362263029650504,11.091285820840216,-2.270982754200493,11.18455204916223,-2.296065037790118,0.4787793066666667,0.08830714666666667,-0.18455067999999997,0.7516371333333333,0.5206598987180447,0.595801945546878,0.6118394284928725,0.6118394284928725
LBP05_S03,LBP05,-1582,69,3,68,-1582,1715766773.72,2024-05-15 09:52:53.720000+00:00,2024-05-15 18:52:53.720000+09:00,2024,5,15,9,52,53,720,,,,,,,,,-0.23584,-0.126709,1.421631,22.705078,59.204102,26.550293,,,,,,,,,,,0.0,1.0,1.0,3.0,0.0,0.0,0.0,3.0,0.0,-0.17738936,-0.20428065333333334,1.0304883066666668,1.7163085333333334,-1.0913086133333332,3.172200506666667,-0.1232623998957245,0.38203882402680345,4.015058727895969,-7.620693726059426,6.03715059703916,5.522865378766342,11.18142218994112,-2.288167312893005,11.23873841811317,-2.295313708517254,-0.05845064,0.07757165333333335,0.3911426933333333,0.5271649866666667,0.40302164366858817,0.6015811347168644,0.6053138727171137,0.6053138727171137
LBP05_S03,LBP05,-1581,70,3,69,-1581,1715766773.76,2024-05-15 09:52:53.760000+00:00,2024-05-15 18:52:53.760000+09:00,2024,5,15,9,52,53,760,,,,,,,,,-0.659424,-0.454834,1.73877,30.822754,-24.291992,13.549805,,,,,,,,,,,0.0,1.0,1.0,3.0,0.0,0.0,0.0,3.0,0.0,-0.18077152,-0.2069304,1.041308626666667,1.2508137466666664,-0.6469726799999995,3.229166653333334,-1.3518817984604785,0.5001419761066153,3.9972132224524244,-7.6747689979978455,6.0571562760834246,5.6827539076644396,11.308621193611586,-2.2910647996138866,11.296475081019368,-2.2893942403038694,-0.47865248000000005,-0.24790360000000003,0.697461373333333,1.4240174533333332,0.8814855408882947,0.6048535547698684,0.6136827111465434,0.6136827111465434
LBP05_S03,LBP05,-1580,71,3,70,-1580,1715766773.8,2024-05-15 09:52:53.800000+00:00,2024-05-15 18:52:53.800000+09:00,2024,5,15,9,52,53,800,,,,,,,,,-0.384766,-0.076172,1.619629,35.339355,-56.335449,4.699707,,,,,,,,,,,0.0,1.0,1.0,3.0,0.0,0.0,0.0,3.0,0.0,-0.18887373333333335,-0.20270189333333336,1.0353874,-0.24007166666666668,0.8764648133333338,3.0249023333333334,-2.2894738338932883,-0.0362567930276515,4.152528283456614,-7.766347951353577,6.055706004362318,5.8488550390027045,11.4541189525878,-2.3221111742562464,11.343961377474859,-2.285699044127432,-0.19589226666666665,0.12652989333333337,0.5842415999999999,0.9066637599999999,0.6290642584166652,0.6064072542103889,0.6141351095956646,0.6141351095956646
LBP05_S03,LBP05,-1579,72,3,71,-1579,1715766773.84,2024-05-15 09:52:53.840000+00:00,2024-05-15 18:52:53.840000+09:00,2024,5,15,9,52,53,840,,,,,,,,,-0.237793,-0.225098,1.006592,-71.533203,94.970703,3.90625,,,,,,,,,,,0.0,1.0,1.0,3.0,0.0,0.0,0.0,3.0,0.0,-0.18652673333333336,-0.20462897333333332,1.0181608400000002,-2.659505253333333,-0.327148466666666,2.434082013333333,-2.3682454083440794,-1.3614725820321705,4.464117701295867,-7.86107776768734,6.001247101081032,6.027419747054539,11.581938492542804,-2.31158856178557,11.370890762366676,-2.286365523493842,-0.05126626666666664,-0.020469026666666668,-0.011568840000000247,0.08330413333333356,0.05640079085938505,0.5878776178898034,0.5981998433460567,0.5981998433460567
LBP05_S03,LBP05,-1578,73,3,72,-1578,1715766773.88,2024-05-15 09:52:53.880000+00:00,2024-05-15 18:52:53.880000+09:00,2024,5,15,9,52,53,880,,,,,,,,,-0.168213,-0.21582,0.0979,-87.097168,7.019043,-15.930176,,,,,,,,,,,0.0,1.0,1.0,3.0,0.0,0.0,0.0,3.0,0.0,-0.17715824,-0.20415046666666667,1.0007357066666667,-2.7596029066666667,-0.8007812799999995,2.500813786666667,-1.2342019970046034,-3.431651026894518,4.9162487018057295,-7.910445847567525,5.863981060005251,6.224069695126769,11.649054508808602,-2.2879790284149117,11.37177624802381,-2.290106558621866,0.008945239999999993,-0.011669533333333343,-0.9028357066666667,0.9234504800000001,0.9029554299959521,0.5939804958956947,0.6066652763085538,0.6066652763085538
LBP05_S03,LBP05,-1577,74,3,73,-1577,1715766773.92,2024-05-15 09:52:53.920000+00:00,2024-05-15 18:52:53.920000+09:00,2024,5,15,9,52,53,920,,,,,,,,,0.110352,-0.13916,0.51123,-38.574219,-76.965332,-4.516602,,,,,,,,,,,0.0,1.0,1.0,3.0,0.0,0.0,0.0,3.0,0.0,-0.16880862666666666,-0.20215175999999999,0.9895931333333332,-1.32975264,-0.7576497733333328,2.7303059733333335,0.9957757158536508,-5.994459740066125,5.446019533906263,-7.870614818933379,5.624202670402607,6.441910476483019,11.62223919444094,-2.2695545036809484,11.345599988493221,-2.29460961818305,0.27916062666666663,0.06299175999999998,-0.47836313333333325,0.8205155199999998,0.5574315246210139,0.5762939185927521,0.6053346343710526,0.6053346343710526
LBP05_S03,LBP05,-1576,75,3,74,-1576,1715766773.96,2024-05-15 09:52:53.960000+00:00,2024-05-15 18:52:53.960000+09:00,2024,5,15,9,52,53,960,,,,,,,,,0.270996,-0.325928,0.95459,54.504395,4.455566,-2.502441,,,,,,,,,,,0.0,1.0,1.0,3.0,0.0,0.0,0.0,3.0,0.0,-0.1672591466666667,-0.19982429333333335,0.9941862399999999,-0.7950846666666668,-1.7732747733333327,3.047688786666667,3.709959026688,-8.634595156667316,5.92470162632983,-7.7222164578658585,5.278818864135914,6.6788985415362125,11.49374792444249,-2.2705919414897417,11.294550299174373,-2.2985920978481693,0.4382551466666667,-0.12610370666666665,-0.03959623999999984,0.6039550933333332,0.4577527505510282,0.5699209005517377,0.6014509005863152,0.6014509005863152
LBP05_S03,LBP05,-1575,76,3,75,-1575,1715766774.0,2024-05-15 09:52:54+00:00,2024-05-15 18:52:54+09:00,2024,5,15,9,52,54,0,9.0,52.0,53.0,40.560246,141.517685,21.132999,3.0,16.0,-0.252686,-0.134766,1.514893,79.772949,48.64502,25.146484,-528.0,42.0,557.0,0.0,0.0,1023.5,19.6,0.104053,-84.940964,3.951562,0.0,1.0,1.0,3.0,0.0,0.0,0.0,6.0,0.0,-0.17400069333333332,-0.20381844000000002,1.0139258133333333,-0.28889977333333355,-2.2705078399999996,3.2275390533333335,6.0452517955903815,-10.87719787210667,6.193021438875198,-7.480406386042243,4.843730949251647,6.92661939909122,11.286995415474689,-2.2800525022085334,11.22305574242416,-2.300050559208762,-0.0786853066666667,0.06905244000000002,0.5009671866666667,0.6487049333333335,0.5117887641125936,0.583036056114521,0.5991518714459634,0.5991518714459634
LBP05_S03,LBP05,-1574,77,3,76,-1574,1715766774.04,2024-05-15 09:52:54.040000+00:00,2024-05-15 18:52:54.040000+09:00,2024,5,15,9,52,54,40,,,,,,,,,-0.69751,-0.554443,1.752197,7.141113,-60.241699,23.986816,,,,,,,,,,,0.0,1.0,1.0,3.0,0.0,0.0,0.0,6.0,0.0,-0.17967452,-0.19813158666666666,1.0264258133333335,0.07486975999999981,-2.4609375333333325,3.1844075466666673,7.2671385567292095,-12.308025763462323,6.136871170746431,-7.189720843773075,4.351409918713154,7.172094245921078,11.048338787547857,-2.3089730076753177,11.137761881147949,-2.2957143697568965,-0.51783548,-0.3563114133333334,0.7257711866666665,1.59991808,0.9601329194512441,0.5857615393782682,0.6081763976460954,0.6081763976460954
LBP05_S03,LBP05,-1573,78,3,77,-1573,1715766774.08,2024-05-15 09:52:54.080000+00:00,2024-05-15 18:52:54.080000+09:00,2024,5,15,9,52,54,80,,,,,,,,,-0.283691,-0.087158,1.618164,72.265625,-84.655762,14.160156,,,,,,,,,,,0.0,1.0,1.0,3.0,0.0,0.0,0.0,6.0,0.0,-0.18382490666666668,-0.19978849333333332,1.02292972,-0.7763672133333336,-1.7439779066666659,3.1404622266666666,7.075625357235178,-12.673321163613753,5.758650774268642,-6.906695829483668,3.844477072168604,7.402440276891824,10.829523225534329,-2.31601334981234,11.0480578378391,-2.292212655863642,-0.09986609333333335,0.11263049333333332,0.5952342799999999,0.8077308666666665,0.6139728924906135,0.5869303015643068,0.6083177755691325,0.6083177755691325
LBP05_S03,LBP05,-1572,79,3,78,-1572,1715766774.12,2024-05-15 09:52:54.120000+00:00,2024-05-15 18:52:54.120000+09:00,2024,5,15,9,52,54,120,,,,,,,,,-0.150879,-0.063232,0.912354,-31.005859,82.214355,3.173828,,,,,,,,,,,0.0,1.0,1.0,3.0,0.0,0.0,0.0,6.0,0.0,-0.18240237333333334,-0.19337573333333333,1.0015885733333332,-1.2817383066666668,-1.5543620133333325,2.383626293333333,5.6839249315412665,-11.9325394368224,5.197384221773265,-6.679338832222017,3.367175494695708,7.6103356457627545,10.670925296752642,-2.327992109544196,10.966096009869213,-2.2926509603958074,0.03152337333333333,0.13014373333333334,-0.08923457333333318,0.25090167999999985,0.16091588942746612,0.5734933448148327,0.5976653497086166,0.5976653497086166
LBP05_S03,LBP05,-1571,80,3,79,-1571,1715766774.16,2024-05-15 09:52:54.160000+00:00,2024-05-15 18:52:54.160000+09:00,2024,5,15,9,52,54,160,,,,,,,,,-0.233887,-0.053467,0.107178,-86.547852,20.996094,-13.85498,,,,,,,,,,,0.0,1.0,1.0,3.0,0.0,0.0,0.0,6.0,0.0,-0.17317385333333335,-0.19230150666666668,0.9816146133333334,-2.197265653333333,-1.3354492533333326,2.30061848,3.659726719211708,-10.25265078276614,4.681136094721642,-6.532949763453549,2.9570694633850625,7.79758108955162,10.59367562610944,-2.305649413219814,10.905419431109527,-2.297122861044729,-0.06071314666666666,0.1388345066666667,-0.8744366133333334,1.0739842666666668,0.8874685893919934,0.5884200970271101,0.6044049599338114,0.6044049599338114
LBP05_S03,LBP05,-1570,81,3,80,-1570,1715766774.2,2024-05-15 09:52:54.200000+00:00,2024-05-15 18:52:54.200000+09:00,2024,5,15,9,52,54,200,,,,,,,,,-0.057129,-0.290039,0.364258,-17.456055,-83.068848,-12.451172,,,,,,,,,,,0.0,1.0,1.0,3.0,0.0,0.0,0.0,6.0,0.0,-0.1678288,-0.1971485066666667,0.9692383066666668,-2.06868492,-1.5364583733333328,2.6025390533333335,1.6515246201292622,-7.9597912144384235,4.437241580543429,-6.466888778648379,2.6386778148075254,7.975070752773358,10.60118033982569,-2.2787492797375903,10.878238489141637,-2.3036081193597564,0.1106998,-0.0928904933333333,-0.6049803066666668,0.8085706000000001,0.6220002097477494,0.5784610953137459,0.6048048519750373,0.6048048519750373
LBP05_S03,LBP05,-1569,82,3,81,-1569,1715766774.24,2024-05-15 09:52:54.240000+00:00,2024-05-15 18:52:54.240000+09:00,2024,5,15,9,52,54,240,,,,,,,,,0.375244,-0.137695,0.771484,24.780273,-39.489746,2.624512,,,,,,,,,,,0.0,1.0,1.0,3.0,0.0,0.0,0.0,6.0,0.0,-0.16273114666666666,-0.19196946666666667,0.9717285466666665,-0.30436199999999985,-2.5512695733333324,3.046874986666667,0.16551418429762774,-5.473678381854943,4.609879974505692,-6.460268211276474,2.4197306795333278,8.159465951753585,10.684898059454296,-2.276571422853029,10.892495402782696,-2.3092981575427265,0.5379751466666667,0.05427446666666666,-0.20024454666666658,0.79249416,0.5765941853962034,0.5813268393293122,0.6041779482732854,0.6041779482732854
LBP05_S03,LBP05,-1568,83,3,82,-1568,1715766774.28,2024-05-15 09:52:54.280000+00:00,2024-05-15 18:52:54.280000+09:00,2024,5,15,9,52,54,280,,,,,,,,,0.039795,-0.4021,1.362305,40.649414,71.533203,23.742676,,,,,,,,,,,0.0,1.0,1.0,3.0,0.0,0.0,0.0,6.0,0.0,-0.16755862666666665,-0.19124354666666665,0.9894629200000001,-1.0880533999999997,-1.8953450933333325,3.4627278533333334,-0.50997325338643,-3.2283760906070946,5.224390104883444,-6.480667141411931,2.290595635909044,8.368441555948923,10.829436229109744,-2.292362073736563,10.950262301544726,-2.3106145550238324,0.20735362666666665,-0.21085645333333336,0.37284207999999996,0.79105216,0.4758856869279196,0.590060267240471,0.6013889860701253,0.6013889860701253
LBP05_S03,LBP05,-1567,84,3,83,-1567,1715766774.32,2024-05-15 09:52:54.320000+00:00,2024-05-15 18:52:54.320000+09:00,2024,5,15,9,52,54,320,,,,,,,,,-0.726318,-0.178711,1.605713,12.023926,-3.173828,12.634277,,,,,,,,,,,0.0,1.0,1.0,3.0,0.0,0.0,0.0,6.0,0.0,-0.17792646666666667,-0.19406581333333334,1.0026269866666666,-1.3769531466666665,-1.8986003066666661,3.447265613333334,-0.2584952892915545,-1.5724500477782117,6.202584110431493,-6.491006952983593,2.2276976339979155,8.616544920366183,11.015473406844098,-2.3142735101701657,11.048266493104398,-2.3099269036593855,-0.5483915333333333,0.015354813333333328,0.6030860133333333,1.16683236,0.8152801871764574,0.585373429683784,0.6059398626894089,0.6059398626894089
LBP05_S03,LBP05,-1566,85,3,84,-1566,1715766774.36,2024-05-15 09:52:54.360000+00:00,2024-05-15 18:52:54.360000+09:00,2024,5,15,9,52,54,360,,,,,,,,,-0.279541,-0.449219,1.656738,49.987793,-62.37793,20.141602,,,,,,,,,,,0.0,1.0,1.0,3.0,0.0,0.0,0.0,6.0,0.0,-0.18436201333333335,-0.19245773333333333,1.0033822,-1.5275065333333333,-2.055664106666666,3.3007812399999996,0.9263770300451044,-0.667649807899636,7.40082450641055,-6.453951871781789,2.20099164168193,8.912577900622605,11.221938504763596,-2.3354445246400126,11.179932721070111,-2.306862215680316,-0.09517898666666663,-0.25676126666666665,0.6533558000000002,1.0052960533333335,0.7084202064853916,0.5920985503265306,0.6080748698518252,0.6080748698518252
LBP05_S03,LBP05,-1565,86,3,85,-1565,1715766774.4,2024-05-15 09:52:54.400000+00:00,2024-05-15 18:52:54.400000+09:00,2024,5,15,9,52,54,400,,,,,,,,,-0.14917,-0.026855,0.969238,-34.729004,73.547363,7.141113,,,,,,,,,,,0.0,1.0,1.0,3.0,0.0,0.0,0.0,6.0,0.0,-0.18231774666666667,-0.18973313333333333,0.9842643600000001,-3.1103515866666664,-1.4567057733333328,2.9101562533333336,2.930240352556558,-0.42997477844550686,8.637076924327175,-6.336742257679527,2.1837926505441096,9.258060977595692,11.429564551885255,-2.336952884038233,11.337532824025056,-2.3071819779119744,0.03314774666666667,0.16287813333333334,-0.015026360000000016,0.21105224000000003,0.16689473006083275,0.5793204739280802,0.5990711935295601,0.5990711935295601
LBP05_S03,LBP05,-1564,87,3,86,-1564,1715766774.44,2024-05-15 09:52:54.440000+00:00,2024-05-15 18:52:54.440000+09:00,2024,5,15,9,52,54,440,,,,,,,,,-0.346924,0.164062,0.14917,-53.405762,42.297363,-22.338867,,,,,,,,,,,0.0,1.0,1.0,3.0,0.0,0.0,0.0,6.0,0.0,-0.17603518666666668,-0.18891608,0.9620508133333334,-4.3554687733333335,-1.2882487333333328,2.400716146666667,5.433910421533638,-0.5496804166316223,9.696473407794288,-6.119385840818181,2.1618054338788446,9.645919913907463,11.626007775168167,-2.3221369824863767,11.51360105235835,-2.3132218065986367,-0.17088881333333333,0.35297807999999997,-0.8128808133333334,1.3367477066666666,0.9025362752645585,0.5970941670252489,0.60514049516426,0.60514049516426
LBP05_S03,LBP05,-1563,88,3,87,-1563,1715766774.48,2024-05-15 09:52:54.480000+00:00,2024-05-15 18:52:54.480000+09:00,2024,5,15,9,52,54,480,,,,,,,,,-0.069336,-0.360596,0.369873,-50.78125,-71.350098,-4.577637,,,,,,,,,,,0.0,1.0,1.0,3.0,0.0,0.0,0.0,6.0,0.0,-0.17237633333333333,-0.19006842666666668,0.9468620133333333,-4.5597330933333335,-1.9978841466666661,2.07926432,7.84608524499736,-0.5995812745595998,10.336621734928277,-5.805542431018286,2.1378221828964605,10.059384783304594,11.809565141131063,-2.3091368361678755,11.701945898139622,-2.3214035143347607,0.10304033333333333,-0.17052757333333335,-0.5769890133333333,0.85055692,0.6104205804752764,0.5904595753912321,0.599282437566736,0.6052440262487897
LBP05_S03,LBP05,-1562,89,3,88,-1562,1715766774.52,2024-05-15 09:52:54.520000+00:00,2024-05-15 18:52:54.520000+09:00,2024,5,15,9,52,54,520,,,,,,,,,0.388916,-0.490723,0.756348,26.428223,-59.082031,16.357422,,,,,,,,,,,0.0,1.0,1.0,3.0,0.0,0.0,0.0,6.0,0.0,-0.16562177333333336,-0.18712245333333333,0.9471094133333332,-2.460123706666667,-3.7329101866666656,1.9392903733333333,9.365857397315944,-0.20220825514106008,10.326054434200351,-5.430908135125648,2.1297338526908183,10.472426960672609,11.987587576409766,-2.2973452297534993,11.898921655861088,-2.3275120542541146,0.5545377733333333,-0.3036005466666667,-0.19076141333333319,1.0488997333333332,0.6603600160569392,0.594551494954066,0.6014181240214884,0.6063039491297157
LBP05_S03,LBP05,-1561,90,3,89,-1561,1715766774.56,2024-05-15 09:52:54.560000+00:00,2024-05-15 18:52:54.560000+09:00,2024,5,15,9,52,54,560,,,,,,,,,0.039551,0.132324,1.065918,115.356445,55.908203,35.339355,,,,,,,,,,,0.0,1.0,1.0,3.0,0.0,0.0,0.0,6.0,0.0,-0.1667904,-0.18395838666666667,0.9641569466666667,-2.2583007866666662,-2.8100586266666663,2.4869791733333333,9.214938394126888,0.8160122424249862,9.526499190102426,-5.062310599360573,2.162374342387818,10.853486928276705,12.169676655658886,-2.3088470355364032,12.104818382710757,-2.330981852445049,0.2063414,0.31628238666666664,0.10176105333333318,0.6243848399999998,0.39110949035408527,0.6035151230279666,0.6001628550725825,0.6022436763226283
LBP05_S03,LBP05,-1560,91,3,90,-1560,1715766774.6,2024-05-15 09:52:54.600000+00:00,2024-05-15 18:52:54.600000+09:00,2024,5,15,9,52,54,600,,,,,,,,,-0.539795,-0.480957,1.647217,-12.695312,18.676758,33.02002,,,,,,,,,,,0.0,1.0,1.0,3.0,0.0,0.0,0.0,6.0,0.0,-0.17934898666666665,-0.18579106666666667,0.9777799866666667,-2.5683593866666663,-2.276204453333333,2.4576822933333333,6.953093464679153,2.3614802975662337,7.9855634071092965,-4.784186860773406,2.256833554290467,11.172909464561076,12.361862623158645,-2.339147566604209,12.324388506146501,-2.331294651086415,-0.36044601333333337,-0.29516593333333335,0.6694370133333333,1.3250489600000002,0.8155919148379811,0.5965118416373819,0.6029162884202108,0.6061945696284682
LBP05_S03,LBP05,-1559,92,3,91,-1559,1715766774.64,2024-05-15 09:52:54.640000+00:00,2024-05-15 18:52:54.640000+09:00,2024,5,15,9,52,54,640,,,,,,,,,-0.469238,-0.193848,1.601318,35.705566,-66.345215,12.573242,,,,,,,,,,,0.0,1.0,1.0,3.0,0.0,0.0,0.0,6.0,0.0,-0.18596030666666666,-0.18511724,0.9844759466666666,-4.291992199999999,-3.198242213333333,2.4609375066666668,2.710101743655375,4.128508149496711,5.9780169694940035,-4.675782791027191,2.4219738802703357,11.412030143340836,12.568346517267004,-2.358388500214265,12.565704668866072,-2.328841864699777,-0.2832776933333333,-0.008730760000000004,0.6168420533333334,0.9088505066666668,0.6788347342843577,0.5986791643864254,0.5976056297043043,0.6075152998949389
LBP05_S03,LBP05,-1558,93,3,92,-1558,1715766774.68,2024-05-15 09:52:54.680000+00:00,2024-05-15 18:52:54.680000+09:00,2024,5,15,9,52,54,680,,,,,,,,,-0.109131,0.022705,1.205078,4.333496,37.658691,-9.82666,,,,,,,,,,,0.0,1.0,1.0,3.0,0.0,0.0,0.0,6.0,0.0,-0.18421877333333334,-0.18527022666666668,0.9747754133333333,-5.434570320000001,-2.5455729466666663,2.2493489600000003,-2.8007808466283888,5.73707932641435,3.9504072279573696,-4.787814024892326,2.6514570533269097,11.570046432459131,12.799193806324404,-2.353447472930107,12.83760527669568,-2.3282269515723195,0.07508777333333333,0.20797522666666668,0.2303025866666668,0.5133655866666669,0.31926658145907943,0.5906234316960668,0.5932126886214724,0.6023680013514415
LBP05_S03,LBP05,-1557,94,3,93,-1557,1715766774.72,2024-05-15 09:52:54.720000+00:00,2024-05-15 18:52:54.720000+09:00,2024,5,15,9,52,54,720,,,,,,,,,-0.564453,0.329346,0.150635,-22.155762,118.286133,-32.226562,,,,,,,,,,,0.0,1.0,1.0,3.0,0.0,0.0,0.0,6.0,0.0,-0.17739585333333333,-0.18006840000000002,0.9544498933333333,-6.30859376,-1.8432617466666663,1.6292317733333335,-8.507620107798829,6.885521992282747,2.378722143545453,-5.128118829204279,2.9268779330182197,11.665195318200949,13.074440675340794,-2.34897149207951,13.146923455067071,-2.331356960290427,-0.3870571466666667,0.5094144,-0.8038148933333333,1.7002864400000002,1.0273434909793218,0.6155963055884961,0.6085887201526802,0.6098237116957902
LBP05_S03,LBP05,-1556,95,3,94,-1556,1715766774.76,2024-05-15 09:52:54.760000+00:00,2024-05-15 18:52:54.760000+09:00,2024,5,15,9,52,54,760,,,,,,,,,-0.036621,-0.468506,0.293945,-130.981445,-51.696777,-10.925293,,,,,,,,,,,0.0,1.0,1.0,3.0,0.0,0.0,0.0,6.0,0.0,-0.17511720000000003,-0.18163090666666667,0.9397298533333335,-6.966145839999999,-2.481282573333333,1.3151041733333335,-13.34289901243488,7.447216675566328,1.6037731946244866,-5.6618347897016745,3.224766600040873,11.729346245985928,13.417639739121018,-2.3385725110536733,13.496781948448367,-2.337048876675932,0.1384962,-0.2868750933333333,-0.6457848533333335,1.0711561466666668,0.7200809630758223,0.6091401224759972,0.6069968386229329,0.6117246987885494
LBP05_S03,LBP05,-1555,96,3,95,-1555,1715766774.8,2024-05-15 09:52:54.800000+00:00,2024-05-15 18:52:54.800000+09:00,2024,5,15,9,52,54,800,,,,,,,,,0.294922,-0.317139,0.698975,14.587402,-59.020996,13.549805,,,,,,,,,,,0.0,1.0,1.0,3.0,0.0,0.0,0.0,6.0,0.0,-0.16700197333333333,-0.18285486666666667,0.9395215199999999,-6.476236986666667,-4.2097982,0.9879557466666667,-16.58135896410612,7.465927597369177,1.7239061311345698,-6.325089148265919,3.52340370393564,11.798302491231311,13.84272617908097,-2.312425020171852,13.886536393501908,-2.340663586108392,0.46192397333333335,-0.13428413333333333,-0.24054651999999987,0.8367546266666666,0.5378369770564765,0.6054910312215896,0.6059491427159892,0.6104723645219041
LBP05_S03,LBP05,-1554,97,3,96,-1554,1715766774.84,2024-05-15 09:52:54.840000+00:00,2024-05-15 18:52:54.840000+09:00,2024,5,15,9,52,54,840,,,,,,,,,0.071777,-0.079834,1.052734,0.244141,38.574219,9.765625,,,,,,,,,,,0.0,1.0,1.0,3.0,0.0,0.0,0.0,6.0,0.0,-0.16683921333333335,-0.18130864,0.9554850666666668,-5.375162773333333,-3.156738293333333,0.9985351733333334,-18.01032902058679,7.064950206020913,2.589356955922581,-7.0455023090893905,3.8060017121764766,11.901876769468215,14.345013853464254,-2.315987851211799,14.312947588872623,-2.3416349821721587,0.23861621333333333,0.10147463999999999,0.09724893333333329,0.4373397866666666,0.2769334845466318,0.6143123389690796,0.6010949784294415,0.6049133831889829
LBP05_S03,LBP05,-1553,98,3,97,-1553,1715766774.88,2024-05-15 09:52:54.880000+00:00,2024-05-15 18:52:54.880000+09:00,2024,5,15,9,52,54,880,,,,,,,,,-0.519043,-0.3125,1.570801,9.460449,40.588379,20.812988,,,,,,,,,,,0.0,1.0,1.0,3.0,0.0,0.0,0.0,6.0,0.0,-0.17745118666666665,-0.18333337333333333,0.9698861066666666,-5.928548186666667,-2.447102879999999,0.7763672133333334,-17.888965120133197,6.340241404425541,3.8844109766689567,-7.761060913894719,4.059611368353498,12.057253208534974,14.902746924844969,-2.3404369233489524,14.771502908609984,-2.3413226905970683,-0.3415918133333334,-0.12916662666666667,0.6009148933333333,1.0716733333333333,0.703183968397042,0.6063214805051231,0.6001509882004089,0.606524376389115
LBP05_S03,LBP05,-1552,99,3,98,-1552,1715766774.92,2024-05-15 09:52:54.920000+00:00,2024-05-15 18:52:54.920000+09:00,2024,5,15,9,52,54,920,,,,,,,,,-0.554932,-0.232666,1.595947,4.516602,-63.049316,6.835938,,,,,,,,,,,0.0,1.0,1.0,3.0,0.0,0.0,0.0,6.0,0.0,-0.18597984,-0.18672530666666667,0.9781673600000002,-6.107584639999999,-3.44645184,0.5655924666666667,-16.767245552815055,5.304097315632167,5.243430997410925,-8.43175073600732,4.271775260978785,12.266990448431411,15.486172510222719,-2.354264393608551,15.257027076597472,-2.3386607358134057,-0.36895216,-0.04594069333333334,0.6177796399999999,1.032672493333333,0.721032542449467,0.6128655212182612,0.5945797199055067,0.6083712822933143
LBP05_S03,LBP05,-1551,100,3,99,-1551,1715766774.96,2024-05-15 09:52:54.960000+00:00,2024-05-15 18:52:54.960000+09:00,2024,5,15,9,52,54,960,,,,,,,,,-0.223877,-0.187012,1.343262,19.287109,0.0,10.498047,,,,,,,,,,,0.0,1.0,1.0,3.0,0.0,0.0,0.0,6.0,0.0,-0.18295249333333333,-0.18724938666666666,0.97208988,-6.352539066666666,-3.2299804933333327,0.2563476800000001,-15.286661783920877,3.8989274604613597,6.345807970893107,-9.043217207364155,4.42773235939724,12.520822767267136,16.067221106194303,-2.3449941298610035,15.763622885366521,-2.3352967474876754,-0.040924506666666666,0.00023738666666664465,0.37117212,0.4123340133333333,0.37342149678832626,0.6094922710677532,0.5897065858097454,0.6046419206186319
LBP05_S03,LBP05,-1550,101,3,100,-1550,1715766775.0,2024-05-15 09:52:55+00:00,2024-05-15 18:52:55+09:00,2024,5,15,9,52,55,0,9.0,52.0,54.0,40.560352,141.51767,21.107,3.0,16.0,-0.464844,0.247314,0.305664,-52.978516,118.530273,-12.695312,-527.0,43.0,557.0,0.0,0.0,1023.599976,19.67,0.105044,-85.766052,3.951562,0.0,1.0,1.0,3.0,0.0,0.0,0.0,5.0,0.0,-0.18081056,-0.18358076,0.9509407866666667,-5.7584635466666665,-1.914876333333333,-0.2262369599999999,-14.046910678470582,2.0598541545978777,6.963771867094036,-9.605093634502978,4.510126525581155,12.799373641950897,16.625974576865794,-2.3488615272418745,16.284605049778506,-2.336872834712435,-0.28403343999999997,0.43089476000000004,-0.6452767866666667,1.3602049866666666,0.8262732118643022,0.6220716489778215,0.6025538525461713,0.6081049095443455
LBP05_S03,LBP05,-1549,102,3,101,-1549,1715766775.04,2024-05-15 09:52:55.040000+00:00,2024-05-15 18:52:55.040000+09:00,2024,5,15,9,52,55,40,,,,,,,,,-0.088135,-0.557861,0.258057,-166.259766,-55.969238,-2.563477,,,,,,,,,,,0.0,1.0,1.0,3.0,0.0,0.0,0.0,5.0,0.0,-0.17897137333333332,-0.17931644000000002,0.9337240000000001,-6.3557942800000005,-2.1997070666666665,-0.7267252399999999,-13.536948244887535,-0.2163340547110053,6.971409273205328,-10.14657156429848,4.501473163392715,13.07823001287911,17.153899714640612,-2.355265584463361,16.812762083352784,-2.3422966489170607,0.09083637333333332,-0.37854456000000003,-0.6756670000000001,1.1450479333333334,0.7797904369219634,0.6148579496766504,0.6003097445274593,0.610746225350155
LBP05_S03,LBP05,-1548,103,3,102,-1548,1715766775.08,2024-05-15 09:52:55.080000+00:00,2024-05-15 18:52:55.080000+09:00,2024,5,15,9,52,55,80,,,,,,,,,0.203613,-0.543213,0.721191,78.674316,-56.274414,11.84082,,,,,,,,,,,0.0,1.0,1.0,3.0,0.0,0.0,0.0,5.0,0.0,-0.17158856,-0.18236005333333333,0.93235356,-6.636555986666666,-4.200846386666665,-1.0921223733333334,-14.064901867888356,-2.8389552070543234,6.341248579326323,-10.709167639014014,4.387914955110542,13.331879956052164,17.6544354861993,-2.3268279250934794,17.340512442650475,-2.3461531142440686,0.37520156,-0.3608529466666666,-0.21116256,0.9472170666666666,0.5617656864656325,0.6127696614356511,0.5998499814999789,0.6100040959731168
LBP05_S03,LBP05,-1547,104,3,103,-1547,1715766775.12,2024-05-15 09:52:55.120000+00:00,2024-05-15 18:52:55.120000+09:00,2024,5,15,9,52,55,120,,,,,,,,,0.129639,0.063477,1.077637,89.72168,29.846191,11.535645,,,,,,,,,,,0.0,1.0,1.0,3.0,0.0,0.0,0.0,5.0,0.0,-0.16930340000000002,-0.18426109333333335,0.9477897466666667,-4.497070306666666,-3.4928385733333327,-0.8219400799999999,-15.641246803715859,-5.64054650491326,5.147323940778627,-11.334817511162647,4.162293094914012,13.537772913683309,18.14039876303125,-2.315331608822208,17.859461586284745,-2.3485794622480327,0.29894240000000005,0.24773809333333335,0.12984725333333325,0.6765277466666666,0.4093910485152384,0.622708667799162,0.5981010063069974,0.6070098713841933
LBP05_S03,LBP05,-1546,105,3,104,-1546,1715766775.16,2024-05-15 09:52:55.160000+00:00,2024-05-15 18:52:55.160000+09:00,2024,5,15,9,52,55,160,,,,,,,,,-0.443604,-0.181641,1.536133,-48.64502,32.165527,22.949219,,,,,,,,,,,0.0,1.0,1.0,3.0,0.0,0.0,0.0,5.0,0.0,-0.17885744,-0.17954754666666667,0.9634668266666667,-4.947916666666667,-2.4186198266666663,-0.9488932133333333,-17.865972968926528,-8.417545324276357,3.5697198805071486,-12.049456429919708,3.8255912819429576,13.680561708903594,18.627461383240888,-2.3543333833012676,18.359717954103388,-2.349365219524901,-0.26474655999999996,-0.0020934533333333283,0.5726661733333333,0.8395061866666665,0.6309054363840397,0.6124461416788438,0.6004331193529769,0.6073612767518379
LBP05_S03,LBP05,-1545,106,3,105,-1545,1715766775.2,2024-05-15 09:52:55.200000+00:00,2024-05-15 18:52:55.200000+09:00,2024,5,15,9,52,55,200,,,,,,,,,-0.670166,-0.299561,1.603027,3.295898,-74.462891,5.249023,,,,,,,,,,,0.0,1.0,1.0,3.0,0.0,0.0,0.0,5.0,0.0,-0.18860678666666666,-0.18455730666666667,0.9758333600000001,-6.2215169333333336,-3.140462266666666,-1.1987304533333332,-19.941947344230545,-10.9638509834393,1.8771424410442015,-12.84713432368893,3.3870372426053854,13.755647406545362,19.12429651482376,-2.3666631622181074,18.82996809804263,-2.3486050117339365,-0.4815592133333334,-0.11500369333333335,0.6271936399999999,1.2237565466666667,0.799060065003236,0.6195285358890633,0.5989948156014046,0.6101395200598293
LBP05_S03,LBP05,-1544,107,3,106,-1544,1715766775.24,2024-05-15 09:52:55.240000+00:00,2024-05-15 18:52:55.240000+09:00,2024,5,15,9,52,55,240,,,,,,,,,-0.126953,-0.263184,1.315674,-25.817871,-41.992188,-7.263184,,,,,,,,,,,0.0,1.0,1.0,3.0,0.0,0.0,0.0,5.0,0.0,-0.18703777333333335,-0.1876758,0.9743066666666665,-6.460774746666667,-2.9760742533333326,-1.5332031066666665,-20.891979708652222,-13.087626295697993,0.3688807051265217,-13.68281351203502,2.8635321907774656,13.770402634750424,19.622517446441176,-2.3545525044818834,19.258864761655023,-2.3477905569575093,0.06008477333333334,-0.07550819999999997,0.34136733333333347,0.4769603066666668,0.35474402675854777,0.610654529543557,0.5959906844364347,0.6064910130126681
LBP05_S03,LBP05,-1543,108,3,107,-1543,1715766775.28,2024-05-15 09:52:55.280000+00:00,2024-05-15 18:52:55.280000+09:00,2024,5,15,9,52,55,280,,,,,,,,,-0.299072,0.017822,0.487549,-61.096191,99.67041,-14.526367,,,,,,,,,,,0.0,1.0,1.0,3.0,0.0,0.0,0.0,5.0,0.0,-0.18660157333333335,-0.18333661333333334,0.95425132,-6.336263026666666,-1.1140950933333331,-1.8212890533333332,-19.927492173997233,-14.616124082459239,-0.7152824736530397,-14.47991319899491,2.278887227479096,13.741791335804303,20.09223836118765,-2.364700403388592,19.637239298176638,-2.348543125356413,-0.11247042666666665,0.20115861333333335,-0.46670232,0.78033136,0.5205049856496611,0.6124393014924268,0.6012497843664488,0.6052799422047385
LBP05_S03,LBP05,-1542,109,3,108,-1542,1715766775.32,2024-05-15 09:52:55.320000+00:00,2024-05-15 18:52:55.320000+09:00,2024,5,15,9,52,55,320,,,,,,,,,-0.126709,-0.25,0.108643,-137.268066,-38.696289,-30.395508,,,,,,,,,,,0.0,1.0,1.0,3.0,0.0,0.0,0.0,5.0,0.0,-0.18365234666666666,-0.18140626666666668,0.9366211066666666,-6.78385416,-0.8968099333333331,-2.01904296,-16.80723436313586,-15.402237662504863,-1.278283146090411,-15.152202573520343,1.6627977209789016,13.690660009960686,20.488736188409128,-2.362121966377237,19.960094635568147,-2.354322923461033,0.05694334666666667,-0.06859373333333332,-0.8279781066666666,0.9535151866666666,0.8327637060424299,0.6131386422470656,0.5992560359654249,0.6084394389247064
LBP05_S03,LBP05,-1541,110,3,109,-1541,1715766775.36,2024-05-15 09:52:55.360000+00:00,2024-05-15 18:52:55.360000+09:00,2024,5,15,9,52,55,360,,,,,,,,,0.048096,-0.226807,0.400635,13.549805,-74.768066,4.577637,,,,,,,,,,,0.0,1.0,1.0,3.0,0.0,0.0,0.0,5.0,0.0,-0.17660808,-0.18363282666666667,0.9364127733333334,-7.1110026,-2.35839848,-2.2281900933333336,-12.004169596643548,-15.352637048942379,-1.3938632176700212,-15.632369357386086,1.0486922390212063,13.634905481253885,20.76972254558674,-2.3373920519513556,20.227659146633037,-2.3603470892473655,0.22470408,-0.04317417333333334,-0.5357777733333333,0.8036560266666667,0.5825922718417125,0.6081055248613185,0.6001020375939244,0.6080853681427476
LBP05_S03,LBP05,-1540,111,3,110,-1540,1715766775.4,2024-05-15 09:52:55.400000+00:00,2024-05-15 18:52:55.400000+09:00,2024,5,15,9,52,55,400,,,,,,,,,0.385254,-0.149902,0.74292,76.782227,-31.677246,11.71875,,,,,,,,,,,0.0,1.0,1.0,3.0,0.0,0.0,0.0,5.0,0.0,-0.17686198666666667,-0.18262372000000002,0.95430992,-4.712727853333333,-1.52913416,-2.018229146666666,-6.581010182434384,-14.477656759840777,-1.2553476729946131,-15.895609764683462,0.4695859686275753,13.5846915743341,20.91494121298972,-2.3407169794776004,20.445509418970772,-2.363026666402514,0.5621159866666666,0.03272172000000001,-0.21138992,0.8062276266666666,0.601440596986606,0.6254873595383493,0.6024039167332148,0.6079955739379348
LBP05_S03,LBP05,-1539,112,3,111,-1539,1715766775.44,2024-05-15 09:52:55.440000+00:00,2024-05-15 18:52:55.440000+09:00,2024,5,15,9,52,55,440,,,,,,,,,-0.122803,0.026855,1.29126,31.494141,46.630859,29.846191,,,,,,,,,,,0.0,1.0,1.0,3.0,0.0,0.0,0.0,5.0,0.0,-0.1880338666666667,-0.18547853333333333,0.9700749066666666,-4.415690093333334,-0.6795247866666665,-2.2054036266666666,-1.8255615501114708,-12.926885857200224,-1.06752284546905,-15.968632226687921,-0.04748946566043366,13.541990660515337,20.937645079856747,-2.3627912684523986,20.62426355388934,-2.3638630840324595,0.06523086666666669,0.21233353333333332,0.32118509333333345,0.5987494933333335,0.3905130721543702,0.6050064314139418,0.6010502992195954,0.6050958072474873
LBP05_S03,LBP05,-1538,113,3,112,-1538,1715766775.48,2024-05-15 09:52:55.480000+00:00,2024-05-15 18:52:55.480000+09:00,2024,5,15,9,52,55,480,,,,,,,,,-0.688477,-0.413086,1.572021,-16.418457,-21.240234,1.037598,,,,,,,,,,,0.0,1.0,1.0,3.0,0.0,0.0,0.0,5.0,0.0,-0.19679687999999998,-0.18551108,0.9799674800000001,-4.739583333333333,-1.8546549866666666,-2.2762044133333332,1.176300230478757,-10.971576486317725,-0.9424055041176652,-15.92158021746877,-0.48635252511314264,13.50429444035063,20.88298886011439,-2.3846259061396795,20.77929830161075,-2.3633903229017763,-0.49168012000000005,-0.22757492,0.5920535199999998,1.3113085599999998,0.8025378839410704,0.6126911235525736,0.6015753494719028,0.6037519995620153
LBP05_S03,LBP05,-1537,114,3,113,-1537,1715766775.52,2024-05-15 09:52:55.520000+00:00,2024-05-15 18:52:55.520000+09:00,2024,5,15,9,52,55,520,,,,,,,,,-0.309326,-0.056396,1.550781,18.859863,-81.054688,-2.319336,,,,,,,,,,,0.0,1.0,1.0,3.0,0.0,0.0,0.0,5.0,0.0,-0.19473306666666668,-0.18705078666666666,0.9761523733333335,-5.852864586666667,-1.5096029066666665,-2.7832031066666665,1.8399471219080272,-8.932914581432168,-0.8606452003586461,-15.84798233259245,-0.8436691083704294,13.469868632336285,20.816043873680176,-2.375573266685533,20.930404260837935,-2.360756429400362,-0.11459293333333331,0.13065478666666666,0.5746286266666665,0.8198763466666664,0.6003334675275643,0.6102900616113986,0.6024207782827323,0.6043754365514584
LBP05_S03,LBP05,-1536,115,3,114,-1536,1715766775.56,2024-05-15 09:52:55.560000+00:00,2024-05-15 18:52:55.560000+09:00,2024,5,15,9,52,55,560,,,,,,,,,-0.124023,-0.073975,0.890869,17.51709,71.166992,0.183105,,,,,,,,,,,0.0,1.0,1.0,3.0,0.0,0.0,0.0,5.0,0.0,-0.19098957333333333,-0.18135092,0.9551465199999999,-6.166178386666666,0.33447261333333356,-3.3593749733333333,0.15960502937783097,-7.088231951059132,-0.7209217406104109,-15.841598131417337,-1.1271983864127946,13.441031762711868,20.80596410661823,-2.3811291548527587,21.10069035691268,-2.3610490745681063,0.06696657333333333,0.10737592,-0.06427751999999987,0.23862001333333321,0.14193558298469588,0.600323105316623,0.6019191141722948,0.600216271820596
LBP05_S03,LBP05,-1535,116,3,115,-1535,1715766775.6,2024-05-15 09:52:55.600000+00:00,2024-05-15 18:52:55.600000+09:00,2024,5,15,9,52,55,600,,,,,,,,,-0.311035,0.263184,0.063232,-50.109863,48.278809,-41.381836,,,,,,,,,,,0.0,1.0,1.0,3.0,0.0,0.0,0.0,5.0,0.0,-0.18797525333333331,-0.18076173333333334,0.937793,-7.0865885466666665,0.7747395466666669,-3.8517252266666664,-3.4108704986178466,-5.595631920877224,-0.44592194609266994,-15.978032951362051,-1.3510236632478836,13.423194884868161,20.91183786400942,-2.3750273385175595,21.31403223885132,-2.3651399270920344,-0.12305974666666669,0.4439457333333333,-0.874561,1.44156648,0.9884778490768193,0.6072385426861766,0.6018751921617792,0.6043570398421995
LBP05_S03,LBP05,-1534,117,3,116,-1534,1715766775.64,2024-05-15 09:52:55.640000+00:00,2024-05-15 18:52:55.640000+09:00,2024,5,15,9,52,55,640,,,,,,,,,-0.050781,-0.293701,0.269043,-89.477539,-61.645508,-13.916016,,,,,,,,,,,0.0,1.0,1.0,3.0,0.0,0.0,0.0,5.0,0.0,-0.18169270666666668,-0.18411134666666668,0.93802412,-6.643066413333333,-0.5948893466666665,-4.288736946666666,-8.172925024561096,-4.474433923617917,-0.07846284271128622,-16.304949952344494,-1.5300010201926002,13.42005637115971,21.17286492365531,-2.349824893175049,21.59117230573694,-2.3699779384157376,0.13091170666666668,-0.10958965333333331,-0.66898112,0.90948248,0.6904227009423676,0.6077020613524969,0.6031906128694612,0.6009711069203686
LBP05_S03,LBP05,-1533,118,3,117,-1533,1715766775.68,2024-05-15 09:52:55.680000+00:00,2024-05-15 18:52:55.680000+09:00,2024,5,15,9,52,55,680,,,,,,,,,0.269531,-0.527832,0.62207,10.009766,-64.27002,7.629395,,,,,,,,,,,0.0,1.0,1.0,3.0,0.0,0.0,0.0,5.0,0.0,-0.17962238666666666,-0.18638998666666665,0.9546549733333334,-4.897460933333334,-0.036621119999999695,-4.2602538800000005,-13.376407586614524,-3.6558031436691123,0.19461599043919267,-16.840006255809076,-1.6762331459393647,13.427841010777277,21.60329795345948,-2.3383614683744476,21.945644680183438,-2.372444389496744,0.4491533866666667,-0.34144201333333335,-0.33258497333333337,1.1231803733333334,0.6549306663383464,0.6211286247476676,0.6058760282218673,0.6025180006635376
LBP05_S03,LBP05,-1532,119,3,118,-1532,1715766775.72,2024-05-15 09:52:55.720000+00:00,2024-05-15 18:52:55.720000+09:00,2024,5,15,9,52,55,720,,,,,,,,,0.072998,0.135254,0.975342,109.985352,40.344238,31.799316,,,,,,,,,,,0.0,1.0,1.0,3.0,0.0,0.0,0.0,5.0,0.0,-0.18840493333333333,-0.18497722666666666,0.97290692,-4.870605466666666,0.9936523200000003,-4.3847656,-18.321488848230562,-3.0690989012819045,0.10989030012627027,-17.5728658097383,-1.7989971019906408,13.432236622782328,22.19159714915659,-2.3650484180546796,22.381132617819496,-2.3727553167190307,0.2614029333333333,0.3202312266666667,0.002435080000000034,0.58406924,0.4133829480062229,0.5965702030287438,0.60608325430862,0.6045825477780347
LBP05_S03,LBP05,-1531,120,3,119,-1531,1715766775.76,2024-05-15 09:52:55.760000+00:00,2024-05-15 18:52:55.760000+09:00,2024,5,15,9,52,55,760,,,,,,,,,-0.510254,-0.085693,1.517334,-65.612793,24.353027,21.42334,,,,,,,,,,,0.0,1.0,1.0,3.0,0.0,0.0,0.0,5.0,0.0,-0.19932290666666666,-0.19037110666666665,0.98672528,-4.97070312,0.5314127333333336,-4.496256493333334,-22.39150664173136,-2.6994997573529496,-0.5533360162505311,-18.468526075407553,-1.9069770922847589,13.410103182132307,22.903141364973116,-2.378300577190636,22.89131373138104,-2.371723992571142,-0.31093109333333335,0.10467810666666665,0.5306087199999999,0.9462179199999999,0.6238439424702451,0.5927207222045205,0.600930422340259,0.6022381331501288
LBP05_S03,LBP05,-1530,121,3,120,-1530,1715766775.8,2024-05-15 09:52:55.800000+00:00,2024-05-15 18:52:55.800000+09:00,2024,5,15,9,52,55,800,,,,,,,,,-0.54541,-0.244629,1.56543,-38.513184,-66.711426,-10.314941,,,,,,,,,,,0.0,1.0,1.0,3.0,0.0,0.0,0.0,5.0,0.0,-0.20126301333333332,-0.18795248,0.9847526133333334,-5.966796866666666,0.3580728933333337,-4.781087226666666,-25.098512826959062,-2.5790497880439505,-1.874811878499822,-19.472466588485915,-2.010139083806517,13.335110706992314,23.686341881845912,-2.3890970927146373,23.462093069667656,-2.369165178120989,-0.34414698666666665,-0.05667652000000001,0.5806773866666667,0.9815008933333333,0.6773740500912969,0.5983022051259135,0.6018966181737515,0.6034001635192974
LBP05_S03,LBP05,-1529,122,3,121,-1529,1715766775.84,2024-05-15 09:52:55.840000+00:00,2024-05-15 18:52:55.840000+09:00,2024,5,15,9,52,55,840,,,,,,,,,-0.173828,-0.258789,1.187012,-13.61084,2.685547,-10.437012,,,,,,,,,,,0.0,1.0,1.0,3.0,0.0,0.0,0.0,5.0,0.0,-0.1980631466666667,-0.18559245333333335,0.9653580799999999,-6.19059244,1.5405273200000003,-4.936523426666666,-26.189061609157353,-2.724288878272937,-3.7717898200317066,-20.52002905285221,-2.1191106389374346,13.184239114191046,24.482368824321753,-2.387455779262458,24.07507908892747,-2.3690911933368093,0.02423514666666668,-0.07319654666666664,0.22165392000000006,0.3190856133333334,0.23468177822158834,0.5966121368729117,0.6054622379209956,0.5996006979105982
LBP05_S03,LBP05,-1528,123,3,122,-1528,1715766775.88,2024-05-15 09:52:55.880000+00:00,2024-05-15 18:52:55.880000+09:00,2024,5,15,9,52,55,880,,,,,,,,,-0.322754,-0.001221,0.277588,-76.660156,105.59082,-20.507812,,,,,,,,,,,0.0,1.0,1.0,3.0,0.0,0.0,0.0,5.0,0.0,-0.19481120000000002,-0.18243814666666666,0.9482942799999999,-6.587727853333334,1.7456054533333334,-5.350748693333333,-25.76500378575206,-3.0633931197795565,-6.055947332844588,-21.55062920428229,-2.241646363728617,12.942001220877263,25.237868236474945,-2.387735178362548,24.71078424199016,-2.3748541743614626,-0.12794279999999997,0.18121714666666666,-0.6707062799999999,0.9798662266666665,0.7064389063105786,0.5967423343894531,0.6015319074472881,0.5990147702634236
LBP05_S03,LBP05,-1527,124,3,123,-1527,1715766775.92,2024-05-15 09:52:55.920000+00:00,2024-05-15 18:52:55.920000+09:00,2024,5,15,9,52,55,920,,,,,,,,,-0.15332,-0.498291,0.183838,-130.187988,-39.916992,-30.578613,,,,,,,,,,,0.0,1.0,1.0,3.0,0.0,0.0,0.0,5.0,0.0,-0.18807292,-0.1845638,0.9465657733333334,-5.352376293333333,0.35807290666666697,-5.365397133333333,-24.313511900630793,-3.4029868649199293,-8.52199064587591,-22.52316968030752,-2.377765838325414,12.601121595042226,25.91785500929564,-2.365260025206649,25.350454755386608,-2.381052679424286,0.03475291999999999,-0.3137272,-0.7627277733333333,1.1112078933333334,0.8254611909002089,0.6009194803274829,0.606892500772872,0.5966929733794988
LBP05_S03,LBP05,-1526,125,3,124,-1526,1715766775.96,2024-05-15 09:52:55.960000+00:00,2024-05-15 18:52:55.960000+09:00,2024,5,15,9,52,55,960,,,,,,,,,0.105469,-0.180176,0.484131,40.588379,-64.025879,-6.652832,,,,,,,,,,,0.0,1.0,1.0,3.0,0.0,0.0,0.0,5.0,0.0,-0.18479166666666666,-0.18504230666666666,0.9603287866666667,-4.091796866666667,0.7307942666666669,-4.994303386666666,-22.5625757715672,-3.471722394243089,-11.009389280949339,-23.42567271117021,-2.516634734095138,12.160746023804252,26.513757489484394,-2.3555410103512227,25.97632892359236,-2.386838805433364,0.29026066666666667,0.004866306666666653,-0.4761977866666667,0.7713247599999999,0.5577089452219536,0.6082909782648279,0.6088916246662905,0.5959013832947729
LBP05_S03,LBP05,-1525,126,3,125,-1525,1715766776.0,2024-05-15 09:52:56+00:00,2024-05-15 18:52:56+09:00,2024,5,15,9,52,56,0,9.0,52.0,55.0,40.560448,141.517624,21.219,3.0,15.0,0.254395,0.013184,0.852295,115.05127,0.427246,1.77002,-525.0,56.0,553.0,0.0,0.0,1023.900024,19.73,0.108017,-88.241943,3.951562,0.0,1.0,1.0,3.0,0.0,0.0,0.0,3.0,0.0,-0.1938118533333333,-0.18666665333333335,0.9779166800000002,-3.546549466666667,1.8058268266666673,-5.044759106666667,-21.176502603583874,-3.032153624803827,-13.40588322157124,-24.272732815313567,-2.637920879087291,11.624510694941403,27.041698056607537,-2.3742874906757647,26.57096443145948,-2.389993260841638,0.4482068533333333,0.19985065333333335,-0.12562168000000018,0.7736791866666669,0.5065673434981284,0.595502743530181,0.6087871962540014,0.6002034828741745
LBP05_S03,LBP05,-1524,127,3,126,-1524,1715766776.04,2024-05-15 09:52:56.040000+00:00,2024-05-15 18:52:56.040000+09:00,2024,5,15,9,52,56,40,,,,,,,,,-0.27417,0.0625,1.375977,-26.916504,54.626465,13.793945,,,,,,,,,,,0.0,1.0,1.0,3.0,0.0,0.0,0.0,3.0,0.0,-0.20586263999999999,-0.18502928000000002,0.99046876,-4.03564452,1.4680989600000003,-5.3629557199999995,-20.42926656068769,-2.0011158785725685,-15.606282312668696,-25.089903477741075,-2.7179655142301935,11.000259402434654,27.529916454282244,-2.4074547034215845,27.116639979746274,-2.3891846412978017,-0.06830736000000004,0.24752928000000002,0.38550824000000006,0.7013448800000002,0.46319892378478783,0.5828390830046939,0.5988485163406722,0.5944861906865375
LBP05_S03,LBP05,-1523,128,3,127,-1523,1715766776.08,2024-05-15 09:52:56.080000+00:00,2024-05-15 18:52:56.080000+09:00,2024,5,15,9,52,56,80,,,,,,,,,-0.684082,-0.318115,1.60498,-37.780762,-50.415039,-27.160645,,,,,,,,,,,0.0,1.0,1.0,3.0,0.0,0.0,0.0,3.0,0.0,-0.20761069333333335,-0.18937172,0.9924739733333333,-5.4630533733333335,1.0839843733333336,-5.763346333333333,-20.046030853917966,-0.5130994903832125,-17.472016540437643,-25.891744711897793,-2.738489493845522,10.301378740817148,28.000003087423924,-2.400346519002682,27.595586574697656,-2.385210886196506,-0.4764713066666666,-0.12874328,0.6125060266666668,1.2177206133333334,0.7866151351994103,0.5918330609540451,0.602301361194848,0.5971776746513343
LBP05_S03,LBP05,-1522,129,3,128,-1522,1715766776.12,2024-05-15 09:52:56.120000+00:00,2024-05-15 18:52:56.120000+09:00,2024,5,15,9,52,56,120,,,,,,,,,-0.172363,-0.259277,1.496826,-46.691895,-63.720703,-29.785156,,,,,,,,,,,0.0,1.0,1.0,3.0,0.0,0.0,0.0,3.0,0.0,-0.20793296,-0.18091794666666666,0.9720475333333334,-5.475260413333333,2.3535156266666672,-6.358235666666666,-19.319464381047023,1.1021242287606692,-18.833345594474142,-26.664523287139673,-2.6944045246950954,9.548044917038181,28.45033883121412,-2.4229096781454564,27.991144281117982,-2.3843959597394937,0.03556996000000001,-0.07835905333333332,0.5247784666666666,0.6387074799999999,0.5317873657494276,0.5967289136434126,0.6097187907212873,0.5976436420858025
LBP05_S03,LBP05,-1521,130,3,129,-1521,1715766776.16,2024-05-15 09:52:56.160000+00:00,2024-05-15 18:52:56.160000+09:00,2024,5,15,9,52,56,160,,,,,,,,,-0.231934,-0.163574,0.776855,-33.569336,112.121582,-17.456055,,,,,,,,,,,0.0,1.0,1.0,3.0,0.0,0.0,0.0,3.0,0.0,-0.20319989333333335,-0.18169268,0.9544205866666667,-6.693522119999999,2.505696613333334,-6.813151026666666,-17.444697335435965,2.4198831984811315,-19.541080988653277,-27.36231118055711,-2.59760919675585,8.76640167749205,28.849496443644327,-2.409845131273378,28.28933605854329,-2.3879316913006985,-0.028734106666666648,0.018118679999999998,-0.17756558666666677,0.22441837333333342,0.18078571021834475,0.5787241245967848,0.5955851331378144,0.5931967877675796
LBP05_S03,LBP05,-1520,131,3,130,-1520,1715766776.2,2024-05-15 09:52:56.200000+00:00,2024-05-15 18:52:56.200000+09:00,2024,5,15,9,52,56,200,,,,,,,,,-0.057129,-0.158447,0.211914,-66.772461,17.39502,-40.466309,,,,,,,,,,,0.0,1.0,1.0,3.0,0.0,0.0,0.0,3.0,0.0,-0.1974414266666667,-0.18749346666666666,0.9483170666666668,-6.4152018,1.3557942800000005,-6.9816080666666664,-13.901480798804982,3.06407216199299,-19.537173631361302,-27.91837041250931,-2.4750463102761304,7.984914732237598,29.14309736471386,-2.381010897276276,28.48022307167546,-2.393069981937688,0.1403124266666667,0.02904646666666666,-0.7364030666666668,0.9057619600000002,0.7502138034580393,0.576770274134977,0.5981494050120201,0.5915866351125953
LBP05_S03,LBP05,-1519,132,3,131,-1519,1715766776.24,2024-05-15 09:52:56.240000+00:00,2024-05-15 18:52:56.240000+09:00,2024,5,15,9,52,56,240,,,,,,,,,-0.001953,-0.172852,0.410645,0.610352,-54.6875,-14.892578,,,,,,,,,,,0.0,1.0,1.0,3.0,0.0,0.0,0.0,3.0,0.0,-0.18897137333333333,-0.19233070666666668,0.9608431066666666,-4.908040333333332,0.477701826666667,-6.68538412,-8.708130133761282,2.8352292286375405,-18.900533134641154,-28.266695617859764,-2.361637141130629,7.228893406851952,29.27183477383554,-2.347718228249498,28.558764191158208,-2.3968522764537066,0.18701837333333332,0.01947870666666668,-0.5501981066666666,0.7566951866666666,0.5814406664116613,0.5858381397211015,0.5982463346323292,0.592606502864657
LBP05_S03,LBP05,-1518,133,3,132,-1518,1715766776.28,2024-05-15 09:52:56.280000+00:00,2024-05-15 18:52:56.280000+09:00,2024,5,15,9,52,56,280,,,,,,,,,0.32666,-0.234619,0.771973,10.559082,-9.094238,-14.587402,,,,,,,,,,,0.0,1.0,1.0,3.0,0.0,0.0,0.0,3.0,0.0,-0.1980078266666667,-0.18861,0.9787337333333332,-2.9402669066666665,1.5999348933333337,-6.632486986666667,-2.4517949877154477,1.77029772130404,-17.839444653589528,-28.36476741736838,-2.2908252322784675,6.515315620708371,29.193445300678253,-2.379585913792423,28.525329415785713,-2.396490058290147,0.5246678266666667,-0.046008999999999994,-0.20676073333333322,0.7774375599999999,0.5658119451449051,0.5876504181009112,0.600044859796669,0.5967166622779363
LBP05_S03,LBP05,-1517,134,3,133,-1517,1715766776.32,2024-05-15 09:52:56.320000+00:00,2024-05-15 18:52:56.320000+09:00,2024,5,15,9,52,56,320,,,,,,,,,-0.151367,-0.040527,1.270264,39.428711,65.490723,-8.666992,,,,,,,,,,,0.0,1.0,1.0,3.0,0.0,0.0,0.0,3.0,0.0,-0.2089258,-0.19045569333333334,0.9927213599999999,-3.0712890399999995,1.323242186666667,-6.877441413333333,3.893989163431518,0.12418651687524822,-16.63054596280226,-28.20900785083112,-2.2858577716034576,5.85009378219628,28.89977278354872,-2.4006173408186986,28.386118388611436,-2.3970649793660916,0.05755879999999999,0.14992869333333333,0.2775426400000002,0.4850301333333335,0.3206579884553797,0.5671661893974292,0.5901524158222474,0.5885594204427597
LBP05_S03,LBP05,-1516,135,3,134,-1516,1715766776.36,2024-05-15 09:52:56.360000+00:00,2024-05-15 18:52:56.360000+09:00,2024,5,15,9,52,56,360,,,,,,,,,-0.705566,-0.347412,1.604004,-11.352539,-26.000977,-20.446777,,,,,,,,,,,0.0,1.0,1.0,3.0,0.0,0.0,0.0,3.0,0.0,-0.21143556000000002,-0.19021481333333334,0.9953515733333332,-2.85156248,0.7682291600000003,-7.05729168,9.270995413627238,-1.6997013386753623,-15.52942384739674,-27.83816803428603,-2.353845825150472,5.22891682830041,28.422627620806036,-2.406923916721123,28.153512740138307,-2.390418181664378,-0.49413044,-0.15719718666666666,0.6086524266666667,1.2599800533333334,0.7995834063546658,0.5758458347779474,0.5919756798196328,0.5920166366552655
LBP05_S03,LBP05,-1515,136,3,135,-1515,1715766776.4,2024-05-15 09:52:56.400000+00:00,2024-05-15 18:52:56.400000+09:00,2024,5,15,9,52,56,400,,,,,,,,,-0.377686,-0.264893,1.513184,37.780762,-85.266113,-9.338379,,,,,,,,,,,0.0,1.0,1.0,3.0,0.0,0.0,0.0,3.0,0.0,-0.2106836,-0.18747718666666666,0.97830404,-3.3666992,1.7480468666666669,-7.342936213333334,12.837082701496975,-3.2385614539554264,-14.688452396443937,-27.324684726226153,-2.483388283308689,4.641378732442653,27.827109251435058,-2.412110435835945,27.84610675763123,-2.387024014567049,-0.16700240000000002,-0.07741581333333333,0.53487996,0.7792981733333334,0.5656673769711518,0.5744149059773292,0.5999511327578393,0.593074246481253
LBP05_S03,LBP05,-1514,137,3,136,-1514,1715766776.44,2024-05-15 09:52:56.440000+00:00,2024-05-15 18:52:56.440000+09:00,2024,5,15,9,52,56,440,,,,,,,,,-0.102295,-0.248535,1.007568,14.465332,59.143066,8.117676,,,,,,,,,,,0.0,1.0,1.0,3.0,0.0,0.0,0.0,3.0,0.0,-0.20404297333333335,-0.18474932,0.9598470133333332,-2.7758788933333336,2.076009106666667,-7.6603190266666665,14.172489359541498,-4.054681805957474,-14.112866410537713,-26.75778515184449,-2.645575555546988,4.0768640760211445,27.195568700557246,-2.403832521785991,27.488007973443537,-2.389561542755279,0.10174797333333335,-0.06378568000000001,0.0477209866666668,0.21325464000000016,0.12922289123426742,0.5639632987405251,0.5844848650772334,0.5886879657265719
LBP05_S03,LBP05,-1513,138,3,137,-1513,1715766776.48,2024-05-15 09:52:56.480000+00:00,2024-05-15 18:52:56.480000+09:00,2024,5,15,9,52,56,480,,,,,,,,,-0.38208,0.001465,0.137695,33.14209,61.340332,-23.742676,,,,,,,,,,,0.0,1.0,1.0,3.0,0.0,0.0,0.0,3.0,0.0,-0.20085286666666666,-0.18100908,0.9472981866666667,-3.1884765466666667,1.078287746666667,-8.150227880000001,13.347249537844997,-3.8006730750845454,-13.672301059478837,-26.223895170330692,-2.79760247855037,3.5299720336419913,26.607892815681197,-2.406095729762127,27.107044643175005,-2.395693859712827,-0.18122713333333332,0.18247407999999998,-0.8096031866666666,1.1733044,0.8494688832375707,0.565840538712385,0.5892658311324793,0.5896637458853969
LBP05_S03,LBP05,-1512,139,3,138,-1512,1715766776.52,2024-05-15 09:52:56.520000+00:00,2024-05-15 18:52:56.520000+09:00,2024,5,15,9,52,56,520,,,,,,,,,-0.087891,0.109619,0.298096,-14.709473,-57.312012,-27.832031,,,,,,,,,,,0.0,1.0,1.0,3.0,0.0,0.0,0.0,3.0,0.0,-0.19009114666666668,-0.18999345333333334,0.9535384266666665,-2.530110653333333,-0.909016933333333,-8.244628933333333,10.851993004503722,-2.272464115866325,-13.165560551244225,-25.789815450150545,-2.888501043185023,3.0033496115922222,26.124282346482858,-2.3564417011283223,26.731794758710997,-2.398160894102302,0.10220014666666669,0.2996124533333333,-0.6554424266666665,1.0572550266666665,0.7278854764630185,0.5709426190698033,0.590616340340601,0.5919280585450892
LBP05_S03,LBP05,-1511,140,3,139,-1511,1715766776.56,2024-05-15 09:52:56.560000+00:00,2024-05-15 18:52:56.560000+09:00,2024,5,15,9,52,56,560,,,,,,,,,0.30249,-0.412109,0.761719,-40.039062,-44.311523,-20.080566,,,,,,,,,,,0.0,1.0,1.0,3.0,0.0,0.0,0.0,3.0,0.0,-0.19156249333333333,-0.18388342666666666,0.9675618533333333,0.5314127866666671,0.6363932133333337,-8.38297528,7.432507322328809,0.5327265065136177,-12.413901211522044,-25.492515157257394,-2.8671919829244783,2.5067935631313407,25.775436618573526,-2.3759034603000893,26.387810536363894,-2.3978949660861835,0.49405249333333334,-0.22822557333333335,-0.2058428533333333,0.92812092,0.5818471094373678,0.5885390801279101,0.5944310927222667,0.5974591028241666
LBP05_S03,LBP05,-1510,141,3,140,-1510,1715766776.6,2024-05-15 09:52:56.600000+00:00,2024-05-15 18:52:56.600000+09:00,2024,5,15,9,52,56,600,,,,,,,,,-0.015625,-0.059326,1.212646,76.477051,52.67334,-4.943848,,,,,,,,,,,0.0,1.0,1.0,3.0,0.0,0.0,0.0,3.0,0.0,-0.20258137333333331,-0.18249345333333336,0.9802832133333333,-0.44840491999999965,1.157226546666667,-8.547363293333335,3.891536360225557,4.363774868026475,-11.34384537982811,-25.336853702848373,-2.6926409882034195,2.0530397479382163,25.562109522836895,-2.4063861791585732,26.093866175531268,-2.397066639904737,0.18695637333333331,0.12316745333333337,0.23236278666666654,0.5424866133333333,0.3226691366060137,0.5619067316290779,0.5845726371576273,0.5885523719842121
LBP05_S03,LBP05,-1509,142,3,141,-1509,1715766776.64,2024-05-15 09:52:56.640000+00:00,2024-05-15 18:52:56.640000+09:00,2024,5,15,9,52,56,640,,,,,,,,,-0.687256,-0.090088,1.634033,-34.606934,4.455566,-13.183594,,,,,,,,,,,0.0,1.0,1.0,3.0,0.0,0.0,0.0,3.0,0.0,-0.20882486666666666,-0.18704749333333331,0.9883366000000001,-0.7210286266666665,0.170898426666667,-8.583984399999999,0.916671569640464,8.711162735022167,-10.026766549873612,-25.300186840062754,-2.3441944788025326,1.6519690859432719,25.462201471150234,-2.4090413978249754,25.859290534248913,-2.3937016767731722,-0.4784311333333333,0.09695949333333331,0.6456964,1.2210870266666665,0.8094574316559422,0.5666681208576209,0.587185091105059,0.5910164488655144
LBP05_S03,LBP05,-1508,143,3,142,-1508,1715766776.68,2024-05-15 09:52:56.680000+00:00,2024-05-15 18:52:56.680000+09:00,2024,5,15,9,52,56,680,,,,,,,,,-0.422119,-0.48999,1.753662,-22.460938,-72.387695,-8.300781,,,,,,,,,,,0.0,1.0,1.0,3.0,0.0,0.0,0.0,3.0,0.0,-0.20530272000000002,-0.18575192000000001,0.98347332,-0.5851236666666664,1.0375976533333338,-8.763834666666668,-1.0337275169466629,12.885948580577178,-8.665250637022112,-25.34153594074062,-1.8287565355794455,1.3053590604623873,25.440946456038233,-2.404256257687174,25.68330313323235,-2.392507002044937,-0.21681628,-0.30423807999999997,0.7701886800000001,1.29124304,0.8560144341045116,0.5747114715682675,0.5979200481579676,0.5954878426706673
LBP05_S03,LBP05,-1507,144,3,143,-1507,1715766776.72,2024-05-15 09:52:56.720000+00:00,2024-05-15 18:52:56.720000+09:00,2024,5,15,9,52,56,720,,,,,,,,,-0.118164,-0.360596,1.307129,4.760742,71.533203,1.464844,,,,,,,,,,,0.0,1.0,1.0,3.0,0.0,0.0,0.0,3.0,0.0,-0.20188149333333336,-0.18506181333333332,0.9639062666666667,-1.4851887599999998,2.7718098933333337,-8.894856800000001,-1.778589781742083,16.179484029643703,-7.538427749470664,-25.412679532010305,-1.1815771743936974,1.0038219504835606,25.45993056007766,-2.397958060657518,25.556692750418154,-2.3936854293832455,0.08371749333333335,-0.1755341866666667,0.3432227333333333,0.6024744133333333,0.3944904486239804,0.5739557715929778,0.5852629873108608,0.5953740934034059
LBP05_S03,LBP05,-1506,145,3,144,-1506,1715766776.76,2024-05-15 09:52:56.760000+00:00,2024-05-15 18:52:56.760000+09:00,2024,5,15,9,52,56,760,,,,,,,,,-0.626709,-0.129395,0.234619,40.161133,115.356445,-8.056641,,,,,,,,,,,0.0,1.0,1.0,3.0,0.0,0.0,0.0,3.0,0.0,-0.19992185333333334,-0.1830012666666667,0.9514746266666666,-0.5338541199999999,2.54475912,-9.18050132,-1.4000693193693536,18.060133476795357,-6.928781412719413,-25.46868230478508,-0.4591718353218831,0.726670693974784,25.48318401247982,-2.398640654906652,25.465327048919242,-2.401070959524687,-0.4267871466666666,0.05360626666666668,-0.7168556266666666,1.19724904,0.8360041207251743,0.5824421787231749,0.5875814504638478,0.5947676744678976
LBP05_S03,LBP05,-1505,146,3,145,-1505,1715766776.8,2024-05-15 09:52:56.800000+00:00,2024-05-15 18:52:56.800000+09:00,2024,5,15,9,52,56,800,,,,,,,,,-0.163574,0.068604,0.297363,1.77002,-40.039062,-10.131836,,,,,,,,,,,0.0,1.0,1.0,3.0,0.0,0.0,0.0,3.0,0.0,-0.19203122666666667,-0.18334957333333332,0.9561816533333333,1.57796228,1.0392252666666668,-9.263509133333333,-0.1829409163805888,18.33060246760377,-7.0518891876195635,-25.475999941440303,0.27405226338226774,0.4445951264700015,25.481352838611457,-2.3784608045203006,25.394269785452998,-2.4058179890839115,0.02845722666666667,0.25195357333333335,-0.6588186533333333,0.9392294533333334,0.7059266497625233,0.583584282710024,0.5909432439179687,0.5957925063525091
LBP05_S03,LBP05,-1504,147,3,146,-1504,1715766776.84,2024-05-15 09:52:56.840000+00:00,2024-05-15 18:52:56.840000+09:00,2024,5,15,9,52,56,840,,,,,,,,,0.290527,-0.39209,0.990967,-96.069336,-14.648438,-11.779785,,,,,,,,,,,0.0,1.0,1.0,3.0,0.0,0.0,0.0,3.0,0.0,-0.19363604,-0.17981116,0.9729720133333333,2.8662109733333336,2.1956380266666673,-8.951009133333333,1.469144956226605,17.17055199556098,-8.00306703493954,-25.41723414319124,0.960874343204707,0.12447244507241984,25.43569469039165,-2.3918857745036357,25.331117961516256,-2.4086252064290123,0.48416304,-0.21227884,0.017994986666666768,0.7144368666666667,0.5289612223584265,0.5953554604754976,0.5959837986742046,0.6020933121058296
LBP05_S03,LBP05,-1503,148,3,147,-1503,1715766776.88,2024-05-15 09:52:56.880000+00:00,2024-05-15 18:52:56.880000+09:00,2024,5,15,9,52,56,880,,,,,,,,,-0.187256,-0.140137,1.440186,92.773438,69.213867,-0.183105,,,,,,,,,,,0.0,1.0,1.0,3.0,0.0,0.0,0.0,3.0,0.0,-0.20377601333333334,-0.17923824000000002,0.99006836,2.528483106666667,2.8125000000000004,-9.159342466666667,3.1263606030789064,15.044624648610329,-9.726660347849032,-25.292179719068084,1.5626593291491202,-0.26459396884154146,25.3417889875392,-2.4178800031452155,25.26764805134878,-2.408860300050357,0.016520013333333333,0.03910124000000001,0.45011764,0.5057388933333333,0.4521147062961353,0.5851824924749198,0.5909624134321865,0.5960821024564987
LBP05_S03,LBP05,-1502,149,3,148,-1502,1715766776.92,2024-05-15 09:52:56.920000+00:00,2024-05-15 18:52:56.920000+09:00,2024,5,15,9,52,56,920,,,,,,,,,-0.727539,-0.353271,1.693604,-16.296387,-13.244629,-18.554688,,,,,,,,,,,0.0,1.0,1.0,3.0,0.0,0.0,0.0,3.0,0.0,-0.21215166666666666,-0.18178381333333335,1.0021874933333335,1.7838542000000004,2.075195306666667,-9.277343773333333,4.430339806565813,12.527498859373141,-12.009792957365116,-25.114966126805452,2.0637592835240457,-0.7449856871361461,25.210625331493755,-2.4302970025427366,25.199677151037744,-2.407940588977967,-0.5153873333333334,-0.17148718666666665,0.6914165066666667,1.3782910266666666,0.8792546526703338,0.5873342309457248,0.5941268556366038,0.6003730774971564
LBP05_S03,LBP05,-1501,150,3,149,-1501,1715766776.96,2024-05-15 09:52:56.960000+00:00,2024-05-15 18:52:56.960000+09:00,2024,5,15,9,52,56,960,,,,,,,,,-0.38623,-0.328369,1.696533,30.212402,-83.679199,-7.8125,,,,,,,,,,,0.0,1.0,1.0,3.0,0.0,0.0,0.0,3.0,0.0,-0.21255855999999998,-0.18477209333333333,0.9980370933333333,1.0514323200000002,2.54475912,-9.63134768,5.180419149382879,10.128960560209437,-14.50270369477424,-24.907749360830138,2.468917705932423,-1.3250938349271157,25.064863983911074,-2.4233737558923343,25.125737797959008,-2.4058470302052477,-0.17367144000000004,-0.1435969066666667,0.6984959066666667,1.0157642533333333,0.7339471181944908,0.5943837578646263,0.6013373680647272,0.6040556690657358
LBP05_S03,LBP05,-1500,151,3,150,-1500,1715766777.0,2024-05-15 09:52:57+00:00,2024-05-15 18:52:57+09:00,2024,5,15,9,52,57,0,9.0,52.0,56.0,40.560551,141.517593,20.386,3.0,15.0,-0.0979,-0.250244,1.22876,-3.723145,74.523926,-12.878418,-526.0,52.0,554.0,0.0,0.0,1023.700012,19.790001,0.106035,-86.591583,3.951562,0.0,1.0,1.0,3.0,0.0,0.0,0.0,4.0,0.0,-0.20703121333333332,-0.1758593333333333,0.9774316266666667,0.11800133333333368,3.339843746666667,-9.85026044,5.375284003219658,8.187127668401255,-16.767562944152804,-24.69273800070135,2.796402812668473,-1.9957963526932279,24.930591283469475,-2.4344583526095804,25.045422557532184,-2.4051501125453307,0.10913121333333332,-0.07438466666666671,0.25132837333333335,0.4348442533333334,0.2839166279052638,0.5854777292409117,0.5904902363855463,0.6010173739163047
LBP05_S03,LBP05,-1499,152,3,151,-1499,1715766777.04,2024-05-15 09:52:57.040000+00:00,2024-05-15 18:52:57.040000+09:00,2024,5,15,9,52,57,40,,,,,,,,,-0.416748,-0.126953,0.176758,-16.357422,78.063965,-19.226074,,,,,,,,,,,0.0,1.0,1.0,3.0,0.0,0.0,0.0,4.0,0.0,-0.20361325333333333,-0.18148433333333333,0.9613053333333332,-0.09440099999999971,3.588867186666667,-9.825032573333335,5.189149288596898,6.855303849194052,-18.353480978432472,-24.485172029157475,3.070614966636235,-2.729935591830527,24.82750236947545,-2.41139233403842,24.95806496845919,-2.409025050962184,-0.21313474666666668,0.05453133333333332,-0.7845473333333333,1.0522134133333334,0.8148095512401776,0.5995421543391274,0.5911906186719107,0.5990797290068239
LBP05_S03,LBP05,-1498,153,3,152,-1498,1715766777.08,2024-05-15 09:52:57.080000+00:00,2024-05-15 18:52:57.080000+09:00,2024,5,15,9,52,57,80,,,,,,,,,-0.057617,-0.042969,0.31665,3.234863,-51.635742,-22.766113,,,,,,,,,,,0.0,1.0,1.0,3.0,0.0,0.0,0.0,4.0,0.0,-0.19802081333333332,-0.18263666666666667,0.9585514266666667,0.4378255600000003,1.9189453200000002,-9.750976573333334,4.89689551106587,6.152879471428847,-18.887535012716814,-24.28929620871484,3.316730145493389,-3.4854369923391997,24.761237452927922,-2.395059146963276,24.862038999209037,-2.41108188933306,0.14040381333333332,0.13966766666666666,-0.6419014266666667,0.9219729066666666,0.6717571953223537,0.594947836744045,0.5933904488490451,0.5998501863779137
LBP05_S03,LBP05,-1497,154,3,153,-1497,1715766777.12,2024-05-15 09:52:57.120000+00:00,2024-05-15 18:52:57.120000+09:00,2024,5,15,9,52,57,120,,,,,,,,,0.320312,-0.314453,0.929688,2.258301,-20.507812,-29.602051,,,,,,,,,,,0.0,1.0,1.0,3.0,0.0,0.0,0.0,4.0,0.0,-0.19357745333333334,-0.18538406666666668,0.9729752666666667,1.7618815466666669,1.9091796933333338,-9.1357422,4.78514458892969,6.020740019120595,-18.162451026007002,-24.097890425157654,3.557559746258213,-4.21193503337948,24.720537029290263,-2.3770224729303266,24.754688891170115,-2.4111340466924758,0.5138894533333334,-0.1290689333333333,-0.04328726666666671,0.6862456533333333,0.5316154129203815,0.5949409586308833,0.5958349361371479,0.6047928466911526
LBP05_S03,LBP05,-1496,155,3,154,-1496,1715766777.16,2024-05-15 09:52:57.160000+00:00,2024-05-15 18:52:57.160000+09:00,2024,5,15,9,52,57,160,,,,,,,,,-0.078613,-0.224365,1.354492,44.372559,62.866211,-11.71875,,,,,,,,,,,0.0,1.0,1.0,3.0,0.0,0.0,0.0,4.0,0.0,-0.20040362666666667,-0.18616206666666665,0.9905761733333333,2.59358728,2.9069010533333337,-8.950195319999999,5.078140823813152,6.345895957084308,-16.1960669542013,-23.894764792205127,3.8113955845415854,-4.859777711547532,24.680031608211586,-2.391671478307481,24.632829351880396,-2.40887449555971,0.12179062666666667,-0.038202933333333355,0.3639158266666668,0.5239093866666669,0.38565159115140957,0.6031355938682058,0.5909298592324953,0.5981019533812783
LBP05_S03,LBP05,-1495,156,3,155,-1495,1715766777.2,2024-05-15 09:52:57.200000+00:00,2024-05-15 18:52:57.200000+09:00,2024,5,15,9,52,57,200,,,,,,,,,-0.71582,-0.184082,1.733154,-15.441895,-5.79834,-21.789551,,,,,,,,,,,0.0,1.0,1.0,3.0,0.0,0.0,0.0,4.0,0.0,-0.20986977333333334,-0.18483069333333332,1.0048372399999999,2.7067057599999997,2.803548200000001,-8.990071626666666,5.883431876181335,6.965023744994899,-13.241651637875902,-23.659427517157873,4.089996534341381,-5.389443777062568,24.60777694788154,-2.417210188688836,24.49370564839763,-2.406043586208466,-0.5059502266666667,0.0007486933333333279,0.7283167600000002,1.2350156800000003,0.8868097289174588,0.6085994308865826,0.5926848525107797,0.6016327469702076
LBP05_S03,LBP05,-1494,157,3,156,-1494,1715766777.24,2024-05-15 09:52:57.240000+00:00,2024-05-15 18:52:57.240000+09:00,2024,5,15,9,52,57,240,,,,,,,,,-0.443604,-0.542236,1.807861,17.272949,-74.157715,-5.737305,,,,,,,,,,,0.0,1.0,1.0,3.0,0.0,0.0,0.0,4.0,0.0,-0.21241534666666667,-0.18892249333333336,1.0095475200000001,1.25813804,2.8320312800000003,-9.291178386666667,7.151013793857036,7.674299523342105,-9.74220839328191,-23.37338696540359,4.3969685152750655,-5.779132112793844,24.4754349978901,-2.4124541582123924,24.336130892280188,-2.399883220203958,-0.23118865333333333,-0.3533135066666667,0.7983134799999998,1.3828156399999998,0.9030963623959998,0.6214656587259562,0.6036518992235288,0.6059861093302049
LBP05_S03,LBP05,-1493,158,3,157,-1493,1715766777.28,2024-05-15 09:52:57.280000+00:00,2024-05-15 18:52:57.280000+09:00,2024,5,15,9,52,57,280,,,,,,,,,-0.105713,-0.220703,1.214355,-34.057617,58.532715,2.380371,,,,,,,,,,,0.0,1.0,1.0,3.0,0.0,0.0,0.0,4.0,0.0,-0.21303384,-0.18709958666666668,0.9911979066666667,1.826171893333333,4.128418000000001,-9.602864586666668,8.653214901843628,8.26423665348849,-6.23988323183258,-23.027258369329846,4.7275379814146055,-6.028727442067147,24.268287907149993,-2.418401576739373,24.161340056253046,-2.3981702437448584,0.10732084,-0.03360341333333333,0.22315709333333333,0.3640813466666667,0.24989205747870116,0.6088288632193081,0.5982396406601097,0.6029728609375486
LBP05_S03,LBP05,-1492,159,3,158,-1492,1715766777.32,2024-05-15 09:52:57.320000+00:00,2024-05-15 18:52:57.320000+09:00,2024,5,15,9,52,57,320,,,,,,,,,-0.486328,-0.001709,0.151123,-4.760742,85.510254,0.976562,,,,,,,,,,,0.0,1.0,1.0,3.0,0.0,0.0,0.0,4.0,0.0,-0.207194,-0.18609372000000002,0.9732193866666667,2.0271810133333332,4.398600293333334,-9.628092453333332,10.013630649970038,8.578629177376111,-3.2654277505367633,-22.626713143331045,5.07068314850965,-6.159344552088617,23.992029938596552,-2.407701491215082,23.973143972571567,-2.399823693561438,-0.279134,0.18438472000000003,-0.8220963866666667,1.2856151066666668,0.8875561863318108,0.6315047911343652,0.5993354902658973,0.6039365409262867
LBP05_S03,LBP05,-1491,160,3,159,-1491,1715766777.36,2024-05-15 09:52:57.360000+00:00,2024-05-15 18:52:57.360000+09:00,2024,5,15,9,52,57,360,,,,,,,,,-0.035645,-0.212646,0.376953,20.202637,-46.99707,-10.925293,,,,,,,,,,,0.0,1.0,1.0,3.0,0.0,0.0,0.0,4.0,0.0,-0.20149087999999998,-0.18582353333333335,0.965638,2.290039093333333,3.4155273733333336,-9.3725586,10.810857413208323,8.56879944452181,-1.2366319942332482,-22.194278846802714,5.413435126290522,-6.208809831857947,23.67362694908337,-2.3950646623798915,23.77727090031987,-2.403591907871795,0.16584587999999997,-0.026822466666666656,-0.588685,0.7813533466666667,0.6121881490653497,0.6240089808427927,0.59992740781037,0.6026534468273529
LBP05_S03,LBP05,-1490,161,3,160,-1490,1715766777.4,2024-05-15 09:52:57.400000+00:00,2024-05-15 18:52:57.400000+09:00,2024,5,15,9,52,57,400,,,,,,,,,0.356201,-0.186279,0.8396,57.922363,-30.517578,6.04248,,,,,,,,,,,0.0,1.0,1.0,3.0,0.0,0.0,0.0,4.0,0.0,-0.19446613333333335,-0.18785152000000002,0.9755045333333334,4.318033880000001,2.3551432666666674,-8.881835946666667,10.743289514586735,8.302172196481372,-0.3878042328129929,-21.764547266219246,5.745522014149777,-6.224322001170467,23.354843722295083,-2.3728546925645047,23.580152055147995,-2.405755423115731,0.5506671333333333,0.0015725200000000217,-0.1359045333333334,0.6881441866666668,0.5671920369092399,0.624069967240316,0.5992424366088227,0.6079907442519983
LBP05_S03,LBP05,-1489,162,3,161,-1489,1715766777.44,2024-05-15 09:52:57.440000+00:00,2024-05-15 18:52:57.440000+09:00,2024,5,15,9,52,57,440,,,,,,,,,-0.10083,0.128174,1.181396,41.137695,70.251465,5.493164,,,,,,,,,,,0.0,1.0,1.0,3.0,0.0,0.0,0.0,4.0,0.0,-0.1986100133333333,-0.18351884000000002,0.9936620799999999,6.045735693333333,3.369140653333334,-8.16569012,9.787153891356173,7.912690160319023,-0.7403495331489411,-21.373061110565,6.062029620562537,-6.253935982496425,23.079594009204044,-2.3942625694474176,23.38761261235636,-2.40441795682971,0.0977800133333333,0.31169284,0.18773392,0.5972067733333333,0.376772321479828,0.6339719444501385,0.5989676215953318,0.6009805582015352
LBP05_S03,LBP05,-1488,163,3,162,-1488,1715766777.48,2024-05-15 09:52:57.480000+00:00,2024-05-15 18:52:57.480000+09:00,2024,5,15,9,52,57,480,,,,,,,,,-0.74585,-0.482422,1.688965,-9.887695,9.277344,-8.361816,,,,,,,,,,,0.0,1.0,1.0,3.0,0.0,0.0,0.0,4.0,0.0,-0.2081835866666667,-0.18552078666666666,1.0081510133333333,5.561523453333333,3.5017904000000013,-8.10302736,8.25739985101916,7.521480775508595,-2.114885202968911,-21.042765116524233,6.362888851582881,-6.338531390615182,22.879276616113124,-2.4115936451290754,23.203868133385715,-2.402854974575903,-0.5376664133333333,-0.29690121333333336,0.6808139866666667,1.5153816133333333,0.9169204910713342,0.6366700087634891,0.6012552737379371,0.6050672236761493
LBP05_S03,LBP05,-1487,164,3,163,-1487,1715766777.52,2024-05-15 09:52:57.520000+00:00,2024-05-15 18:52:57.520000+09:00,2024,5,15,9,52,57,520,,,,,,,,,-0.514893,-0.36792,1.697754,-10.253906,-84.411621,-7.507324,,,,,,,,,,,0.0,1.0,1.0,3.0,0.0,0.0,0.0,4.0,0.0,-0.21344401333333332,-0.18894852,1.0139257466666667,3.9575195466666657,3.3601888400000006,-8.17952476,6.719808932641254,7.1685114989378524,-4.179560461154733,-20.773972759218584,6.649629311540395,-6.505713809061371,22.7618063067733,-2.414704616033897,23.030950134167824,-2.398745589546774,-0.30144898666666675,-0.17897148000000002,0.6838282533333333,1.16424872,0.7684551790915772,0.6382927968686315,0.6046177079692173,0.6065084925166111
LBP05_S03,LBP05,-1486,165,3,164,-1486,1715766777.56,2024-05-15 09:52:57.560000+00:00,2024-05-15 18:52:57.560000+09:00,2024,5,15,9,52,57,560,,,,,,,,,-0.091553,-0.193359,1.216309,8.300781,27.099609,5.310059,,,,,,,,,,,0.0,1.0,1.0,3.0,0.0,0.0,0.0,4.0,0.0,-0.2147168,-0.19059565333333334,1.00028316,4.222005226666667,4.172363320000001,-8.611653666666665,5.781969756012873,6.786020140127819,-6.5243620652807,-20.542693968978067,6.921070117145508,-6.766688291672599,22.708843156492833,-2.4133066307468414,22.868399434105932,-2.396747528690861,0.12316380000000002,-0.002763346666666666,0.21602584000000014,0.34195298666666685,0.24868478293403043,0.6249663038084979,0.6067526919682041,0.604609496417677
LBP05_S03,LBP05,-1485,166,3,165,-1485,1715766777.6,2024-05-15 09:52:57.600000+00:00,2024-05-15 18:52:57.600000+09:00,2024,5,15,9,52,57,600,,,,,,,,,-0.563965,0.153076,0.115234,-13.61084,113.891602,-11.59668,,,,,,,,,,,0.0,1.0,1.0,3.0,0.0,0.0,0.0,4.0,0.0,-0.20830729333333334,-0.18860997333333332,0.9803970933333332,3.5652669466666658,4.31233728,-8.612467466666667,5.8558846956900465,6.227582583642364,-8.747097852193606,-20.308458581150465,7.170173420491202,-7.1165722057603436,22.682382519965206,-2.403835525828624,22.71302949347948,-2.397990368361792,-0.35565770666666674,0.3416859733333333,-0.8651630933333332,1.5625067733333333,0.9958658979753459,0.6518941742632712,0.6069004529461747,0.6070131495261752
LBP05_S03,LBP05,-1484,167,3,166,-1484,1715766777.64,2024-05-15 09:52:57.640000+00:00,2024-05-15 18:52:57.640000+09:00,2024,5,15,9,52,57,640,,,,,,,,,-0.114258,-0.251953,0.279297,-55.664062,-54.931641,-21.54541,,,,,,,,,,,0.0,1.0,1.0,3.0,0.0,0.0,0.0,4.0,0.0,-0.20374674666666667,-0.18720373333333334,0.9656737866666667,4.006347679999999,4.091796920000001,-8.404947933333332,6.999489135679659,5.336473254689967,-10.534299077009221,-20.028479015723278,7.383632350678801,-7.5379441688407125,22.63799020818363,-2.396824335674325,22.558829554130774,-2.4032390850990275,0.08948874666666667,-0.06474926666666664,-0.6863767866666667,0.8406148,0.6952077362836958,0.6473241864483813,0.6069961536530012,0.6072314562194997
LBP05_S03,LBP05,-1483,168,3,167,-1483,1715766777.68,2024-05-15 09:52:57.680000+00:00,2024-05-15 18:52:57.680000+09:00,2024,5,15,9,52,57,680,,,,,,,,,0.322754,-0.412354,0.747314,25.20752,-48.583984,-22.460938,,,,,,,,,,,0.0,1.0,1.0,3.0,0.0,0.0,0.0,4.0,0.0,-0.19606445333333333,-0.18764318666666668,0.9670409866666667,5.11311852,2.5797526533333346,-8.264973973333333,8.909825410241869,4.012127326842249,-11.718060762801446,-19.6720859993136,7.544117443752491,-8.006666599352771,22.539107914971083,-2.377307726448081,22.397376814278203,-2.406060369150537,0.5188184533333333,-0.22471081333333331,-0.21972698666666668,0.9632562533333333,0.6065867504469034,0.637347079102077,0.6060292753351723,0.6110623918060041
LBP05_S03,LBP05,-1482,169,3,168,-1482,1715766777.72,2024-05-15 09:52:57.720000+00:00,2024-05-15 18:52:57.720000+09:00,2024,5,15,9,52,57,720,,,,,,,,,0.070801,-0.033447,1.090088,90.881348,52.429199,-10.009766,,,,,,,,,,,0.0,1.0,1.0,3.0,0.0,0.0,0.0,4.0,0.0,-0.19986002666666666,-0.18718094666666665,0.9824901999999999,6.757812533333333,3.0794271200000005,-7.680664066666666,11.072263905491516,2.2481250399575967,-12.290370215298225,-19.229195443093943,7.6340424453507945,-8.4982814079647,22.366522937977663,-2.3877208826559486,22.2191113812784,-2.407143132429809,0.2706610266666667,0.15373394666666665,0.10759780000000008,0.5319927733333334,0.3293460251449888,0.6347413021629174,0.6043485368779475,0.601755758928213
LBP05_S03,LBP05,-1481,170,3,169,-1481,1715766777.76,2024-05-15 09:52:57.760000+00:00,2024-05-15 18:52:57.760000+09:00,2024,5,15,9,52,57,760,,,,,,,,,-0.714355,-0.189453,1.635742,16.601562,32.470703,-6.958008,,,,,,,,,,,0.0,1.0,1.0,3.0,0.0,0.0,0.0,4.0,0.0,-0.20839518666666665,-0.18728510666666667,0.9989908399999999,6.513671906666666,3.2926432666666674,-7.6554362000000005,12.990432395329595,0.14859148941528624,-12.3671910962067,-18.70957814728076,7.639986104927406,-8.992969051812969,22.119927542818836,-2.4074930590892087,22.015443745496754,-2.4075576578685345,-0.5059598133333333,-0.0021678933333333372,0.6367511600000001,1.1448788666666667,0.8132970381300745,0.6338330188591134,0.6081375987911442,0.6029986399289363
LBP05_S03,LBP05,-1480,171,3,170,-1480,1715766777.8,2024-05-15 09:52:57.800000+00:00,2024-05-15 18:52:57.800000+09:00,2024,5,15,9,52,57,800,,,,,,,,,-0.523926,-0.455566,1.748047,4.760742,-79.772949,-4.821777,,,,,,,,,,,0.0,1.0,1.0,3.0,0.0,0.0,0.0,4.0,0.0,-0.21580729333333332,-0.18681636,1.00805008,6.562500026666666,2.6424154000000004,-7.646484386666668,14.376309944563967,-2.06463880298203,-12.115706016135677,-18.1345257494982,7.557400552808125,-9.477597292458396,21.812844328808026,-2.4253418599368555,21.781191275424813,-2.4060167799656647,-0.3081187066666667,-0.26874964,0.7399969199999998,1.3168652666666665,0.8454341772175733,0.6394133199573154,0.6114988013336697,0.6070999359310842
LBP05_S03,LBP05,-1479,172,3,171,-1479,1715766777.84,2024-05-15 09:52:57.840000+00:00,2024-05-15 18:52:57.840000+09:00,2024,5,15,9,52,57,840,,,,,,,,,-0.116455,-0.061768,1.25,16.723633,-3.051758,-3.723145,,,,,,,,,,,0.0,1.0,1.0,3.0,0.0,0.0,0.0,4.0,0.0,-0.21615234666666666,-0.18822261333333332,1.0017317199999998,5.78613284,2.9589844000000003,-7.808431000000001,15.209874250189474,-4.058302125302372,-11.677226762559451,-17.526130779490618,7.39506846779603,-9.944686362960775,21.465066610678328,-2.4224754099625168,21.51659848503256,-2.404042072354074,0.09969734666666666,0.1264546133333333,0.24826828000000023,0.47442024000000016,0.2959180106377691,0.630091591488489,0.6127235259819933,0.6073530629456327
LBP05_S03,LBP05,-1478,173,3,172,-1478,1715766777.88,2024-05-15 09:52:57.880000+00:00,2024-05-15 18:52:57.880000+09:00,2024,5,15,9,52,57,880,,,,,,,,,-0.462646,-0.107178,0.292236,-29.174805,114.074707,-0.610352,,,,,,,,,,,0.0,1.0,1.0,3.0,0.0,0.0,0.0,4.0,0.0,-0.21001953333333334,-0.18291988,0.98181636,5.492350293333333,3.5856120133333342,-7.829589853333333,15.662528708101492,-5.420646334199128,-11.121679931641179,-16.899629631166558,7.178242614428065,-10.389553560226423,21.09662228611508,-2.422421277921792,21.228283400985834,-2.4027123844207705,-0.25262646666666666,0.07574188000000001,-0.6895803600000001,1.0179487066666668,0.7382940044075589,0.641538763412946,0.613360627943933,0.6078211967591063
LBP05_S03,LBP05,-1477,174,3,173,-1477,1715766777.92,2024-05-15 09:52:57.920000+00:00,2024-05-15 18:52:57.920000+09:00,2024,5,15,9,52,57,920,,,,,,,,,-0.056885,-0.028076,0.21167,48.828125,-38.452148,-16.967773,,,,,,,,,,,0.0,1.0,1.0,3.0,0.0,0.0,0.0,4.0,0.0,-0.20558593333333333,-0.18040685333333334,0.96573888,4.888509146666666,3.7581380533333335,-7.686360679999999,15.950982232667648,-5.737547800584372,-10.454024525908979,-16.26159034185985,6.94874070240469,-10.807714541262783,20.72512994895685,-2.4188498704211536,20.928756742712615,-2.4063030399722156,0.14870093333333334,0.15233085333333335,-0.7540688799999999,1.0551006666666667,0.7835410214123574,0.637710218162627,0.6125222245541759,0.6086546431452782
LBP05_S03,LBP05,-1476,175,3,174,-1476,1715766777.96,2024-05-15 09:52:57.960000+00:00,2024-05-15 18:52:57.960000+09:00,2024,5,15,9,52,57,960,,,,,,,,,0.015381,0.093506,0.4021,-11.657715,-74.829102,-26.245117,,,,,,,,,,,0.0,1.0,1.0,3.0,0.0,0.0,0.0,4.0,0.0,-0.19919270666666666,-0.18263341333333336,0.9617284666666668,4.458821653333333,2.1500651466666674,-7.644042973333334,16.20517759143409,-4.721428206022855,-9.665544152953503,-15.613383238202488,6.7598835741637755,-11.194336307380922,20.366318455773452,-2.3978978517181417,20.634553210938364,-2.408651984475742,0.21457370666666667,0.27613941333333336,-0.5596284666666668,1.0503415866666668,0.6599082299020332,0.6347486626309287,0.6145662102477776,0.612474466253461
LBP05_S03,LBP05,-1475,176,3,175,-1475,1715766778.0,2024-05-15 09:52:58+00:00,2024-05-15 18:52:58+09:00,2024,5,15,9,52,58,0,9.0,52.0,57.0,40.560658,141.517593,20.398001,3.0,15.0,0.342285,-0.426514,0.773682,-3.601074,-30.517578,-19.775391,-526.0,42.0,555.0,0.0,0.0,1023.799988,19.85,0.107026,-87.416542,3.951562,0.0,1.0,1.0,3.0,0.0,0.0,0.0,5.0,0.0,-0.19286133333333336,-0.18201492,0.97412756,4.778645866666666,1.8253581200000009,-7.220865893333333,16.40534671988853,-2.361810048893333,-8.796762827170827,-14.957169369406946,6.665411172208042,-11.546206820467756,20.03645461604266,-2.3840884497127153,20.363436972863916,-2.40934972755923,0.5351463333333334,-0.24449908,-0.20044556000000002,0.9800909733333334,0.6215624029207938,0.6482544936315499,0.6168661114362308,0.6097449888008809
LBP05_S03,LBP05,-1474,177,3,176,-1474,1715766778.04,2024-05-15 09:52:58.040000+00:00,2024-05-15 18:52:58.040000+09:00,2024,5,15,9,52,58,40,,,,,,,,,-0.198486,-0.099609,1.309814,63.354492,59.936523,-12.939453,,,,,,,,,,,0.0,1.0,1.0,3.0,0.0,0.0,0.0,5.0,0.0,-0.19921224,-0.18821609333333333,0.9915461733333333,4.720052119999999,2.8181966666666676,-6.915690120000001,16.400463076153713,0.9826182617949971,-7.969115810943578,-14.301150846360798,6.704715902679842,-11.864971452905499,19.75483936771637,-2.3835274563412914,20.131494343778417,-2.408635147859658,0.0007262400000000169,0.08860709333333333,0.31826782666666675,0.40760116000000013,0.3303727499426112,0.6288770215796472,0.6142095879593872,0.6037527529744895
LBP05_S03,LBP05,-1473,178,3,177,-1473,1715766778.08,2024-05-15 09:52:58.080000+00:00,2024-05-15 18:52:58.080000+09:00,2024,5,15,9,52,58,80,,,,,,,,,-0.622803,-0.438965,1.675293,5.187988,-17.211914,-0.488281,,,,,,,,,,,0.0,1.0,1.0,3.0,0.0,0.0,0.0,5.0,0.0,-0.20873697333333333,-0.18537430666666668,1.0024446133333333,5.298665399999999,2.7815755733333343,-6.638997413333334,15.982660492451624,4.6225479210604945,-7.3585536353876275,-13.661844426662734,6.889617819522262,-12.159313598321004,19.54384133223887,-2.4132142819625293,19.950976873443636,-2.406940721736423,-0.4140660266666667,-0.2535906933333333,0.6728483866666666,1.3405051066666664,0.8297492787732554,0.6351967049176832,0.6150722708308642,0.6073258675385912
LBP05_S03,LBP05,-1472,179,3,178,-1472,1715766778.12,2024-05-15 09:52:58.120000+00:00,2024-05-15 18:52:58.120000+09:00,2024,5,15,9,52,58,120,,,,,,,,,-0.338623,-0.278076,1.681641,69.274902,-44.128418,8.789062,,,,,,,,,,,0.0,1.0,1.0,3.0,0.0,0.0,0.0,5.0,0.0,-0.2099414,-0.18721676,1.0040885066666667,4.3660482133333325,2.5170898933333343,-6.467285173333333,14.969524513035262,7.711032062498028,-7.119070469401415,-13.063063446141323,7.198059102022183,-12.444076417097062,19.424487620235166,-2.411210327691219,19.829356279929407,-2.4029857686539655,-0.1286816,-0.09085923999999998,0.6775524933333332,0.8970933333333332,0.6956232722488187,0.6417570192908209,0.618348988960852,0.6111422971883722
LBP05_S03,LBP05,-1471,180,3,179,-1471,1715766778.16,2024-05-15 09:52:58.160000+00:00,2024-05-15 18:52:58.160000+09:00,2024,5,15,9,52,58,160,,,,,,,,,-0.179443,-0.084473,1.171387,-38.452148,97.167969,9.460449,,,,,,,,,,,0.0,1.0,1.0,3.0,0.0,0.0,0.0,5.0,0.0,-0.20939777333333334,-0.18543941333333333,0.9844986666666667,4.182942746666666,3.9737956266666674,-6.208496106666667,13.252064812686582,9.488758653423783,-7.296808840341352,-12.532980853633859,7.5776094481591345,-12.735948770710715,19.408765162074356,-2.414470489924084,19.76940861818006,-2.400354052172629,0.02995477333333335,0.10096641333333332,0.1868883333333332,0.3178095199999999,0.21451982240100786,0.6349117485408047,0.6190236712045052,0.6055904890019318
LBP05_S03,LBP05,-1470,181,3,180,-1470,1715766778.2,2024-05-15 09:52:58.200000+00:00,2024-05-15 18:52:58.200000+09:00,2024,5,15,9,52,58,200,,,,,,,,,-0.413574,-0.247803,0.135498,-64.208984,55.603027,-4.577637,,,,,,,,,,,0.0,1.0,1.0,3.0,0.0,0.0,0.0,5.0,0.0,-0.20560870666666667,-0.18067053333333333,0.96446612,4.603678426666666,4.2814128133333345,-6.333821626666667,10.804553300217215,9.511478704026123,-7.78485760782482,-12.10079872162517,7.95806859632018,-13.047343075023708,19.493418037953013,-2.418196062941141,19.769693415305234,-2.4017585349442356,-0.20796529333333333,-0.06713246666666667,-0.82896812,1.1040658799999998,0.8572890266930429,0.633730920451828,0.6211651756692054,0.6063668751577959
LBP05_S03,LBP05,-1469,182,3,181,-1469,1715766778.24,2024-05-15 09:52:58.240000+00:00,2024-05-15 18:52:58.240000+09:00,2024,5,15,9,52,58,240,,,,,,,,,0.02002,-0.108643,0.383301,45.532227,-59.020996,-28.686523,,,,,,,,,,,0.0,1.0,1.0,3.0,0.0,0.0,0.0,5.0,0.0,-0.19977537333333334,-0.1802734,0.9579361733333334,4.771321653333333,2.8051758400000004,-6.368815119999999,7.6931090864822345,7.774082210517523,-8.347679773010736,-11.79307435816588,8.269031884740881,-13.381250265944137,19.659891907330543,-2.405531148730159,19.824799558331737,-2.404074436665054,0.21979537333333335,0.0716304,-0.5746351733333334,0.8660609466666667,0.6193920428732754,0.6223827476709191,0.6219242031984376,0.609895515372659
LBP05_S03,LBP05,-1468,183,3,182,-1468,1715766778.28,2024-05-15 09:52:58.280000+00:00,2024-05-15 18:52:58.280000+09:00,2024,5,15,9,52,58,280,,,,,,,,,0.292725,-0.008301,0.840576,97.290039,-13.244629,-20.751953,,,,,,,,,,,0.0,1.0,1.0,3.0,0.0,0.0,0.0,5.0,0.0,-0.1910774533333333,-0.18079097333333335,0.97081052,4.711914093333333,1.8937175066666676,-6.1759440266666665,4.114693818694128,4.686462944109613,-8.704288957447083,-11.628486605418114,8.456490402505265,-13.72942182424202,19.880416350972766,-2.3828717470972203,19.92517810125102,-2.4072637902869722,0.4838024533333333,0.17248997333333335,-0.13023452000000002,0.7865269466666667,0.5298854923014185,0.6335824850638277,0.6212056741415679,0.6100205887946824
