file_name,test_id,_program_index,program_index,session_id,index,_index,unixtime,datetime_utc,datetime_jst,rtc_year,rtc_month,rtc_day,rtc_hour,rtc_min,rtc_sec,rtc_msec,gps_hour,gps_min,gps_sec,latitude,longitude,altitude,fix_type,SIV,acc_x,acc_y,acc_z,gyro_x,gyro_y,gyro_z,mag_x,mag_y,mag_z,illuminance,atmopress,water_pressure,water_temp,depth,alt_wps,battery_level,behavior_class,camera_command,camera_recording,camera_count,play_audio,speaker_on,audio_file,prev_sd_write_time_ms,delay_occurred_counter,acc_x_ma,acc_y_ma,acc_z_ma,gyro_x_ma,gyro_y_ma,gyro_z_ma,gyro_x_lowpass,gyro_y_lowpass,gyro_z_lowpass,angle_x,angle_y,angle_z,combined_angle_change,gravity_adjusted_angle,smoothed_angle_change,smoothed_gravity_angle,acc_x_dy,acc_y_dy,acc_z_dy,ODBA,VeDBA,smoothed_VeDBA_1s,smoothed_VeDBA_2s,smoothed_VeDBA_3s
LBP05_S07,LBP05,-1650,1,7,0,-1650,1715801851.0,2024-05-15 19:37:31+00:00,2024-05-16 04:37:31+09:00,2024,5,15,19,37,31,0,19.0,37.0,31.0,40.83728,141.718719,6.315,3.0,10.0,0.318604,-0.115234,0.762695,12.268066,-34.118652,1.708984,-577.0,47.0,553.0,14.0,0.0,24751980.0,14.82,245276.59375,-258680.03125,3.839062,0.0,1.0,1.0,7.0,0.0,0.0,0.0,6.0,0.0,,,,,,,11.794391735100346,-33.59692662616455,1.7519190494087091,0.47177566940401383,-1.343877065046582,0.07007676197634836,1.4260044182150737,,2.9295276925145233,,,,,,,,,
LBP05_S07,LBP05,-1649,2,7,1,-1649,1715801851.04,2024-05-15 19:37:31.040000+00:00,2024-05-16 04:37:31.040000+09:00,2024,5,15,19,37,31,40,,,,,,,,,-0.014648,-0.33374,1.132812,29.296875,31.494141,9.338379,,,,,,,,,,,0.0,1.0,1.0,7.0,0.0,0.0,0.0,6.0,0.0,,,,,,,11.530616868182546,-23.69077944693876,1.412077875263052,0.9330003441313157,-2.2915082429241327,0.12655987698687043,2.4774012739161435,,3.1115165427585865,,,,,,,,,
LBP05_S07,LBP05,-1648,3,7,2,-1648,1715801851.08,2024-05-15 19:37:31.080000+00:00,2024-05-16 04:37:31.080000+09:00,2024,5,15,19,37,31,80,,,,,,,,,-0.59375,-0.300049,1.57666,90.576172,-4.150391,2.990723,,,,,,,,,,,0.0,1.0,1.0,7.0,0.0,0.0,0.0,6.0,0.0,,,,,,,10.580964171707716,-14.959149007681521,0.9769990325622693,1.3562389109996245,-2.8898742032313933,0.1656398382893612,3.1965909106797286,,3.2480858563350656,,,,,,,,,
LBP05_S07,LBP05,-1647,4,7,3,-1647,1715801851.12,2024-05-15 19:37:31.120000+00:00,2024-05-16 04:37:31.120000+09:00,2024,5,15,19,37,31,120,,,,,,,,,-0.250732,-0.324463,1.598877,26.550293,-82.763672,21.850586,,,,,,,,,,,0.0,1.0,1.0,7.0,0.0,0.0,0.0,6.0,0.0,,,,,,,8.63919289801876,-8.275388698523278,0.4231763236868282,1.7018066269203749,-3.2208897511723245,0.18256689123683434,3.6474110344753994,,3.352071926952048,,,,,,,,,
LBP05_S07,LBP05,-1646,5,7,4,-1646,1715801851.16,2024-05-15 19:37:31.160000+00:00,2024-05-16 04:37:31.160000+09:00,2024,5,15,19,37,31,160,,,,,,,,,0.002686,0.056641,0.95874,-20.324707,62.805176,-2.868652,,,,,,,,,,,0.0,1.0,1.0,7.0,0.0,0.0,0.0,6.0,0.0,,,,,,,5.826612247791474,-4.025407242851456,-0.1777028593236235,1.9348711168320338,-3.3819060408863826,0.1754587768638894,3.9002308252862705,,3.4331869397971624,,,,,,,,,
LBP05_S07,LBP05,-1645,6,7,5,-1645,1715801851.2,2024-05-15 19:37:31.200000+00:00,2024-05-16 04:37:31.200000+09:00,2024,5,15,19,37,31,200,,,,,,,,,-0.347412,-0.095459,0.098633,-33.813477,84.289551,-17.944336,,,,,,,,,,,0.0,1.0,1.0,7.0,0.0,0.0,0.0,6.0,0.0,,,,,,,2.595546930995746,-2.032891358598382,-0.6806224268322466,2.0386929940718637,-3.4632216952303176,0.14823387979059952,4.021460793978903,,3.4979077411889348,,,,,,,,,
LBP05_S07,LBP05,-1644,7,7,6,-1644,1715801851.24,2024-05-15 19:37:31.240000+00:00,2024-05-16 04:37:31.240000+09:00,2024,5,15,19,37,31,240,,,,,,,,,-0.13623,-0.080322,0.193848,-26.367188,-52.307129,0.0,,,,,,,,,,,0.0,1.0,1.0,7.0,0.0,0.0,0.0,6.0,0.0,,,,,,,-0.5002997176683562,-1.6562473239528201,-0.930093301467232,2.0186810053651296,-3.5294715881884304,0.11103014773191024,4.067501737793938,,3.7626306224718933,,,,,,,,,
LBP05_S07,LBP05,-1643,8,7,7,-1643,1715801851.28,2024-05-15 19:37:31.280000+00:00,2024-05-16 04:37:31.280000+09:00,2024,5,15,19,37,31,280,,,,,,,,,0.219727,-0.126221,0.590576,-19.348145,-91.85791,-7.141113,,,,,,,,,,,0.0,1.0,1.0,7.0,0.0,0.0,0.0,6.0,0.0,,,,,,,-3.0304835017286362,-2.0397811287982974,-0.8302909229838429,1.8974616652959841,-3.6110628333403625,0.07781851081255653,4.079974421270926,,3.920996910246939,,,,,,,,,
LBP05_S07,LBP05,-1642,9,7,8,-1642,1715801851.32,2024-05-15 19:37:31.320000+00:00,2024-05-16 04:37:31.320000+09:00,2024,5,15,19,37,31,320,,,,,,,,,0.343262,-0.134033,1.016113,10.437012,-1.159668,-9.887695,,,,,,,,,,,0.0,1.0,1.0,7.0,0.0,0.0,0.0,6.0,0.0,,,,,,,-4.79435545463228,-2.427051842418365,-0.3862987142169807,1.7056874471106929,-3.708144907037097,0.0623665622438773,4.08210704255808,,4.006400230514898,,,,,,,,,
LBP05_S07,LBP05,-1641,10,7,9,-1641,1715801851.36,2024-05-15 19:37:31.360000+00:00,2024-05-16 04:37:31.360000+09:00,2024,5,15,19,37,31,360,,,,,,,,,-0.052246,-0.406738,1.466309,14.282227,41.137695,11.413574,,,,,,,,,,,0.0,1.0,1.0,7.0,0.0,0.0,0.0,6.0,0.0,,,,,,,-5.783603708112914,-2.3962952161595887,0.30225386707139407,1.4743432987861762,-3.8039967156834806,0.07445671692673306,4.080394953714888,,4.046844195207121,,,,,,,,,
LBP05_S07,LBP05,-1640,11,7,10,-1640,1715801851.4,2024-05-15 19:37:31.400000+00:00,2024-05-16 04:37:31.400000+09:00,2024,5,15,19,37,31,400,,,,,,,,,-0.470215,-0.225098,1.739502,21.972656,-47.851562,7.202148,,,,,,,,,,,0.0,1.0,1.0,7.0,0.0,0.0,0.0,6.0,0.0,,,,,,,-6.062872161286803,-1.9178052903043759,1.0887874361271215,1.231828412334704,-3.8807089272956556,0.11800821437181791,4.073233231044653,,4.064071593657244,,,,,,,,,
LBP05_S07,LBP05,-1639,12,7,11,-1639,1715801851.44,2024-05-15 19:37:31.440000+00:00,2024-05-16 04:37:31.440000+09:00,2024,5,15,19,37,31,440,,,,,,,,,-0.096191,-0.162109,1.550537,40.527344,-16.784668,9.399414,,,,,,,,,,,0.0,1.0,1.0,7.0,0.0,0.0,0.0,6.0,0.0,,,,,,,-5.670497248280737,-1.234012906635126,1.8426332200086495,1.0050085224034746,-3.930069443561061,0.19171354317216388,4.061064151666603,,4.073475062066861,,,,,,,,,
LBP05_S07,LBP05,-1638,13,7,12,-1638,1715801851.48,2024-05-15 19:37:31.480000+00:00,2024-05-16 04:37:31.480000+09:00,2024,5,15,19,37,31,480,,,,,,,,,-0.08252,-0.072998,0.772705,-34.545898,127.319336,5.79834,,,,,,,,,,,0.0,1.0,1.0,7.0,0.0,0.0,0.0,6.0,0.0,,,,,,,-4.615735438609533,-0.6469841376382445,2.4959735702868278,0.8203791048590933,-3.9559488090665904,0.291552485983637,4.0506241133593255,,4.084646617881346,,,,,,,,,
LBP05_S07,LBP05,-1637,14,7,13,-1637,1715801851.52,2024-05-15 19:37:31.520000+00:00,2024-05-16 04:37:31.520000+09:00,2024,5,15,19,37,31,520,,,,,,,,,-0.339355,0.01416,0.073242,-93.200684,5.065918,-8.239746,,,,,,,,,,,0.0,1.0,1.0,7.0,0.0,0.0,0.0,6.0,0.0,,,,,,,-2.9715827040236693,-0.3300571231065813,3.055543932246341,0.7015157966981465,-3.969151093990854,0.4137742432734906,4.051850681397623,,4.102590254437561,,,,,,,,,
LBP05_S07,LBP05,-1636,15,7,14,-1636,1715801851.56,2024-05-15 19:37:31.560000+00:00,2024-05-16 04:37:31.560000+09:00,2024,5,15,19,37,31,560,,,,,,,,,-0.092285,-0.310059,0.399902,-18.188477,-85.9375,-4.02832,,,,,,,,,,,0.0,1.0,1.0,7.0,0.0,0.0,0.0,6.0,0.0,,,,,,,-0.9798207998691104,-0.2584541154306935,3.5815405856961635,0.662322964703382,-3.9794892586080817,0.5570358667013371,4.072504809787495,,4.129658329214329,,,,,,,,,
LBP05_S07,LBP05,-1635,16,7,15,-1635,1715801851.6,2024-05-15 19:37:31.600000+00:00,2024-05-16 04:37:31.600000+09:00,2024,5,15,19,37,31,600,,,,,,,,,0.417725,-0.044434,0.818359,80.444336,-34.484863,3.295898,,,,,,,,,,,0.0,1.0,1.0,7.0,0.0,0.0,0.0,6.0,0.0,,,,,,,0.9379387680700744,-0.2767209878970236,4.1533101133538946,0.699840515426185,-3.990558098123963,0.7231682712354929,4.115495478075084,,4.167805709968571,,,,,,,,,
LBP05_S07,LBP05,-1634,17,7,16,-1634,1715801851.64,2024-05-15 19:37:31.640000+00:00,2024-05-16 04:37:31.640000+09:00,2024,5,15,19,37,31,640,,,,,,,,,-0.015381,-0.023682,1.098633,-26.489258,48.950195,15.441895,,,,,,,,,,,0.0,1.0,1.0,7.0,0.0,0.0,0.0,6.0,0.0,,,,,,,2.3038146725638553,-0.2296420736334307,4.842587137989171,0.7919931023287392,-3.9997437810693,0.9168717567550597,4.179217295938792,,4.220170512231398,,,,,,,,,
LBP05_S07,LBP05,-1633,18,7,17,-1633,1715801851.68,2024-05-15 19:37:31.680000+00:00,2024-05-16 04:37:31.680000+09:00,2024,5,15,19,37,31,680,,,,,,,,,-0.616211,-0.514404,1.781738,32.287598,17.76123,-5.187988,,,,,,,,,,,0.0,1.0,1.0,7.0,0.0,0.0,0.0,6.0,0.0,,,,,,,2.78056994452963,-0.056082783663893576,5.7016296284932295,0.9032159001099244,-4.001987092415856,1.1449369418947888,4.259410786833067,,4.2911460285427125,,,,,,,,,
LBP05_S07,LBP05,-1632,19,7,18,-1632,1715801851.72,2024-05-15 19:37:31.720000+00:00,2024-05-16 04:37:31.720000+09:00,2024,5,15,19,37,31,720,,,,,,,,,-0.241211,-0.488281,1.854248,28.076172,-86.364746,31.738281,,,,,,,,,,,0.0,1.0,1.0,7.0,0.0,0.0,0.0,6.0,0.0,,,,,,,2.3279370043031133,0.20255870965051848,6.7581217335965835,0.9963333802820489,-3.9938847440298355,1.4152618112386521,4.3527877903257615,,4.385083862620648,,,,,,,,,
LBP05_S07,LBP05,-1631,20,7,19,-1631,1715801851.76,2024-05-15 19:37:31.760000+00:00,2024-05-16 04:37:31.760000+09:00,2024,5,15,19,37,31,760,,,,,,,,,-0.037842,0.003418,1.185547,23.193359,45.776367,10.620117,,,,,,,,,,,0.0,1.0,1.0,7.0,0.0,0.0,0.0,6.0,0.0,,,,,,,1.2294138846685132,0.46287138301387193,8.00347564392448,1.0455099356687894,-3.9753698887092805,1.7354008369956313,4.461868761257298,,4.5046633305660295,,,,,,,,,
LBP05_S07,LBP05,-1630,21,7,20,-1630,1715801851.8,2024-05-15 19:37:31.800000+00:00,2024-05-16 04:37:31.800000+09:00,2024,5,15,19,37,31,800,,,,,,,,,-0.428711,0.17627,0.177246,-18.371582,102.844238,-28.137207,,,,,,,,,,,0.0,1.0,1.0,7.0,0.0,0.0,0.0,6.0,0.0,,,,,,,-0.028883796130856586,0.6811054726444715,9.369981557427113,1.044354583823555,-3.9481256698035017,2.1102000992927157,4.5968812536729295,,4.649939308254453,,,,,,,,,
LBP05_S07,LBP05,-1629,22,7,21,-1629,1715801851.84,2024-05-15 19:37:31.840000+00:00,2024-05-16 04:37:31.840000+09:00,2024,5,15,19,37,31,840,,,,,,,,,-0.043945,-0.39624,0.32666,-162.780762,-61.340332,19.40918,,,,,,,,,,,0.0,1.0,1.0,7.0,0.0,0.0,0.0,6.0,0.0,,,,,,,-0.9664096634738869,0.8994856507490927,10.709553755704684,1.0056981972845995,-3.912146243773538,2.538582249520903,4.770819314779748,,4.818369103830479,,,,,,,,,
LBP05_S07,LBP05,-1628,23,7,22,-1628,1715801851.88,2024-05-15 19:37:31.880000+00:00,2024-05-16 04:37:31.880000+09:00,2024,5,15,19,37,31,880,,,,,,,,,0.179199,-0.567871,0.606201,101.318359,-46.386719,10.864258,,,,,,,,,,,0.0,1.0,1.0,7.0,0.0,0.0,0.0,6.0,0.0,,,,,,,-1.2897756196510606,1.2159157088910582,11.79789060330662,0.9541071724985571,-3.863509615417896,3.0104978736531676,4.990002454138672,,5.005555646043483,,,,,,,,,
LBP05_S07,LBP05,-1627,24,7,23,-1627,1715801851.92,2024-05-15 19:37:31.920000+00:00,2024-05-16 04:37:31.920000+09:00,2024,5,15,19,37,31,920,,,,,,,,,0.137207,0.429443,0.97583,65.124512,23.742676,13.000488,,,,,,,,,,,0.0,1.0,1.0,7.0,0.0,0.0,0.0,6.0,0.0,,,,,,,-0.9533019052992528,1.6887483285906133,12.378373937277958,0.915975096286587,-3.795959682274271,3.505632831144286,5.247645360851447,,5.206248317487722,,,,,,,,,
LBP05_S07,LBP05,-1626,25,7,24,-1626,1715801851.96,2024-05-15 19:37:31.960000+00:00,2024-05-16 04:37:31.960000+09:00,2024,5,15,19,37,31,960,,,,,,,,,-0.202881,-0.487549,1.456055,-72.631836,33.02002,37.597656,,,,,,,,,,,0.0,1.0,1.0,7.0,0.0,0.0,0.0,6.0,0.0,,,,,,,-0.09584683310969135,2.242041362507807,12.234258454595812,0.9121412229621993,-3.706278027773959,3.9950031693281187,5.52526458667173,,5.415087529923255,,,,,,,,,
LBP05_S07,LBP05,-1625,26,7,25,-1625,1715801852.0,2024-05-15 19:37:32+00:00,2024-05-16 04:37:32+09:00,2024,5,15,19,37,32,0,19.0,37.0,32.0,40.837219,141.718689,6.763,3.0,10.0,-0.61499,-0.321289,1.763916,46.99707,-66.345215,4.577637,-578.0,50.0,551.0,8.0,0.0,1020.200012,14.84,0.07135,-57.669693,3.839062,0.0,1.0,1.0,7.0,0.0,0.0,0.0,4.0,0.0,,,,,,,1.064870952157765,2.6383729425899407,11.257532947510095,0.9547360610485099,-3.6007431100703613,4.445304487228523,5.79979343383535,,5.626768570065443,,,,,,,,,
LBP05_S07,LBP05,-1624,27,7,26,-1624,1715801852.04,2024-05-15 19:37:32.040000+00:00,2024-05-16 04:37:32.040000+09:00,2024,5,15,19,37,32,40,,,,,,,,,-0.206299,0.02417,1.468262,31.799316,-35.400391,0.305176,,,,,,,,,,,0.0,1.0,1.0,7.0,0.0,0.0,0.0,4.0,0.0,,,,,,,2.296886563115643,2.5452245532635382,9.484722674121215,1.0466115235731357,-3.49893412793982,4.824693394193371,6.051082718068827,,5.835855623032665,,,,,,,,,
LBP05_S07,LBP05,-1623,28,7,27,-1623,1715801852.08,2024-05-15 19:37:32.080000+00:00,2024-05-16 04:37:32.080000+09:00,2024,5,15,19,37,32,80,,,,,,,,,-0.181396,-0.111328,0.73877,-37.536621,129.882812,6.530762,,,,,,,,,,,0.0,1.0,1.0,7.0,0.0,0.0,0.0,4.0,0.0,,,,,,,3.35318246554401,1.6758874509117891,7.09061641416592,1.180738822194896,-3.4318986299033485,5.108318050760008,6.266337501275462,,6.0369842704809225,,,,,,,,,
LBP05_S07,LBP05,-1622,29,7,28,-1622,1715801852.12,2024-05-15 19:37:32.120000+00:00,2024-05-16 04:37:32.120000+09:00,2024,5,15,19,37,32,120,,,,,,,,,-0.290527,-0.05249,0.073486,-65.063477,20.690918,-1.403809,,,,,,,,,,,0.0,1.0,1.0,7.0,0.0,0.0,0.0,4.0,0.0,,,,,,,3.941263718855557,-0.05604999131558238,4.353092195410696,1.3383893709491184,-3.434140629555972,5.282441738576436,6.441179914681091,,6.226007385149335,,,,,,,,,
LBP05_S07,LBP05,-1621,30,7,29,-1621,1715801852.16,2024-05-15 19:37:32.160000+00:00,2024-05-16 04:37:32.160000+09:00,2024,5,15,19,37,32,160,,,,,,,,,-0.000244,-0.376221,0.414795,2.075195,-69.580078,6.347656,,,,,,,,,,,0.0,1.0,1.0,7.0,0.0,0.0,0.0,4.0,0.0,,,,,,,3.7294388143791664,-2.455398096697772,1.609777381494624,1.487566923524285,-3.5323565534238828,5.3468328338362205,6.578679162679179,,6.401703705156126,,,,,,,,,
LBP05_S07,LBP05,-1620,31,7,30,-1620,1715801852.2,2024-05-15 19:37:32.200000+00:00,2024-05-16 04:37:32.200000+09:00,2024,5,15,19,37,32,200,,,,,,,,,0.367432,0.038574,0.828613,81.298828,-27.282715,-6.469727,,,,,,,,,,,0.0,1.0,1.0,7.0,0.0,0.0,0.0,4.0,0.0,,,,,,,2.438777564167154,-5.092417048511731,-0.7814613642272675,1.5851180260909712,-3.736053235364352,5.3155743792671295,6.68775178334514,,6.5668113193109905,,,,,,,,,
LBP05_S07,LBP05,-1619,32,7,31,-1619,1715801852.24,2024-05-15 19:37:32.240000+00:00,2024-05-16 04:37:32.240000+09:00,2024,5,15,19,37,32,240,,,,,,,,,-0.017822,-0.206055,1.328369,-5.737305,42.907715,18.615723,,,,,,,,,,,0.0,1.0,1.0,7.0,0.0,0.0,0.0,4.0,0.0,,,,,,,-0.0006131018603910654,-7.45139748800866,-2.480384966764584,1.5850935020165555,-4.034109134884698,5.216358980596546,6.782105789262323,,6.727316848640693,,,,,,,,,
LBP05_S07,LBP05,-1618,33,7,32,-1618,1715801852.28,2024-05-15 19:37:32.280000+00:00,2024-05-16 04:37:32.280000+09:00,2024,5,15,19,37,32,280,,,,,,,,,-0.726318,-0.362549,1.82959,17.51709,-35.15625,-4.333496,,,,,,,,,,,0.0,1.0,1.0,7.0,0.0,0.0,0.0,4.0,0.0,,,,,,,-3.324180835133492,-9.096436411839218,-3.2112112602161424,1.4521262686112157,-4.397966591358267,5.0879105301879,6.880233600822802,,6.8901475582571035,,,,,,,,,
LBP05_S07,LBP05,-1617,34,7,33,-1617,1715801852.32,2024-05-15 19:37:32.320000+00:00,2024-05-16 04:37:32.320000+09:00,2024,5,15,19,37,32,320,,,,,,,,,-0.206543,-0.25415,1.743164,26.977539,-104.187012,2.319336,,,,,,,,,,,0.0,1.0,1.0,7.0,0.0,0.0,0.0,4.0,0.0,,,,,,,-6.9408788545535725,-9.778670603365311,-2.825578845918707,1.1744911144290728,-4.789113415492879,4.974887376351152,7.004608560919358,,7.060599092121292,-2.171552487407582,,,,,,,,
LBP05_S07,LBP05,-1616,35,7,34,-1616,1715801852.36,2024-05-15 19:37:32.360000+00:00,2024-05-16 04:37:32.360000+09:00,2024,5,15,19,37,32,360,,,,,,,,,0.048584,-0.023438,0.902344,-41.564941,81.237793,-11.901855,,,,,,,,,,,0.0,1.0,1.0,7.0,0.0,0.0,0.0,4.0,0.0,,,,,,,-10.107084890111395,-9.453007145456255,-1.3723312751981018,0.770207718824617,-5.167233701311129,4.919994125343228,7.1763407282203655,,7.240872544853039,-2.180721737925168,,,,,,,,
LBP05_S07,LBP05,-1615,36,7,35,-1615,1715801852.4,2024-05-15 19:37:32.400000+00:00,2024-05-16 04:37:32.400000+09:00,2024,5,15,19,37,32,400,,,,,,,,,-0.574707,0.268066,0.025635,-77.941895,70.068359,-48.034668,,,,,,,,,,,0.0,1.0,1.0,7.0,0.0,0.0,0.0,4.0,0.0,,,,,,,-12.201359339635482,-8.221531404546944,0.8577121876993676,0.2821533452391977,-5.496094957493007,4.954302612851203,7.404848727132377,,7.430169697292586,-2.18788792444853,,,,,,,,
LBP05_S07,LBP05,-1614,37,7,36,-1614,1715801852.44,2024-05-15 19:37:32.440000+00:00,2024-05-16 04:37:32.440000+09:00,2024,5,15,19,37,32,440,,,,,,,,,0.002197,-0.590332,0.430664,-89.172363,-58.59375,14.282227,,,,,,,,,,,0.0,1.0,1.0,7.0,0.0,0.0,0.0,4.0,0.0,,,,,,,-12.9654094709606,-6.264500550209348,3.354953305667937,-0.23646303359922632,-5.746674979501381,5.08850074507792,7.679389814232945,,7.625916373941261,-2.191285384256692,,,,,,,,
LBP05_S07,LBP05,-1613,38,7,37,-1613,1715801852.48,2024-05-15 19:37:32.480000+00:00,2024-05-16 04:37:32.480000+09:00,2024,5,15,19,37,32,480,,,,,,,,,0.376953,-0.184326,0.613037,88.07373,-63.354492,22.338867,,,,,,,,,,,0.0,1.0,1.0,7.0,0.0,0.0,0.0,4.0,0.0,-0.12234042666666667,-0.18016274666666665,0.9693977333333333,-0.29703778666666686,-2.8238932,2.329915413333333,-12.578541278327949,-3.821906203015875,5.50611047849211,-0.7396046847323443,-5.899551227622016,5.308745164217605,7.970852839917337,-2.171552487407582,7.825301048087984,-2.190279021345326,0.49929342666666665,-0.004163253333333339,-0.3563607333333333,0.8598174133333333,0.6134364114174595,0.6134364114174595,0.6134364114174595,0.6134364114174595
LBP05_S07,LBP05,-1612,39,7,38,-1612,1715801852.52,2024-05-15 19:37:32.520000+00:00,2024-05-16 04:37:32.520000+09:00,2024,5,15,19,37,32,520,,,,,,,,,0.158936,0.148926,1.051514,-7.202148,29.907227,34.179688,,,,,,,,,,,0.0,1.0,1.0,7.0,0.0,0.0,0.0,4.0,0.0,-0.12382154666666667,-0.17515624,0.9724641466666668,0.19531247999999987,-1.7944335733333332,2.4348958933333336,-11.521496442525251,-1.2284075916735888,6.776278652065382,-1.2004645424333544,-5.94868753128896,5.57979631030022,8.243914441998559,-2.1898909884427544,8.026347564412355,-2.193251031110506,0.28275754666666664,0.32408223999999997,0.07904985333333325,0.6858896399999999,0.4372985339472238,0.5253674726823416,0.5253674726823416,0.5253674726823416
LBP05_S07,LBP05,-1611,40,7,39,-1611,1715801852.56,2024-05-15 19:37:32.560000+00:00,2024-05-16 04:37:32.560000+09:00,2024,5,15,19,37,32,560,,,,,,,,,-0.425537,-0.556885,1.69165,-8.666992,24.353027,14.892578,,,,,,,,,,,0.0,1.0,1.0,7.0,0.0,0.0,0.0,4.0,0.0,-0.12934889333333333,-0.17822916,0.9807974800000001,-0.4500325733333335,-1.424153626666667,2.61962896,-10.311472543242285,1.0603931124367827,6.88494201565643,-1.6129234441630458,-5.906271806791489,5.855193990926478,8.471650687074646,-2.202220297495254,8.228215555549372,-2.1925007091526125,-0.2961881066666667,-0.37865583999999997,0.71085252,1.3856964666666667,0.8581485564208803,0.6362945005951879,0.6362945005951879,0.6362945005951879
LBP05_S07,LBP05,-1610,41,7,40,-1610,1715801852.6,2024-05-15 19:37:32.600000+00:00,2024-05-16 04:37:32.600000+09:00,2024,5,15,19,37,32,600,,,,,,,,,-0.443848,-0.408447,1.816895,36.437988,-87.219238,8.056641,,,,,,,,,,,0.0,1.0,1.0,7.0,0.0,0.0,0.0,4.0,0.0,-0.12985996,-0.17921874666666668,0.9857323733333334,-1.2060547066666667,-2.3209635200000003,2.73111984,-9.26167471235154,2.514510659327275,5.894396574787498,-1.9833904326571075,-5.805691380418398,6.0909698539179775,8.645218549831913,-2.201477763681177,8.431129214070308,-2.188486711529241,-0.31398804,-0.22922825333333333,0.8311626266666665,1.3743789199999998,0.9175867225263914,0.7066175560779888,0.7066175560779888,0.7066175560779888
LBP05_S07,LBP05,-1609,42,7,41,-1609,1715801852.64,2024-05-15 19:37:32.640000+00:00,2024-05-16 04:37:32.640000+09:00,2024,5,15,19,37,32,640,,,,,,,,,0.032227,-0.09668,1.328613,20.690918,9.399414,5.004883,,,,,,,,,,,0.0,1.0,1.0,7.0,0.0,0.0,0.0,4.0,0.0,-0.12385410666666667,-0.17657226666666667,0.9828808133333333,-1.6072591333333333,-1.5454101333333334,2.4202474400000002,-8.392263163815601,2.664234293923276,4.169063385639812,-2.3190809592097317,-5.699122008661466,6.25773238934357,8.77595253072954,-2.1862535696998613,8.636506845793814,-2.1853408353410724,0.15608110666666666,0.07989226666666667,0.3457321866666667,0.5817055600000001,0.38765297758271383,0.6428246403789337,0.6428246403789337,0.6428246403789337
LBP05_S07,LBP05,-1608,43,7,42,-1608,1715801852.68,2024-05-15 19:37:32.680000+00:00,2024-05-16 04:37:32.680000+09:00,2024,5,15,19,37,32,680,,,,,,,,,-0.167969,0.038818,0.565674,-29.052734,140.075684,-22.827148,,,,,,,,,,,0.0,1.0,1.0,7.0,0.0,0.0,0.0,4.0,0.0,-0.12793289333333335,-0.17403646666666667,0.9737564666666666,-1.6072591333333335,-0.5501301866666666,2.3103841600000004,-7.528325459068544,1.283032001931741,2.2256659581624296,-2.6202139775724733,-5.647800728584197,6.346759027670067,8.890698764066514,-2.208111079936406,8.847190125190613,-2.1858270589308573,-0.040036106666666654,0.21285446666666666,-0.4080824666666666,0.6609730399999999,0.46199698420847607,0.6126866976838575,0.6126866976838575,0.6126866976838575
LBP05_S07,LBP05,-1607,44,7,43,-1607,1715801852.72,2024-05-15 19:37:32.720000+00:00,2024-05-16 04:37:32.720000+09:00,2024,5,15,19,37,32,720,,,,,,,,,-0.282715,-0.049316,0.089355,-149.658203,-15.808105,-14.770508,,,,,,,,,,,0.0,1.0,1.0,7.0,0.0,0.0,0.0,4.0,0.0,-0.12433264000000001,-0.17661133333333334,0.9754621866666667,-3.4399414133333335,-2.2534179466666666,2.8173828533333336,-6.5155261044106885,-1.4659820407280455,0.542100480445421,-2.8808350217489007,-5.706440010213319,6.368443046887884,9.023288472289524,-2.1879987774052525,9.067104931809315,-2.191275205927835,-0.15838236,0.12729533333333334,-0.8861071866666668,1.1717848800000001,0.9091067154685026,0.6550324145102354,0.6550324145102354,0.6550324145102354
LBP05_S07,LBP05,-1606,45,7,44,-1606,1715801852.76,2024-05-15 19:37:32.760000+00:00,2024-05-16 04:37:32.760000+09:00,2024,5,15,19,37,32,760,,,,,,,,,0.01709,-0.465088,0.488281,-16.723633,-63.110352,-12.207031,,,,,,,,,,,0.0,1.0,1.0,7.0,0.0,0.0,0.0,4.0,0.0,-0.12073238666666666,-0.18219075999999998,0.9801301466666666,-2.3128255199999996,-2.5878905999999997,2.854817746666667,-5.408337871101991,-5.014960524062343,-0.5935003084628226,-3.09716853659298,-5.907038431175812,6.344703034549371,9.205477313429734,-2.1603887281656418,9.300083037454572,-2.1941213108900475,0.13782238666666666,-0.28289724000000005,-0.4918491466666666,0.9125687733333334,0.5839019110628445,0.6461411015793115,0.6461411015793115,0.6461411015793115
LBP05_S07,LBP05,-1605,46,7,45,-1605,1715801852.8,2024-05-15 19:37:32.800000+00:00,2024-05-16 04:37:32.800000+09:00,2024,5,15,19,37,32,800,,,,,,,,,0.390625,0.043213,0.729492,116.210938,-30.578613,8.361816,,,,,,,,,,,0.0,1.0,1.0,7.0,0.0,0.0,0.0,4.0,0.0,-0.1187044,-0.17914388,0.9848144,-0.7096354133333331,-1.1580403466666667,2.952473986666667,-4.493444911691823,-8.542647351885151,-1.1360948653274734,-3.276906333060653,-6.248744325251218,6.299259239936273,9.458625044367434,-2.160173825835722,9.54829240050233,-2.196696675861971,0.5093294,0.22235688,-0.25532239999999995,0.98700868,0.6115950847819613,0.6423026552684948,0.6423026552684948,0.6423026552684948
LBP05_S07,LBP05,-1604,47,7,46,-1604,1715801852.84,2024-05-15 19:37:32.840000+00:00,2024-05-16 04:37:32.840000+09:00,2024,5,15,19,37,32,840,,,,,,,,,-0.064453,0.012451,1.252441,-16.052246,31.37207,22.705078,,,,,,,,,,,0.0,1.0,1.0,7.0,0.0,0.0,0.0,4.0,0.0,-0.12839190666666667,-0.18154297333333333,0.99291336,-0.7950846399999997,-0.10986326666666665,3.30403648,-4.123477828304315,-11.228286656790868,-1.2318555126217567,-3.4418454461928256,-6.697875791522853,6.249985019431403,9.786222608200935,-2.1902030712389213,9.81085367548378,-2.2001769223465653,0.06393890666666667,0.19399397333333332,0.25952763999999995,0.51746052,0.3302672272559788,0.6110991124672432,0.6110991124672432,0.6110991124672432
LBP05_S07,LBP05,-1603,48,7,47,-1603,1715801852.88,2024-05-15 19:37:32.880000+00:00,2024-05-16 04:37:32.880000+09:00,2024,5,15,19,37,32,880,,,,,,,,,-0.726074,-0.592285,1.825684,-1.831055,-29.052734,-1.342773,,,,,,,,,,,0.0,1.0,1.0,7.0,0.0,0.0,0.0,4.0,0.0,-0.14018553333333333,-0.18367188,0.9990038533333334,-0.9545898533333331,-1.4868163866666664,3.1738281466666667,-4.475827426158233,-12.492985519253786,-1.10296067058064,-3.620878543239155,-7.197595212293005,6.205866592608177,10.170000906104342,-2.226033957377357,10.08298442067308,-2.201665867359255,-0.5858884666666666,-0.40861311999999994,0.8266801466666667,1.8211817333333333,1.092533771607072,0.6548658996617731,0.6548658996617731,0.6548658996617731
LBP05_S07,LBP05,-1602,49,7,48,-1602,1715801852.92,2024-05-15 19:37:32.920000+00:00,2024-05-16 04:37:32.920000+09:00,2024,5,15,19,37,32,920,,,,,,,,,-0.320801,-0.107666,1.768066,66.833496,-112.487793,1.953125,,,,,,,,,,,0.0,1.0,1.0,7.0,0.0,0.0,0.0,4.0,0.0,-0.13442056,-0.17894205333333332,0.9971190933333333,-0.6306966266666664,-1.8115234266666664,2.97119144,-5.4006467030837495,-12.1378306379315,-0.9328405222738707,-3.8369044113625046,-7.683108437810265,6.168552971717222,10.573695498451132,-2.21835203806488,10.355916309017768,-2.1987831400974835,-0.18638044,0.07127605333333333,0.7709469066666667,1.0286034,0.7963523573722073,0.6666564378043093,0.6666564378043093,0.6666564378043093
LBP05_S07,LBP05,-1601,50,7,49,-1601,1715801852.96,2024-05-15 19:37:32.960000+00:00,2024-05-16 04:37:32.960000+09:00,2024,5,15,19,37,32,960,,,,,,,,,0.200195,-0.285156,0.981445,-54.748535,65.368652,8.178711,,,,,,,,,,,0.0,1.0,1.0,7.0,0.0,0.0,0.0,4.0,0.0,-0.13651041333333333,-0.1780892,0.9839159733333332,-1.5869140799999994,0.13183594666666693,2.7522786800000003,-6.454153266983281,-10.342558554498448,-0.8014571597615505,-4.095070542041836,-8.096810779990204,6.136494685326761,10.953744317552239,-2.2279739472144926,10.61773685836224,-2.201057633047248,0.33670541333333337,-0.10706680000000002,-0.0024709733333332373,0.4462431866666666,0.35332696010837455,0.6425541702892374,0.6425541702892374,0.6425541702892374
LBP05_S07,LBP05,-1600,51,7,50,-1600,1715801853.0,2024-05-15 19:37:33+00:00,2024-05-16 04:37:33+09:00,2024,5,15,19,37,33,0,19.0,37.0,33.0,40.837158,141.718658,6.414,3.0,10.0,-0.525391,0.138428,0.051025,-52.001953,72.32666,-22.521973,-574.0,50.0,554.0,12.0,0.0,1020.099976,14.89,0.070359,-56.841873,3.839062,0.0,1.0,1.0,7.0,0.0,0.0,0.0,4.0,0.0,-0.13830728,-0.17732097333333333,0.9739355066666667,-2.632649759999999,-1.8961588399999998,2.5585937866666666,-7.096614480909031,-7.543469084006038,-0.6852187675837519,-4.3789351212781975,-8.398549543350445,6.10908593462341,11.270831299646414,-2.2362802285271157,10.8550289409235,-2.207812487568278,-0.38708372,0.3157489733333333,-0.9229105066666667,1.6257432,1.0494260449244701,0.6716164470488969,0.6716164470488969,0.6716164470488969
LBP05_S07,LBP05,-1599,52,7,51,-1599,1715801853.04,2024-05-15 19:37:33.040000+00:00,2024-05-16 04:37:33.040000+09:00,2024,5,15,19,37,33,40,,,,,,,,,-0.135254,-0.243164,0.295898,-68.847656,-46.203613,1.281738,,,,,,,,,,,0.0,1.0,1.0,7.0,0.0,0.0,0.0,4.0,0.0,-0.13269856,-0.1833528666666667,0.9788834266666667,-1.2540690266666663,-3.1860351466666668,2.6692708666666665,-6.941190723657423,-4.261633589350857,-0.5036119421895573,-4.656582750224494,-8.56901488692448,6.088941456935828,11.497259982622532,-2.2011430198267607,11.054996582956088,-2.213600659907167,-0.00255544000000002,-0.059811133333333294,-0.6829854266666667,0.745352,0.6856041095145654,0.6725489578799414,0.6725489578799414,0.6725489578799414
LBP05_S07,LBP05,-1598,53,7,52,-1598,1715801853.08,2024-05-15 19:37:33.080000+00:00,2024-05-16 04:37:33.080000+09:00,2024,5,15,19,37,33,80,,,,,,,,,0.38623,-0.339355,0.682617,32.104492,-55.786133,-2.13623,,,,,,,,,,,0.0,1.0,1.0,7.0,0.0,0.0,0.0,4.0,0.0,-0.12402017333333333,-0.17954101333333333,0.9827441066666668,0.7145182133333337,-2.132975253333333,2.700195346666667,-5.91326148183411,-0.9695914171167923,-0.179016873609652,-4.893113209497859,-8.607798543609151,6.081780781991442,11.620017647513393,-2.1792838073186895,11.20777080908351,-2.2159713028097032,0.5102501733333333,-0.15981398666666669,-0.30012710666666675,0.9701912666666668,0.6131655811256002,0.6688374968327951,0.6688374968327951,0.6688374968327951
LBP05_S07,LBP05,-1597,54,7,53,-1597,1715801853.12,2024-05-15 19:37:33.120000+00:00,2024-05-16 04:37:33.120000+09:00,2024,5,15,19,37,33,120,,,,,,,,,0.153076,-0.007812,1.072998,32.165527,45.532227,-0.488281,,,,,,,,,,,0.0,1.0,1.0,7.0,0.0,0.0,0.0,4.0,0.0,-0.1308496,-0.17701496,0.9888248399999999,-0.4052734533333329,-0.68929036,2.6383464000000005,-4.239234969141431,1.9613320810152801,0.31996120204848544,-5.062682608263516,-8.52934526036854,6.094579230073381,11.641493965734252,-2.210743706902903,11.308435907490416,-2.218530619227422,0.2839256,0.16920295999999999,0.08417315999999997,0.53730172,0.34106965398948524,0.649557035489071,0.649557035489071,0.649557035489071
LBP05_S07,LBP05,-1596,55,7,54,-1596,1715801853.16,2024-05-15 19:37:33.160000+00:00,2024-05-16 04:37:33.160000+09:00,2024,5,15,19,37,33,160,,,,,,,,,-0.525391,-0.431641,1.67749,21.179199,42.114258,1.464844,,,,,,,,,,,0.0,1.0,1.0,7.0,0.0,0.0,0.0,4.0,0.0,-0.14048501333333333,-0.18331704,1.00098304,-0.25634766666666625,-1.3517252533333335,2.20296228,-2.295345474237501,4.255809056059165,0.9646211910970048,-5.154496427233016,-8.359112898126174,6.133164077717262,11.578398139042323,-2.2279372733759346,11.35807078053963,-2.216904139099782,-0.38490598666666676,-0.24832396,0.67650696,1.3097369066666666,0.8169939256875558,0.6588590849445424,0.6588590849445424,0.6588590849445424
LBP05_S07,LBP05,-1595,56,7,55,-1595,1715801853.2,2024-05-15 19:37:33.200000+00:00,2024-05-16 04:37:33.200000+09:00,2024,5,15,19,37,33,200,,,,,,,,,-0.507568,-0.335205,1.91626,5.493164,-89.599609,14.282227,,,,,,,,,,,0.0,1.0,1.0,7.0,0.0,0.0,0.0,4.0,0.0,-0.13475584,-0.17949542666666665,1.0024836933333334,0.0040690000000004525,-2.516276026666667,2.3396810266666668,-0.42773928979147413,5.71669051936011,1.6769935837887533,-5.171605998824675,-8.13044527735177,6.200243821068812,11.458301464693319,-2.218055549224617,11.363330575340376,-2.2131895399227544,-0.37281216000000006,-0.15570957333333332,0.9137763066666666,1.44229804,0.9991103625210221,0.6767670469222518,0.6767670469222518,0.6767670469222518
LBP05_S07,LBP05,-1594,57,7,56,-1594,1715801853.24,2024-05-15 19:37:33.240000+00:00,2024-05-16 04:37:33.240000+09:00,2024,5,15,19,37,33,240,,,,,,,,,0.22168,-0.198975,1.299072,-20.446777,-19.592285,-2.685547,,,,,,,,,,,0.0,1.0,1.0,7.0,0.0,0.0,0.0,4.0,0.0,-0.13155597333333333,-0.17677082666666669,0.9906477600000001,-0.9423828266666662,0.10579427999999988,2.10937504,1.151361003055497,6.22604603316531,2.350986784125586,-5.125551558702455,-7.881403436025158,6.294283292433835,11.313964869475159,-2.2139095002642772,11.334794741361382,-2.2112849564030292,0.35323597333333334,-0.022204173333333327,0.3084242399999999,0.6838643866666666,0.4694615958624748,0.666401774369263,0.666401774369263,0.666401774369263
LBP05_S07,LBP05,-1593,58,7,57,-1593,1715801853.28,2024-05-15 19:37:33.280000+00:00,2024-05-16 04:37:33.280000+09:00,2024,5,15,19,37,33,280,,,,,,,,,-0.253174,0.086426,0.270996,8.422852,147.155762,3.78418,,,,,,,,,,,0.0,1.0,1.0,7.0,0.0,0.0,0.0,4.0,0.0,-0.13874346666666668,-0.17219725333333333,0.97464516,-1.8546549599999995,0.09847006666666658,1.2125651466666667,2.3593410924876506,5.775870533982971,2.870600069258202,-5.0311779150029485,-7.650368614665839,6.409107295204164,11.176651890173405,-2.251627121554551,11.284790504352848,-2.212955780356656,-0.11443053333333333,0.25862325333333336,-0.70364916,1.0767029466666667,0.7583551110742079,0.6707805046885461,0.6707805046885461,0.6707805046885461
LBP05_S07,LBP05,-1592,59,7,58,-1592,1715801853.32,2024-05-15 19:37:33.320000+00:00,2024-05-16 04:37:33.320000+09:00,2024,5,15,19,37,33,320,,,,,,,,,-0.19458,-0.138428,0.217529,-40.527344,-13.48877,-3.601074,,,,,,,,,,,0.0,1.0,1.0,7.0,0.0,0.0,0.0,4.0,0.0,-0.13261065333333336,-0.18285806666666665,0.9774999733333332,-2.316080746666666,-2.1053059733333335,1.726074266666667,3.173030954261058,4.508139865921434,3.1212596072492937,-4.904256676832507,-7.4700430200289825,6.533957679494136,11.070044228943276,-2.2020872367884783,11.22532169109419,-2.2177582059378627,-0.06196934666666665,0.04443006666666666,-0.7599709733333332,0.8663703866666665,0.7637866921199346,0.6750080586627001,0.6750080586627001,0.6750080586627001
LBP05_S07,LBP05,-1591,60,7,59,-1591,1715801853.36,2024-05-15 19:37:33.360000+00:00,2024-05-16 04:37:33.360000+09:00,2024,5,15,19,37,33,360,,,,,,,,,0.086914,-0.049072,0.604004,6.958008,-72.143555,-4.943848,,,,,,,,,,,0.0,1.0,1.0,7.0,0.0,0.0,0.0,4.0,0.0,-0.1260774533333333,-0.17800781333333332,0.9815364400000001,1.105143213333334,-1.9978840933333333,1.5096029066666667,3.5653029869576502,2.7152147245657443,3.0008293783408435,-4.761644557354201,-7.361434431046352,6.65399085462777,11.00634226555969,-2.1908279554442185,11.166413210927319,-2.21732817095398,0.2129914533333333,0.12893581333333332,-0.3775324400000001,0.7194597066666667,0.452239479043269,0.665322468244464,0.665322468244464,0.665322468244464
LBP05_S07,LBP05,-1590,61,7,60,-1590,1715801853.4,2024-05-15 19:37:33.400000+00:00,2024-05-16 04:37:33.400000+09:00,2024,5,15,19,37,33,400,,,,,,,,,0.332764,-0.230225,1.029297,11.84082,5.859375,4.577637,,,,,,,,,,,0.0,1.0,1.0,7.0,0.0,0.0,0.0,4.0,0.0,-0.12646156,-0.16863606666666667,0.9877701600000001,-0.12207031999999932,-0.7511392933333334,1.5071614933333335,3.501356153445792,0.7710158339581309,2.4398790136800472,-4.6215903112163685,-7.330593797688027,6.751586015174972,10.985472959856459,-2.2172343933298646,11.114985105643274,-2.2168034097531892,0.45922556000000003,-0.061588933333333346,0.04152683999999984,0.5623413333333332,0.46519435734629994,0.6569837969570405,0.6569837969570405,0.6569837969570405
LBP05_S07,LBP05,-1589,62,7,61,-1589,1715801853.44,2024-05-15 19:37:33.440000+00:00,2024-05-16 04:37:33.440000+09:00,2024,5,15,19,37,33,440,,,,,,,,,-0.170898,-0.282959,1.49585,15.563965,58.47168,16.845703,,,,,,,,,,,0.0,1.0,1.0,7.0,0.0,0.0,0.0,4.0,0.0,-0.13683916000000002,-0.18239908,0.9987825333333334,-1.4843750133333324,-0.7902018000000001,1.5079752933333335,2.9972186036735544,-0.9775909924274464,1.4327003489127728,-4.501701567069427,-7.369697437385125,6.808894029131483,10.997217612537208,-2.2178512593630284,11.074328145101742,-2.216003070827513,-0.03405883999999998,-0.10055992000000002,0.49706746666666646,0.6316862266666665,0.508279813204272,0.6510356376069297,0.6510356376069297,0.6510356376069297
LBP05_S07,LBP05,-1588,63,7,62,-1588,1715801853.48,2024-05-15 19:37:33.480000+00:00,2024-05-16 04:37:33.480000+09:00,2024,5,15,19,37,33,480,,,,,,,,,-0.773193,-0.368408,1.902832,38.696289,-58.166504,-3.78418,,,,,,,,,,,0.0,1.0,1.0,7.0,0.0,0.0,0.0,4.0,0.0,-0.13919593333333333,-0.18184569333333334,1.00552732,-0.7869466266666658,-2.5097656133333333,1.2288411866666669,2.1921407779878694,-2.29991904135721,0.06687733297033445,-4.414015935949912,-7.461694199039413,6.811569122450296,11.025329514926822,-2.227308063130753,11.044254431641445,-2.2123023264388957,-0.6339970666666667,-0.18656230666666668,0.8973046800000002,1.7178640533333336,1.1144117118734116,0.6710746496251677,0.6688577943094867,0.6688577943094867
LBP05_S07,LBP05,-1587,64,7,63,-1587,1715801853.52,2024-05-15 19:37:33.520000+00:00,2024-05-16 04:37:33.520000+09:00,2024,5,15,19,37,33,520,,,,,,,,,-0.161621,-0.028564,1.479736,22.949219,-66.345215,3.234863,,,,,,,,,,,0.0,1.0,1.0,7.0,0.0,0.0,0.0,4.0,0.0,-0.12979814666666667,-0.17718424,0.9982454133333334,-1.4534505333333327,-0.9952799333333333,1.1409505600000003,1.3662599473927595,-3.1135677223698734,-1.4685206298199034,-4.359365538054202,-7.586236907934208,6.7528282972575,11.052409164065516,-2.2064433570640793,11.021943065186012,-2.2051912643024405,-0.03182285333333332,0.14862024,0.48149058666666655,0.6619336799999999,0.5049097491438872,0.6737790982330343,0.6627856444885386,0.6627856444885386
LBP05_S07,LBP05,-1586,65,7,64,-1586,1715801853.56,2024-05-15 19:37:33.560000+00:00,2024-05-16 04:37:33.560000+09:00,2024,5,15,19,37,33,560,,,,,,,,,-0.115723,-0.196289,0.66626,-22.399902,130.615234,3.234863,,,,,,,,,,,0.0,1.0,1.0,7.0,0.0,0.0,0.0,4.0,0.0,-0.1325129866666667,-0.17477863999999999,0.9797786133333333,-2.289225266666666,0.8154297066666665,1.0164388400000002,0.8623473264639231,-3.456766669962641,-2.9100483416089267,-4.324871644995644,-7.724507574732714,6.636426363593142,11.064117086201886,-2.2226896613680243,11.003316700293214,-2.2062360307596394,0.016789986666666687,-0.021510360000000006,-0.3135186133333333,0.35181896,0.31470386102819364,0.6520413104173269,0.6503541522220978,0.6503541522220978
LBP05_S07,LBP05,-1585,66,7,65,-1585,1715801853.6,2024-05-15 19:37:33.600000+00:00,2024-05-16 04:37:33.600000+09:00,2024,5,15,19,37,33,600,,,,,,,,,-0.298828,0.032959,0.082275,-79.223633,-12.145996,-14.343262,,,,,,,,,,,0.0,1.0,1.0,7.0,0.0,0.0,0.0,4.0,0.0,-0.13133461333333335,-0.17798502666666668,0.9740429333333335,-2.845052093333333,-1.6145833066666668,1.0400390933333334,0.9361849008724167,-3.4263041755841606,-3.979638232173505,-4.287424248960748,-7.86155974175608,6.477240834306202,11.051731859277997,-2.210052159967855,10.984549840986256,-2.209645401803474,-0.16749338666666663,0.21094402666666667,-0.8917679333333335,1.2702053466666667,0.9315586207453729,0.6526001863460862,0.6600508580332451,0.6600508580332451
LBP05_S07,LBP05,-1584,67,7,66,-1584,1715801853.64,2024-05-15 19:37:33.640000+00:00,2024-05-16 04:37:33.640000+09:00,2024,5,15,19,37,33,640,,,,,,,,,-0.032227,-0.256836,0.456299,-18.676758,-63.842773,-20.446777,,,,,,,,,,,0.0,1.0,1.0,7.0,0.0,0.0,0.0,4.0,0.0,-0.12355141333333333,-0.17979492,0.9820051733333334,-0.9456380266666659,-2.944335906666667,1.0522461333333335,1.623801355802176,-3.124770701948438,-4.456968033893778,-4.2224721947286605,-7.986550569834018,6.298962112950451,11.013227734872187,-2.1769020563781045,10.963257811068129,-2.2081824456246406,0.09132441333333333,-0.07704108000000001,-0.5257061733333334,0.6940716666666666,0.539112657205357,0.6586585735309919,0.6560195846723155,0.6560195846723155
LBP05_S07,LBP05,-1583,68,7,67,-1583,1715801853.68,2024-05-15 19:37:33.680000+00:00,2024-05-16 04:37:33.680000+09:00,2024,5,15,19,37,33,680,,,,,,,,,0.468506,-0.184326,0.640869,70.373535,-37.17041,-4.455566,,,,,,,,,,,0.0,1.0,1.0,7.0,0.0,0.0,0.0,4.0,0.0,-0.12021808,-0.1734537733333333,0.9907486666666667,-0.45410155999999924,-1.5478515333333334,1.0799154133333333,2.720125714004429,-2.645373964130597,-4.235345530080866,-4.113667166168483,-8.092365528399242,6.129548291747216,10.953538225619072,-2.1805165001899978,10.939113748013625,-2.208538709336801,0.58872408,-0.010872226666666679,-0.3498796666666667,0.9494759733333333,0.6849306744710121,0.6675759211414933,0.6569522004722734,0.6569522004722734
LBP05_S07,LBP05,-1582,69,7,68,-1582,1715801853.72,2024-05-15 19:37:33.720000+00:00,2024-05-16 04:37:33.720000+09:00,2024,5,15,19,37,33,720,,,,,,,,,0.086914,0.000732,1.073242,12.084961,64.39209,8.666992,,,,,,,,,,,0.0,1.0,1.0,7.0,0.0,0.0,0.0,4.0,0.0,-0.13245441333333335,-0.17849282666666666,1.0023079199999998,-2.1158854133333325,-0.39632158666666667,1.4396159333333332,3.891908529772929,-2.0779636891928788,-3.3378057225876216,-3.957990824977566,-8.175484075966956,5.996036062843712,10.883780580015301,-2.2125349013604683,10.913886676244314,-2.207673883339466,0.21936841333333335,0.17922482666666667,0.07093408000000023,0.46952732000000025,0.2920200043961498,0.6428924526985992,0.6455480693448946,0.6455480693448946
LBP05_S07,LBP05,-1581,70,7,69,-1581,1715801853.76,2024-05-15 19:37:33.760000+00:00,2024-05-16 04:37:33.760000+09:00,2024,5,15,19,37,33,760,,,,,,,,,-0.796875,-0.35376,1.858154,18.249512,20.629883,-9.58252,,,,,,,,,,,0.0,1.0,1.0,7.0,0.0,0.0,0.0,4.0,0.0,-0.13964517333333334,-0.18335936000000003,1.0113085733333333,-2.264811186666666,-2.1679687199999997,1.3354492666666669,4.850140715611853,-1.5024019238686404,-1.8904817135122118,-3.763985196353092,-8.235580152921703,5.9204167943032235,10.818673672490114,-2.224921665882566,10.89103080314889,-2.203589737158349,-0.6572298266666666,-0.17040064,0.8468454266666667,1.6744758933333332,1.0854190894944473,0.6629531398358632,0.6588774941979114,0.6588774941979114
LBP05_S07,LBP05,-1580,71,7,70,-1580,1715801853.8,2024-05-15 19:37:33.800000+00:00,2024-05-16 04:37:33.800000+09:00,2024,5,15,19,37,33,800,,,,,,,,,-0.325439,-0.592529,1.876221,49.987793,-95.825195,26.062012,,,,,,,,,,,0.0,1.0,1.0,7.0,0.0,0.0,0.0,4.0,0.0,-0.12894856000000002,-0.1774544133333333,1.0059700266666667,-2.043457026666666,-1.5266926799999998,1.2483724400000002,5.465979490919159,-0.9644314881447552,-0.07307762527311754,-3.5453460167163255,-8.274157412447492,5.917493689292299,10.772552660675197,-2.202604831541529,10.875022650835017,-2.1986467658342983,-0.19649043999999996,-0.41507458666666663,0.8702509733333332,1.4818159999999998,0.9839878871691011,0.6778488519313488,0.6684395645794169,0.6684395645794169
LBP05_S07,LBP05,-1579,72,7,71,-1579,1715801853.84,2024-05-15 19:37:33.840000+00:00,2024-05-16 04:37:33.840000+09:00,2024,5,15,19,37,33,840,,,,,,,,,0.18457,0.044434,1.055176,-17.272949,57.312012,1.586914,,,,,,,,,,,0.0,1.0,1.0,7.0,0.0,0.0,0.0,4.0,0.0,-0.13104165333333334,-0.17327148,0.9855859066666667,-3.1323242133333324,1.4510091466666668,1.027018266666667,5.7587093002197465,-0.45584247669614014,1.9246333393772759,-3.3149976447075358,-8.292391111515338,5.99447902286739,10.755776981992154,-2.221413896484637,10.87066738628632,-2.1976080656463592,0.31561165333333335,0.21770548,0.06959009333333321,0.6029072266666665,0.38967829402209797,0.6802252946019937,0.6604749568492078,0.6604749568492078
LBP05_S07,LBP05,-1578,73,7,72,-1578,1715801853.88,2024-05-15 19:37:33.880000+00:00,2024-05-16 04:37:33.880000+09:00,2024,5,15,19,37,33,880,,,,,,,,,-0.512939,0.213379,0.061768,-62.194824,62.316895,-25.939941,,,,,,,,,,,0.0,1.0,1.0,7.0,0.0,0.0,0.0,4.0,0.0,-0.13351561333333334,-0.17765624,0.9760514,-4.396972653333333,-0.3434244533333332,1.1808268533333335,5.77632030586365,0.08287823385663035,3.92216592394782,-3.08394483247299,-8.289075982161073,6.151365659825303,10.773058797233698,-2.218659803157394,10.882525645075894,-2.20198612507851,-0.3794233866666667,0.39103524,-0.9142834,1.6847420266666666,1.0643236353605139,0.6790968891521314,0.6716929756967441,0.6716929756967441
LBP05_S07,LBP05,-1577,74,7,73,-1577,1715801853.92,2024-05-15 19:37:33.920000+00:00,2024-05-16 04:37:33.920000+09:00,2024,5,15,19,37,33,920,,,,,,,,,-0.06543,-0.569092,0.385254,-91.491699,-55.541992,6.164551,,,,,,,,,,,0.0,1.0,1.0,7.0,0.0,0.0,0.0,4.0,0.0,-0.12419594666666668,-0.18533852,0.9824967066666667,-2.4625650933333327,-2.281087213333333,1.75211592,5.469673312841833,0.7297556996939726,5.748174460001432,-2.865157899959317,-8.259885754173315,6.381292638225361,10.823850433111303,-2.1656018952529132,10.914461716799748,-2.2064560234880357,0.05876594666666668,-0.38375348000000004,-0.5972427066666667,1.0397621333333333,0.7123335037510633,0.6757361350072856,0.6727913683468608,0.6727913683468608
LBP05_S07,LBP05,-1576,75,7,74,-1576,1715801853.96,2024-05-15 19:37:33.960000+00:00,2024-05-16 04:37:33.960000+09:00,2024,5,15,19,37,33,960,,,,,,,,,0.397705,-0.223389,0.592285,120.483398,-58.47168,14.892578,,,,,,,,,,,0.0,1.0,1.0,7.0,0.0,0.0,0.0,4.0,0.0,-0.11938800000000001,-0.17501625333333334,0.9889941066666668,-0.5647786399999996,-1.5380859066666666,1.6202799733333335,4.675656971616094,1.521893355508662,7.2419275469028745,-2.678131621094673,-8.199010019952969,6.670969740101476,10.90403556306315,-2.1732599481275154,10.969206101228368,-2.207514813492277,0.517093,-0.04837274666666666,-0.3967091066666668,0.9621748533333335,0.6535313371073666,0.6877443100872452,0.6722845254195057,0.6722845254195057
LBP05_S07,LBP05,-1575,76,7,75,-1575,1715801854.0,2024-05-15 19:37:34+00:00,2024-05-16 04:37:34+09:00,2024,5,15,19,37,34,0,19.0,37.0,34.0,40.837093,141.718643,5.711,3.0,10.0,0.20752,0.260254,0.992676,49.194336,43.09082,9.58252,-575.0,54.0,553.0,10.0,0.0,1020.299988,14.96,0.072341,-58.496948,3.839062,0.0,1.0,1.0,7.0,0.0,0.0,0.0,6.0,0.0,-0.12703773333333332,-0.17591794666666669,1.00012692,-2.4544270666666663,-0.11962888000000002,1.4265950800000002,3.2461812883847965,2.3978038789304303,8.27228846886325,-2.548284369559281,-8.103097864795751,7.001861278856006,11.008179213791019,-2.1996651580884676,11.04787715169363,-2.2091044981302117,0.33455773333333333,0.4361719466666667,-0.0074509200000000275,0.7781806000000001,0.5497548182608077,0.6677574610206988,0.6691427380564622,0.6691427380564622
LBP05_S07,LBP05,-1574,77,7,76,-1574,1715801854.04,2024-05-15 19:37:34.040000+00:00,2024-05-16 04:37:34.040000+09:00,2024,5,15,19,37,34,40,,,,,,,,,-0.429199,-0.564209,1.757812,-19.104004,59.265137,23.193359,,,,,,,,,,,0.0,1.0,1.0,7.0,0.0,0.0,0.0,6.0,0.0,-0.13915037333333335,-0.18436846666666665,1.01077796,-1.719563786666666,-0.9334309733333334,0.6876627866666668,1.2365981136242634,3.1836874694306747,8.768088544448482,-2.4988204450143106,-7.9757503660185245,7.352584820633945,11.13181032276794,-2.2206826506996147,11.149607244197735,-2.2115161564229724,-0.29004862666666664,-0.37984053333333334,0.74703404,1.4169231999999998,0.8868296868694079,0.6758064841148925,0.6745849117767858,0.6745849117767858
LBP05_S07,LBP05,-1573,78,7,77,-1573,1715801854.08,2024-05-15 19:37:34.080000+00:00,2024-05-16 04:37:34.080000+09:00,2024,5,15,19,37,34,80,,,,,,,,,-0.63208,-0.374268,1.946777,33.874512,-71.411133,11.352539,,,,,,,,,,,0.0,1.0,1.0,7.0,0.0,0.0,0.0,6.0,0.0,-0.13558266666666668,-0.17785153333333334,1.0081542666666667,-0.6111653466666661,-1.8595377333333332,0.7218424800000002,-0.993773508703571,3.639024256656261,8.737385322748981,-2.538571385362453,-7.830189395752274,7.702080233543905,11.272898942857607,-2.225215484285252,11.27155351869818,-2.207947622080415,-0.4964973333333333,-0.19641646666666665,0.9386227333333332,1.6315365333333331,1.079861873535253,0.6944743358112787,0.6844697157221143,0.6844697157221143
LBP05_S07,LBP05,-1572,79,7,78,-1572,1715801854.12,2024-05-15 19:37:34.120000+00:00,2024-05-16 04:37:34.120000+09:00,2024,5,15,19,37,34,120,,,,,,,,,0.199707,-0.125977,1.38501,-3.540039,-24.597168,-1.464844,,,,,,,,,,,0.0,1.0,1.0,7.0,0.0,0.0,0.0,6.0,0.0,-0.13215166666666667,-0.17410478666666665,0.99268876,-1.3444010266666662,1.09944664,0.8813476800000001,-2.8612712942771967,3.538688026328358,8.257529185645998,-2.6530222371335412,-7.68864187469914,8.032381400969745,11.431224424301487,-2.22312280140288,11.409386255370347,-2.2057312740215673,0.33185866666666664,0.048127786666666644,0.3923212400000001,0.7723076933333334,0.5161031038914101,0.7014756738073556,0.6804609868690024,0.6804609868690024
LBP05_S07,LBP05,-1571,80,7,79,-1571,1715801854.16,2024-05-15 19:37:34.160000+00:00,2024-05-16 04:37:34.160000+09:00,2024,5,15,19,37,34,160,,,,,,,,,-0.303223,0.246826,0.274414,-20.324707,137.451172,-11.108398,,,,,,,,,,,0.0,1.0,1.0,7.0,0.0,0.0,0.0,6.0,0.0,-0.13688149333333333,-0.17378252000000002,0.9764257466666665,-2.5358072799999993,0.9407552400000001,0.8447265866666669,-3.792151839003841,2.757789728017489,7.438309012743861,-2.804708310693695,-7.578330285578441,8.3299137614795,11.605384177142748,-2.2408185122619133,11.557945015375173,-2.212661209758365,-0.1663415066666667,0.42060852000000004,-0.7020117466666664,1.2889617733333332,0.8351056917508771,0.7022001444498884,0.6840573753546273,0.6840573753546273
LBP05_S07,LBP05,-1570,81,7,80,-1570,1715801854.2,2024-05-15 19:37:34.200000+00:00,2024-05-16 04:37:34.200000+09:00,2024,5,15,19,37,34,200,,,,,,,,,-0.077393,-0.288574,0.226562,-171.264648,-43.457031,20.080566,,,,,,,,,,,0.0,1.0,1.0,7.0,0.0,0.0,0.0,6.0,0.0,-0.13543617333333335,-0.17716468,0.9747330399999998,-2.1663411333333324,-1.71549476,1.0904948133333334,-3.4881097809662083,1.3288381422526476,6.37953087988849,-2.9442327019323433,-7.5251767598883355,8.58509499667504,11.789853585716243,-2.2267214144691367,11.711577568547497,-2.2181965957121745,0.05804317333333335,-0.11140932,-0.7481710399999998,0.9176235333333331,0.7586441535055465,0.6925814960892694,0.6857525294035118,0.6857525294035118
LBP05_S07,LBP05,-1569,82,7,81,-1569,1715801854.24,2024-05-15 19:37:34.240000+00:00,2024-05-16 04:37:34.240000+09:00,2024,5,15,19,37,34,240,,,,,,,,,0.133789,-0.498779,0.543945,58.166504,-77.392578,2.807617,,,,,,,,,,,0.0,1.0,1.0,7.0,0.0,0.0,0.0,6.0,0.0,-0.12492836000000002,-0.17833656,0.9819889066666665,0.7535807466666673,-2.153320293333333,1.252441426666667,-2.068794882914825,-0.55445579241543,5.146889959965962,-3.0269844972489364,-7.547354991584952,8.790970595073677,11.975239726996605,-2.1857285530590627,11.863927979432228,-2.2191214514708535,0.25871736,-0.32044244,-0.4380439066666665,1.0172037066666664,0.601249111339317,0.6978529967083431,0.6838746756687519,0.6838746756687519
LBP05_S07,LBP05,-1568,83,7,82,-1568,1715801854.28,2024-05-15 19:37:34.280000+00:00,2024-05-16 04:37:34.280000+09:00,2024,5,15,19,37,34,280,,,,,,,,,0.371826,0.102295,0.941895,100.891113,15.380859,0.183105,,,,,,,,,,,0.0,1.0,1.0,7.0,0.0,0.0,0.0,6.0,0.0,-0.12420245333333334,-0.17314450666666667,0.9908463333333333,1.5901692933333342,-0.4541015333333329,1.4721679866666668,0.0020804735811882913,-2.5868008760848493,3.775086729199787,-3.026901278305689,-7.650827026628346,8.941974064241668,12.15138616395537,-2.196496322568917,12.007352275417054,-2.220331416589963,0.49602845333333334,0.27543950666666667,-0.048951333333333236,0.8204192933333333,0.5694799218446132,0.6902979891391594,0.6813878331943142,0.6813878331943142
LBP05_S07,LBP05,-1567,84,7,83,-1567,1715801854.32,2024-05-15 19:37:34.320000+00:00,2024-05-16 04:37:34.320000+09:00,2024,5,15,19,37,34,320,,,,,,,,,-0.383301,-0.313965,1.623535,4.02832,77.453613,16.479492,,,,,,,,,,,0.0,1.0,1.0,7.0,0.0,0.0,0.0,6.0,0.0,-0.13905597333333336,-0.17874346666666668,1.00631508,0.419921893333334,0.17985028000000033,1.4013672133333335,2.1637885779415775,-4.42031416183039,2.2889015303069216,-2.940349735188026,-7.827639593101562,9.033530125453945,12.309438033159575,-2.2349012526208956,12.132421861205062,-2.2210385516086673,-0.24424502666666664,-0.1352215333333333,0.6172199199999999,0.9966864799999999,0.6774222654838153,0.6868434120737145,0.6813034594132398,0.6813034594132398
LBP05_S07,LBP05,-1566,85,7,84,-1566,1715801854.36,2024-05-15 19:37:34.360000+00:00,2024-05-16 04:37:34.360000+09:00,2024,5,15,19,37,34,360,,,,,,,,,-0.936768,-0.566406,1.923096,2.319336,-62.133789,1.647949,,,,,,,,,,,0.0,1.0,1.0,7.0,0.0,0.0,0.0,6.0,0.0,-0.14365884,-0.187207,1.0158821466666665,1.157226573333334,-1.6178385199999996,1.4933268533333335,4.0180680516212215,-5.721188097639276,0.7247529597602362,-2.779627013123177,-8.056487117007133,9.062520243844354,12.440361094786386,-2.22861380766561,12.22806528553565,-2.216636726398402,-0.79310916,-0.37919899999999995,0.9072138533333334,2.0795220133333334,1.2632699620258612,0.7192846313930182,0.6934277615510026,0.6934277615510026
LBP05_S07,LBP05,-1565,86,7,85,-1565,1715801854.4,2024-05-15 19:37:34.400000+00:00,2024-05-16 04:37:34.400000+09:00,2024,5,15,19,37,34,400,,,,,,,,,-0.037842,0.129639,1.598145,46.264648,-72.20459,-7.995605,,,,,,,,,,,0.0,1.0,1.0,7.0,0.0,0.0,0.0,6.0,0.0,-0.13280271999999999,-0.18036129333333334,1.00593748,1.4575195466666673,0.011393240000000257,1.7488607066666668,5.442524301151337,-6.213210759943739,-0.8608536137036147,-2.561926041077123,-8.305015547404883,9.028086099296209,12.531683322638319,-2.2089137156752487,12.282729213166188,-2.2107832631570132,0.09496071999999998,0.31000029333333334,0.5922075199999999,0.9971685333333332,0.6751499588641189,0.7276828554537309,0.6930547451696376,0.6930547451696376
LBP05_S07,LBP05,-1564,87,7,86,-1564,1715801854.44,2024-05-15 19:37:34.440000+00:00,2024-05-16 04:37:34.440000+09:00,2024,5,15,19,37,34,440,,,,,,,,,-0.25293,-0.098145,0.560303,-31.188965,128.967285,-7.019043,,,,,,,,,,,0.0,1.0,1.0,7.0,0.0,0.0,0.0,6.0,0.0,-0.13582354666666668,-0.17537757333333334,0.98268228,-0.1936848799999992,2.4788411600000004,1.4152018533333335,6.511821109937917,-5.7193571069069575,-2.3982124789066166,-2.3014531966796064,-8.533789831681162,8.932157600139943,12.566053282616197,-2.23278230189071,12.286430414673971,-2.2110652638292074,-0.1171064533333333,0.07723257333333335,-0.42237928,0.6167183066666666,0.4450652176584004,0.7251542716318959,0.688094954619413,0.688094954619413
LBP05_S07,LBP05,-1563,88,7,87,-1563,1715801854.48,2024-05-15 19:37:34.480000+00:00,2024-05-16 04:37:34.480000+09:00,2024,5,15,19,37,34,480,,,,,,,,,-0.217285,-0.015381,0.02417,-112.976074,-24.780273,-8.728027,,,,,,,,,,,0.0,1.0,1.0,7.0,0.0,0.0,0.0,6.0,0.0,-0.13872067999999999,-0.17937497333333333,0.9748665333333334,-0.3312174399999993,0.7950846533333337,1.4111328400000003,7.307725512084551,-4.204880885225677,-3.8170065876627834,-2.0091441761962243,-8.701985067090188,8.779477336633432,12.523594800737682,-2.2322868344723013,12.233015546406033,-2.2166765476333032,-0.07856432000000002,0.16399397333333332,-0.9506965333333334,1.1932548266666667,0.9679309242702882,0.7192950401277713,0.6951848448764695,0.6935819344164889
LBP05_S07,LBP05,-1562,89,7,88,-1562,1715801854.52,2024-05-15 19:37:34.520000+00:00,2024-05-16 04:37:34.520000+09:00,2024,5,15,19,37,34,520,,,,,,,,,0.081299,-0.438232,0.444336,10.192871,-91.674805,0.061035,,,,,,,,,,,0.0,1.0,1.0,7.0,0.0,0.0,0.0,6.0,0.0,-0.12624346666666666,-0.18288734666666667,0.9831640666666666,1.9637044400000006,-1.0555012799999997,1.636556026666667,7.763191909928983,-1.8196534126365744,-5.051366787554794,-1.698616499799065,-8.774771203595652,8.577422665131241,12.38765866760738,-2.179104549300225,12.121859530697133,-2.219583938119631,0.20754246666666665,-0.25534465333333334,-0.5388280666666665,1.0017151866666665,0.6313560428820985,0.7243528918772997,0.6990659950551671,0.6923852826562122
LBP05_S07,LBP05,-1561,90,7,89,-1561,1715801854.56,2024-05-15 19:37:34.560000+00:00,2024-05-16 04:37:34.560000+09:00,2024,5,15,19,37,34,560,,,,,,,,,0.558594,-0.02417,0.689453,129.455566,-6.958008,-1.708984,,,,,,,,,,,0.0,1.0,1.0,7.0,0.0,0.0,0.0,6.0,0.0,-0.12284502666666669,-0.17660805333333335,0.99438152,3.2446289200000007,0.3369140800000002,1.6162109733333334,7.6543944632171055,1.0779984420092068,-6.032338154395765,-1.3924407212703807,-8.731651265915284,8.33612913895541,12.15202345344813,-2.182283879848027,11.958624714098795,-2.2206301367081025,0.6814390266666668,0.15243805333333335,-0.30492852000000004,1.1388056000000002,0.7619566322815629,0.7422430027274344,0.6971421565723805,0.6936979496302754
LBP05_S07,LBP05,-1560,91,7,90,-1560,1715801854.6,2024-05-15 19:37:34.600000+00:00,2024-05-16 04:37:34.600000+09:00,2024,5,15,19,37,34,600,,,,,,,,,-0.094482,0.14502,1.274414,-3.540039,73.791504,-1.342773,,,,,,,,,,,0.0,1.0,1.0,7.0,0.0,0.0,0.0,6.0,0.0,-0.13706702666666667,-0.17816730666666664,1.01027996,2.233072933333334,1.3842773600000005,1.6674804933333334,6.74151005726461,3.955675016772624,-6.675518021967689,-1.1227803189797962,-8.573424265244379,8.069108418076702,11.82686560079406,-2.2295414211910756,11.755059225575954,-2.2224705862536775,0.04258502666666668,0.3231873066666666,0.26413403999999985,0.6299063733333332,0.4195596629484014,0.7217630444155556,0.6871816153808209,0.6886213146917222
LBP05_S07,LBP05,-1559,92,7,91,-1559,1715801854.64,2024-05-15 19:37:34.640000+00:00,2024-05-16 04:37:34.640000+09:00,2024,5,15,19,37,34,640,,,,,,,,,-0.738037,-0.496338,2.010498,-15.319824,-0.732422,-17.211914,,,,,,,,,,,0.0,1.0,1.0,7.0,0.0,0.0,0.0,6.0,0.0,-0.14436845333333334,-0.18290689333333332,1.0222526133333332,2.119140640000001,-0.8951822799999997,1.7919922133333335,4.9465644743261805,6.223736362755702,-6.878071973888861,-0.924917740006749,-8.32447481073415,7.793985539121148,11.441091044317238,-2.2418413911000203,11.527904754045613,-2.223341500610254,-0.5936685466666667,-0.3134311066666667,0.988245386666667,1.8953450400000003,1.1947009442515535,0.7479865758974035,0.7033225747141976,0.6978227625019009
LBP05_S07,LBP05,-1558,93,7,92,-1558,1715801854.68,2024-05-15 19:37:34.680000+00:00,2024-05-16 04:37:34.680000+09:00,2024,5,15,19,37,34,680,,,,,,,,,-0.186523,-0.227783,1.894287,51.818848,-69.580078,5.065918,,,,,,,,,,,0.0,1.0,1.0,7.0,0.0,0.0,0.0,6.0,0.0,-0.13527990666666664,-0.17729816,1.0157812666666666,1.8465169466666673,-0.8398437466666662,1.59993492,2.440102908741992,7.40437188953123,-6.535222903274079,-0.8273136236570693,-8.028299935152901,7.5325766229901845,11.039826006866361,-2.2255702274321947,11.297061425030272,-2.2197425669552304,-0.05124309333333335,-0.05048484,0.8785057333333335,0.9802336666666669,0.8814459127954093,0.7558471854303792,0.7117115532859363,0.7011017473285708
LBP05_S07,LBP05,-1557,94,7,93,-1557,1715801854.72,2024-05-15 19:37:34.720000+00:00,2024-05-16 04:37:34.720000+09:00,2024,5,15,19,37,34,720,,,,,,,,,-0.001221,-0.283936,0.966553,-42.907715,110.290527,14.465332,,,,,,,,,,,0.0,1.0,1.0,7.0,0.0,0.0,0.0,6.0,0.0,-0.13517574666666668,-0.16992185333333334,0.99178712,1.2540690266666672,1.794433586666667,1.38590496,-0.41142051481568503,7.28575373734472,-5.576308251524448,-0.8437704442496967,-7.736869785659112,7.309524292929207,10.677089867176187,-2.2453632385056124,11.083342062952822,-2.217398069160873,0.13395474666666668,-0.11401414666666668,-0.025234120000000027,0.2732030133333334,0.17770723284895704,0.7512746745684916,0.6970835636335454,0.6919193874254196
LBP05_S07,LBP05,-1556,95,7,94,-1556,1715801854.76,2024-05-15 19:37:34.760000+00:00,2024-05-16 04:37:34.760000+09:00,2024,5,15,19,37,34,760,,,,,,,,,-0.576904,0.346436,-0.014648,-45.227051,45.227051,-56.640625,,,,,,,,,,,0.0,1.0,1.0,7.0,0.0,0.0,0.0,6.0,0.0,-0.13951169333333333,-0.17484372,0.97999676,-0.06754555999999923,1.3346354133333338,1.7716471466666668,-3.1905439880302433,5.998101689300374,-4.009763541173482,-0.9713922037709064,-7.4969457180870975,7.1491337512822675,10.404706209557991,-2.2470183031213598,10.906233397294905,-2.2246189887551875,-0.4373923066666666,0.52127972,-0.99464476,1.9533167866666665,1.2051401474558563,0.7560635168869478,0.7095083283614056,0.7007680212190478
LBP05_S07,LBP05,-1555,96,7,95,-1555,1715801854.8,2024-05-15 19:37:34.800000+00:00,2024-05-16 04:37:34.800000+09:00,2024,5,15,19,37,34,800,,,,,,,,,0.03125,-0.623291,0.391357,-52.978516,-62.438965,10.375977,,,,,,,,,,,0.0,1.0,1.0,7.0,0.0,0.0,0.0,6.0,0.0,-0.13226885333333332,-0.17634437333333336,0.9848047066666668,0.7153320400000008,-1.43717448,1.9344075600000001,-5.57165338042177,3.972660808706508,-1.9562965318695102,-1.1942583389877772,-7.338039285738837,7.070881890007487,10.260138607334904,-2.2176228592410188,10.78196662730625,-2.2306200592026704,0.16351885333333332,-0.4469466266666667,-0.5934477066666668,1.2039131866666668,0.7607101176085981,0.7471324061045279,0.7124906290179384,0.7017839889544638
LBP05_S07,LBP05,-1554,97,7,96,-1554,1715801854.84,2024-05-15 19:37:34.840000+00:00,2024-05-16 04:37:34.840000+09:00,2024,5,15,19,37,34,840,,,,,,,,,0.446045,-0.032471,0.629395,93.811035,-53.283691,3.173828,,,,,,,,,,,0.0,1.0,1.0,7.0,0.0,0.0,0.0,6.0,0.0,-0.12586260000000002,-0.17536454666666668,0.9968327066666668,1.268717453333334,-0.8089192666666665,2.080078133333333,-7.383024340637509,1.788092624287633,0.35374261338778856,-1.4895793126132775,-7.266515580767332,7.085031594542999,10.257619992462791,-2.196792965340471,10.722036818989135,-2.2311463014843835,0.5719076000000001,0.14289354666666668,-0.36743770666666675,1.0822388533333336,0.6946274806665789,0.7593303735703071,0.7197778340861504,0.7016647138163326
LBP05_S07,LBP05,-1553,98,7,97,-1553,1715801854.88,2024-05-15 19:37:34.880000+00:00,2024-05-16 04:37:34.880000+09:00,2024,5,15,19,37,34,880,,,,,,,,,0.150391,0.13501,1.07373,9.277344,47.119141,10.681152,,,,,,,,,,,0.0,1.0,1.0,7.0,0.0,0.0,0.0,6.0,0.0,-0.13309893333333334,-0.1807844666666667,1.01094404,0.8601888000000009,0.881347666666667,2.3168945466666666,-8.577116915097216,-0.030799728701808807,2.628412858079023,-1.8326639892171661,-7.267747569915405,7.1901681088661595,10.386401179963183,-2.2088418565287236,10.732224153423399,-2.2298656755029334,0.28348993333333333,0.31579446666666666,0.06278596000000003,0.66207036,0.42899273216657624,0.7339171374425496,0.7065070132973404,0.697194681330271
LBP05_S07,LBP05,-1552,99,7,98,-1552,1715801854.92,2024-05-15 19:37:34.920000+00:00,2024-05-16 04:37:34.920000+09:00,2024,5,15,19,37,34,920,,,,,,,,,-0.641113,-0.602783,1.801758,-37.04834,20.812988,13.061523,,,,,,,,,,,0.0,1.0,1.0,7.0,0.0,0.0,0.0,6.0,0.0,-0.14774737333333332,-0.18352209333333336,1.0231478133333334,1.0506184933333342,-0.1586913999999998,2.2810872533333333,-9.170310505614461,-1.1685526296324225,4.589473570926384,-2.1994764094417447,-7.314489675100702,7.373747051703215,10.6165720110282,-2.251313745243369,10.812171753077449,-2.2294455585075803,-0.4933656266666667,-0.4192609066666666,0.7786101866666666,1.69123672,1.0126318048611003,0.745929069486951,0.7108326022471183,0.7022823768710907
LBP05_S07,LBP05,-1551,100,7,99,-1551,1715801854.96,2024-05-15 19:37:34.960000+00:00,2024-05-16 04:37:34.960000+09:00,2024,5,15,19,37,34,960,,,,,,,,,-0.379639,-0.446045,1.961914,-20.324707,-95.947266,16.662598,,,,,,,,,,,0.0,1.0,1.0,7.0,0.0,0.0,0.0,6.0,0.0,-0.14384438666666666,-0.18206050666666668,1.0221256666666667,1.381835933333334,-1.194661453333333,2.1541341333333333,-9.2237492534192,-1.5706461623651404,6.038250018193561,-2.5684263795785127,-7.377315521595307,7.615277052430957,10.90935575356159,-2.2422945843228606,10.955653953018722,-2.223759587297656,-0.23579461333333335,-0.26398449333333335,0.9397883333333332,1.4395674399999998,1.0042355420253344,0.7599572376836697,0.7238507738854575,0.7070752842544915
LBP05_S07,LBP05,-1550,101,7,100,-1550,1715801855.0,2024-05-15 19:37:35+00:00,2024-05-16 04:37:35+09:00,2024,5,15,19,37,35,0,19.0,37.0,35.0,40.837029,141.718628,5.094,3.0,10.0,0.089844,0.02832,1.217773,-2.990723,47.241211,-2.01416,-577.0,49.0,551.0,11.0,0.0,1020.0,15.04,0.069368,-56.014488,3.839062,0.0,1.0,1.0,7.0,0.0,0.0,0.0,5.0,0.0,-0.1363509066666667,-0.17527014666666665,1.0020442933333333,0.5330403600000008,1.1564127600000003,2.2574870000000002,-8.878463963726384,-1.3931929639533864,6.882028527251075,-2.923564938127568,-7.4330432401534425,7.8905581935210005,11.227567517622909,-2.2348038440082054,11.15172135947771,-2.218095330604662,0.2261949066666667,0.20359014666666667,0.21572870666666666,0.64551376,0.373030774202035,0.7528882759213188,0.7103228684710089,0.7018558387849219
LBP05_S07,LBP05,-1549,102,7,101,-1549,1715801855.04,2024-05-15 19:37:35.040000+00:00,2024-05-16 04:37:35.040000+09:00,2024,5,15,19,37,35,40,,,,,,,,,-0.409912,0.20459,0.083252,-30.883789,100.402832,-9.033203,,,,,,,,,,,0.0,1.0,1.0,7.0,0.0,0.0,0.0,5.0,0.0,-0.1364778666666667,-0.17763994666666666,0.9853483333333334,-0.8780924533333325,1.6113281333333336,2.19401044,-8.394416548020168,-0.8932322884261804,7.116444298502247,-3.2593416000483746,-7.468772531690489,8.17521596546109,11.542964388659879,-2.22903513128552,11.38672152779865,-2.2193988100475432,-0.27343413333333333,0.38222994666666665,-0.9020963333333334,1.5577604133333334,1.0171743960668684,0.7581020642892173,0.7169542742020547,0.7067068935123364
LBP05_S07,LBP05,-1548,103,7,102,-1548,1715801855.08,2024-05-15 19:37:35.080000+00:00,2024-05-16 04:37:35.080000+09:00,2024,5,15,19,37,35,80,,,,,,,,,-0.093018,-0.351807,0.308594,-79.223633,-52.368164,8.300781,,,,,,,,,,,0.0,1.0,1.0,7.0,0.0,0.0,0.0,5.0,0.0,-0.13517904,-0.17884112000000002,0.98274416,-0.16357422666666588,-1.1555989466666663,1.9295247733333334,-8.12889605491599,-0.32141440922736036,6.785524818795183,-3.584497442245014,-7.481629108059583,8.446636958212897,11.839302003406853,-2.221369057478661,11.646715459084373,-2.2236546853496426,0.04216104,-0.17296587999999996,-0.6741501599999999,0.8892770799999998,0.6972612044034011,0.7427980375239431,0.7186361866676109,0.7065637770106858
LBP05_S07,LBP05,-1547,104,7,103,-1547,1715801855.12,2024-05-15 19:37:35.120000+00:00,2024-05-16 04:37:35.120000+09:00,2024,5,15,19,37,35,120,,,,,,,,,0.293213,-0.188232,0.670654,77.392578,-79.040527,-0.488281,,,,,,,,,,,0.0,1.0,1.0,7.0,0.0,0.0,0.0,5.0,0.0,-0.12544272,-0.17796872,0.9920475466666666,1.617838533333334,-1.305338533333333,2.131347693333333,-8.424808641589541,0.13062257229892565,5.951134143957852,-3.921489787908596,-7.4764042051676265,8.684682323971211,12.111911866588922,-2.1885035264063677,11.919390736551794,-2.2238069099715356,0.41865572,-0.010263280000000014,-0.32139354666666664,0.7503125466666667,0.5278937001367374,0.7432696613737562,0.7223726675905559,0.703897059445403
LBP05_S07,LBP05,-1546,105,7,104,-1546,1715801855.16,2024-05-15 19:37:35.160000+00:00,2024-05-16 04:37:35.160000+09:00,2024,5,15,19,37,35,160,,,,,,,,,0.249756,0.099365,1.070557,38.94043,35.15625,8.422852,,,,,,,,,,,0.0,1.0,1.0,7.0,0.0,0.0,0.0,5.0,0.0,-0.12541341333333336,-0.17717118666666667,1.0026139466666666,1.5226236933333341,0.22542317333333378,2.667643266666667,-9.440999145258155,0.32637963604158166,4.691606765747171,-4.299129753718923,-7.463349019725963,8.872346594601098,12.36538027414788,-2.1903757361914202,12.194715226619095,-2.223781059258267,0.37516941333333337,0.2765361866666667,0.06794305333333339,0.7196486533333335,0.47099958570393163,0.7287054171318785,0.7154527807908834,0.7004720965962637
LBP05_S07,LBP05,-1545,106,7,105,-1545,1715801855.2,2024-05-15 19:37:35.200000+00:00,2024-05-16 04:37:35.200000+09:00,2024,5,15,19,37,35,200,,,,,,,,,-0.550293,-0.339355,1.695557,-43.334961,59.082031,20.507812,,,,,,,,,,,0.0,1.0,1.0,7.0,0.0,0.0,0.0,5.0,0.0,-0.14007813333333333,-0.18167965333333333,1.0186328266666667,0.8414713466666673,1.1206054666666672,2.849934933333333,-11.013105899357614,0.17144655712893533,3.12473892401764,-4.7396539896932275,-7.456491157440806,8.997336151561804,12.610140290544305,-2.230657653669836,12.464334404876807,-2.2235284861871465,-0.41021486666666673,-0.1576753466666667,0.6769241733333333,1.2448143866666668,0.8070713030605298,0.7306425031140777,0.7116119996016735,0.7020170126319777
LBP05_S07,LBP05,-1544,107,7,106,-1544,1715801855.24,2024-05-15 19:37:35.240000+00:00,2024-05-16 04:37:35.240000+09:00,2024,5,15,19,37,35,240,,,,,,,,,-0.557129,-0.571045,2.003418,-16.906738,-89.96582,10.803223,,,,,,,,,,,0.0,1.0,1.0,7.0,0.0,0.0,0.0,5.0,0.0,-0.1462890666666667,-0.18633460000000002,1.02987632,1.5185546800000005,-0.5061849066666662,2.854003946666667,-12.638932557916712,-0.3693131013594807,1.4302538417181239,-5.245211292009896,-7.471263681495185,9.054546305230529,12.85755930532,-2.2393517183614624,12.720494282611188,-2.21897892025837,-0.4108399333333333,-0.3847104,0.9735416799999999,1.7690920133333332,1.124533212220395,0.7515738671493208,0.7247134319288321,0.7080529583403836
LBP05_S07,LBP05,-1543,108,7,107,-1543,1715801855.28,2024-05-15 19:37:35.280000+00:00,2024-05-16 04:37:35.280000+09:00,2024,5,15,19,37,35,280,,,,,,,,,0.075928,0.080322,1.429199,34.118652,12.939453,-10.864258,,,,,,,,,,,0.0,1.0,1.0,7.0,0.0,0.0,0.0,5.0,0.0,-0.13412109333333333,-0.18157222666666667,1.0202050933333333,1.5047200400000007,0.2823893066666671,2.67089848,-13.620934055577502,-1.2307921719133543,-0.15538435984515375,-5.790048654232995,-7.520495368371719,9.048330930836723,13.113153954637395,-2.2103641027476555,12.955411023583006,-2.2157483835454235,0.21004909333333333,0.2618942266666667,0.4089939066666668,0.8809372266666669,0.5291362993236703,0.7499601222484832,0.7201290556938212,0.7055330053964863
LBP05_S07,LBP05,-1542,109,7,108,-1542,1715801855.32,2024-05-15 19:37:35.320000+00:00,2024-05-16 04:37:35.320000+09:00,2024,5,15,19,37,35,320,,,,,,,,,-0.363525,0.05957,0.214355,-54.6875,119.140625,-14.282227,,,,,,,,,,,0.0,1.0,1.0,7.0,0.0,0.0,0.0,5.0,0.0,-0.13673177333333336,-0.16984045333333334,0.9963509199999998,-0.35074870666666624,2.6879882666666672,1.7692057733333335,-13.31457663458494,-2.21896584302318,-1.3811370054228944,-6.322631719616393,-7.609254002092647,8.993085450619807,13.36981691170122,-2.251055238110682,13.161475339997148,-2.2162268205356526,-0.22679322666666663,0.22941045333333332,-0.7819959199999998,1.2381995999999997,0.8459207661815199,0.7567000622763913,0.7217717371750529,0.7074828354073897
LBP05_S07,LBP05,-1541,110,7,109,-1541,1715801855.36,2024-05-15 19:37:35.360000+00:00,2024-05-16 04:37:35.360000+09:00,2024,5,15,19,37,35,360,,,,,,,,,-0.136963,-0.352295,0.187256,-136.413574,-53.344727,-0.366211,,,,,,,,,,,0.0,1.0,1.0,7.0,0.0,0.0,0.0,5.0,0.0,-0.13937825333333334,-0.17736324,0.9865136800000001,-2.2119140799999997,1.0750325333333337,1.8701172266666666,-11.376555690448017,-3.0335730598259194,-2.044086378831201,-6.777693947234313,-7.730596924485684,8.911321995466558,13.605547536138713,-2.2397688536116553,13.332013417967923,-2.2232538680744582,0.0024152533333333392,-0.17493176000000002,-0.7992576800000001,0.9766046933333334,0.8181807826784642,0.7388964951024954,0.7290905632477568,0.7089992456439796
LBP05_S07,LBP05,-1540,111,7,110,-1540,1715801855.4,2024-05-15 19:37:35.400000+00:00,2024-05-16 04:37:35.400000+09:00,2024,5,15,19,37,35,400,,,,,,,,,0.124268,-0.308105,0.509033,67.138672,-75.256348,-5.187988,,,,,,,,,,,0.0,1.0,1.0,7.0,0.0,0.0,0.0,5.0,0.0,-0.13000652,-0.18422522666666666,0.9927604133333333,-1.0066731999999994,-1.03922528,2.1858724266666667,-7.898335698630547,-3.3616783550439964,-2.042357663451825,-7.093627375179535,-7.865064058687444,8.829627688928484,13.789166294966716,-2.1893081847204403,13.462034935319872,-2.2292202827536074,0.25427452,-0.12387977333333336,-0.48372741333333336,0.8618817066666667,0.5603516219058404,0.7343045616241644,0.7309937085389477,0.7069904939718427
LBP05_S07,LBP05,-1539,112,7,111,-1539,1715801855.44,2024-05-15 19:37:35.440000+00:00,2024-05-16 04:37:35.440000+09:00,2024,5,15,19,37,35,440,,,,,,,,,0.362793,0.183838,0.917969,53.161621,-2.868652,4.394531,,,,,,,,,,,0.0,1.0,1.0,7.0,0.0,0.0,0.0,5.0,0.0,-0.12547526666666667,-0.17483069333333334,1.00083008,1.2402343466666672,-0.1310221599999998,2.1695963866666665,-3.357514797646668,-3.0118543229729196,-1.3956980392722735,-7.227927967085402,-7.985538231606361,8.773799767357593,13.892131798378042,-2.1967297641560575,13.548596064622561,-2.231089610729087,0.4882682666666667,0.35866869333333334,-0.08286108000000003,0.9297980400000001,0.6114859690866817,0.7409613916812957,0.7330578316565959,0.7057171003067072
LBP05_S07,LBP05,-1538,113,7,112,-1538,1715801855.48,2024-05-15 19:37:35.480000+00:00,2024-05-16 04:37:35.480000+09:00,2024,5,15,19,37,35,480,,,,,,,,,-0.196777,-0.251953,1.447998,-53.649902,43.029785,7.8125,,,,,,,,,,,0.0,1.0,1.0,7.0,0.0,0.0,0.0,5.0,0.0,-0.1345866,-0.17616206666666667,1.01436524,-1.468912786666666,1.3411458133333336,2.4137370133333333,1.5849798364612209,-2.011472176370552,-0.23073518525307546,-7.164528773626953,-8.065997118661183,8.76457035994747,13.89994516754828,-2.226153427380948,13.590863656084446,-2.2342538762242983,-0.06219040000000001,-0.07579093333333331,0.43363275999999984,0.5716140933333331,0.44457764448172066,0.7200272604897527,0.719661150308762,0.7034656500808972
LBP05_S07,LBP05,-1537,114,7,113,-1537,1715801855.52,2024-05-15 19:37:35.520000+00:00,2024-05-16 04:37:35.520000+09:00,2024,5,15,19,37,35,520,,,,,,,,,-0.749512,-0.484863,1.850342,47.912598,-31.12793,-21.240234,,,,,,,,,,,0.0,1.0,1.0,7.0,0.0,0.0,0.0,5.0,0.0,-0.14924481333333334,-0.18250321333333333,1.0272102933333331,-1.4371745066666661,-0.04069011999999977,2.0393880533333335,6.330473815755136,-0.6024127804278893,1.2572422375784655,-6.911309820996748,-8.090093629878298,8.814860049450608,13.817292646296664,-2.258774001794427,13.590282598507164,-2.236202633182129,-0.6002671866666667,-0.30235978666666663,0.8231317066666668,1.7257586800000002,1.062679604820666,0.7372802029672957,0.7308165474222976,0.7118040643592098
LBP05_S07,LBP05,-1536,115,7,114,-1536,1715801855.56,2024-05-15 19:37:35.560000+00:00,2024-05-16 04:37:35.560000+09:00,2024,5,15,19,37,35,560,,,,,,,,,-0.157959,-0.068115,1.494873,74.462891,-45.10498,17.456055,,,,,,,,,,,0.0,1.0,1.0,7.0,0.0,0.0,0.0,5.0,0.0,-0.14382164,-0.17906897333333333,1.0258952,-0.9016927333333329,-1.3932291866666666,1.6821289466666667,10.509782383258196,0.8643430854610116,2.8507460156286606,-6.49091852566642,-8.055519906459859,8.928889890075755,13.665595447667387,-2.250039882982911,13.551073180208736,-2.2324389157758704,-0.014137359999999988,0.11095397333333333,0.4689778,0.5940691333333333,0.48213154433107114,0.7260871994492759,0.7341651010883552,0.7067905041980124
LBP05_S07,LBP05,-1535,116,7,115,-1535,1715801855.6,2024-05-15 19:37:35.600000+00:00,2024-05-16 04:37:35.600000+09:00,2024,5,15,19,37,35,600,,,,,,,,,-0.186523,-0.127441,0.656982,-18.554688,134.70459,20.019531,,,,,,,,,,,0.0,1.0,1.0,7.0,0.0,0.0,0.0,5.0,0.0,-0.13917645333333334,-0.17351233333333332,1.00639,-1.9449870133333327,1.3460286266666666,1.2353516,14.006212984371738,2.0779872124434937,4.351731920638667,-5.9306700062915505,-7.972400417962119,9.102959166901302,13.475751583571181,-2.2493509334246338,13.480710795507525,-2.2323670842900785,-0.047346546666666656,0.046071333333333325,-0.34940799999999994,0.4428258799999999,0.3555983882139652,0.7235287484598985,0.7226458964377269,0.69929732640718
LBP05_S07,LBP05,-1534,117,7,116,-1534,1715801855.64,2024-05-15 19:37:35.640000+00:00,2024-05-16 04:37:35.640000+09:00,2024,5,15,19,37,35,640,,,,,,,,,-0.32251,-0.07251,0.108887,-68.664551,-2.502441,2.258301,,,,,,,,,,,0.0,1.0,1.0,7.0,0.0,0.0,0.0,5.0,0.0,-0.14491538666666665,-0.17274084,0.9881250266666668,-4.339192746666666,1.2622070133333334,0.9830729600000001,16.846473058710597,2.8834721339038536,5.606702914181367,-5.256811083943127,-7.8570615326059645,9.327227283468556,13.280235219938836,-2.2709943733135707,13.389692561602562,-2.2390406349562446,-0.17759461333333337,0.10023084,-0.8792380266666668,1.1570634800000001,0.9025771853469465,0.7118437981037141,0.7299151870005589,0.7061629825107031
LBP05_S07,LBP05,-1533,118,7,117,-1533,1715801855.68,2024-05-15 19:37:35.680000+00:00,2024-05-16 04:37:35.680000+09:00,2024,5,15,19,37,35,680,,,,,,,,,-0.05957,-0.214844,0.438721,-1.342773,-59.143066,-4.394531,,,,,,,,,,,0.0,1.0,1.0,7.0,0.0,0.0,0.0,5.0,0.0,-0.14106772,-0.18336584,0.9892513333333333,-4.083658893333333,-1.6251627733333336,1.0367838933333333,19.044160772041792,3.300936145902482,6.507953017866453,-4.495044653061456,-7.725024086769865,9.587545404183214,13.107343378864599,-2.229851672325966,13.290259709757882,-2.24593907996921,0.08149772000000001,-0.031478160000000005,-0.5505303333333332,0.6635062133333333,0.5574194119711791,0.698882738070745,0.7273649617505622,0.7074352815475391
LBP05_S07,LBP05,-1532,119,7,118,-1532,1715801855.72,2024-05-15 19:37:35.720000+00:00,2024-05-16 04:37:35.720000+09:00,2024,5,15,19,37,35,720,,,,,,,,,0.505371,-0.137207,0.633545,69.335938,-48.64502,-2.624512,,,,,,,,,,,0.0,1.0,1.0,7.0,0.0,0.0,0.0,5.0,0.0,-0.13354818666666668,-0.17966466666666667,0.9949805066666666,-0.4418945733333328,-1.6341146000000004,0.87076828,20.50797745953292,3.4429171988466543,6.977188629055261,-3.6747255546801387,-7.587307398815999,9.866632949345425,12.977722728716932,-2.2134180640480925,13.194479702207826,-2.247339148919173,0.6389191866666667,0.04245766666666667,-0.3614355066666666,1.0428123599999999,0.735293142922578,0.7211861744736897,0.7362304245210908,0.7051177672469269
LBP05_S07,LBP05,-1531,120,7,119,-1531,1715801855.76,2024-05-15 19:37:35.760000+00:00,2024-05-16 04:37:35.760000+09:00,2024,5,15,19,37,35,760,,,,,,,,,0.071533,-0.075684,1.152588,46.020508,64.331055,4.272461,,,,,,,,,,,0.0,1.0,1.0,7.0,0.0,0.0,0.0,5.0,0.0,-0.13479493333333334,-0.1716926666666667,1.00303064,-1.3159180133333328,0.30029294666666656,1.1140951066666667,21.072729456673677,3.395259348830822,6.952544808040392,-2.8318163764131916,-7.451497024862766,10.14473474166704,12.901923689126626,-2.2390505387537405,13.112459409273214,-2.2486255393136814,0.20632793333333332,0.09600866666666669,0.14955735999999997,0.45189396,0.27231651451736294,0.6838732291561501,0.719968373021549,0.7009632952929872
LBP05_S07,LBP05,-1530,121,7,120,-1530,1715801855.8,2024-05-15 19:37:35.800000+00:00,2024-05-16 04:37:35.800000+09:00,2024,5,15,19,37,35,800,,,,,,,,,-0.723389,-0.376709,1.889648,28.442383,16.967773,3.051758,,,,,,,,,,,0.0,1.0,1.0,7.0,0.0,0.0,0.0,5.0,0.0,-0.1481705866666667,-0.18223954666666667,1.0167285466666665,-2.486979213333333,0.19775389333333326,1.1914063066666667,20.610930517277527,3.1485756499387625,6.399557849528854,-2.0073791557220906,-7.325553998865216,10.400717055648194,12.878983955917056,-2.2560436913821014,13.051250529921651,-2.2477256097819978,-0.5752184133333332,-0.19446945333333335,0.8729194533333335,1.6426073200000002,1.0633357716757434,0.6959782553188358,0.721555330711682,0.706986504451571
LBP05_S07,LBP05,-1529,122,7,121,-1529,1715801855.84,2024-05-15 19:37:35.840000+00:00,2024-05-16 04:37:35.840000+09:00,2024,5,15,19,37,35,840,,,,,,,,,-0.409668,-0.622314,1.969971,39.245605,-103.45459,29.602051,,,,,,,,,,,0.0,1.0,1.0,7.0,0.0,0.0,0.0,5.0,0.0,-0.1477343866666667,-0.1780370666666667,1.02066084,-1.2190755599999994,-1.7529296933333334,0.8479818266666667,19.12504876095575,2.618710615419104,5.34714665263416,-1.2423772052838604,-7.220805574248452,10.61460292175356,12.897803279931264,-2.2657142142857083,13.01459967087175,-2.2424991012474313,-0.2619336133333333,-0.44427693333333335,0.94931016,1.6555207066666666,1.0803615094796524,0.7114076164713589,0.735368995020833,0.7169877615478866
LBP05_S07,LBP05,-1528,123,7,122,-1528,1715801855.88,2024-05-15 19:37:35.880000+00:00,2024-05-16 04:37:35.880000+09:00,2024,5,15,19,37,35,880,,,,,,,,,0.088135,-0.078857,1.079834,20.690918,93.139648,17.822266,,,,,,,,,,,0.0,1.0,1.0,7.0,0.0,0.0,0.0,5.0,0.0,-0.134681,-0.17113602666666666,1.0083854399999999,-1.996256546666666,0.23518880000000006,0.6616211466666666,16.748144265630703,1.7335143901789956,3.9256241030604806,-0.5724514346586322,-7.151464998641292,10.77162788587598,12.942145092047735,-2.2401541168805763,13.003443059797096,-2.236444951424316,0.22281600000000001,0.09227902666666667,0.0714485600000001,0.38654358666666677,0.2515298895650793,0.7043091027672989,0.7191131201049242,0.7057743764539933
LBP05_S07,LBP05,-1527,124,7,123,-1527,1715801855.92,2024-05-15 19:37:35.920000+00:00,2024-05-16 04:37:35.920000+09:00,2024,5,15,19,37,35,920,,,,,,,,,-0.547363,0.266113,0.023926,-57.006836,72.570801,-23.071289,,,,,,,,,,,0.0,1.0,1.0,7.0,0.0,0.0,0.0,5.0,0.0,-0.14202149333333336,-0.16903642666666668,0.9866406400000002,-4.172363306666666,1.8082682266666665,0.14811202666666654,13.659139763476432,0.531071939726953,2.3749902609592697,-0.02608584411957493,-7.130222121052214,10.86662749631435,12.997089716950516,-2.271637905739514,13.01697482435253,-2.2382905972004803,-0.4053415066666667,0.43514942666666667,-0.9627146400000002,1.8032055733333334,1.131581300051155,0.7090670825749013,0.7274980760309261,0.7102440956897126
LBP05_S07,LBP05,-1526,125,7,124,-1526,1715801855.96,2024-05-15 19:37:35.960000+00:00,2024-05-16 04:37:35.960000+09:00,2024,5,15,19,37,35,960,,,,,,,,,-0.01709,-0.584961,0.395264,-65.063477,-60.913086,7.873535,,,,,,,,,,,0.0,1.0,1.0,7.0,0.0,0.0,0.0,5.0,0.0,-0.13820638666666668,-0.17538408,0.9848925866666667,-5.048828146666667,-0.8374023466666669,0.1782227066666666,9.988106154644935,-0.7939344630168945,1.0069979879570443,0.3734384020662225,-7.16197949957289,10.906907415832633,13.053506654151787,-2.2410405876660735,13.054062814480769,-2.2419242514293556,0.12111638666666669,-0.40957691999999996,-0.5896285866666666,1.1203218933333332,0.728068885978797,0.6980204163330397,0.7289888270083548,0.7152406547013183
LBP05_S07,LBP05,-1525,126,7,125,-1525,1715801856.0,2024-05-15 19:37:36+00:00,2024-05-16 04:37:36+09:00,2024,5,15,19,37,36,0,19.0,37.0,36.0,40.836956,141.718628,5.256,3.0,10.0,0.4104,-0.125,0.67334,120.117188,-66.467285,-5.615234,-580.0,44.0,549.0,13.0,0.0,1019.799988,15.11,0.067386,-54.35902,3.839062,0.0,1.0,1.0,7.0,0.0,0.0,0.0,5.0,0.0,-0.12902018666666665,-0.17972652,0.9934472666666666,-2.634277373333333,-1.2736002666666668,0.2929687999999999,5.7996335592513635,-1.9370253558819568,0.13210448388953344,0.605423744436277,-7.239460513808169,10.912191595188213,13.109242993072145,-2.1970858480789692,13.114611908395943,-2.240880285501873,0.5394201866666666,0.05472652,-0.32010726666666656,0.9142539733333331,0.6296330613520991,0.7082845078190423,0.7305863918701806,0.7096434149203533
LBP05_S07,LBP05,-1524,127,7,126,-1524,1715801856.04,2024-05-15 19:37:36.040000+00:00,2024-05-16 04:37:36.040000+09:00,2024,5,15,19,37,36,40,,,,,,,,,0.119629,0.227783,1.137207,27.22168,58.227539,-0.244141,,,,,,,,,,,0.0,1.0,1.0,7.0,0.0,0.0,0.0,5.0,0.0,-0.12693034666666667,-0.17171870666666667,1.00160156,-1.8750000266666667,0.8797200533333331,0.1953125466666666,1.1810179611513698,-2.6051940364375628,-0.02006309278639933,0.6526644628823318,-7.343668275265671,10.911389071476757,13.168669109192294,-2.2104528750824164,13.200271565274836,-2.2411156523050084,0.24655934666666668,0.3995017066666667,0.1356054400000002,0.7816664933333335,0.4886532107905018,0.6871436604079875,0.7226228623486024,0.7070174029373657
LBP05_S07,LBP05,-1523,128,7,127,-1523,1715801856.08,2024-05-15 19:37:36.080000+00:00,2024-05-16 04:37:36.080000+09:00,2024,5,15,19,37,36,80,,,,,,,,,-0.68042,-0.456299,1.875,-43.762207,22.766113,1.708984,,,,,,,,,,,0.0,1.0,1.0,7.0,0.0,0.0,0.0,5.0,0.0,-0.14209310666666666,-0.17755854666666668,1.0165787733333334,-3.802897159999999,1.52994792,0.28971358666666663,-3.6307176320374257,-2.6429293109159913,0.6394359291046275,0.5074357576008348,-7.44938544770231,10.936966508640943,13.242661024418942,-2.248308130087612,13.31400443281332,-2.240128809875265,-0.5383268933333334,-0.2787404533333333,0.8584212266666666,1.6754885733333333,1.050894422290981,0.7012889891234907,0.7220435133237169,0.7128537874862375
LBP05_S07,LBP05,-1522,129,7,128,-1522,1715801856.12,2024-05-15 19:37:36.120000+00:00,2024-05-16 04:37:36.120000+09:00,2024,5,15,19,37,36,120,,,,,,,,,-0.394531,-0.363281,1.970947,23.620605,-125.427246,8.850098,,,,,,,,,,,0.0,1.0,1.0,7.0,0.0,0.0,0.0,5.0,0.0,-0.14747722666666668,-0.18378250666666665,1.0252864533333332,-3.1429036666666663,-0.48828125333333333,0.25309249333333333,-8.188423654714093,-2.098561426505599,2.032048947694636,0.1798988114122711,-7.533327904762534,11.018248466548728,13.348602629999323,-2.249754606336843,13.458649235492638,-2.235465604386278,-0.24705377333333334,-0.17949849333333337,0.9456605466666668,1.3722128133333333,0.9937450103266299,0.7199230415310864,0.7315963514524213,0.7215561255707328
LBP05_S07,LBP05,-1521,130,7,129,-1521,1715801856.16,2024-05-15 19:37:36.160000+00:00,2024-05-16 04:37:36.160000+09:00,2024,5,15,19,37,36,160,,,,,,,,,0.15625,-0.010986,1.192139,0.732422,46.264648,-12.939453,,,,,,,,,,,0.0,1.0,1.0,7.0,0.0,0.0,0.0,5.0,0.0,-0.13638348,-0.17760412,1.0173925733333333,-3.3487956,0.35888672000000005,0.5834961333333333,-11.899774011538426,-1.2054580375867996,3.921149845866945,-0.29609214904926595,-7.581546226266006,11.175094460383406,13.507414628278381,-2.228610879478916,13.635257655862508,-2.229426468085953,0.29263348,0.16661812,0.17474642666666673,0.6339980266666667,0.3793840602371343,0.7162584205124145,0.7224819188221465,0.7157213273647272
LBP05_S07,LBP05,-1520,131,7,130,-1520,1715801856.2,2024-05-15 19:37:36.200000+00:00,2024-05-16 04:37:36.200000+09:00,2024,5,15,19,37,36,200,,,,,,,,,-0.499756,0.218018,0.116699,-38.94043,107.971191,-1.77002,,,,,,,,,,,0.0,1.0,1.0,7.0,0.0,0.0,0.0,5.0,0.0,-0.14104169333333333,-0.17256832,0.99363932,-4.419759146666667,2.85888672,0.3336588933333333,-14.195429516751068,-0.2887339515679619,5.956579325484323,-0.8639093297193087,-7.593095584328725,11.413357633402779,13.73558052470597,-2.2583973594134554,13.84203008055504,-2.2305057712612757,-0.35871430666666665,0.39058632,-0.87694032,1.6262409466666665,1.0248209365641356,0.7249684058525588,0.7278054544833182,0.7160641350186353
LBP05_S07,LBP05,-1519,132,7,131,-1519,1715801856.24,2024-05-15 19:37:36.240000+00:00,2024-05-16 04:37:36.240000+09:00,2024,5,15,19,37,36,240,,,,,,,,,-0.103516,-0.568115,0.414795,-119.567871,-54.077148,26.245117,,,,,,,,,,,0.0,1.0,1.0,7.0,0.0,0.0,0.0,5.0,0.0,-0.14114585333333332,-0.17363927999999998,0.9860644533333333,-4.683431013333333,0.6632487066666668,0.22705082666666665,-14.721407327616342,0.3579382527300119,7.749370969309541,-1.4527656228239625,-7.578778054219525,11.72333247217516,14.0351319553161,-2.25584578998827,14.074130377884998,-2.237210976305756,0.037629853333333324,-0.3944757200000001,-0.5712694533333332,1.0033750266666668,0.6952523914688622,0.7077971730224975,0.7296855200859091,0.7190746789600538
LBP05_S07,LBP05,-1518,133,7,132,-1518,1715801856.28,2024-05-15 19:37:36.280000+00:00,2024-05-16 04:37:36.280000+09:00,2024,5,15,19,37,36,280,,,,,,,,,0.290039,-0.026123,0.631592,67.138672,-60.72998,15.991211,,,,,,,,,,,0.0,1.0,1.0,7.0,0.0,0.0,0.0,5.0,0.0,-0.12943036,-0.18170244,0.9966731733333334,-3.13395184,-0.7543945199999998,0.9261068133333333,-13.461458522581019,0.5640139624560355,8.962024427608204,-1.9912239637272031,-7.556217495721283,12.081813449279489,14.388593118840932,-2.1935220619907088,14.32405669298097,-2.2415838985698238,0.41946936,0.15557943999999999,-0.36508117333333334,0.9401299733333334,0.5774459015803702,0.7097295571127654,0.7298448396806243,0.7166625561668026
LBP05_S07,LBP05,-1517,134,7,133,-1517,1715801856.32,2024-05-15 19:37:36.320000+00:00,2024-05-16 04:37:36.320000+09:00,2024,5,15,19,37,36,320,,,,,,,,,0.285889,-0.064941,1.119629,0.976562,33.630371,7.324219,,,,,,,,,,,0.0,1.0,1.0,7.0,0.0,0.0,0.0,5.0,0.0,-0.12801434666666667,-0.17289710666666666,1.0070247466666669,-1.7496744933333328,0.7397461066666667,0.78043624,-10.72926053500959,0.31166907097407137,9.387662292492152,-2.4203943851275866,-7.54375073288232,12.457319940979175,14.763173920649216,-2.2112465427362644,14.582021293821985,-2.244190777152741,0.41390334666666667,0.10795610666666666,0.11260425333333313,0.6344637066666665,0.44232365889385683,0.693585672821259,0.7251428675488251,0.7123763823904549
LBP05_S07,LBP05,-1516,135,7,134,-1516,1715801856.36,2024-05-15 19:37:36.360000+00:00,2024-05-16 04:37:36.360000+09:00,2024,5,15,19,37,36,360,,,,,,,,,-0.455811,-0.455566,1.662354,-23.681641,54.626465,12.817383,,,,,,,,,,,0.0,1.0,1.0,7.0,0.0,0.0,0.0,5.0,0.0,-0.14252932000000001,-0.17678056,1.0221940133333334,-3.2470703199999993,2.12239584,0.8479818133333333,-7.045151254581319,-0.2781024340281921,8.990162184965012,-2.7022004353108393,-7.554874830243448,12.816926428377776,15.121230901077093,-2.2518336194193025,14.836064342635932,-2.246635303835577,-0.31328168,-0.27878544000000005,0.6401599866666667,1.2322271066666668,0.7652918012815,0.6914701135653805,0.715183304333938,0.7165504133536313
LBP05_S07,LBP05,-1515,136,7,135,-1515,1715801856.4,2024-05-15 19:37:36.400000+00:00,2024-05-16 04:37:36.400000+09:00,2024,5,15,19,37,36,400,,,,,,,,,-0.765869,-0.435547,1.94458,26.123047,-72.143555,1.89209,,,,,,,,,,,0.0,1.0,1.0,7.0,0.0,0.0,0.0,5.0,0.0,-0.15349937333333336,-0.18564123999999999,1.03462892,-2.827148453333333,0.08626302666666694,0.8528646266666666,-2.976717685580984,-0.9750598192508692,7.892578831763537,-2.821269142734079,-7.593877223013483,13.132629581648319,15.430245966371727,-2.264137898523772,15.072200729674893,-2.247264603326724,-0.6123696266666667,-0.24990576000000003,0.9099510799999999,1.7722264666666667,1.1249268494165372,0.7140531226658083,0.7241788421449863,0.7253468465812345
LBP05_S07,LBP05,-1514,137,7,136,-1514,1715801856.44,2024-05-15 19:37:36.440000+00:00,2024-05-16 04:37:36.440000+09:00,2024,5,15,19,37,36,440,,,,,,,,,0.121826,-0.17334,1.419189,40.405273,-19.226074,7.324219,,,,,,,,,,,0.0,1.0,1.0,7.0,0.0,0.0,0.0,5.0,0.0,-0.14366538666666664,-0.17731441333333334,1.0285123866666668,-2.631022146666666,-0.1879882666666664,0.6892904133333333,0.9712633093944724,-1.4804585657294953,6.322475782990994,-2.7824186103582997,-7.653095565642663,13.385528612967958,15.667932260151991,-2.25418209772309,15.275307939034146,-2.2435392283925424,0.26549138666666666,0.003974413333333343,0.39067661333333326,0.6601424133333332,0.472366053565597,0.7084883260449648,0.7247248588631302,0.7248679964527189
LBP05_S07,LBP05,-1513,138,7,137,-1513,1715801856.48,2024-05-15 19:37:36.480000+00:00,2024-05-16 04:37:36.480000+09:00,2024,5,15,19,37,36,480,,,,,,,,,-0.211182,0.140869,0.396729,-24.963379,118.164062,3.967285,,,,,,,,,,,0.0,1.0,1.0,7.0,0.0,0.0,0.0,5.0,0.0,-0.14437501333333336,-0.17085608,1.00442384,-2.445475266666666,2.6391601733333334,0.3344727066666667,4.377010350589354,-1.4867663316234572,4.536803738611533,-2.6073381963347257,-7.712566218907601,13.56700076251242,15.822307032829103,-2.274376915916788,15.431240362983772,-2.242783204903846,-0.06680698666666665,0.31172508,-0.6076948400000001,0.9862269066666667,0.6862424626406561,0.7181549187713223,0.7190910896305377,0.7191590731296155
LBP05_S07,LBP05,-1512,139,7,138,-1512,1715801856.52,2024-05-15 19:37:36.520000+00:00,2024-05-16 04:37:36.520000+09:00,2024,5,15,19,37,36,520,,,,,,,,,-0.171143,-0.206299,0.227539,-82.885742,-32.226562,-1.525879,,,,,,,,,,,0.0,1.0,1.0,7.0,0.0,0.0,0.0,5.0,0.0,-0.14680990666666666,-0.17384436,0.9918912933333334,-2.9223632799999995,1.3557942933333336,0.3141276533333334,6.853733097707794,-0.7620918819447751,2.752222330600874,-2.333188872426414,-7.7430498941853925,13.677089655736454,15.889033118138812,-2.274199873165203,15.529864140245966,-2.2512096691813044,-0.024333093333333333,-0.03245464000000001,-0.7643522933333333,0.8211400266666666,0.7654278747293074,0.7062648495676679,0.7217725262674817,0.7226326481374211
LBP05_S07,LBP05,-1511,140,7,139,-1511,1715801856.56,2024-05-15 19:37:36.560000+00:00,2024-05-16 04:37:36.560000+09:00,2024,5,15,19,37,36,560,,,,,,,,,-0.018311,-0.286377,0.470947,31.188965,-76.904297,-16.601562,,,,,,,,,,,0.0,1.0,1.0,7.0,0.0,0.0,0.0,5.0,0.0,-0.13841798666666666,-0.17793290666666667,0.9968945466666668,-1.9311523466666662,-1.3004557066666667,0.3995768666666667,8.00545865575601,0.7445297188853205,1.10297463927285,-2.0129705261961734,-7.7132687054299796,13.721208641307369,15.868778498668005,-2.2349038743903837,15.568015001777066,-2.2568896974115,0.12010698666666667,-0.10844409333333332,-0.5259475466666668,0.7544986266666668,0.5502786852765797,0.7089907352054884,0.7175389673273821,0.7257736457940662
LBP05_S07,LBP05,-1510,141,7,140,-1510,1715801856.6,2024-05-15 19:37:36.600000+00:00,2024-05-16 04:37:36.600000+09:00,2024,5,15,19,37,36,600,,,,,,,,,0.431396,0.098389,0.780029,54.382324,-23.376465,0.793457,,,,,,,,,,,0.0,1.0,1.0,7.0,0.0,0.0,0.0,5.0,0.0,-0.13213217333333335,-0.17478837333333333,1.0053776133333332,-0.08056641333333289,-0.5948893066666666,0.41992192,7.462014999639819,2.8127155213486614,-0.36027168413806376,-1.7144899262105806,-7.6007600845760335,13.706797773941846,15.766652618298501,-2.2211436100716395,15.551281184994986,-2.258345063550909,0.5635281733333334,0.27317737333333336,-0.22534861333333323,1.06205416,0.6655613247274506,0.7213892526660277,0.7224590005629631,0.7222270151804938
LBP05_S07,LBP05,-1509,142,7,141,-1509,1715801856.64,2024-05-15 19:37:36.640000+00:00,2024-05-16 04:37:36.640000+09:00,2024,5,15,19,37,36,640,,,,,,,,,-0.030029,-0.197021,1.248779,-25.817871,50.964355,19.775391,,,,,,,,,,,0.0,1.0,1.0,7.0,0.0,0.0,0.0,5.0,0.0,-0.13973308,-0.17458656,1.0167382933333333,-1.1629231866666663,1.36962892,0.5468750400000001,5.008363253656256,4.944175425873451,-1.6328394295677688,-1.5141553960643304,-7.402993067541096,13.641484196759135,15.594456194812357,-2.2482855551013095,15.49384697147391,-2.2596167415191317,0.10970408000000001,-0.02243444,0.23204070666666676,0.3641792266666668,0.2576454517687554,0.6955919833229001,0.7037178907133073,0.718474119108006
LBP05_S07,LBP05,-1508,143,7,142,-1508,1715801856.68,2024-05-15 19:37:36.680000+00:00,2024-05-16 04:37:36.680000+09:00,2024,5,15,19,37,36,680,,,,,,,,,-0.631348,-0.522461,1.842285,19.287109,29.968262,9.216309,,,,,,,,,,,0.0,1.0,1.0,7.0,0.0,0.0,0.0,5.0,0.0,-0.15361329333333332,-0.18055661333333337,1.0287467466666667,-1.106770853333333,0.37597657333333323,0.3051758133333334,0.7437562305739482,6.486285456297486,-2.703154688236067,-1.4844051468413724,-7.1435416492891965,13.533358009229692,15.37483089146284,-2.27778670476529,15.416197360984759,-2.259051463442697,-0.47773470666666673,-0.34190438666666656,0.8135382533333333,1.6331773466666666,1.0034807169111155,0.7134344355204977,0.7061585867956213,0.7227214530072074
LBP05_S07,LBP05,-1507,144,7,143,-1507,1715801856.72,2024-05-15 19:37:36.720000+00:00,2024-05-16 04:37:36.720000+09:00,2024,5,15,19,37,36,720,,,,,,,,,-0.378906,-0.348389,1.916504,62.866211,-57.617188,8.972168,,,,,,,,,,,0.0,1.0,1.0,7.0,0.0,0.0,0.0,5.0,0.0,-0.14786133333333334,-0.17731117333333332,1.0284537733333334,-0.46875001333333294,-0.9627278533333335,-0.17985022666666664,-4.82966781964338,6.854342901302845,-3.5216157942078965,-1.6775918596271076,-6.869367933237083,13.392493377461376,15.144682535960266,-2.268046825038219,15.341319908895958,-2.254427290262265,-0.23104466666666668,-0.17107782666666668,0.8880502266666666,1.29017272,0.9334251260035906,0.7213597148437381,0.721272944658714,0.7312735212953065
LBP05_S07,LBP05,-1506,145,7,144,-1506,1715801856.76,2024-05-15 19:37:36.760000+00:00,2024-05-16 04:37:36.760000+09:00,2024,5,15,19,37,36,760,,,,,,,,,0.115723,0.003418,1.132812,17.211914,79.772949,-23.31543,,,,,,,,,,,0.0,1.0,1.0,7.0,0.0,0.0,0.0,5.0,0.0,-0.14297852000000003,-0.17202797333333333,1.0103841066666666,-0.6241862133333329,2.1175130266666664,-0.44433590666666667,-10.865878184688535,5.758153191199073,-4.0173366124469805,-2.112226987014649,-6.63904180558912,13.231799912963497,14.953892733256241,-2.266387280813395,15.290779456270503,-2.25393186803989,0.25870152,0.17544597333333334,0.12242789333333337,0.5565753866666667,0.3357027778783327,0.7238951653781769,0.7038841972671634,0.7212773038070917
LBP05_S07,LBP05,-1505,146,7,145,-1505,1715801856.8,2024-05-15 19:37:36.800000+00:00,2024-05-16 04:37:36.800000+09:00,2024,5,15,19,37,36,800,,,,,,,,,-0.52124,0.287354,0.087158,-89.172363,84.594727,-41.564941,,,,,,,,,,,0.0,1.0,1.0,7.0,0.0,0.0,0.0,5.0,0.0,-0.1477246133333333,-0.17396808,0.9928157466666666,-2.01334636,1.8180338666666664,-0.38411454666666667,-16.393253561371903,3.3316432390368838,-4.153786383012306,-2.767957129469525,-6.505776076027645,13.065648457643006,14.855903831160994,-2.2768546782060004,15.281943469931544,-2.2598440432431373,-0.3735153866666667,0.46132207999999997,-0.9056577466666667,1.7404952133333333,1.0828424445271898,0.7246754322922346,0.7103268438055353,0.7225953645718661
LBP05_S07,LBP05,-1504,147,7,146,-1504,1715801856.84,2024-05-15 19:37:36.840000+00:00,2024-05-16 04:37:36.840000+09:00,2024,5,15,19,37,36,840,,,,,,,,,-0.013916,-0.519775,0.317383,-156.860352,-63.659668,9.155273,,,,,,,,,,,0.0,1.0,1.0,7.0,0.0,0.0,0.0,5.0,0.0,-0.14105469333333334,-0.17620114666666667,0.9973893199999999,-1.1995442799999996,-0.6624348800000003,-0.4435220933333333,-20.61250183734002,0.09976584594113179,-3.980487852423535,-3.592457202963126,-6.501785442189999,12.906428943546064,14.89143615526048,-2.2485293169587446,15.326677451636176,-2.267513040101294,0.12713869333333333,-0.34357385333333335,-0.6800063199999999,1.1507188666666666,0.7724091113372269,0.7123573363665376,0.7118824764189482,0.7276984421360678
LBP05_S07,LBP05,-1503,148,7,147,-1503,1715801856.88,2024-05-15 19:37:36.880000+00:00,2024-05-16 04:37:36.880000+09:00,2024,5,15,19,37,36,880,,,,,,,,,0.189941,-0.30127,0.530273,28.198242,-96.252441,-2.258301,,,,,,,,,,,0.0,1.0,1.0,7.0,0.0,0.0,0.0,5.0,0.0,-0.13373373333333333,-0.17430661333333333,1.0086881466666666,1.1165364400000006,0.34749350666666634,-0.45003250666666667,-23.12257586854414,-3.2146593956768035,-3.6358338600127476,-4.517360237704891,-6.630371818017071,12.760995589145555,15.073532511941071,-2.2281351841124666,15.430908923223853,-2.272238266279835,0.3236747333333333,-0.12696338666666665,-0.4784151466666666,0.9290532666666665,0.5914102527961128,0.725952550895779,0.715130826831539,0.7213929303685425
LBP05_S07,LBP05,-1502,149,7,148,-1502,1715801856.92,2024-05-15 19:37:36.920000+00:00,2024-05-16 04:37:36.920000+09:00,2024,5,15,19,37,36,920,,,,,,,,,0.274414,0.135498,0.990479,77.026367,12.573242,4.943848,,,,,,,,,,,0.0,1.0,1.0,7.0,0.0,0.0,0.0,5.0,0.0,-0.14224936,-0.17010740000000002,1.0222753866666667,0.08789060000000061,2.418619813333333,-0.3653970933333333,-23.947575187643658,-5.954456789770327,-3.2910810431886364,-5.475263245210638,-6.868550089607885,12.62935234741801,15.383628591884289,-2.269245650941448,15.594304670579527,-2.2738809751074873,0.41666336,0.3056054,-0.03179638666666673,0.7540651466666667,0.5177007111070119,0.7013973273380132,0.7052322049564572,0.7187978264666218
LBP05_S07,LBP05,-1501,150,7,149,-1501,1715801856.96,2024-05-15 19:37:36.960000+00:00,2024-05-16 04:37:36.960000+09:00,2024,5,15,19,37,36,960,,,,,,,,,-0.285645,-0.323242,1.607422,-82.702637,51.940918,33.203125,,,,,,,,,,,0.0,1.0,1.0,7.0,0.0,0.0,0.0,5.0,0.0,-0.15818686666666668,-0.17978188,1.0365787733333331,-0.939941426666666,1.641438813333333,-0.5444335466666667,-23.368958531985946,-7.728913248909619,-3.0700883235841143,-6.410021586490076,-7.177706619564269,12.506548814474645,15.780418635278426,-2.2940256264228593,15.809857191722221,-2.2742975763837943,-0.1274581333333333,-0.14346011999999997,0.5708432266666668,0.8417614800000001,0.6022361424013372,0.696364017594915,0.6971922169639773,0.7181138905372081
LBP05_S07,LBP05,-1500,151,7,150,-1500,1715801857.0,2024-05-15 19:37:37+00:00,2024-05-16 04:37:37+09:00,2024,5,15,19,37,37,0,19.0,37.0,37.0,40.83688,141.718628,5.109,3.0,10.0,-0.891846,-0.215332,1.956055,51.574707,-60.546875,-18.493652,-577.0,49.0,553.0,8.0,0.0,1020.599976,15.19,0.075314,-60.978813,3.839062,0.0,1.0,1.0,7.0,0.0,0.0,0.0,5.0,0.0,-0.15762372000000002,-0.17772458666666666,1.0400455733333334,0.5045572666666673,0.4679362133333331,-0.6868489066666666,-21.698977019484634,-8.467937526463142,-2.998662861034235,-7.2779806672694605,-7.516424120622794,12.386602300033275,16.21399243534478,-2.297833578653209,16.06389085161253,-2.271980832241744,-0.73422228,-0.03760741333333334,0.9160094266666667,1.68783912,1.1745509540791401,0.7181607333039967,0.7132226205615193,0.7264445056814525
LBP05_S07,LBP05,-1499,152,7,151,-1499,1715801857.04,2024-05-15 19:37:37.040000+00:00,2024-05-16 04:37:37.040000+09:00,2024,5,15,19,37,37,40,,,,,,,,,-0.022461,-0.306641,1.65918,21.057129,-42.175293,-3.601074,,,,,,,,,,,0.0,1.0,1.0,7.0,0.0,0.0,0.0,5.0,0.0,-0.15073894666666665,-0.17074217333333336,1.0238639333333333,-0.5428060133333328,2.7840169466666667,-0.4939778133333333,-19.153209795594382,-8.340450482004812,-3.0185853807435694,-8.044109059093236,-7.850042139902986,12.265858884803531,16.636770910689137,-2.2955378168867178,16.33730197192667,-2.270697970511453,0.12827794666666664,-0.13589882666666664,0.6353160666666668,0.8994928400000002,0.662231249077841,0.72510385483549,0.7061237576217388,0.7234498598442316
LBP05_S07,LBP05,-1498,153,7,152,-1498,1715801857.08,2024-05-15 19:37:37.080000+00:00,2024-05-16 04:37:37.080000+09:00,2024,5,15,19,37,37,80,,,,,,,,,-0.283691,0.04248,0.483887,-44.372559,134.033203,-22.155762,,,,,,,,,,,0.0,1.0,1.0,7.0,0.0,0.0,0.0,5.0,0.0,-0.15137045333333332,-0.17195312000000001,1.0048990933333333,-3.8191731999999994,2.7986653733333333,-0.6941731333333333,-15.893292573314808,-7.608715068822696,-3.0583901652910512,-8.679840762025828,-8.154390742655893,12.14352327819189,17.008788365019583,-2.29421379304181,16.60841682000385,-2.277025491240907,-0.1323205466666667,0.21443312,-0.5210120933333333,0.86776576,0.5787433726814346,0.7062178128511083,0.7037534009872995,0.7167682798328474
LBP05_S07,LBP05,-1497,154,7,153,-1497,1715801857.12,2024-05-15 19:37:37.120000+00:00,2024-05-16 04:37:37.120000+09:00,2024,5,15,19,37,37,120,,,,,,,,,-0.230713,-0.068115,0.015137,-183.105469,-30.883789,-20.385742,,,,,,,,,,,0.0,1.0,1.0,7.0,0.0,0.0,0.0,5.0,0.0,-0.14746746666666666,-0.17533854666666668,1.0036556133333332,-3.129882826666666,0.08219401333333337,-1.2150064666666667,-12.186162559016573,-6.501164996431101,-3.1142098337202206,-9.167287264386491,-8.414437342513137,12.01895488484308,17.300207747387187,-2.272212837801292,16.85684835337397,-2.285175869419543,-0.08324553333333334,0.10722354666666668,-0.9885186133333332,1.1789876933333332,0.997795448319036,0.7063798303708044,0.7131514359509454,0.7231908444252156
LBP05_S07,LBP05,-1496,155,7,154,-1496,1715801857.16,2024-05-15 19:37:37.160000+00:00,2024-05-16 04:37:37.160000+09:00,2024,5,15,19,37,37,160,,,,,,,,,-0.014648,-0.550049,0.358887,-1.159668,-79.101562,-7.080078,,,,,,,,,,,0.0,1.0,1.0,7.0,0.0,0.0,0.0,5.0,0.0,-0.13842774666666668,-0.17480144,1.0144108133333334,-1.0392252666666657,0.34016926666666675,-1.1686197466666666,-8.531660751266651,-5.163457754188307,-3.284701135157605,-9.508553694437158,-8.62097565268067,11.887566839436776,17.494229332159343,-2.243219839392895,17.066877333594142,-2.2882408163846435,0.12377974666666669,-0.37524756000000004,-0.6555238133333334,1.1545511200000003,0.7654042244578304,0.7218206369396324,0.7190395287260235,0.7222614915279751
LBP05_S07,LBP05,-1495,156,7,155,-1495,1715801857.2,2024-05-15 19:37:37.200000+00:00,2024-05-16 04:37:37.200000+09:00,2024,5,15,19,37,37,200,,,,,,,,,0.486572,-0.010986,0.65625,101.867676,-44.128418,7.629395,,,,,,,,,,,0.0,1.0,1.0,7.0,0.0,0.0,0.0,5.0,0.0,-0.14314129333333334,-0.17305013333333336,1.0293001333333334,-1.1881510533333326,2.1842447866666665,-1.01562496,-5.612189302073984,-3.6897133558513127,-3.7304657231969474,-9.733041266520116,-8.768564186914723,11.738348210508898,17.590015034302397,-2.2640260609030856,17.22896772254151,-2.289337315589427,0.6297132933333334,0.16206413333333336,-0.37305013333333337,1.16482756,0.7496465947990526,0.710813663269029,0.7178910345607938,0.7221415240785551
LBP05_S07,LBP05,-1494,157,7,156,-1494,1715801857.24,2024-05-15 19:37:37.240000+00:00,2024-05-16 04:37:37.240000+09:00,2024,5,15,19,37,37,240,,,,,,,,,0.040283,0.099121,1.147705,-7.385254,67.687988,21.057129,,,,,,,,,,,0.0,1.0,1.0,7.0,0.0,0.0,0.0,5.0,0.0,-0.16100262666666668,-0.17637696,1.0469628933333335,-1.9352213733333326,2.152506506666667,-1.2247720933333335,-4.0422559262010145,-2.172278021831093,-4.57487736564821,-9.894731503568156,-8.855455307787967,11.55535311588297,17.602584636032304,-2.311804524253289,17.339088923738064,-2.2897140173917787,0.20128562666666666,0.27549796,0.1007421066666665,0.5775256933333331,0.35575834708744686,0.6972339014937724,0.702515537258135,0.7188683138885302
LBP05_S07,LBP05,-1493,158,7,157,-1493,1715801857.28,2024-05-15 19:37:37.280000+00:00,2024-05-16 04:37:37.280000+09:00,2024,5,15,19,37,37,280,,,,,,,,,-0.631348,-0.688721,1.969238,13.061523,7.69043,5.981445,,,,,,,,,,,0.0,1.0,1.0,7.0,0.0,0.0,0.0,5.0,0.0,-0.16265626666666666,-0.17899089333333335,1.0534375066666666,-2.6497395999999993,0.3108723866666666,-1.4965819866666668,-4.056162289156042,-0.7042858511922659,-5.802136410490884,-10.056977995134398,-8.883626741835657,11.323267659463333,17.557847845642225,-2.309638965898827,17.396770434276284,-2.2842440626420983,-0.46869173333333336,-0.5097301066666666,0.9158004933333335,1.8942223333333335,1.1481233671200115,0.7200610001153581,0.7148952786140618,0.7265835598255356
LBP05_S07,LBP05,-1492,159,7,158,-1492,1715801857.32,2024-05-15 19:37:37.320000+00:00,2024-05-16 04:37:37.320000+09:00,2024,5,15,19,37,37,320,,,,,,,,,-0.350586,0.001221,1.918457,99.121094,-68.847656,-9.277344,,,,,,,,,,,0.0,1.0,1.0,7.0,0.0,0.0,0.0,5.0,0.0,-0.15556968,-0.17465170666666666,1.0359928533333334,-3.4000651199999994,1.6975911466666667,-1.6064452666666666,-5.334255902652974,0.6701044670798175,-7.2148262860078605,-10.270348231240517,-8.856822563152464,11.03467460802302,17.48391839408603,-2.299895120592452,17.40334665634645,-2.2814110888329973,-0.19501632000000002,0.17587270666666666,0.8824641466666667,1.2533531733333334,0.9207092614765695,0.7391964242186666,0.7163910485199626,0.7298273864387722
LBP05_S07,LBP05,-1491,160,7,159,-1491,1715801857.36,2024-05-15 19:37:37.360000+00:00,2024-05-16 04:37:37.360000+09:00,2024,5,15,19,37,37,360,,,,,,,,,0.042236,-0.048828,1.002441,-55.969238,86.975098,-12.329102,,,,,,,,,,,0.0,1.0,1.0,7.0,0.0,0.0,0.0,5.0,0.0,-0.15263673333333336,-0.16956708,1.0113281333333333,-5.237630213333333,2.784016933333333,-2.0719400666666665,-7.091824314493094,2.008551807029739,-8.481314645396534,-10.554021203820241,-8.776480490871275,10.695422022207158,17.40132252475211,-2.304990618470693,17.36129014328528,-2.286323289653914,0.19487273333333335,0.12073908,-0.008887133333333352,0.3244989466666667,0.22941728089866137,0.717761443403353,0.7046157784843667,0.7160426840237429
LBP05_S07,LBP05,-1490,161,7,160,-1490,1715801857.4,2024-05-15 19:37:37.400000+00:00,2024-05-16 04:37:37.400000+09:00,2024,5,15,19,37,37,400,,,,,,,,,-0.588379,0.287109,-0.032715,-116.943359,45.776367,-46.508789,,,,,,,,,,,0.0,1.0,1.0,7.0,0.0,0.0,0.0,5.0,0.0,-0.15323244000000003,-0.17143882666666668,1.0025586,-4.936523439999999,0.5411784000000002,-2.4291991866666667,-8.404004408031426,3.472440529974154,-9.252328253547745,-10.890181380141499,-8.63758286967231,10.325328892065247,17.3152044473103,-2.3016005966767237,17.274415267262157,-2.29310776909196,-0.43514655999999996,0.4585478266666667,-1.0352736,1.9289679866666667,1.2130169268718045,0.7212850465015638,0.717669084583686,0.7232142435971788
LBP05_S07,LBP05,-1489,162,7,161,-1489,1715801857.44,2024-05-15 19:37:37.440000+00:00,2024-05-16 04:37:37.440000+09:00,2024,5,15,19,37,37,440,,,,,,,,,0.033203,-0.574219,0.429199,-96.923828,-69.458008,-4.760742,,,,,,,,,,,0.0,1.0,1.0,7.0,0.0,0.0,0.0,5.0,0.0,-0.13906902666666668,-0.17651044,1.0126529999999998,-3.582356773333333,-0.6266275866666665,-2.0857747066666663,-8.599693863346232,5.252198914964243,-9.287993197887626,-11.234169134675348,-8.42749491307374,9.953809164149742,17.213586016071357,-2.2408382693899163,17.148082179106893,-2.296867346664743,0.1722720266666667,-0.39770856000000004,-0.5834539999999998,1.1534345866666667,0.726820693145919,0.7314632320847767,0.7199757790648706,0.7269709832703456
LBP05_S07,LBP05,-1488,163,7,162,-1488,1715801857.48,2024-05-15 19:37:37.480000+00:00,2024-05-16 04:37:37.480000+09:00,2024,5,15,19,37,37,480,,,,,,,,,0.47168,-0.341064,0.665771,68.115234,-57.495117,-0.12207,,,,,,,,,,,0.0,1.0,1.0,7.0,0.0,0.0,0.0,5.0,0.0,-0.14099610666666668,-0.16977866666666666,1.0260384133333331,-2.7775065066666658,1.2418620000000002,-2.3453775733333333,-7.5076486024467135,7.436505489937181,-8.53462508731308,-11.534475078773216,-8.130034693476253,9.61242416065722,17.07455058572127,-2.2658840549507984,16.98877861902768,-2.296505000666951,0.6126761066666666,-0.17128533333333332,-0.3602674133333331,1.144228853333333,0.731097316508019,0.7332574262394711,0.7257061725053967,0.7238132018335154
LBP05_S07,LBP05,-1487,164,7,163,-1487,1715801857.52,2024-05-15 19:37:37.520000+00:00,2024-05-16 04:37:37.520000+09:00,2024,5,15,19,37,37,520,,,,,,,,,0.238037,0.162354,1.055908,67.138672,69.824219,-7.263184,,,,,,,,,,,0.0,1.0,1.0,7.0,0.0,0.0,0.0,5.0,0.0,-0.16119466666666668,-0.17315432,1.0421549466666666,-3.8745117199999988,1.704101586666667,-2.52441404,-5.430226094035083,9.895454322639763,-7.123246448580502,-11.75168412253462,-7.734216520570662,9.327494302714,16.879642616775467,-2.3213348460104615,16.803152667907494,-2.296508007601698,0.39923166666666665,0.33550831999999997,0.013753053333333431,0.74849304,0.5216712594485691,0.7235071616282416,0.7148860055979549,0.7223507380544018
LBP05_S07,LBP05,-1486,165,7,164,-1486,1715801857.56,2024-05-15 19:37:37.560000+00:00,2024-05-16 04:37:37.560000+09:00,2024,5,15,19,37,37,560,,,,,,,,,-0.578613,-0.462158,1.812744,-15.136719,41.809082,5.371094,,,,,,,,,,,0.0,1.0,1.0,7.0,0.0,0.0,0.0,5.0,0.0,-0.16338217333333332,-0.17926760000000003,1.0498502533333334,-4.108072919999999,-0.3059895599999999,-2.6879882533333332,-2.9003613164548523,12.25562725072459,-5.304543754801407,-11.867698575192813,-7.243991430541678,9.115312552521942,16.625480571928104,-2.3110646337733534,16.597096661927996,-2.292615947728808,-0.4152308266666667,-0.2828904,0.7628937466666665,1.4610149733333333,0.9134826142459129,0.7380353187870149,0.7235130269962515,0.724371084480593
LBP05_S07,LBP05,-1485,166,7,165,-1485,1715801857.6,2024-05-15 19:37:37.600000+00:00,2024-05-16 04:37:37.600000+09:00,2024,5,15,19,37,37,600,,,,,,,,,-0.498291,-0.321777,1.92749,45.959473,-77.575684,-4.089355,,,,,,,,,,,0.0,1.0,1.0,7.0,0.0,0.0,0.0,5.0,0.0,-0.15712566666666666,-0.17578126666666669,1.03381184,-3.675944013333332,1.1474609600000003,-2.54313148,-0.40128962803834245,13.99133043814155,-3.360097527907916,-11.883750160314348,-6.684338213016016,8.980908651405626,16.32668415274975,-2.3016218366309182,16.37554711038602,-2.28916554419738,-0.3411653333333333,-0.1459957333333333,0.8936781599999999,1.3808392266666665,0.9676617138654229,0.7501193343525339,0.7357542935092808,0.7316791118261533
LBP05_S07,LBP05,-1484,167,7,166,-1484,1715801857.64,2024-05-15 19:37:37.640000+00:00,2024-05-16 04:37:37.640000+09:00,2024,5,15,19,37,37,640,,,,,,,,,0.093994,-0.032959,1.418457,-30.761719,62.805176,7.568359,,,,,,,,,,,0.0,1.0,1.0,7.0,0.0,0.0,0.0,5.0,0.0,-0.1560807466666667,-0.17227541333333335,1.0085709600000001,-4.673665359999998,2.8979492400000004,-2.750651013333333,1.7918931137628944,14.591373374700911,-1.5285720557961677,-11.812074435763831,-6.100683278027979,8.919765769173779,16.009549035240184,-2.3081810642753697,16.143208635671872,-2.2885286956515722,0.2500747466666667,0.13931641333333333,0.40988603999999995,0.7992771999999999,0.49995300552286237,0.7598116365026981,0.727701809912799,0.7224158059764375
LBP05_S07,LBP05,-1483,168,7,167,-1483,1715801857.68,2024-05-15 19:37:37.680000+00:00,2024-05-16 04:37:37.680000+09:00,2024,5,15,19,37,37,680,,,,,,,,,-0.535889,0.149902,0.112793,-28.503418,117.919922,-13.671875,,,,,,,,,,,0.0,1.0,1.0,7.0,0.0,0.0,0.0,5.0,0.0,-0.15843426666666668,-0.17435874666666665,0.9977278533333334,-4.207356773333332,1.2272135733333334,-2.6749674266666665,3.607689476630917,13.731896761516946,0.03187526889601758,-11.667766856698595,-5.551407407567302,8.92104077992962,15.701588334440393,-2.309669035246293,15.90564498494447,-2.295010863838692,-0.37745473333333324,0.32426074666666665,-0.8849348533333333,1.586650333333333,1.0152471631029805,0.7602822943503726,0.7368583649354352,0.7241998226472051
LBP05_S07,LBP05,-1482,169,7,168,-1482,1715801857.72,2024-05-15 19:37:37.720000+00:00,2024-05-16 04:37:37.720000+09:00,2024,5,15,19,37,37,720,,,,,,,,,-0.009033,-0.364258,0.398438,-62.683105,-54.382324,6.469727,,,,,,,,,,,0.0,1.0,1.0,7.0,0.0,0.0,0.0,5.0,0.0,-0.1459538,-0.17765628,1.00399088,-3.1274413999999995,-0.8642577733333333,-2.7734374666666666,5.080396896311125,11.38653498643242,1.244168274721908,-11.46455098084615,-5.095946008110005,8.970807510918496,15.423358334291024,-2.260974521863552,15.669705258970927,-2.2976824239866636,0.1369208,-0.18660172000000003,-0.6055528799999998,0.9290753999999999,0.6482760198062957,0.7488763301024808,0.7351180224731094,0.7304740731399696
LBP05_S07,LBP05,-1481,170,7,169,-1481,1715801857.76,2024-05-15 19:37:37.760000+00:00,2024-05-16 04:37:37.760000+09:00,2024,5,15,19,37,37,760,,,,,,,,,0.301758,-0.258301,0.781006,70.983887,-61.096191,-4.211426,,,,,,,,,,,0.0,1.0,1.0,7.0,0.0,0.0,0.0,5.0,0.0,-0.1422396,-0.16966799999999999,1.01327148,-1.0099283866666655,0.7096354533333334,-3.2177734,6.26481790226115,7.830721376609925,2.0897283833217144,-11.213958264755703,-4.782717153045608,9.054396646251364,15.185827009332334,-2.270486583156419,15.442602865312855,-2.2956972228927626,0.4439976,-0.08863300000000002,-0.23226548000000002,0.7648960800000001,0.5088584584090063,0.7558025573237077,0.7398488613509423,0.7211903172860116
LBP05_S07,LBP05,-1480,171,7,170,-1480,1715801857.8,2024-05-15 19:37:37.800000+00:00,2024-05-16 04:37:37.800000+09:00,2024,5,15,19,37,37,800,,,,,,,,,0.137451,0.037109,1.167725,50.842285,49.621582,-0.549316,,,,,,,,,,,0.0,1.0,1.0,7.0,0.0,0.0,0.0,5.0,0.0,-0.15479168000000001,-0.17546553333333334,1.03041992,-2.2444661466666656,1.8082682533333336,-3.440755173333333,7.221981319297366,3.5531692965628627,2.5808887179677,-10.925079011983808,-4.6405903811830935,9.157632194970072,14.99181970016884,-2.2952321112186427,15.22991938852594,-2.2955797157525057,0.29224268,0.21257453333333334,0.13730507999999997,0.6421222933333333,0.38658298103935357,0.7279521787841944,0.7263138055382145,0.7162019554650884
LBP05_S07,LBP05,-1479,172,7,171,-1479,1715801857.84,2024-05-15 19:37:37.840000+00:00,2024-05-16 04:37:37.840000+09:00,2024,5,15,19,37,37,840,,,,,,,,,-0.642578,-0.32373,1.76709,-18.493652,50.415039,8.239746,,,,,,,,,,,0.0,1.0,1.0,7.0,0.0,0.0,0.0,5.0,0.0,-0.16282553333333333,-0.1806706133333333,1.0406835866666666,-2.3079427066666653,0.07161461333333345,-3.426920546666667,8.050168239949794,-0.8646070582125623,2.7410158219615863,-10.603072282385817,-4.675174663511596,9.267272827848535,14.83794950879733,-2.3056599512611125,15.033551896655334,-2.293492007428881,-0.47975246666666665,-0.1430593866666667,0.7264064133333334,1.3492182666666668,0.8822101193695251,0.7323442191054862,0.7223507777360119,0.7187030573144609
LBP05_S07,LBP05,-1478,173,7,172,-1478,1715801857.88,2024-05-15 19:37:37.880000+00:00,2024-05-16 04:37:37.880000+09:00,2024,5,15,19,37,37,880,,,,,,,,,-0.672363,-0.529541,2.006348,40.771484,-105.59082,11.047363,,,,,,,,,,,0.0,1.0,1.0,7.0,0.0,0.0,0.0,5.0,0.0,-0.15546224000000003,-0.17719405333333332,1.0318456933333335,-2.405598946666666,0.4329427333333334,-3.646647106666667,8.889652703231812,-4.847098093649257,2.595036074716428,-10.247486174256544,-4.869058587257566,9.371074270837191,14.71515332598585,-2.2925996564305167,14.85064642286648,-2.288952302477063,-0.51690076,-0.3523469466666667,0.9745023066666665,1.843750013333333,1.1580110155834245,0.7550082496169788,0.7404804002563788,0.7284233010933522
LBP05_S07,LBP05,-1477,174,7,173,-1477,1715801857.92,2024-05-15 19:37:37.920000+00:00,2024-05-16 04:37:37.920000+09:00,2024,5,15,19,37,37,920,,,,,,,,,0.096436,0.021729,1.343018,-22.338867,0.244141,0.793457,,,,,,,,,,,0.0,1.0,1.0,7.0,0.0,0.0,0.0,5.0,0.0,-0.1522819066666667,-0.17040694666666667,1.0066080666666666,-3.0900065066666653,2.22330732,-3.8159179466666666,9.858743474047452,-7.887557197492267,2.16522210700725,-9.853136435294646,-5.184560875157256,9.457683155117481,14.608618680194757,-2.3014828350714507,14.674022230129552,-2.2854204947268406,0.24871790666666668,0.19213594666666667,0.33640993333333347,0.7772637866666668,0.4603786076084365,0.7527153654770358,0.7270563464075245,0.7210599251299833
LBP05_S07,LBP05,-1476,175,7,174,-1476,1715801857.96,2024-05-15 19:37:37.960000+00:00,2024-05-16 04:37:37.960000+09:00,2024,5,15,19,37,37,960,,,,,,,,,-0.432861,0.03833,0.155273,-6.408691,116.088867,-9.94873,,,,,,,,,,,0.0,1.0,1.0,7.0,0.0,0.0,0.0,5.0,0.0,-0.1545768266666667,-0.1700195733333333,0.9921158799999998,-3.432617173333332,1.7797851866666667,-3.9819335733333334,10.947126284276502,-9.585900168841638,1.4670191144888998,-9.415251383923586,-5.567996881910922,9.516363919697037,14.498645804058953,-2.309889562370783,14.493933924925267,-2.2898945423721786,-0.27828417333333333,0.20834957333333332,-0.8368428799999998,1.3234766266666664,0.9061774835222363,0.7648730191218717,0.7306185183583933,0.7197524843499421
LBP05_S07,LBP05,-1475,176,7,175,-1475,1715801858.0,2024-05-15 19:37:38+00:00,2024-05-16 04:37:38+09:00,2024,5,15,19,37,38,0,19.0,37.0,38.0,40.836811,141.718643,5.02,3.0,10.0,-0.092773,-0.195801,0.277832,-38.757324,-49.01123,-3.540039,-578.0,54.0,548.0,12.0,0.0,1020.0,15.25,0.069368,-56.014488,3.839062,0.0,1.0,1.0,7.0,0.0,0.0,0.0,6.0,0.0,-0.1474641866666667,-0.17225264,0.9949772,-2.867838519999999,-0.8064778266666663,-4.0901692533333325,11.94004313114743,-9.684840331332843,0.5072616681351008,-8.937649658677689,-5.955390495164235,9.536654386422441,14.36300923404369,-2.2807447533946723,14.300588390680264,-2.293905970545775,0.0546911866666667,-0.02354835999999999,-0.7171452,0.7953847466666667,0.7196130133903484,0.7466755014943199,0.7324181173991582,0.7243735808724528
LBP05_S07,LBP05,-1474,177,7,176,-1474,1715801858.04,2024-05-15 19:37:38.040000+00:00,2024-05-16 04:37:38.040000+09:00,2024,5,15,19,37,38,40,,,,,,,,,0.219482,-0.102051,0.458496,43.457031,-98.815918,-2.624512,,,,,,,,,,,0.0,1.0,1.0,7.0,0.0,0.0,0.0,6.0,0.0,-0.14161457333333333,-0.17166996,1.0052571466666667,-1.8294270666666659,0.1798502933333337,-4.13004556,12.442180797545355,-8.12619619642016,-0.7065221336072514,-8.439962426775875,-6.280438343021042,9.508393501078151,14.180494297351649,-2.2627840147571883,14.08673840875262,-2.296291863683542,0.36109657333333334,0.06961896000000001,-0.5467611466666666,0.97747668,0.6589273756407493,0.7465433465568364,0.7358236006961633,0.719596953933438
LBP05_S07,LBP05,-1473,178,7,177,-1473,1715801858.08,2024-05-15 19:37:38.080000+00:00,2024-05-16 04:37:38.080000+09:00,2024,5,15,19,37,38,80,,,,,,,,,0.378418,-0.115967,0.944824,59.570312,0.549316,9.82666,,,,,,,,,,,0.0,1.0,1.0,7.0,0.0,0.0,0.0,6.0,0.0,-0.14639972,-0.17325850666666667,1.02071288,-2.139485666666666,1.999511746666667,-3.8248697866666665,12.015485204190307,-5.113803941927943,-2.1418584807565257,-7.959343018608262,-6.48499050069816,9.42271916184789,13.93534640707108,-2.274350957744071,13.849765984653015,-2.2967196356791155,0.5248177199999999,0.05729150666666667,-0.07588888000000005,0.6579981066666667,0.5333620515839025,0.744728093712935,0.7254729532820217,0.7174116318958447
LBP05_S07,LBP05,-1472,179,7,178,-1472,1715801858.12,2024-05-15 19:37:38.120000+00:00,2024-05-16 04:37:38.120000+09:00,2024,5,15,19,37,38,120,,,,,,,,,-0.276855,-0.173096,1.522705,-3.78418,68.29834,9.033203,,,,,,,,,,,0.0,1.0,1.0,7.0,0.0,0.0,0.0,6.0,0.0,-0.16188473333333334,-0.17960617333333334,1.0347298133333334,-2.4707031066666656,1.4949544533333334,-3.73779296,10.371488624606888,-1.1267584569202895,-3.712814974201659,-7.544483473623987,-6.530060838974972,9.274206562879824,13.6224752822482,-2.3057149983169345,13.59279155664882,-2.2975558289373543,-0.11497026666666668,0.006510173333333341,0.4879751866666666,0.6094556266666666,0.5013784273147406,0.7248714128727634,0.7156256216217838,0.7170580949248847
LBP05_S07,LBP05,-1471,180,7,179,-1471,1715801858.16,2024-05-15 19:37:38.160000+00:00,2024-05-16 04:37:38.160000+09:00,2024,5,15,19,37,38,160,,,,,,,,,-0.79126,-0.348389,1.971191,43.151855,-39.367676,-9.70459,,,,,,,,,,,0.0,1.0,1.0,7.0,0.0,0.0,0.0,6.0,0.0,-0.16133461333333332,-0.17719081333333336,1.0365852800000002,-1.4428710799999989,1.1417643600000003,-3.8924153599999998,7.517127946995626,3.161031139815314,-5.268541174492728,-7.243798355744162,-6.403619593382359,9.063464915900115,13.252371666882294,-2.310600864892376,13.324560080823048,-2.2921967312614564,-0.6299253866666666,-0.17119818666666664,0.9346057199999998,1.735729293333333,1.1400011683072182,0.7398552906267386,0.7308379637831856,0.7259781160262619
LBP05_S07,LBP05,-1470,181,7,180,-1470,1715801858.2,2024-05-15 19:37:38.200000+00:00,2024-05-16 04:37:38.200000+09:00,2024,5,15,19,37,38,200,,,,,,,,,-0.118896,-0.095947,1.673584,4.516602,-41.320801,-15.869141,,,,,,,,,,,0.0,1.0,1.0,7.0,0.0,0.0,0.0,6.0,0.0,-0.15737953333333335,-0.16984054666666668,1.0161100266666667,-1.728515599999999,2.481282586666667,-3.9477539066666663,3.775184237240309,7.038642467139203,-6.614523510838302,-7.09279098625455,-6.122073894696791,8.798883975466582,12.85331988089242,-2.3190910425963196,13.05821249993204,-2.288299739232541,0.03848353333333335,0.07389354666666667,0.6574739733333332,0.7698510533333333,0.6627316683149502,0.7363786935673747,0.7235961784182018,0.7240535875629874
LBP05_S07,LBP05,-1469,182,7,181,-1469,1715801858.24,2024-05-15 19:37:38.240000+00:00,2024-05-16 04:37:38.240000+09:00,2024,5,15,19,37,38,240,,,,,,,,,-0.190918,-0.174805,0.648193,-28.564453,141.052246,-9.033203,,,,,,,,,,,0.0,1.0,1.0,7.0,0.0,0.0,0.0,6.0,0.0,-0.15317054666666666,-0.16844730666666666,0.9935221333333332,-3.6425781066666656,2.5594076,-3.9803059866666666,-0.33043923846994017,9.932987919715044,-7.562602414644853,-7.1060085557933474,-5.724754377908189,8.496379878880788,12.46822526780125,-2.309937671216845,12.809363844558984,-2.2912826957731194,-0.03774745333333335,-0.006357693333333331,-0.34532913333333315,0.3894342799999998,0.3474442413199906,0.7360461293366763,0.7166400154152244,0.7136924012843153
LBP05_S07,LBP05,-1468,183,7,182,-1468,1715801858.28,2024-05-15 19:37:38.280000+00:00,2024-05-16 04:37:38.280000+09:00,2024,5,15,19,37,38,280,,,,,,,,,-0.280029,-0.065186,0.111572,-70.068359,-9.521484,-6.347656,,,,,,,,,,,0.0,1.0,1.0,7.0,0.0,0.0,0.0,6.0,0.0,-0.15276365333333333,-0.17115564,0.9848177066666667,-3.237304666666666,0.29134120000000036,-3.7247721333333335,-4.261813104316184,11.535506062223003,-7.9879078401421095,-7.276481079965995,-5.263334135419269,8.176863565275104,12.145409045943914,-2.3009615890129003,12.593961830255418,-2.2961565780979405,-0.12726534666666664,0.10596964,-0.8732457066666667,1.1064806933333333,0.888810495705177,0.7256736144800832,0.7228673072977206,0.7184880572360689
