file_name,test_id,_program_index,program_index,session_id,index,_index,unixtime,datetime_utc,datetime_jst,rtc_year,rtc_month,rtc_day,rtc_hour,rtc_min,rtc_sec,rtc_msec,gps_hour,gps_min,gps_sec,latitude,longitude,altitude,fix_type,SIV,acc_x,acc_y,acc_z,gyro_x,gyro_y,gyro_z,mag_x,mag_y,mag_z,illuminance,atmopress,water_pressure,water_temp,depth,alt_wps,battery_level,behavior_class,camera_command,camera_recording,camera_count,play_audio,speaker_on,audio_file,prev_sd_write_time_ms,delay_occurred_counter,acc_x_ma,acc_y_ma,acc_z_ma,gyro_x_ma,gyro_y_ma,gyro_z_ma,gyro_x_lowpass,gyro_y_lowpass,gyro_z_lowpass,angle_x,angle_y,angle_z,combined_angle_change,gravity_adjusted_angle,smoothed_angle_change,smoothed_gravity_angle,acc_x_dy,acc_y_dy,acc_z_dy,ODBA,VeDBA,smoothed_VeDBA_1s,smoothed_VeDBA_2s,smoothed_VeDBA_3s
LBP05_S01,LBP05,0,1,1,0,0,1715760668.0,2024-05-15 08:11:08+00:00,2024-05-15 17:11:08+09:00,2024,5,15,8,11,8,0,8.0,11.0,7.0,40.549774,141.543564,4.331,3.0,10.0,-0.185059,0.212158,1.368896,40.405273,15.014648,51.696777,-562.0,11.0,549.0,147.0,0.0,1024.199951,22.35,0.110989,-90.71624,3.986719,0.0,1.0,1.0,1.0,0.0,0.0,0.0,4.0,0.0,,,,,,,40.19753761337069,13.887273203727073,50.9448001948304,1.6079015045348277,0.555490928149083,2.037792007793216,2.6545270174867683,,4.934008150844514,,,,,,,,,
LBP05_S01,LBP05,1,2,1,1,1,1715760668.04,2024-05-15 08:11:08.040000+00:00,2024-05-15 17:11:08.040000+09:00,2024,5,15,8,11,8,40,,,,,,,,,-0.577637,0.023926,1.665527,-62.194824,-10.742188,-2.01416,,,,,,,,,,,0.0,1.0,1.0,1.0,0.0,0.0,0.0,4.0,0.0,,,,,,,3.35824394880581,15.996882578047858,33.20047306107558,1.7422312624870602,1.1953662312709974,3.365810930236239,3.974034903841185,,5.963683623383132,,,,,,,,,
LBP05_S01,LBP05,2,3,1,2,2,1715760668.08,2024-05-15 08:11:08.080000+00:00,2024-05-15 17:11:08.080000+09:00,2024,5,15,8,11,8,80,,,,,,,,,-0.329102,0.025635,1.583496,-88.500977,-9.82666,-59.265137,,,,,,,,,,,0.0,1.0,1.0,1.0,0.0,0.0,0.0,4.0,0.0,,,,,,,-29.370412093876876,20.13656218276665,18.07309719546074,0.5674147787319852,2.0008287185816633,4.088734818054668,4.587267978284803,,7.247650074036754,,,,,,,,,
LBP05_S01,LBP05,3,4,1,3,3,1715760668.12,2024-05-15 08:11:08.120000+00:00,2024-05-15 17:11:08.120000+09:00,2024,5,15,8,11,8,120,,,,,,,,,-0.438965,-0.383545,1.04248,-165.466309,30.822754,-54.260254,,,,,,,,,,,0.0,1.0,1.0,1.0,0.0,0.0,0.0,4.0,0.0,,,,,,,-54.94948417101652,27.452567276653795,7.4145593047209255,-1.6305645881086759,3.098931409647815,4.385317190243505,5.6118734498152225,,8.712676921559913,,,,,,,,,
LBP05_S01,LBP05,4,5,1,4,4,1715760668.16,2024-05-15 08:11:08.160000+00:00,2024-05-15 17:11:08.160000+09:00,2024,5,15,8,11,8,160,,,,,,,,,-0.074951,-0.098389,1.05127,55.236816,35.095215,22.277832,,,,,,,,,,,0.0,1.0,1.0,1.0,0.0,0.0,0.0,4.0,0.0,,,,,,,-71.70001928650908,38.071117494311835,1.9028023847762523,-4.498565359569039,4.6217761094202885,4.461429285634555,7.842337404794588,,10.281350397514183,,,,,,,,,
LBP05_S01,LBP05,5,6,1,5,5,1715760668.2,2024-05-15 08:11:08.200000+00:00,2024-05-15 17:11:08.200000+09:00,2024,5,15,8,11,8,200,,,,,,,,,-0.087158,0.156982,0.894531,-151.306152,21.484375,32.958984,,,,,,,,,,,0.0,1.0,1.0,1.0,0.0,0.0,0.0,4.0,0.0,,,,,,,-79.37222130016917,50.932466882948795,0.9718310282133309,-7.673454211575805,6.65907478473824,4.500302526763088,11.112060986076226,,11.875569945980278,,,,,,,,,
LBP05_S01,LBP05,6,7,1,6,6,1715760668.24,2024-05-15 08:11:08.240000+00:00,2024-05-15 17:11:08.240000+09:00,2024,5,15,8,11,8,240,,,,,,,,,-0.013672,-0.569824,1.140625,2.197266,61.218262,51.269531,,,,,,,,,,,0.0,1.0,1.0,1.0,0.0,0.0,0.0,4.0,0.0,,,,,,,-78.84135815510288,63.92029292043772,3.1075776578594456,-10.827108537779921,9.21588650155575,4.624605633077466,14.95144877795848,,14.493848093047466,,,,,,,,,
LBP05_S01,LBP05,7,8,1,7,7,1715760668.28,2024-05-15 08:11:08.280000+00:00,2024-05-15 17:11:08.280000+09:00,2024,5,15,8,11,8,280,,,,,,,,,-0.097168,0.065918,1.0271,-53.161621,64.819336,14.953613,,,,,,,,,,,0.0,1.0,1.0,1.0,0.0,0.0,0.0,4.0,0.0,,,,,,,-71.62130664866929,74.26828374106412,6.338876701437597,-13.691960803726692,12.186617851198314,4.87816070113497,18.967864854222025,,17.136855798743934,,,,,,,,,
LBP05_S01,LBP05,8,9,1,8,8,1715760668.32,2024-05-15 08:11:08.320000+00:00,2024-05-15 17:11:08.320000+09:00,2024,5,15,8,11,8,320,,,,,,,,,-0.233398,-0.296143,1.121338,-30.700684,98.876953,-5.065918,,,,,,,,,,,0.0,1.0,1.0,1.0,0.0,0.0,0.0,4.0,0.0,,,,,,,-59.40676377348173,79.17193671739102,8.728636224296567,-16.06823135466596,15.353495319893955,5.227306150106832,22.83073820514835,,19.753315032014036,,,,,,,,,
LBP05_S01,LBP05,9,10,1,9,9,1715760668.36,2024-05-15 08:11:08.360000+00:00,2024-05-15 17:11:08.360000+09:00,2024,5,15,8,11,8,360,,,,,,,,,-0.169434,-0.199707,1.067383,-50.964355,76.538086,-11.413574,,,,,,,,,,,0.0,1.0,1.0,1.0,0.0,0.0,0.0,4.0,0.0,,,,,,,-43.784939726756605,76.4833737234502,8.742201530756867,-17.819628943736227,18.412830268831964,5.576994211337107,26.223545882175124,,22.177775047130854,,,,,,,,,
LBP05_S01,LBP05,10,11,1,10,10,1715760668.4,2024-05-15 08:11:08.400000+00:00,2024-05-15 17:11:08.400000+09:00,2024,5,15,8,11,8,400,,,,,,,,,-0.248291,-0.14209,1.003906,-76.477051,114.257812,-0.610352,,,,,,,,,,,0.0,1.0,1.0,1.0,0.0,0.0,0.0,4.0,0.0,,,,,,,-26.144505082262953,65.33198781927734,5.466064912775374,-18.865409147026746,21.026109781603058,5.795636807848122,28.837308488158673,,24.180807944681636,,,,,,,,,
LBP05_S01,LBP05,11,12,1,11,11,1715760668.44,2024-05-15 08:11:08.440000+00:00,2024-05-15 17:11:08.440000+09:00,2024,5,15,8,11,8,440,,,,,,,,,-0.502686,-0.537109,1.013184,-74.462891,68.17627,26.062012,,,,,,,,,,,0.0,1.0,1.0,1.0,0.0,0.0,0.0,4.0,0.0,,,,,,,-7.7026953175633155,46.51109869317854,-1.2944153756785612,-19.17351695972928,22.8865537293302,5.743860192820979,30.40411196080586,,25.583246920328836,,,,,,,,,
LBP05_S01,LBP05,12,13,1,12,12,1715760668.48,2024-05-15 08:11:08.480000+00:00,2024-05-15 17:11:08.480000+09:00,2024,5,15,8,11,8,480,,,,,,,,,-0.063232,-0.270264,1.200684,0.366211,14.465332,-24.108887,,,,,,,,,,,0.0,1.0,1.0,1.0,0.0,0.0,0.0,4.0,0.0,,,,,,,10.475896555585896,22.509971280974003,-11.008707777781051,-18.754481097505845,23.78695258056916,5.3035118817097375,30.751860310985844,,26.302747120041055,,,,,,,,,
LBP05_S01,LBP05,13,14,1,13,13,1715760668.52,2024-05-15 08:11:08.520000+00:00,2024-05-15 17:11:08.520000+09:00,2024,5,15,8,11,8,520,,,,,,,,,-0.282715,-0.23877,1.050293,108.398438,36.499023,-19.53125,,,,,,,,,,,0.0,1.0,1.0,1.0,0.0,0.0,0.0,4.0,0.0,,,,,,,27.548284673991304,-2.8517619341116425,-22.49931691572386,-17.652549710546193,23.672882103204696,4.403539205080783,29.856473600983374,,26.359394142815667,,,,,,,,,
LBP05_S01,LBP05,14,15,1,14,14,1715760668.56,2024-05-15 08:11:08.560000+00:00,2024-05-15 17:11:08.560000+09:00,2024,5,15,8,11,8,560,,,,,,,,,-0.240723,-0.056152,0.716553,143.310547,-58.59375,-20.568848,,,,,,,,,,,0.0,1.0,1.0,1.0,0.0,0.0,0.0,4.0,0.0,,,,,,,43.01277258759369,-25.132574613111395,-34.109340321643984,-15.932038807042446,22.66757911868024,3.0391655922150234,27.87266638030238,,25.875561177783958,,,,,,,,,
LBP05_S01,LBP05,15,16,1,15,15,1715760668.6,2024-05-15 08:11:08.600000+00:00,2024-05-15 17:11:08.600000+09:00,2024,5,15,8,11,8,600,,,,,,,,,-0.225586,0.011719,0.783447,1.342773,-62.5,-28.930664,,,,,,,,,,,0.0,1.0,1.0,1.0,0.0,0.0,0.0,4.0,0.0,,,,,,,56.7478747901119,-40.175671892459384,-43.95699898034619,-13.662123815437969,21.060552242981863,1.2808856330011755,25.136450742548252,,25.057766413793242,,,,,,,,,
LBP05_S01,LBP05,16,17,1,16,16,1715760668.64,2024-05-15 08:11:08.640000+00:00,2024-05-15 17:11:08.640000+09:00,2024,5,15,8,11,8,640,,,,,,,,,-0.031982,-0.459473,0.421387,41.809082,-75.683594,-51.452637,,,,,,,,,,,0.0,1.0,1.0,1.0,0.0,0.0,0.0,4.0,0.0,,,,,,,68.85753457470291,-45.010516708507964,-50.257125105105985,-10.907822432449851,19.260131574641544,-0.7293993712030638,22.146450775080684,,24.146546777137917,,,,,,,,,
LBP05_S01,LBP05,17,18,1,17,17,1715760668.68,2024-05-15 08:11:08.680000+00:00,2024-05-15 17:11:08.680000+09:00,2024,5,15,8,11,8,680,,,,,,,,,-0.179443,0.210693,0.371826,118.408203,-61.218262,-81.787109,,,,,,,,,,,0.0,1.0,1.0,1.0,0.0,0.0,0.0,4.0,0.0,,,,,,,79.33628281078094,-38.53589860924965,-51.664835257547445,-7.734371120018613,17.718695630271558,-2.7959927815049617,19.534335081968116,,23.36312530422086,,,,,,,,,
LBP05_S01,LBP05,18,19,1,18,18,1715760668.72,2024-05-15 08:11:08.720000+00:00,2024-05-15 17:11:08.720000+09:00,2024,5,15,8,11,8,720,,,,,,,,,0.231445,-0.922363,0.886719,39.855957,-57.189941,-71.594238,,,,,,,,,,,0.0,1.0,1.0,1.0,0.0,0.0,0.0,4.0,0.0,,,,,,,87.70181106334918,-21.817790573152205,-47.568229088688575,-4.226298677484646,16.84598400734547,-4.698721945052505,17.992408554831282,,22.882825369089822,,,,,,,,,
LBP05_S01,LBP05,19,20,1,19,19,1715760668.76,2024-05-15 08:11:08.760000+00:00,2024-05-15 17:11:08.760000+09:00,2024,5,15,8,11,8,760,,,,,,,,,0.171875,1.187012,0.91333,37.17041,60.424805,-40.283203,,,,,,,,,,,0.0,1.0,1.0,1.0,0.0,0.0,0.0,4.0,0.0,,,,,,,92.79900727774564,2.071177498969069,-38.243522246756314,-0.5143383863748201,16.928831107304234,-6.228462834922757,18.04559824226795,,22.825172630379583,,,,,,,,,
LBP05_S01,LBP05,20,21,1,20,20,1715760668.8,2024-05-15 08:11:08.800000+00:00,2024-05-15 17:11:08.800000+09:00,2024,5,15,8,11,8,800,,,,,,,,,-0.018555,-1.480713,1.264404,-136.169434,-8.361816,-36.987305,,,,,,,,,,,0.0,1.0,1.0,1.0,0.0,0.0,0.0,4.0,0.0,,,,,,,92.95349716721765,28.633153900669694,-24.809451754611516,3.2038015003138858,18.07415726333102,-7.2208409051072175,19.72511212160541,,23.247975240336036,,,,,,,,,
LBP05_S01,LBP05,21,22,1,21,21,1715760668.84,2024-05-15 08:11:08.840000+00:00,2024-05-15 17:11:08.840000+09:00,2024,5,15,8,11,8,840,,,,,,,,,-0.32251,-1.380615,1.284668,155.761719,60.60791,0.854492,,,,,,,,,,,0.0,1.0,1.0,1.0,0.0,0.0,0.0,4.0,0.0,,,,,,,86.54982647438966,52.81938868379172,-8.976978082267177,6.6657945592894725,20.18693281068269,-7.579920028397905,22.569897231635288,,24.144599350898485,,,,,,,,,
LBP05_S01,LBP05,22,23,1,22,22,1715760668.88,2024-05-15 08:11:08.880000+00:00,2024-05-15 17:11:08.880000+09:00,2024,5,15,8,11,8,880,,,,,,,,,-0.338623,0.242676,0.680664,451.660156,81.115723,23.55957,,,,,,,,,,,0.0,1.0,1.0,1.0,0.0,0.0,0.0,4.0,0.0,,,,,,,72.90430943849002,70.02198405113575,7.341155111407471,9.581966936829073,22.98781217272812,-7.286273823941606,25.94886095967546,,25.44549900807727,,,,,,,,,
LBP05_S01,LBP05,23,24,1,23,23,1715760668.92,2024-05-15 08:11:08.920000+00:00,2024-05-15 17:11:08.920000+09:00,2024,5,15,8,11,8,920,,,,,,,,,-0.157959,1.109375,0.889404,92.041016,81.970215,36.254883,,,,,,,,,,,0.0,1.0,1.0,1.0,0.0,0.0,0.0,4.0,0.0,,,,,,,53.04617271844448,76.9970553958825,22.44753736060933,11.703813845566852,26.06769438856342,-6.3883723295172326,29.279946213881008,,27.022821365861613,,,,,,,,,
LBP05_S01,LBP05,24,25,1,24,24,1715760668.96,2024-05-15 08:11:08.960000+00:00,2024-05-15 17:11:08.960000+09:00,2024,5,15,8,11,8,960,,,,,,,,,-0.121338,-0.878906,1.465332,-58.898926,135.742188,80.627441,,,,,,,,,,,0.0,1.0,1.0,1.0,0.0,0.0,0.0,4.0,0.0,,,,,,,29.916672320054747,72.53943221988139,35.1768002095625,12.900480738369042,28.969271677358677,-4.981300321134732,32.1006924798669,,28.699447821344005,,,,,,,,,
LBP05_S01,LBP05,25,26,1,25,25,1715760669.0,2024-05-15 08:11:09+00:00,2024-05-15 17:11:09+09:00,2024,5,15,8,11,9,0,8.0,11.0,8.0,40.54974,141.543594,4.686,3.0,12.0,-0.187988,0.306396,1.094482,62.561035,102.294922,77.270508,-573.0,22.0,533.0,350.0,0.0,1024.400024,22.34,0.112971,-92.366455,3.986719,0.0,1.0,1.0,1.0,0.0,0.0,0.0,3.0,0.0,,,,,,,7.717959646382534,57.75003810208091,45.011607561976625,13.209199124224345,31.279273201441914,-3.1808360186556675,34.10269184817276,,30.275085184295996,,,,,,,,,
LBP05_S01,LBP05,26,27,1,26,26,1715760669.04,2024-05-15 08:11:09.040000+00:00,2024-05-15 17:11:09.040000+09:00,2024,5,15,8,11,9,40,,,,,,,,,-0.234375,0.477051,1.175537,-130.432129,55.725098,9.765625,,,,,,,,,,,0.0,1.0,1.0,1.0,0.0,0.0,0.0,3.0,0.0,,,,,,,-9.412769192678953,35.794369898701845,51.964973070872034,12.832688356517187,32.71104799738999,-1.102237095820786,35.15544734686854,,31.576613093559153,,,,,,,,,
LBP05_S01,LBP05,27,28,1,27,27,1715760669.08,2024-05-15 08:11:09.080000+00:00,2024-05-15 17:11:09.080000+09:00,2024,5,15,8,11,9,80,,,,,,,,,-0.253174,-0.276855,0.934814,-238.586426,-16.723633,8.972168,,,,,,,,,,,0.0,1.0,1.0,1.0,0.0,0.0,0.0,3.0,0.0,,,,,,,-18.86258560237015,11.161327266475796,56.292542217311166,12.078184932422381,33.157501088049024,1.1494645928716607,35.30755865981154,,32.499119521200065,,,,,,,,,
LBP05_S01,LBP05,28,29,1,28,28,1715760669.12,2024-05-15 08:11:09.120000+00:00,2024-05-15 17:11:09.120000+09:00,2024,5,15,8,11,9,120,,,,,,,,,-0.183838,-0.128662,0.924805,-80.627441,-69.213867,-11.84082,,,,,,,,,,,0.0,1.0,1.0,1.0,0.0,0.0,0.0,3.0,0.0,,,,,,,-20.504422542962413,-11.420840439932531,58.186334217199004,11.258008030703884,32.70066747045172,3.476917961559621,34.75867310965521,,33.00911415660029,,,,,,,,,
LBP05_S01,LBP05,29,30,1,29,29,1715760669.16,2024-05-15 08:11:09.160000+00:00,2024-05-15 17:11:09.160000+09:00,2024,5,15,8,11,9,160,,,,,,,,,-0.254639,-0.768066,0.975342,33.813477,-57.373047,56.640625,,,,,,,,,,,0.0,1.0,1.0,1.0,0.0,0.0,0.0,3.0,0.0,,,,,,,-16.7243728977515,-28.127458497013393,57.62184115477008,10.589033114793825,31.575569130571182,5.781791607750424,33.80197187178779,,33.1277391483893,,,,,,,,,
LBP05_S01,LBP05,30,31,1,30,30,1715760669.2,2024-05-15 08:11:09.200000+00:00,2024-05-15 17:11:09.200000+09:00,2024,5,15,8,11,9,200,,,,,,,,,-0.268311,0.191406,0.817139,80.932617,-91.308594,106.262207,,,,,,,,,,,0.0,1.0,1.0,1.0,0.0,0.0,0.0,3.0,0.0,,,,,,,-11.468846288630147,-36.9128638158584,54.44888499509059,10.13027926324862,30.099054577936847,7.959747007554048,32.740391214237064,,32.914682111780394,,,,,,,,,
LBP05_S01,LBP05,31,32,1,31,31,1715760669.24,2024-05-15 08:11:09.240000+00:00,2024-05-15 17:11:09.240000+09:00,2024,5,15,8,11,9,240,,,,,,,,,0.025879,-1.063477,0.955322,36.560059,-114.318848,114.501953,,,,,,,,,,,0.0,1.0,1.0,1.0,0.0,0.0,0.0,3.0,0.0,,,,,,,-8.689966752854575,-37.86083806064896,48.66811135629791,9.782680593134437,28.58462105551089,9.906471461805964,31.794961508044345,,32.4556926530104,,,,,,,,,
LBP05_S01,LBP05,32,33,1,32,32,1715760669.28,2024-05-15 08:11:09.280000+00:00,2024-05-15 17:11:09.280000+09:00,2024,5,15,8,11,9,280,,,,,,,,,0.044678,0.623779,0.945801,192.993164,18.737793,69.641113,,,,,,,,,,,0.0,1.0,1.0,1.0,0.0,0.0,0.0,3.0,0.0,,,,,,,-10.823867452597568,-32.910234815056306,40.7126380278517,9.349725895030534,27.268211662908637,11.534976982920032,31.048807313677703,,31.849503008876173,,,,,,,,,
LBP05_S01,LBP05,33,34,1,33,33,1715760669.32,2024-05-15 08:11:09.320000+00:00,2024-05-15 17:11:09.320000+09:00,2024,5,15,8,11,9,320,,,,,,,,,0.001709,-0.188232,0.857178,51.269531,46.386719,26.367188,,,,,,,,,,,0.0,1.0,1.0,1.0,0.0,0.0,0.0,3.0,0.0,,,,,,,-17.912997797794645,-25.05550042345781,31.54211146258232,8.63320598311875,26.265991645970324,12.796661441423325,30.466196131771206,,31.192543651516296,-2.4531289548435176,,,,,,,,
LBP05_S01,LBP05,34,35,1,34,34,1715760669.36,2024-05-15 08:11:09.360000+00:00,2024-05-15 17:11:09.360000+09:00,2024,5,15,8,11,9,360,,,,,,,,,-0.10791,0.349365,0.769775,-91.308594,48.76709,9.338379,,,,,,,,,,,0.0,1.0,1.0,1.0,0.0,0.0,0.0,3.0,0.0,,,,,,,-27.710321435533793,-17.300550799024595,22.462809603079613,7.524793125697398,25.57396961400934,13.69517382554651,29.970122113777748,,30.564825413172922,-2.4488472282764056,,,,,,,,
LBP05_S01,LBP05,35,36,1,35,35,1715760669.4,2024-05-15 08:11:09.400000+00:00,2024-05-15 17:11:09.400000+09:00,2024,5,15,8,11,9,400,,,,,,,,,-0.181641,-0.05542,0.775391,-178.344727,1.220703,-20.507812,,,,,,,,,,,0.0,1.0,1.0,1.0,0.0,0.0,0.0,3.0,0.0,,,,,,,-36.69235725863,-11.725175070933782,14.742489426247914,6.057098835352198,25.104962611171988,14.284873402596427,29.512797260472876,,30.022502744675513,-2.4459202824162474,,,,,,,,
LBP05_S01,LBP05,36,37,1,36,36,1715760669.44,2024-05-15 08:11:09.440000+00:00,2024-05-15 17:11:09.440000+09:00,2024,5,15,8,11,9,440,,,,,,,,,-0.095947,0.412598,0.805664,-190.368652,-17.028809,-78.125,,,,,,,,,,,0.0,1.0,1.0,1.0,0.0,0.0,0.0,3.0,0.0,,,,,,,-41.51999475032702,-8.957691923175188,9.203096315860492,4.396299045339117,24.74665493424498,14.652997255230845,29.09355090552619,,29.6006057642747,-2.446117615175309,,,,,,,,
LBP05_S01,LBP05,37,38,1,37,37,1715760669.48,2024-05-15 08:11:09.480000+00:00,2024-05-15 17:11:09.480000+09:00,2024,5,15,8,11,9,480,,,,,,,,,-0.415283,-0.770752,0.930176,-160.644531,-6.347656,-26.733398,,,,,,,,,,,0.0,1.0,1.0,1.0,0.0,0.0,0.0,3.0,0.0,-0.2509733066666666,-0.20435873333333332,0.9851822533333332,-8.750813786666667,4.724121106666667,11.464029933333334,-40.30706951493917,-8.17216805282387,5.994497335846151,2.7840162647415503,24.419768212132023,14.892777148664692,28.737965086212846,-2.4531289548435176,29.32462579986509,-2.4483895103739983,-0.1643096933333334,-0.5663932666666667,-0.0550062533333332,0.7857092133333333,0.5923045633408565,0.5923045633408565,0.5923045633408565,0.5923045633408565
LBP05_S01,LBP05,38,39,1,38,38,1715760669.52,2024-05-15 08:11:09.520000+00:00,2024-05-15 17:11:09.520000+09:00,2024,5,15,8,11,9,520,,,,,,,,,-0.259521,-0.327637,0.831299,116.577148,-31.616211,63.842773,,,,,,,,,,,0.0,1.0,1.0,1.0,0.0,0.0,0.0,3.0,0.0,-0.25285156000000003,-0.20961589333333333,0.9800097333333332,-8.86881508,5.16520184,10.421549466666667,-33.19512116427643,-7.541616847783829,4.668505451286548,1.456211418170493,24.11810353822067,15.079517366716154,28.481490726221416,-2.444565501709293,29.22403963239455,-2.4490309384041287,-0.006669439999999971,-0.11802110666666668,-0.14871073333333318,0.27340127999999986,0.1899693271485585,0.3911369452447075,0.3911369452447075,0.3911369452447075
LBP05_S01,LBP05,39,40,1,39,39,1715760669.56,2024-05-15 08:11:09.560000+00:00,2024-05-15 17:11:09.560000+09:00,2024,5,15,8,11,9,560,,,,,,,,,-0.179443,-0.575439,0.849365,97.595215,-24.658203,103.759766,,,,,,,,,,,0.0,1.0,1.0,1.0,0.0,0.0,0.0,3.0,0.0,-0.25063150666666667,-0.20975912000000002,0.9686425466666666,-7.4641926933333345,5.808105493333334,9.811197906666667,-22.11524901836653,-4.959040422659461,4.515994849937799,0.5716014574358318,23.91974192131429,15.260157160713666,28.378745186813735,-2.4400663906959315,29.338239039293804,-2.4494887959172247,0.07118850666666668,-0.36567988,-0.11927754666666657,0.5561459333333333,0.3911735053107039,0.3911491319333729,0.3911491319333729,0.3911491319333729
LBP05_S01,LBP05,40,41,1,40,40,1715760669.6,2024-05-15 08:11:09.600000+00:00,2024-05-15 17:11:09.600000+09:00,2024,5,15,8,11,9,600,,,,,,,,,-0.274658,0.458008,0.735107,107.666016,-11.047363,25.024414,,,,,,,,,,,0.0,1.0,1.0,1.0,0.0,0.0,0.0,3.0,0.0,-0.25325519999999996,-0.20889649333333332,0.9588704133333332,-6.207682266666667,5.81868492,9.941406240000001,-10.011692829532917,1.1975436955092846,4.982042146404175,0.1711337442545151,23.967643669134663,15.459438846569833,28.521421410228943,-2.446709613452494,29.70992664110465,-2.453052293185071,-0.021402800000000055,0.6669044933333333,-0.22376341333333327,0.9120707066666667,0.7037682489446467,0.4693039111861914,0.4693039111861914,0.4693039111861914
LBP05_S01,LBP05,41,42,1,41,41,1715760669.64,2024-05-15 08:11:09.640000+00:00,2024-05-15 17:11:09.640000+09:00,2024,5,15,8,11,9,640,,,,,,,,,-0.073242,0.017822,0.827393,-144.226074,4.272461,-36.92627,,,,,,,,,,,0.0,1.0,1.0,1.0,0.0,0.0,0.0,3.0,0.0,-0.25279621333333335,-0.20378256,0.95646156,-4.01123044,4.807128933333334,10.430501293333334,0.03526117221714012,11.454136800559974,5.93496097331911,0.17254419114320071,24.42580914115706,15.696837285502598,29.03516186394823,-2.457477091168756,30.37014551572758,-2.45637334099691,0.17955421333333335,0.22160456,-0.12906856,0.5302273333333334,0.31306068057010833,0.4380552650629748,0.4380552650629748,0.4380552650629748
LBP05_S01,LBP05,42,43,1,42,42,1715760669.68,2024-05-15 08:11:09.680000+00:00,2024-05-15 17:11:09.680000+09:00,2024,5,15,8,11,9,680,,,,,,,,,-0.211182,-0.360352,0.697998,-95.76416,17.51709,-4.455566,,,,,,,,,,,0.0,1.0,1.0,1.0,0.0,0.0,0.0,3.0,0.0,-0.25598632,-0.2086198,0.9573892933333333,-4.943847626666667,4.117838573333334,10.57942708,5.484001762296994,24.922399570844387,7.66582243462194,0.39190426163508046,25.422705123990838,16.003470182887476,30.042945638972324,-2.4522380785547795,31.32410298656,-2.4596199507380625,0.04480431999999998,-0.1517322,-0.25939129333333333,0.4559278133333333,0.3038320764248597,0.41568473362328895,0.41568473362328895,0.41568473362328895
LBP05_S01,LBP05,43,44,1,43,43,1715760669.72,2024-05-15 08:11:09.720000+00:00,2024-05-15 17:11:09.720000+09:00,2024,5,15,8,11,9,720,,,,,,,,,-0.071777,-0.390625,0.799316,-33.935547,12.817383,-17.51709,,,,,,,,,,,0.0,1.0,1.0,1.0,0.0,0.0,0.0,3.0,0.0,-0.2587662666666667,-0.21084310666666667,0.9590527066666665,-1.77327472,3.719075546666667,10.728352866666667,4.760916711613709,39.34255715106749,10.653852259144386,0.5823409300996288,26.996407410033537,16.42962427325325,31.608190200763715,-2.452235940995799,32.544272423690984,-2.463025507471573,0.1869892666666667,-0.17978189333333333,-0.1597367066666665,0.5265078666666665,0.30463474929129225,0.3998204501472894,0.3998204501472894,0.3998204501472894
LBP05_S01,LBP05,44,45,1,44,44,1715760669.76,2024-05-15 08:11:09.760000+00:00,2024-05-15 17:11:09.760000+09:00,2024,5,15,8,11,9,760,,,,,,,,,-0.194092,-0.296143,0.877441,185.36377,33.630371,40.405273,,,,,,,,,,,0.0,1.0,1.0,1.0,0.0,0.0,0.0,3.0,0.0,-0.26342446666666663,-0.20299154666666666,0.9556445066666667,-1.8155924266666668,2.77018232,10.662434906666668,-2.4667217921783418,51.49073630472529,15.23373683474061,0.48367205841249516,29.056036862222548,17.038973746642874,33.68699813188628,-2.477996774059998,33.971351589207366,-2.4663691502661944,0.06933246666666665,-0.09315145333333333,-0.07820350666666664,0.24068742666666662,0.13999990231125162,0.36734288166778467,0.36734288166778467,0.36734288166778467
LBP05_S01,LBP05,45,46,1,45,45,1715760669.8,2024-05-15 08:11:09.800000+00:00,2024-05-15 17:11:09.800000+09:00,2024,5,15,8,11,9,800,,,,,,,,,-0.12207,0.11499,0.775635,129.455566,46.142578,44.372559,,,,,,,,,,,0.0,1.0,1.0,1.0,0.0,0.0,0.0,3.0,0.0,-0.26578124,-0.20256837333333336,0.9534569999999999,-1.9555663866666668,1.8082682533333332,10.537109386666668,-15.164389815004823,57.89265417645852,21.302729501626008,-0.12290353418769773,31.37174302928089,17.891082926707913,36.11498600670211,-2.482941723491619,35.52009003171382,-2.4706274458514037,0.14371123999999996,0.31755837333333337,-0.17782199999999992,0.6390916133333333,0.39130155208029815,0.37000495615806395,0.37000495615806395,0.37000495615806395
LBP05_S01,LBP05,46,47,1,46,46,1715760669.84,2024-05-15 08:11:09.840000+00:00,2024-05-15 17:11:09.840000+09:00,2024,5,15,8,11,9,840,,,,,,,,,-0.166504,0.385986,0.750732,-163.208008,58.227539,-27.22168,,,,,,,,,,,0.0,1.0,1.0,1.0,0.0,0.0,0.0,3.0,0.0,-0.26809569333333333,-0.20168294666666667,0.9525618133333335,-2.69775388,0.38492841333333305,10.140787773333333,-31.066076434475033,55.71905597444868,28.156756954538768,-1.3655465915666989,33.600505268258836,19.017353204889464,38.63312561385046,-2.488839438408438,37.08710411196298,-2.4744080386751066,0.10159169333333332,0.5876689466666667,-0.2018298133333335,0.8910904533333335,0.6296117347864569,0.39596563402090323,0.39596563402090323,0.39596563402090323
LBP05_S01,LBP05,47,48,1,47,47,1715760669.88,2024-05-15 08:11:09.880000+00:00,2024-05-15 17:11:09.880000+09:00,2024,5,15,8,11,9,880,,,,,,,,,-0.212891,-0.562988,0.8479,-202.026367,113.891602,-13.48877,,,,,,,,,,,0.0,1.0,1.0,1.0,0.0,0.0,0.0,3.0,0.0,-0.26958982666666664,-0.20348958666666667,0.9511946266666667,-2.6546223733333334,-0.8984374666666671,9.535319026666668,-47.15003851291251,43.66597766858443,34.50644565487308,-3.251548132083199,35.347144375002216,20.397611031084388,40.9396594575226,-2.4871845221786177,38.55945748781249,-2.4764734654979508,0.056698826666666646,-0.3594984133333334,-0.10329462666666667,0.5194918666666667,0.3783168593028428,0.394361199955625,0.394361199955625,0.394361199955625
LBP05_S01,LBP05,48,49,1,48,48,1715760669.92,2024-05-15 08:11:09.920000+00:00,2024-05-15 17:11:09.920000+09:00,2024,5,15,8,11,9,920,,,,,,,,,-0.192139,0.0625,1.024414,-19.592285,109.619141,31.433105,,,,,,,,,,,0.0,1.0,1.0,1.0,0.0,0.0,0.0,3.0,0.0,-0.2694824,-0.20747721333333333,0.9492903333333333,-1.552734346666667,-2.6538085600000003,8.855794293333334,-60.3376707299601,22.56716221989869,38.702688413510145,-5.665054961281603,36.24983086379817,21.945718567624795,42.75228238138529,-2.478001929655509,39.82416041142434,-2.4789602399739072,0.0773434,0.26997721333333335,0.07512366666666659,0.42244427999999995,0.29071164843575953,0.38572373732896953,0.38572373732896953,0.38572373732896953
LBP05_S01,LBP05,49,50,1,49,49,1715760669.96,2024-05-15 08:11:09.960000+00:00,2024-05-15 17:11:09.960000+09:00,2024,5,15,8,11,9,960,,,,,,,,,-0.672363,-0.301514,0.817871,-27.282715,76.293945,82.702637,,,,,,,,,,,0.0,1.0,1.0,1.0,0.0,0.0,0.0,3.0,0.0,-0.2656021866666667,-0.20253581333333331,0.9491047866666665,0.06998701333333315,-3.1941731466666674,7.661132826666669,-68.16197574722288,-4.509278829342951,39.15672564043559,-8.391533991170519,36.06945971062445,23.511987593242218,43.8661296118783,-2.482649346548027,40.77939446753278,-2.480777831416759,-0.40676081333333336,-0.09897818666666669,-0.13123378666666652,0.6369727866666666,0.43871784493258137,0.38980020714463204,0.38980020714463204,0.38980020714463204
LBP05_S01,LBP05,50,51,1,50,50,1715760670.0,2024-05-15 08:11:10+00:00,2024-05-15 17:11:10+09:00,2024,5,15,8,11,10,0,8.0,11.0,9.0,40.549721,141.543625,4.686,3.0,12.0,-0.449463,-0.431152,0.601562,-0.427246,-53.894043,98.937988,-571.0,18.0,537.0,110.0,0.0,1024.400024,22.370001,0.112971,-92.366455,3.986719,1.0,1.0,1.0,1.0,0.0,0.0,0.0,3.0,0.0,-0.26835936,-0.20373046666666667,0.9462792666666666,-0.24007158666666684,-3.0729166400000003,6.975097680000002,-69.21707586070025,-32.81844620234144,34.85290798782456,-11.160217025598529,34.756721862530796,24.9061039127552,44.19156221272049,-2.484515541689523,41.34783128312809,-2.4821350254200367,-0.18110364,-0.22742153333333331,-0.3447172666666666,0.75324244,0.45094243111850957,0.3941675088570519,0.3941675088570519,0.3941675088570519
LBP05_S01,LBP05,51,52,1,51,51,1715760670.04,2024-05-15 08:11:10.040000+00:00,2024-05-15 17:11:10.040000+09:00,2024,5,15,8,11,10,40,,,,,,,,,-1.838379,-0.130615,3.021729,-52.062988,-140.686035,84.350586,,,,,,,,,,,1.0,1.0,1.0,1.0,0.0,0.0,0.0,3.0,0.0,-0.26847004,-0.20663410666666665,0.9448339600000001,-1.5592447733333337,-2.961425746666667,6.678059920000002,-63.36528248396503,-57.07283590439762,25.77188025084635,-13.69482832495713,32.47380842635489,25.936979122789054,43.758695622443334,-2.4781313593971954,41.49072316200265,-2.482759715406243,-1.56990896,0.07601910666666664,2.07689504,3.7228231066666666,2.6045894214718914,0.5415289696980411,0.5415289696980411,0.5415289696980411
LBP05_S01,LBP05,52,53,1,52,52,1715760670.08,2024-05-15 08:11:10.080000+00:00,2024-05-15 17:11:10.080000+09:00,2024,5,15,8,11,10,80,,,,,,,,,-0.485107,-1.568848,2.172607,-224.731445,-234.863281,-46.020508,,,,,,,,,,,1.0,1.0,1.0,1.0,0.0,0.0,0.0,3.0,0.0,-0.27127927999999996,-0.20920898666666668,0.9472395600000001,-2.8662109200000003,-1.6194661066666671,6.560058626666668,-51.75460652654957,-72.82827644264924,13.04391049146893,-15.765012586019115,29.560677368648925,26.458735542447812,42.68997487509081,-2.4771058233143473,41.219327804554666,-2.4866128292125356,-0.21382772000000005,-1.3596390133333334,1.22536744,2.7988341733333337,1.8427875361610715,0.6228576301019806,0.6228576301019806,0.6228576301019806
LBP05_S01,LBP05,53,54,1,53,53,1715760670.12,2024-05-15 08:11:10.120000+00:00,2024-05-15 17:11:10.120000+09:00,2024,5,15,8,11,10,120,,,,,,,,,-0.255127,-0.916504,1.55542,-19.53125,-114.013672,-29.174805,,,,,,,,,,,1.0,1.0,1.0,1.0,0.0,0.0,0.0,3.0,0.0,-0.27294594666666666,-0.2135254,0.9481998533333335,-1.5901692533333336,-0.38818356000000037,6.5755208666666665,-36.64866816307054,-77.65225187720051,-1.242033014317839,-17.230959312541938,26.454587293560905,26.4090542218751,41.16053076184816,-2.4704118554243166,40.59893259775441,-2.488382736299885,0.01781894666666667,-0.7029786,0.6072201466666666,1.3280176933333334,0.9290924245930313,0.6408714415426306,0.6408714415426306,0.6408714415426306
LBP05_S01,LBP05,54,55,1,54,54,1715760670.16,2024-05-15 08:11:10.160000+00:00,2024-05-15 17:11:10.160000+09:00,2024,5,15,8,11,10,160,,,,,,,,,-0.65918,-0.360352,1.021729,-17.76123,-14.709473,-20.263672,,,,,,,,,,,1.0,1.0,1.0,1.0,0.0,0.0,0.0,3.0,0.0,-0.2788216,-0.20825846666666667,0.9549218533333332,-0.8886718533333338,0.7641601999999996,6.8025716533333345,-21.01800418168794,-71.66949298790877,-14.502818535832825,-18.071679479809454,23.587807574044554,25.828941480441785,39.37136628783926,-2.491568714092775,39.74166875008566,-2.4967467556241822,-0.3803584,-0.15209353333333334,0.06680714666666687,0.5992590800000002,0.41505198491046796,0.6283259161741772,0.6283259161741772,0.6283259161741772
LBP05_S01,LBP05,55,56,1,55,55,1715760670.2,2024-05-15 08:11:10.200000+00:00,2024-05-15 17:11:10.200000+09:00,2024,5,15,8,11,10,200,,,,,,,,,-0.309814,-0.414551,0.596924,65.734863,-23.864746,16.235352,,,,,,,,,,,1.0,1.0,1.0,1.0,0.0,0.0,0.0,3.0,0.0,-0.28204426666666665,-0.21173828,0.9633268,-1.457519506666667,1.43717452,7.5056966533333345,-7.901240152058946,-57.33671734038225,-24.239759065606403,-18.387729085891813,21.294338880429265,24.85935111781753,37.54390479544781,-2.4891886233536797,38.78846152296791,-2.5092444862931798,-0.027769733333333324,-0.20281272,-0.36640280000000003,0.5969852533333333,0.41970843371445715,0.6173460486762972,0.6173460486762972,0.6173460486762972
LBP05_S01,LBP05,56,57,1,56,56,1715760670.24,2024-05-15 08:11:10.240000+00:00,2024-05-15 17:11:10.240000+09:00,2024,5,15,8,11,10,240,,,,,,,,,-0.059326,0.133057,0.726074,41.07666,-45.410156,-45.410156,,,,,,,,,,,1.0,1.0,1.0,1.0,0.0,0.0,0.0,3.0,0.0,-0.28933268,-0.19958658666666665,0.9652603866666666,-1.099446586666667,2.1720377999999996,8.492838573333334,0.31371404443176115,-38.60176331305084,-28.574340886458035,-18.375180524114544,19.75026834790723,23.716377482359206,35.91917203937056,-2.527370576471366,37.88595458747068,-2.520554328123329,0.23000668000000002,0.33264358666666666,-0.23918638666666658,0.8018366533333332,0.4698563143789202,0.6099715619614283,0.6099715619614283,0.6099715619614283
LBP05_S01,LBP05,57,58,1,57,57,1715760670.28,2024-05-15 08:11:10.280000+00:00,2024-05-15 17:11:10.280000+09:00,2024,5,15,8,11,10,280,,,,,,,,,-0.253418,0.04834,0.692383,91.430664,64.941406,-93.87207,,,,,,,,,,,1.0,1.0,1.0,1.0,0.0,0.0,0.0,3.0,0.0,-0.2945638,-0.2133593733333333,0.9655794,-0.7820637733333337,1.693522173333333,8.93798830666667,2.445332172914828,-19.789177179205602,-26.630540868563454,-18.27736723719795,18.958701260739005,22.651155847616668,34.73570738952012,-2.5048835930521114,37.16633645625468,-2.5289342121017033,0.04114580000000001,0.2616993733333333,-0.2731964,0.5760415733333333,0.38054672752982566,0.5990465698456378,0.5990465698456378,0.5990465698456378
LBP05_S01,LBP05,58,59,1,58,58,1715760670.32,2024-05-15 08:11:10.320000+00:00,2024-05-15 17:11:10.320000+09:00,2024,5,15,8,11,10,320,,,,,,,,,-0.585449,0.406982,0.854248,-77.087402,34.545898,-48.88916,,,,,,,,,,,1.0,1.0,1.0,1.0,0.0,0.0,0.0,3.0,0.0,-0.29991536,-0.19123046666666668,0.9610774533333334,0.6624349333333329,2.168782586666666,9.077148466666669,-1.2867149705537064,-4.570843300853774,-18.688359787591562,-18.328835836020097,18.775867528704854,21.903621456113004,34.17964390469775,-2.56164212289848,36.73472267836006,-2.5407203914059435,-0.28553364,0.5982124666666667,-0.10682945333333338,0.9905755600000001,0.6714165226940474,0.602336113156929,0.602336113156929,0.602336113156929
LBP05_S01,LBP05,59,60,1,59,59,1715760670.36,2024-05-15 08:11:10.360000+00:00,2024-05-15 17:11:10.360000+09:00,2024,5,15,8,11,10,360,,,,,,,,,-0.205322,-0.422363,1.008301,-117.1875,-26.367188,15.319824,,,,,,,,,,,1.0,1.0,1.0,1.0,0.0,0.0,0.0,3.0,0.0,-0.29951822666666666,-0.17169921333333332,0.9562857866666667,-2.194824186666667,1.4803060266666663,8.854166693333335,-9.46470377885975,4.721891531220763,-6.065896509978248,-18.707423987174487,18.964743189953683,21.660985595713875,34.33405734070079,-2.607626653238007,36.66351045647828,-2.5523233818836353,0.09419622666666666,-0.25066378666666667,0.05201521333333314,0.39687522666666647,0.2727835139491065,0.5880077392783281,0.5880077392783281,0.5880077392783281
LBP05_S01,LBP05,60,61,1,60,60,1715760670.4,2024-05-15 08:11:10.400000+00:00,2024-05-15 17:11:10.400000+09:00,2024,5,15,8,11,10,400,,,,,,,,,-0.283447,-0.153564,1.003662,29.541016,-9.155273,84.16748,,,,,,,,,,,1.0,1.0,1.0,1.0,0.0,0.0,0.0,3.0,0.0,-0.3001497333333333,-0.17616536,0.9597981600000001,-8.953450479999999,0.6201172133333329,8.435058626666667,-19.939554035621637,7.341414588979222,9.242434979052415,-19.505006148599353,19.258399773512853,22.03068299487597,35.16649285774821,-2.5976139599910084,36.99004530537373,-2.5602497214850324,0.016702733333333275,0.022601359999999987,0.04386383999999999,0.08316793333333325,0.05209452211317079,0.5656780218964464,0.5656780218964464,0.5656780218964464
LBP05_S01,LBP05,61,62,1,61,61,1715760670.44,2024-05-15 08:11:10.440000+00:00,2024-05-15 17:11:10.440000+09:00,2024,5,15,8,11,10,440,,,,,,,,,-0.366699,-0.005127,0.933105,-5.004883,-14.770508,36.987305,,,,,,,,,,,1.0,1.0,1.0,1.0,0.0,0.0,0.0,3.0,0.0,-0.3030729066666667,-0.19299478666666667,0.9596809733333334,-10.598958293333334,-0.2669270533333337,8.111979200000002,-30.355337973403746,3.971708219765001,25.04815618173225,-20.7192196675355,19.417268102303453,23.03260924214526,36.56251431028337,-2.5619301991809404,37.71440425247382,-2.568942989913308,-0.0636260933333333,0.18786778666666668,-0.02657597333333339,0.27806985333333334,0.20012213115622238,0.5510557862668375,0.5510557862668375,0.5510557862668375
LBP05_S01,LBP05,62,63,1,62,62,1715760670.48,2024-05-15 08:11:10.480000+00:00,2024-05-15 17:11:10.480000+09:00,2024,5,15,8,11,10,480,,,,,,,,,-0.334961,-0.24292,0.825439,-56.82373,-25.57373,40.344238,,,,,,,,,,,1.0,1.0,1.0,1.0,0.0,0.0,0.0,3.0,0.0,-0.30729816,-0.18114257333333333,0.9527604000000001,-9.797363240000001,-1.927083306666667,7.3282878,-38.583499874054134,-3.670765268389481,39.398171778442396,-22.262559662497665,19.270437491567872,24.608536113282955,38.373837096144605,-2.5949676163567528,38.79714519063954,-2.5740542932717005,-0.027662840000000022,-0.06177742666666666,-0.12732140000000003,0.2167616666666667,0.14419577684655327,0.5331314348070654,0.5354073243660573,0.5354073243660573
LBP05_S01,LBP05,63,64,1,63,63,1715760670.52,2024-05-15 08:11:10.520000+00:00,2024-05-15 17:11:10.520000+09:00,2024,5,15,8,11,10,520,,,,,,,,,-0.295898,-0.652832,1.100342,-48.095703,6.225586,42.84668,,,,,,,,,,,1.0,1.0,1.0,1.0,0.0,0.0,0.0,3.0,0.0,-0.3105566266666666,-0.18657875999999998,0.9502994666666668,-10.913899693333333,-3.3072916400000008,6.564127640000001,-43.023779857916644,-13.320413035696665,50.82268901295584,-23.98351085681433,18.737620970140007,26.641443673801188,40.448408543030254,-2.5864417602012315,40.16005897017489,-2.5834485318612317,0.014658626666666619,-0.46625324,0.15004253333333317,0.6309543999999998,0.4900201230106114,0.5451334666415475,0.5337263169084483,0.5337263169084483
LBP05_S01,LBP05,64,65,1,64,64,1715760670.56,2024-05-15 08:11:10.560000+00:00,2024-05-15 17:11:10.560000+09:00,2024,5,15,8,11,10,560,,,,,,,,,-0.414062,-0.181641,0.911377,0.244141,-16.845703,40.588379,,,,,,,,,,,1.0,1.0,1.0,1.0,0.0,0.0,0.0,3.0,0.0,-0.31296547999999996,-0.19477862666666668,0.9467187333333333,-9.52067052,-4.237467426666667,6.767578160000001,-42.78601218536206,-22.617030227491266,58.37969943719351,-25.694951344228812,17.832939761040357,28.97663165128893,42.63671477679372,-2.570832110106745,41.69353428765196,-2.586514668023978,-0.10109652000000002,0.01313762666666668,-0.03534173333333335,0.14957588000000005,0.10789875673772874,0.5338024766986285,0.5185181897594939,0.5185181897594939
LBP05_S01,LBP05,65,66,1,65,65,1715760670.6,2024-05-15 08:11:10.600000+00:00,2024-05-15 17:11:10.600000+09:00,2024,5,15,8,11,10,600,,,,,,,,,-0.356934,-0.563232,0.945068,-104.614258,-38.635254,42.602539,,,,,,,,,,,1.0,1.0,1.0,1.0,0.0,0.0,0.0,3.0,0.0,-0.31545897333333334,-0.19386717333333334,0.9469303333333333,-6.727701773333333,-4.32210284,6.949869826666668,-37.76459407004548,-29.481711029009436,61.56835843738027,-27.20553510703063,16.65367131987998,31.43936598878414,44.787494266448824,-2.576121307636438,43.27102874546504,-2.5884053863592427,-0.04147502666666664,-0.3693648266666666,-0.0018623333333332992,0.4127021866666665,0.37169076031150117,0.5205193771533027,0.5134551749509425,0.5134551749509425
LBP05_S01,LBP05,66,67,1,66,66,1715760670.64,2024-05-15 08:11:10.640000+00:00,2024-05-15 17:11:10.640000+09:00,2024,5,15,8,11,10,640,,,,,,,,,-0.36084,-0.099121,0.945801,-27.893066,-21.972656,46.691895,,,,,,,,,,,1.0,1.0,1.0,1.0,0.0,0.0,0.0,3.0,0.0,-0.31838214666666664,-0.19448566666666667,0.9467675733333334,-5.8211262533333334,-3.6645507600000005,7.346191440000001,-28.59896042375234,-32.403300515583005,60.218795116302346,-28.349493523980726,15.35753929925666,33.84811779343623,46.7465814210277,-2.57848361005529,44.766713136833744,-2.589357115434566,-0.04245785333333335,0.09536466666666667,-0.000966573333333387,0.1387890933333334,0.10439359761081138,0.5121726938349308,0.49981978903960483,0.49981978903960483
LBP05_S01,LBP05,67,68,1,67,67,1715760670.68,2024-05-15 08:11:10.680000+00:00,2024-05-15 17:11:10.680000+09:00,2024,5,15,8,11,10,680,,,,,,,,,-0.185059,-0.769531,0.871094,-58.59375,-46.386719,36.560059,,,,,,,,,,,1.0,1.0,1.0,1.0,0.0,0.0,0.0,3.0,0.0,-0.3205468533333333,-0.1866634,0.9465364533333334,-6.402180946666666,-3.0965169066666673,6.791992226666668,-16.511078525719267,-30.632309656758657,54.44315021174292,-29.009936665009498,14.132246912986313,36.02584380190595,48.36484518487368,-2.598825978947423,46.07092357726496,-2.594636868603088,0.13548785333333332,-0.5828675999999999,-0.07544245333333333,0.7937979066666666,0.6031443950627303,0.5241451865804456,0.5031528408468025,0.5031528408468025
LBP05_S01,LBP05,68,69,1,68,68,1715760670.72,2024-05-15 08:11:10.720000+00:00,2024-05-15 17:11:10.720000+09:00,2024,5,15,8,11,10,720,,,,,,,,,-0.201904,-0.066406,0.726562,139.160156,-15.014648,76.11084,,,,,,,,,,,1.0,1.0,1.0,1.0,0.0,0.0,0.0,3.0,0.0,-0.3226659866666667,-0.19072914666666668,0.94827148,-7.635091106666667,-2.0133463333333337,5.5965169600000015,-3.0383374618566825,-24.272009705000876,44.67507903075743,-29.131470163483765,13.161366524786278,37.812846963136245,49.51439707946843,-2.592303484525946,47.100537381167335,-2.5957459565832597,0.12076198666666668,0.12432314666666668,-0.22170948000000001,0.4667946133333334,0.2814156991758848,0.5232164245758293,0.4962235551695862,0.4962235551695862
LBP05_S01,LBP05,69,70,1,69,69,1715760670.76,2024-05-15 08:11:10.760000+00:00,2024-05-15 17:11:10.760000+09:00,2024,5,15,8,11,10,760,,,,,,,,,-0.271973,-0.665771,0.714355,-52.67334,-36.254883,64.086914,,,,,,,,,,,1.0,1.0,1.0,1.0,0.0,0.0,0.0,3.0,0.0,-0.3279198933333333,-0.17849281333333336,0.9479557333333334,-8.334960906666668,-0.732421853333334,4.291178413333334,10.270751703800137,-14.252062690508195,31.758810049987865,-28.72064009533176,12.59128401716595,39.08319936513576,50.10900191883157,-2.6265338365906556,47.804316027704466,-2.597902437170923,0.0559468933333333,-0.48727818666666667,-0.23360073333333342,0.7768258133333334,0.543267327094753,0.5393471215671695,0.49764912401580347,0.49764912401580347
LBP05_S01,LBP05,70,71,1,70,70,1715760670.8,2024-05-15 08:11:10.800000+00:00,2024-05-15 17:11:10.800000+09:00,2024,5,15,8,11,10,800,,,,,,,,,-0.209473,0.079346,0.786865,16.052246,-6.713867,24.353027,,,,,,,,,,,1.0,1.0,1.0,1.0,0.0,0.0,0.0,3.0,0.0,-0.33251299999999995,-0.18939450666666666,0.9476334666666666,-10.817057253333333,-1.081542946666667,3.7410482133333343,22.103567054421493,-2.1755219223186257,17.003043147540907,-27.8364974131549,12.504263140273205,39.7633210910374,50.12333677143526,-2.6071312507442412,48.164213345546266,-2.6004798878844935,0.12303999999999995,0.26874050666666666,-0.16076846666666655,0.5525489733333332,0.3364621842017432,0.5371535468520272,0.4929083316683311,0.4929083316683311
LBP05_S01,LBP05,71,72,1,71,71,1715760670.84,2024-05-15 08:11:10.840000+00:00,2024-05-15 17:11:10.840000+09:00,2024,5,15,8,11,10,840,,,,,,,,,-0.265869,-0.493164,1.094482,34.240723,15.380859,2.441406,,,,,,,,,,,1.0,1.0,1.0,1.0,0.0,0.0,0.0,3.0,0.0,-0.33757159999999997,-0.18862628,0.9485677066666667,-11.329752560000001,-1.6772460800000006,3.5734049733333344,31.511033167885117,9.95413941753418,2.1156144097419296,-26.576056086439493,12.902428716974573,39.847945667427076,49.6046187145956,-2.614727730866157,48.193481720768105,-2.6040757371531074,0.07170259999999995,-0.30453772,0.14591429333333328,0.5221546133333332,0.3452179988768321,0.5257777974156421,0.4886886078742882,0.4886886078742882
LBP05_S01,LBP05,72,73,1,72,72,1715760670.88,2024-05-15 08:11:10.880000+00:00,2024-05-15 17:11:10.880000+09:00,2024,5,15,8,11,10,880,,,,,,,,,-0.38501,-0.218018,1.05127,48.522949,20.507812,-27.404785,,,,,,,,,,,1.0,1.0,1.0,1.0,0.0,0.0,0.0,3.0,0.0,-0.3414257733333333,-0.19463538666666666,0.9513606800000001,-9.899902293333334,-2.3421223866666674,3.4545898666666677,37.91927381787533,20.094287179636364,-11.01503436669139,-25.05928513372448,13.706200204160027,39.40734429275942,48.669975135168286,-2.606058496158472,47.9324056734185,-2.6083636036202953,-0.043584226666666726,-0.02338261333333333,0.09990931999999986,0.1668761599999999,0.11148185342597212,0.5151043971805673,0.47821064247294615,0.47821064247294615
LBP05_S01,LBP05,73,74,1,73,73,1715760670.92,2024-05-15 08:11:10.920000+00:00,2024-05-15 17:11:10.920000+09:00,2024,5,15,8,11,10,920,,,,,,,,,-0.239502,-0.125977,0.986084,37.414551,32.165527,-22.033691,,,,,,,,,,,1.0,1.0,1.0,1.0,0.0,0.0,0.0,3.0,0.0,-0.34398761333333333,-0.19511716,0.9538932266666665,-7.298177026666667,-2.3144531200000005,3.6059570533333347,41.06895702787732,26.552999253612864,-20.655968469857044,-23.416526852609387,14.768320174304542,38.58110555396514,47.486195008401616,-2.6080065660778593,47.442535778757254,-2.612672816821774,0.10448561333333334,0.06914016,0.03219077333333342,0.20581654666666677,0.12935938700483432,0.5086503067233303,0.46878223016299714,0.46878223016299714
LBP05_S01,LBP05,74,75,1,74,74,1715760670.96,2024-05-15 08:11:10.960000+00:00,2024-05-15 17:11:10.960000+09:00,2024,5,15,8,11,10,960,,,,,,,,,-0.273193,-0.178711,1.037842,24.658203,46.75293,-25.878906,,,,,,,,,,,1.0,1.0,1.0,1.0,0.0,0.0,0.0,3.0,0.0,-0.34681313333333336,-0.2020182,0.9566145866666667,-4.525553333333334,-2.1158854000000007,4.235839866666668,40.9279446728379,28.32847369999843,-25.598801282592763,-21.77940906569587,15.901459122304479,37.55715350266143,46.23568795521171,-2.5966066172424522,46.799785422025344,-2.6163842979477097,0.07362013333333334,0.0233072,0.08122741333333328,0.1781547466666666,0.11207605578660389,0.49558463515749124,0.45939522557414475,0.45939522557414475
LBP05_S01,LBP05,75,76,1,75,75,1715760671.0,2024-05-15 08:11:11+00:00,2024-05-15 17:11:11+09:00,2024,5,15,8,11,11,0,8.0,11.0,10.0,40.549721,141.543625,4.619,3.0,12.0,-0.325928,-0.182129,0.980957,31.555176,48.095703,-26.489258,-553.0,20.0,552.0,0.0,0.0,1024.800049,22.42,0.116936,-95.665085,3.986719,1.0,1.0,1.0,1.0,0.0,0.0,0.0,5.0,0.0,-0.3445996,-0.19358069333333333,0.9558984400000001,-2.2412108933333337,-1.9205729066666675,4.411621106666667,37.61418087809282,25.31735240961699,-25.465421552136192,-20.274841830572157,16.914153218689158,36.538536640575984,45.0801780186672,-2.6120798003225794,46.08598710201287,-2.616999259402997,0.01867160000000001,0.011451693333333318,0.02505855999999984,0.05518185333333317,0.03328214770765708,0.47887822382105716,0.4484692492185937,0.4484692492185937
LBP05_S01,LBP05,76,77,1,76,76,1715760671.04,2024-05-15 08:11:11.040000+00:00,2024-05-15 17:11:11.040000+09:00,2024,5,15,8,11,11,40,,,,,,,,,-0.411133,0.013184,0.812988,43.151855,37.475586,-47.790527,,,,,,,,,,,1.0,1.0,1.0,1.0,0.0,0.0,0.0,5.0,0.0,-0.34614582666666666,-0.19011714666666665,0.9570182266666668,-3.55061844,-1.306152333333334,3.487955746666667,31.35947248693951,18.33156069659055,-20.868392502464662,-19.020462931094578,17.64741564655278,35.7038009404774,44.13582094753165,-2.6213622747271663,45.37855409811935,-2.6205431758417315,-0.06498717333333337,0.20330114666666665,-0.14403022666666676,0.4123185466666668,0.2574866892239085,0.38499411453113785,0.44369468521872657,0.44369468521872657
LBP05_S01,LBP05,77,78,1,77,77,1715760671.08,2024-05-15 08:11:11.080000+00:00,2024-05-15 17:11:11.080000+09:00,2024,5,15,8,11,11,80,,,,,,,,,-0.525879,0.090332,0.850586,5.737305,-9.033203,-49.499512,,,,,,,,,,,1.0,1.0,1.0,1.0,0.0,0.0,0.0,5.0,0.0,-0.34919921333333337,-0.18231441333333334,0.9583919333333332,-4.724934853333333,-0.8235676933333339,2.1744791733333346,22.53159114154315,8.90697689092582,-13.366859718943742,-18.119199285432853,18.003694722189813,35.16912655171965,43.466146238261196,-2.6419181109622127,44.73916817223155,-2.624815493027513,-0.17667978666666662,0.27264641333333334,-0.10780593333333321,0.5571321333333332,0.34230678196901204,0.3249748843634554,0.4412218095297092,0.4412218095297092
LBP05_S01,LBP05,78,79,1,78,78,1715760671.12,2024-05-15 08:11:11.120000+00:00,2024-05-15 17:11:11.120000+09:00,2024,5,15,8,11,11,120,,,,,,,,,-0.404541,0.0,0.861816,-0.732422,-45.043945,-17.578125,,,,,,,,,,,1.0,1.0,1.0,1.0,0.0,0.0,0.0,5.0,0.0,-0.3510123733333333,-0.18892574666666667,0.96167644,-6.174316373333332,-0.4182942533333339,2.011718760000001,11.709711961709404,-1.0508306316601708,-5.190125914353049,-17.650810806964476,17.961661496923405,34.96152151514553,43.08689351214935,-2.629418295785302,44.20393449360436,-2.630843119788351,-0.05352862666666669,0.18892574666666667,-0.09986043999999994,0.3423148133333333,0.22029607146603974,0.29662303023837583,0.43596167290914556,0.43596167290914556
LBP05_S01,LBP05,79,80,1,79,79,1715760671.16,2024-05-15 08:11:11.160000+00:00,2024-05-15 17:11:11.160000+09:00,2024,5,15,8,11,11,160,,,,,,,,,-0.314209,-0.461182,1.12085,-14.709473,-16.601562,33.447266,,,,,,,,,,,1.0,1.0,1.0,1.0,0.0,0.0,0.0,5.0,0.0,-0.35603516,-0.18990556,0.9630892,-4.285481746666667,-0.3637695200000006,2.8230794400000008,-0.2158566662366323,-9.681842714856295,1.2452531480771183,-17.65944507361394,17.574387788329155,35.011331641068615,42.97101871870684,-2.6326834511435284,43.77784885660587,-2.6367674067212796,0.04182616,-0.27127643999999995,0.15776079999999992,0.4708633999999999,0.3165893311153412,0.29268452408657075,0.43318557193719665,0.43318557193719665
LBP05_S01,LBP05,80,81,1,80,80,1715760671.2,2024-05-15 08:11:11.200000+00:00,2024-05-15 17:11:11.200000+09:00,2024,5,15,8,11,11,200,,,,,,,,,-0.295654,-0.009766,1.019287,86.486816,-8.422852,44.128418,,,,,,,,,,,1.0,1.0,1.0,1.0,0.0,0.0,0.0,5.0,0.0,-0.35789062666666666,-0.1862890133333333,0.9663834666666666,-3.2373046666666663,-0.5045572800000007,3.075358080000001,-11.973144832873217,-15.528998245972236,3.9225111488508673,-18.13837086692887,16.953227858490266,35.16823208702265,43.04900673250005,-2.6425704151315865,43.43531776733861,-2.6427536780393313,0.06223662666666668,0.1765230133333333,0.05290353333333342,0.2916631733333334,0.19450592734998423,0.2836764238319918,0.4277610345602145,0.4277610345602145
LBP05_S01,LBP05,81,82,1,81,81,1715760671.24,2024-05-15 08:11:11.240000+00:00,2024-05-15 17:11:11.240000+09:00,2024,5,15,8,11,11,240,,,,,,,,,-0.363037,0.019043,0.88501,-0.976562,-9.94873,46.325684,,,,,,,,,,,1.0,1.0,1.0,1.0,0.0,0.0,0.0,5.0,0.0,-0.36180013333333333,-0.18132156,0.9678711066666666,-2.8971354000000002,-0.5281575466666673,3.251139333333334,-21.941701534774268,-17.756469444979437,1.7474995309660064,-19.01603892831984,16.24296908069109,35.238132068261294,43.21075945571759,-2.6574509027239728,43.12655080126442,-2.6488837341317018,-0.0012368666666666694,0.20036456,-0.08286110666666668,0.2844625333333334,0.21682585118285463,0.27355520530414923,0.4230735860407177,0.4230735860407177
LBP05_S01,LBP05,82,83,1,82,82,1715760671.28,2024-05-15 08:11:11.280000+00:00,2024-05-15 17:11:11.280000+09:00,2024,5,15,8,11,11,280,,,,,,,,,-0.273926,0.097656,0.863037,-63.659668,-7.324219,5.554199,,,,,,,,,,,1.0,1.0,1.0,1.0,0.0,0.0,0.0,5.0,0.0,-0.36474934666666664,-0.17861973333333334,0.9686328266666667,-5.420735666666666,-0.7967122266666672,2.665201840000001,-28.353949187023343,-16.21293867480226,-5.167783389778809,-20.150196895800775,15.594451533698999,35.03142073267014,43.317638348896374,-2.6663347637668458,42.78797071613515,-2.6539885367698886,0.09082334666666664,0.27627573333333333,-0.10559582666666667,0.47269490666666664,0.3093988360321049,0.2707092896442404,0.42060239582313913,0.42060239582313913
LBP05_S01,LBP05,83,84,1,83,83,1715760671.32,2024-05-15 08:11:11.320000+00:00,2024-05-15 17:11:11.320000+09:00,2024,5,15,8,11,11,320,,,,,,,,,-0.406982,-0.229736,1.054199,-86.364746,-7.873535,-34.790039,,,,,,,,,,,1.0,1.0,1.0,1.0,0.0,0.0,0.0,5.0,0.0,-0.3686425733333334,-0.17995435999999998,0.9703092533333334,-7.137044253333333,-1.3354492000000007,2.047526053333334,-29.65989225999407,-11.372801845907308,-15.5624142038015,-21.33659258620054,15.139539459862707,34.40892416451808,43.22533863841675,-2.667249435407152,42.35420716318774,-2.6571348202973235,-0.03833942666666662,-0.049781640000000016,0.08388974666666671,0.17201081333333335,0.10481227463429953,0.24804511972185042,0.41388345707444046,0.41388345707444046
LBP05_S01,LBP05,84,85,1,84,84,1715760671.36,2024-05-15 08:11:11.360000+00:00,2024-05-15 17:11:11.360000+09:00,2024,5,15,8,11,11,360,,,,,,,,,-0.281494,-0.335205,0.964844,-47.729492,-19.714355,-56.82373,,,,,,,,,,,1.0,1.0,1.0,1.0,0.0,0.0,0.0,5.0,0.0,-0.37222004000000003,-0.18658846666666667,0.9723730666666666,-5.066731746666667,-2.015787746666667,2.5366211066666673,-24.949904576535467,-4.198567354346068,-27.40191268350267,-22.334588769261956,14.971596765688865,33.312847657177976,42.810377062539125,-2.656469330422963,41.7698293127021,-2.662333132317925,0.09072604000000001,-0.1486165333333333,-0.0075290666666665285,0.24687163999999984,0.17428360553698238,0.2441051233853655,0.4088917935007434,0.4088917935007434
LBP05_S01,LBP05,85,86,1,85,85,1715760671.4,2024-05-15 08:11:11.400000+00:00,2024-05-15 17:11:11.400000+09:00,2024,5,15,8,11,11,400,,,,,,,,,-0.240234,-0.441162,0.861084,6.164551,-17.39502,-51.574707,,,,,,,,,,,1.0,1.0,1.0,1.0,0.0,0.0,0.0,5.0,0.0,-0.37619463999999997,-0.1804816933333333,0.9734049733333332,-2.4023437333333333,-3.7263997333333334,2.9418945466666675,-14.278709991189404,4.047976360516876,-38.43673559990622,-22.905737168909532,15.13351582010954,31.775378233181726,41.992508357925324,-2.6733803612462888,40.99971873640048,-2.665204603467052,0.13596063999999997,-0.2606803066666667,-0.11232097333333324,0.50896192,0.3147308675099796,0.2546105772012378,0.40697014194991143,0.40697014194991143
LBP05_S01,LBP05,86,87,1,86,86,1715760671.44,2024-05-15 08:11:11.440000+00:00,2024-05-15 17:11:11.440000+09:00,2024,5,15,8,11,11,440,,,,,,,,,-0.21167,-0.166504,0.999268,47.241211,27.648926,-63.537598,,,,,,,,,,,1.0,1.0,1.0,1.0,0.0,0.0,0.0,5.0,0.0,-0.37913084,-0.18217114666666664,0.9718196933333333,-2.3274739466666663,-5.356445306666667,2.8059896000000006,1.223405548570375,12.032693798525205,-46.759853702768076,-22.856800946966718,15.614823572050549,29.904984085071003,40.7500200962389,-2.672410301109031,40.036709349022125,-2.6712922769724714,0.16746084000000003,0.01566714666666663,0.027448306666666755,0.21057629333333341,0.17041714103061298,0.25342237759621344,0.40223908193152547,0.40223908193152547
LBP05_S01,LBP05,87,88,1,87,87,1715760671.48,2024-05-15 08:11:11.480000+00:00,2024-05-15 17:11:11.480000+09:00,2024,5,15,8,11,11,480,,,,,,,,,-0.27002,-0.359863,0.98877,-22.888184,23.55957,-75.561523,,,,,,,,,,,1.0,1.0,1.0,1.0,0.0,0.0,0.0,5.0,0.0,-0.37574868,-0.18028312,0.9730957333333333,-2.2835286266666666,-6.588541653333334,2.089029960000001,19.47236145037756,18.594807589713263,-51.20425403139607,-22.077906488951616,16.358615875639078,27.85681392381516,39.128510708787076,-2.6733809462365636,38.90421689437555,-2.6785128111300285,0.10572868000000002,-0.17957988,0.015674266666666714,0.30098282666666676,0.20898126641135703,0.25601379717880557,0.3945726159929355,0.3984497129997575
LBP05_S01,LBP05,88,89,1,88,88,1715760671.52,2024-05-15 08:11:11.520000+00:00,2024-05-15 17:11:11.520000+09:00,2024,5,15,8,11,11,520,,,,,,,,,-0.291016,-0.456543,0.941895,9.460449,44.86084,-41.809082,,,,,,,,,,,1.0,1.0,1.0,1.0,0.0,0.0,0.0,5.0,0.0,-0.3754264133333333,-0.17653312,0.9775586266666668,-2.53906248,-6.107584626666667,1.0888672000000006,37.74052745458614,22.96799202124233,-51.49354624164556,-20.56828539076817,17.277335556488772,25.797072074149337,37.243115007293014,-2.681401415991313,37.65214754777268,-2.685250520302318,0.08441041333333332,-0.28000988,-0.03566362666666678,0.4000839200000001,0.294622716442127,0.24819790091606625,0.39666568377880695,0.39645303998903386
LBP05_S01,LBP05,89,90,1,89,89,1715760671.56,2024-05-15 08:11:11.560000+00:00,2024-05-15 17:11:11.560000+09:00,2024,5,15,8,11,11,560,,,,,,,,,-0.451416,-0.249268,0.896973,45.288086,42.053223,-29.418945,,,,,,,,,,,1.0,1.0,1.0,1.0,0.0,0.0,0.0,5.0,0.0,-0.3561686,-0.17667961333333332,0.9496810133333334,-2.07031248,-4.4254557199999995,0.2539062666666672,53.10080174937133,24.914825619039437,-48.14385683322826,-18.44425332079332,18.27392858125035,23.871317800820208,35.26991295569057,-2.6613981626348013,36.347485709578294,-2.6929573920107535,-0.09524739999999998,-0.07258838666666667,-0.052708013333333414,0.22054380000000007,0.13084065023981026,0.2491155766561495,0.391459026677389,0.39144148546546353
LBP05_S01,LBP05,90,91,1,90,90,1715760671.6,2024-05-15 08:11:11.600000+00:00,2024-05-15 17:11:11.600000+09:00,2024,5,15,8,11,11,600,,,,,,,,,-0.350586,-0.312012,0.855469,97.045898,29.846191,-27.770996,,,,,,,,,,,1.0,1.0,1.0,1.0,0.0,0.0,0.0,5.0,0.0,-0.3550423066666667,-0.15767245333333332,0.9330501600000001,0.7999674666666666,-1.3777669200000002,1.0660807466666673,62.95076282678104,24.722546493759253,-42.18707462334261,-15.926222807722077,19.26283044100072,22.183834815886502,33.41891285871653,-2.7034471501857813,35.064010673564056,-2.7011988754624667,0.004456306666666687,-0.1543395466666667,-0.07758116000000004,0.2363770133333334,0.17279869999894434,0.24115989424364723,0.38083963569847495,0.3873925449938614
LBP05_S01,LBP05,91,92,1,91,91,1715760671.64,2024-05-15 08:11:11.640000+00:00,2024-05-15 17:11:11.640000+09:00,2024,5,15,8,11,11,640,,,,,,,,,-0.472656,-0.064453,0.925537,94.421387,10.742188,-34.423828,,,,,,,,,,,1.0,1.0,1.0,1.0,0.0,0.0,0.0,5.0,0.0,-0.35698566666666665,-0.14735344,0.92499352,1.0522461066666664,0.04720053333333303,1.650390653333334,65.53375531036981,23.050277968811884,-34.82488459526198,-13.304872595307284,20.184841559753195,20.790839432076023,31.88583490925188,-2.7296562442995445,33.87486767135534,-2.7072158579563874,-0.11567033333333337,0.08290044,0.0005434800000000406,0.19911425333333344,0.14231094243292908,0.24267658803653194,0.3774246409357314,0.3829365158563899
LBP05_S01,LBP05,92,93,1,92,92,1715760671.68,2024-05-15 08:11:11.680000+00:00,2024-05-15 17:11:11.680000+09:00,2024,5,15,8,11,11,680,,,,,,,,,-0.421143,-0.050293,1.002197,75.744629,-10.742188,-29.052734,,,,,,,,,,,1.0,1.0,1.0,1.0,0.0,0.0,0.0,5.0,0.0,-0.353138,-0.1442674933333333,0.9240039333333332,1.2280273466666665,0.22867839999999967,2.0581054933333336,60.332994842123306,20.67519701407205,-27.119946281186035,-10.891552801622352,21.011849440316077,19.706041580828582,30.79694488286758,-2.733711855489743,32.84788734280123,-2.711405816378827,-0.06800499999999998,0.0939744933333333,0.07819306666666681,0.2401725600000001,0.13989296300026854,0.22414653075403346,0.37414585866723954,0.37859645241253054
LBP05_S01,LBP05,93,94,1,93,93,1715760671.72,2024-05-15 08:11:11.720000+00:00,2024-05-15 17:11:11.720000+09:00,2024,5,15,8,11,11,720,,,,,,,,,-0.315186,-0.010986,1.031738,66.711426,-2.075195,2.441406,,,,,,,,,,,1.0,1.0,1.0,1.0,0.0,0.0,0.0,5.0,0.0,-0.35402017333333335,-0.140371,0.9284407866666665,0.2783203199999998,0.5419921999999997,2.0052083466666675,48.213490668983745,18.229292390694557,-19.79564995104878,-8.963013174863002,21.74102113594386,18.914215582786632,30.178720256473003,-2.7443181524915032,32.04093419849039,-2.7164822304476743,0.03883417333333333,0.129385,0.10329721333333353,0.2715163866666669,0.17005553659294834,0.219692124250716,0.37145427441327267,0.37493783985429224
LBP05_S01,LBP05,94,95,1,94,94,1715760671.76,2024-05-15 08:11:11.760000+00:00,2024-05-15 17:11:11.760000+09:00,2024,5,15,8,11,11,760,,,,,,,,,-0.220459,0.154053,0.937256,60.974121,24.536133,-6.896973,,,,,,,,,,,1.0,1.0,1.0,1.0,0.0,0.0,0.0,5.0,0.0,-0.35829752000000004,-0.14414704,0.9312207333333333,-0.34179686666666687,1.127929693333333,2.6529948000000005,31.244972447732795,16.023343325162617,-13.173014198161617,-7.713214276953691,22.381954868950366,18.387295014860168,29.975626702396646,-2.7388841649400977,31.495455983570412,-2.7211214715347927,0.13783852000000005,0.29820004,0.00603526666666665,0.4420738266666667,0.32857137108325457,0.21110428601025608,0.37522570378871273,0.37413841797892955
LBP05_S01,LBP05,95,96,1,95,95,1715760671.8,2024-05-15 08:11:11.800000+00:00,2024-05-15 17:11:11.800000+09:00,2024,5,15,8,11,11,800,,,,,,,,,-0.419922,0.178955,0.926758,-27.832031,27.282715,-26.550293,,,,,,,,,,,1.0,1.0,1.0,1.0,0.0,0.0,0.0,5.0,0.0,-0.36022785333333335,-0.14709626666666667,0.9345312800000001,-1.5136718666666666,0.171712253333333,3.8305664133333335,12.233876113552677,14.01393054951658,-7.236305568669623,-7.223859232411584,22.94251209093103,18.097842792113383,30.10107833583815,-2.7335501861854943,31.22932806456481,-2.7275154515368727,-0.05969414666666667,0.3260512666666667,-0.0077732800000001046,0.39351869333333345,0.33156182458654326,0.21090827162564807,0.37403090923883764,0.37341678080278745
LBP05_S01,LBP05,96,97,1,96,96,1715760671.84,2024-05-15 08:11:11.840000+00:00,2024-05-15 17:11:11.840000+09:00,2024,5,15,8,11,11,840,,,,,,,,,-0.292725,0.084229,0.925293,-58.532715,8.972168,-15.869141,,,,,,,,,,,1.0,1.0,1.0,1.0,0.0,0.0,0.0,5.0,0.0,-0.3572884,-0.15402985333333333,0.9357552400000001,-0.3930664000000001,-0.44189450666666696,4.297688813333333,-5.912070574696197,11.90542446877494,-1.7868013385542187,-7.460342055399432,23.418729069682026,18.026370738571213,30.48021681069785,-2.7143098853334284,31.232368597287547,-2.730098307716582,0.06456339999999999,0.23825885333333333,-0.010462240000000067,0.3132844933333334,0.247073212382671,0.20698248016588164,0.3663801387907619,0.3713110546624521
LBP05_S01,LBP05,97,98,1,97,97,1715760671.88,2024-05-15 08:11:11.880000+00:00,2024-05-15 17:11:11.880000+09:00,2024,5,15,8,11,11,880,,,,,,,,,-0.385986,-0.092285,0.944092,-55.236816,16.601562,-7.873535,,,,,,,,,,,1.0,1.0,1.0,1.0,0.0,0.0,0.0,5.0,0.0,-0.3595442666666666,-0.1507714,0.9356445600000001,1.1987304799999998,-0.21240230666666698,3.8818359466666665,-20.800429717805823,9.329124595331056,3.380066656939643,-8.292359244111665,23.79189405349527,18.1615734048488,31.05897926567869,-2.7241450869250357,31.467883688732428,-2.7316982412595956,-0.026441733333333384,0.058486399999999994,0.008447439999999973,0.09337557333333335,0.06473935039205068,0.2051127800445248,0.360108588612546,0.366285289018675
LBP05_S01,LBP05,98,99,1,98,98,1715760671.92,2024-05-15 08:11:11.920000+00:00,2024-05-15 17:11:11.920000+09:00,2024,5,15,8,11,11,920,,,,,,,,,-0.377197,-0.152832,0.880615,-31.37207,15.441895,12.023926,,,,,,,,,,,1.0,1.0,1.0,1.0,0.0,0.0,0.0,5.0,0.0,-0.3608724,-0.149733,0.9350130533333334,0.8740234399999999,-0.18880205333333366,2.234700533333333,-30.968955893194366,6.026885237855042,8.340571092599596,-9.53111747983944,24.032969463009472,18.495196248552784,31.7883328580932,-2.727793826862495,31.881015758476003,-2.7329712649641844,-0.016324600000000022,-0.0030989999999999907,-0.05439805333333336,0.07382165333333338,0.056879210372650056,0.2022135729792374,0.3554319398512839,0.36129486839535213
LBP05_S01,LBP05,99,100,1,99,99,1715760671.96,2024-05-15 08:11:11.960000+00:00,2024-05-15 17:11:11.960000+09:00,2024,5,15,8,11,11,960,,,,,,,,,-0.438232,0.01001,0.946289,1.220703,11.230469,21.850586,,,,,,,,,,,1.0,1.0,1.0,1.0,0.0,0.0,0.0,5.0,0.0,-0.36086914666666664,-0.15075513333333335,0.9348698266666666,1.0408528666666665,-0.08626298666666701,1.4420572933333335,-35.99806965513981,1.9797324465454567,12.990391181169793,-10.971040266045032,24.11215876087129,19.014811895799575,32.60863376563459,-2.7253379626556016,32.41068472152579,-2.734488866710969,-0.07736285333333337,0.16076513333333334,0.011419173333333421,0.24954716000000013,0.17877593991132032,0.20488156834422605,0.3502331017508587,0.35839774254639917
LBP05_S01,LBP05,100,101,1,100,100,1715760672.0,2024-05-15 08:11:12+00:00,2024-05-15 17:11:12+09:00,2024,5,15,8,11,12,0,8.0,11.0,11.0,40.549717,141.543625,4.409,3.0,12.0,-0.432373,-0.101318,0.909912,-21.179199,-1.220703,19.958496,-564.0,20.0,546.0,80.0,0.0,1024.400024,22.48,0.112971,-92.366455,3.986719,1.0,1.0,1.0,1.0,0.0,0.0,0.0,3.0,0.0,-0.36113606666666664,-0.14923494666666665,0.9363183999999999,1.7464192666666665,0.11149090666666635,0.7861328133333336,-36.344017265923135,-2.5529320799962636,17.072032053245156,-12.424800956681956,24.01004147767144,19.69769317792938,33.449318185943845,-2.7292757119828743,32.99955274753235,-2.736258266575954,-0.07123693333333336,0.04791694666666664,-0.02640639999999983,0.14556027999999982,0.08982222670115649,0.20714317150396602,0.3430106976625116,0.35420125011131726
LBP05_S01,LBP05,101,102,1,101,101,1715760672.04,2024-05-15 08:11:12.040000+00:00,2024-05-15 17:11:12.040000+09:00,2024,5,15,8,11,12,40,,,,,,,,,-0.415039,-0.137939,0.906982,-25.939941,-14.038086,25.024414,,,,,,,,,,,1.0,1.0,1.0,1.0,0.0,0.0,0.0,3.0,0.0,-0.36168620000000007,-0.14263338666666667,0.9347070666666667,2.3966471333333335,-0.1546223733333337,0.17496744000000036,-33.01168266605417,-7.088591651635851,20.25032467311112,-13.745268263324123,23.726497811606006,20.507706164853825,34.24098582370072,-2.7456555797296818,33.598392074156386,-2.7405080882411155,-0.05335279999999992,0.004694386666666661,-0.027725066666666742,0.08577225333333333,0.060309517123645455,0.1992560846199555,0.29212509957554667,0.34967983883458387
LBP05_S01,LBP05,102,103,1,102,102,1715760672.08,2024-05-15 08:11:12.080000+00:00,2024-05-15 17:11:12.080000+09:00,2024,5,15,8,11,12,80,,,,,,,,,-0.440186,-0.208496,0.950684,-29.11377,-23.071289,22.644043,,,,,,,,,,,1.0,1.0,1.0,1.0,0.0,0.0,0.0,3.0,0.0,-0.3609244933333333,-0.14205721333333335,0.9354948266666666,2.3860677066666667,-0.1359049333333337,-0.3515625066666664,-27.207875908115568,-11.046425475308611,22.198716918410216,-14.833583299648746,23.28464079259366,21.395654841590233,34.928265580303275,-2.7464420925356334,34.16585814909218,-2.7462517377245805,-0.0792615066666667,-0.06643878666666664,0.015189173333333361,0.1608894666666667,0.10453329517124645,0.18974514514804489,0.25736001475575015,0.3459654972639272
LBP05_S01,LBP05,103,104,1,103,103,1715760672.12,2024-05-15 08:11:12.120000+00:00,2024-05-15 17:11:12.120000+09:00,2024,5,15,8,11,12,120,,,,,,,,,-0.403076,-0.175049,0.912598,-12.634277,-19.897461,17.883301,,,,,,,,,,,1.0,1.0,1.0,1.0,0.0,0.0,0.0,3.0,0.0,-0.3607226666666667,-0.13668612,0.9355436533333333,3.59375,0.07161459999999967,-0.677083333333333,-20.074428383499114,-13.895109836298463,22.67178701533729,-15.636560434988711,22.72883639914172,22.302526322203725,35.47540988697092,-2.759494169959346,34.667437408870704,-2.7526000050347847,-0.0423533333333333,-0.038362880000000016,-0.022945653333333316,0.10366186666666663,0.06157936678167739,0.1833964769606704,0.24000975359952306,0.34172092815225186
LBP05_S01,LBP05,104,105,1,104,104,1715760672.16,2024-05-15 08:11:12.160000+00:00,2024-05-15 17:11:12.160000+09:00,2024,5,15,8,11,12,160,,,,,,,,,-0.416992,-0.181396,0.958008,-9.765625,-14.770508,15.075684,,,,,,,,,,,1.0,1.0,1.0,1.0,0.0,0.0,0.0,3.0,0.0,-0.3600455866666667,-0.13763989333333332,0.9358952133333335,3.693033853333333,0.09440105333333303,-0.8374023466666665,-12.53977170393466,-15.274088470191428,21.557018672381723,-16.1381513031461,22.117872860334064,23.164807069098995,35.86430696246224,-2.7565781635899493,35.07632012807035,-2.757979979003583,-0.05694641333333328,-0.04375610666666668,0.022112786666666495,0.12281530666666646,0.07514297170275511,0.17373862258416697,0.23321157333536882,0.3378006640868181
LBP05_S01,LBP05,105,106,1,105,105,1715760672.2,2024-05-15 08:11:12.200000+00:00,2024-05-15 17:11:12.200000+09:00,2024,5,15,8,11,12,200,,,,,,,,,-0.427246,-0.113525,0.947266,-11.535645,-10.070801,16.601562,,,,,,,,,,,1.0,1.0,1.0,1.0,0.0,0.0,0.0,3.0,0.0,-0.36089844,-0.13013338666666668,0.93664716,4.239908853333333,0.5428059999999998,-0.9122721466666665,-5.281096338102859,-15.05584041437792,18.910187499910112,-16.349395156670212,21.515639243758947,23.921214569095397,36.08947160207855,-2.7760484028371106,35.376094511225816,-2.7649191349824425,-0.06634756000000003,0.016608386666666683,0.010618840000000018,0.09357478666666673,0.0692141386464407,0.1687269510360252,0.2262016874340085,0.33390810574710245
LBP05_S01,LBP05,106,107,1,106,106,1715760672.24,2024-05-15 08:11:12.240000+00:00,2024-05-15 17:11:12.240000+09:00,2024,5,15,8,11,12,240,,,,,,,,,-0.368164,-0.145752,0.931641,-15.930176,-18.249512,16.601562,,,,,,,,,,,1.0,1.0,1.0,1.0,0.0,0.0,0.0,3.0,0.0,-0.36220378666666664,-0.13231764000000001,0.9396907866666667,2.3502604133333334,0.6599934933333331,-1.5405273599999998,1.2374768492751154,-13.34306382742351,14.978470875110972,-16.299896082699206,20.981916690662008,24.520353404099836,36.15487756005577,-2.771746380168079,35.56327225146447,-2.772781596493497,-0.005960213333333353,-0.013434359999999979,-0.00804978666666667,0.02744436,0.016757244313051256,0.16072420676123303,0.21713970603269112,0.32937737915518744
LBP05_S01,LBP05,107,108,1,107,107,1715760672.28,2024-05-15 08:11:12.280000+00:00,2024-05-15 17:11:12.280000+09:00,2024,5,15,8,11,12,280,,,,,,,,,-0.299805,-0.193848,0.921631,6.835938,-7.446289,28.381348,,,,,,,,,,,1.0,1.0,1.0,1.0,0.0,0.0,0.0,3.0,0.0,-0.36310221333333337,-0.12634108,0.9434993866666668,3.26822916,1.0685221466666666,-1.9270833466666664,6.696869181988456,-10.416164097071922,10.205174164937985,-16.03202131541967,20.56527012677913,24.928560370697355,36.07477186346391,-2.787627760027078,35.64779364034923,-2.7790522290938515,0.06329721333333338,-0.06750692,-0.021868386666666795,0.15267252000000017,0.09508915710560677,0.15215181960417312,0.21143055462420673,0.3260775450418131
LBP05_S01,LBP05,108,109,1,108,108,1715760672.32,2024-05-15 08:11:12.320000+00:00,2024-05-15 17:11:12.320000+09:00,2024,5,15,8,11,12,320,,,,,,,,,-0.377686,-0.130615,0.927246,12.817383,1.708984,13.793945,,,,,,,,,,,1.0,1.0,1.0,1.0,0.0,0.0,0.0,3.0,0.0,-0.36452798666666664,-0.12923170666666667,0.9466667066666665,3.28125,1.2068684933333331,-1.921386733333333,10.867565489602049,-6.656216948476616,5.198669123436258,-15.597318695835588,20.299021448840065,25.136507135634805,35.87716005008968,-2.7815935665504763,35.650984986788856,-2.7863396289570668,-0.013158013333333385,-0.0013832933333333408,-0.01942070666666651,0.033962013333333235,0.02349916302251909,0.14889929513970193,0.19847220743077618,0.3218750675137673
LBP05_S01,LBP05,109,110,1,109,109,1715760672.36,2024-05-15 08:11:12.360000+00:00,2024-05-15 17:11:12.360000+09:00,2024,5,15,8,11,12,360,,,,,,,,,-0.396973,-0.101318,0.979248,15.930176,-1.098633,0.427246,,,,,,,,,,,1.0,1.0,1.0,1.0,0.0,0.0,0.0,3.0,0.0,-0.36477864,-0.12406894666666667,0.9450325999999999,3.1355794266666663,1.109212253333333,-1.6723632933333328,13.589788351869897,-2.468905406107662,0.6484815260674318,-15.053727161760792,20.200265232595758,25.162446396677502,35.606377597189244,-2.794729522444196,35.601672968644046,-2.7935633900865904,-0.03219436000000003,0.02275094666666666,0.03421540000000012,0.08916070666666681,0.05219938684696518,0.14401592639210123,0.19406052488873335,0.3181808801073728
LBP05_S01,LBP05,110,111,1,110,110,1715760672.4,2024-05-15 08:11:12.400000+00:00,2024-05-15 17:11:12.400000+09:00,2024,5,15,8,11,12,400,,,,,,,,,-0.373779,-0.091553,0.965332,16.784668,3.295898,-9.155273,,,,,,,,,,,1.0,1.0,1.0,1.0,0.0,0.0,0.0,3.0,0.0,-0.3627213466666666,-0.1182584,0.9417415733333333,2.7400716133333334,0.8886718933333331,-0.8699544399999994,14.787241453308354,1.7707894832430646,-2.8093565312311957,-14.462237503628458,20.27109681192548,25.050072135428255,35.32109558833039,-2.807900327093419,35.53167393442886,-2.800490690841385,-0.011057653333333362,0.026705400000000004,0.023590426666666664,0.06135348000000003,0.03730895759352647,0.1329190499954431,0.1937648135983405,0.3143853135869154
LBP05_S01,LBP05,111,112,1,111,111,1715760672.44,2024-05-15 08:11:12.440000+00:00,2024-05-15 17:11:12.440000+09:00,2024,5,15,8,11,12,440,,,,,,,,,-0.307861,-0.10498,1.009766,17.578125,-2.13623,-30.883789,,,,,,,,,,,1.0,1.0,1.0,1.0,0.0,0.0,0.0,3.0,0.0,-0.36510741333333335,-0.11877597333333334,0.9424512133333334,2.442220053333333,0.8968099199999998,-0.11230470666666624,14.49527611493801,5.744354334227434,-4.744595702878792,-13.882426459030938,20.50087098529458,24.860288307313105,35.0861997125483,-2.8083619057332267,35.47171884432374,-2.80438019168398,0.05724641333333336,0.013795973333333336,0.06731478666666657,0.13835717333333325,0.0894357938619864,0.12967979610869804,0.19155108685245575,0.3113859866572497
LBP05_S01,LBP05,112,113,1,112,112,1715760672.48,2024-05-15 08:11:12.480000+00:00,2024-05-15 17:11:12.480000+09:00,2024,5,15,8,11,12,480,,,,,,,,,-0.249268,-0.137939,0.876465,10.681152,8.300781,-13.549805,,,,,,,,,,,1.0,1.0,1.0,1.0,0.0,0.0,0.0,3.0,0.0,-0.3656152266666667,-0.11462884,0.9402930133333335,2.4527994799999995,0.14973959999999978,0.21728513333333382,12.881044358301027,9.190592915376017,-5.046330315613108,-13.367184684698897,20.86849470190962,24.65843509468858,34.96017904469953,-2.8193160911677877,35.44838084409095,-2.8080793883502837,0.11634722666666669,-0.02331016000000001,-0.06382801333333343,0.20348540000000015,0.13473698823385696,0.12671002498159806,0.19136191108020184,0.305285085655823
LBP05_S01,LBP05,113,114,1,113,113,1715760672.52,2024-05-15 08:11:12.520000+00:00,2024-05-15 17:11:12.520000+09:00,2024,5,15,8,11,12,520,,,,,,,,,-0.375488,-0.067871,0.915283,18.371582,14.465332,-5.432129,,,,,,,,,,,1.0,1.0,1.0,1.0,0.0,0.0,0.0,3.0,0.0,-0.36490558666666667,-0.10965813333333334,0.9403581200000001,1.520182293333333,-0.7934570133333335,0.40934242666666715,10.2392840159037,11.895129261325733,-3.9446975075200115,-12.957613324062748,21.344299872362647,24.50064719438778,34.98228970552286,-2.831731781254578,35.48209321809777,-2.811373516327482,-0.010582413333333318,0.04178713333333334,-0.025075120000000117,0.07744466666666677,0.04986896456905532,0.11691987490667519,0.18255888791137068,0.30341708082142965
LBP05_S01,LBP05,114,115,1,114,114,1715760672.56,2024-05-15 08:11:12.560000+00:00,2024-05-15 17:11:12.560000+09:00,2024,5,15,8,11,12,560,,,,,,,,,-0.408447,0.009766,0.952393,9.521484,11.535645,5.249023,,,,,,,,,,,1.0,1.0,1.0,1.0,0.0,0.0,0.0,3.0,0.0,-0.36374673333333335,-0.11163730666666666,0.9429883333333333,0.23600261333333322,-1.5120442533333336,0.7088215866666671,6.956600047024897,13.681921902383445,-1.9211158003083353,-12.679349322181753,21.891576748457986,24.42380256237545,35.16431662031035,-2.8258511711378955,35.586100033228384,-2.8146025026377854,-0.044700266666666655,0.12140330666666665,0.009404666666666728,0.17550824000000004,0.12971246842452322,0.1168747476340637,0.1829951621451066,0.29993093366294726
LBP05_S01,LBP05,115,116,1,115,115,1715760672.6,2024-05-15 08:11:12.600000+00:00,2024-05-15 17:11:12.600000+09:00,2024,5,15,8,11,12,600,,,,,,,,,-0.410645,-0.037842,0.981445,-1.037598,19.348145,12.817383,,,,,,,,,,,1.0,1.0,1.0,1.0,0.0,0.0,0.0,3.0,0.0,-0.36027668,-0.11488925333333332,0.9450260933333334,-0.09928385333333344,-1.5120442533333336,1.4054361733333338,3.4471064439901453,14.413572512109477,0.4643258753681863,-12.541465064422148,22.468119648942366,24.44237559739018,35.4899207010273,-2.8149434112630645,35.76619379881491,-2.81571335008731,-0.050368319999999966,0.07704725333333332,0.036418906666666584,0.16383447999999987,0.09899284655281214,0.11392251349621843,0.17754120386993283,0.2918672616310561
LBP05_S01,LBP05,116,117,1,116,116,1715760672.64,2024-05-15 08:11:12.640000+00:00,2024-05-15 17:11:12.640000+09:00,2024,5,15,8,11,12,640,,,,,,,,,-0.449951,-0.055664,0.93335,-2.563477,8.361816,23.925781,,,,,,,,,,,1.0,1.0,1.0,1.0,0.0,0.0,0.0,3.0,0.0,-0.35874348,-0.11685539999999998,0.9466341733333333,-0.07080077333333344,-0.9204101466666669,1.6682942400000005,0.07332251675404708,14.001094750923528,2.7620858402011943,-12.538532163751986,23.02816343897931,24.552859030998228,35.92149755772798,-2.8087383468311105,36.02122550578699,-2.814574958333198,-0.09120751999999999,0.061191399999999986,-0.013284173333333316,0.16568309333333328,0.1106330348479171,0.11265539719281793,0.17766599261467492,0.28916822635476025
LBP05_S01,LBP05,117,118,1,117,117,1715760672.68,2024-05-15 08:11:12.680000+00:00,2024-05-15 17:11:12.680000+09:00,2024,5,15,8,11,12,680,,,,,,,,,-0.350342,-0.089111,0.945068,-17.150879,6.958008,14.465332,,,,,,,,,,,1.0,1.0,1.0,1.0,0.0,0.0,0.0,3.0,0.0,-0.35830728,-0.11218092,0.9443652933333334,0.06591798666666654,-0.7478841066666668,1.151529906666667,-2.9237072936443957,12.42173900004081,4.764501616170444,-12.655480455497763,23.52503299898094,24.743439095645044,36.411895603532145,-2.8205690397990635,36.34442504320874,-2.8135389133185855,0.007965280000000019,0.023069920000000008,0.0007027066666666082,0.031737906666666635,0.02441640208843593,0.10803633475634462,0.16609143275518903,0.2854426840302746
LBP05_S01,LBP05,118,119,1,118,118,1715760672.72,2024-05-15 08:11:12.720000+00:00,2024-05-15 17:11:12.720000+09:00,2024,5,15,8,11,12,720,,,,,,,,,-0.36499,-0.018066,0.910889,-8.422852,11.047363,-4.333496,,,,,,,,,,,1.0,1.0,1.0,1.0,0.0,0.0,0.0,3.0,0.0,-0.3576171733333333,-0.11451815999999998,0.9433561866666668,-1.2638346133333336,-0.7535807200000002,0.5485025600000005,-5.4581118600944425,9.743153041042952,6.529602373609743,-12.87380492990154,23.91475912062266,25.004623190589435,36.91722820139568,-2.8138834296535102,36.725417105724766,-2.8122408227695774,-0.007372826666666665,0.09645215999999998,-0.032467186666666814,0.13629217333333346,0.10203673824545008,0.1053155828224447,0.16250385353658037,0.28274137721633
LBP05_S01,LBP05,119,120,1,119,119,1715760672.76,2024-05-15 08:11:12.760000+00:00,2024-05-15 17:11:12.760000+09:00,2024,5,15,8,11,12,760,,,,,,,,,-0.415283,-0.093506,0.93457,-3.90625,13.48877,-3.540039,,,,,,,,,,,1.0,1.0,1.0,1.0,0.0,0.0,0.0,3.0,0.0,-0.3555208266666667,-0.11700187999999999,0.9446843066666666,-1.3289387866666669,-0.5346679600000002,0.16845698666666706,-7.579633197777656,6.148970270055713,8.294768679027197,-13.176990257812646,24.160717931424887,25.33641393775052,37.407315253054506,-2.805837996939443,37.15250976173324,-2.810876998699878,-0.059762173333333335,0.023495879999999983,-0.010114306666666573,0.09337235999999989,0.06500671455969108,0.09477299656150215,0.1529386412858791,0.2817414680463092
LBP05_S01,LBP05,120,121,1,120,120,1715760672.8,2024-05-15 08:11:12.800000+00:00,2024-05-15 17:11:12.800000+09:00,2024,5,15,8,11,12,800,,,,,,,,,-0.414062,0.014893,0.901367,0.732422,5.737305,-1.953125,,,,,,,,,,,1.0,1.0,1.0,1.0,0.0,0.0,0.0,3.0,0.0,-0.35515624,-0.12049145333333333,0.9465300133333335,-0.6249999866666669,-0.17252602666666686,0.4305012666666671,-9.405285992946109,1.9540083143137381,10.324554760562336,-13.55320169753049,24.23887826399744,25.749396128173014,37.87141265805122,-2.7965164095523005,37.61459257645631,-2.8103303556414074,-0.058905759999999974,0.13538445333333332,-0.0451630133333335,0.2394532266666668,0.1543973333282993,0.0876864169111724,0.14929734426841024,0.2785827451296159
LBP05_S01,LBP05,121,122,1,121,121,1715760672.84,2024-05-15 08:11:12.840000+00:00,2024-05-15 17:11:12.840000+09:00,2024,5,15,8,11,12,840,,,,,,,,,-0.434814,-0.111572,0.905518,-7.93457,7.202148,9.460449,,,,,,,,,,,1.0,1.0,1.0,1.0,0.0,0.0,0.0,3.0,0.0,-0.35426757333333336,-0.11963533333333336,0.9452311866666666,0.4541015733333331,0.22867839999999978,1.3094075200000004,-11.029747389614801,-2.4075792614525353,12.760120814710472,-13.994391593115083,24.14257509353934,26.25980096076143,38.318195086765805,-2.7980014555871002,38.10203276729923,-2.8114995546050463,-0.08054642666666662,0.008063333333333353,-0.03971318666666657,0.12832294666666655,0.09016585489216332,0.08141012261155209,0.14419630138871686,0.27139013339769197
LBP05_S01,LBP05,122,123,1,122,122,1715760672.88,2024-05-15 08:11:12.880000+00:00,2024-05-15 17:11:12.880000+09:00,2024,5,15,8,11,12,880,,,,,,,,,-0.510986,-0.10498,0.925293,-2.197266,-14.404297,16.906738,,,,,,,,,,,1.0,1.0,1.0,1.0,0.0,0.0,0.0,3.0,0.0,-0.35477538666666664,-0.11659172000000001,0.9445052666666667,0.9700520933333331,0.5143229199999998,2.4365234,-12.453070919882009,-6.433121862907782,15.527332326143082,-14.492514429910363,23.88525021902303,26.880894253807156,38.77009966985979,-2.8063351856777103,38.606319925423406,-2.8143494048224684,-0.15621061333333341,0.011611720000000006,-0.019212266666666644,0.18703460000000005,0.15781539516094656,0.08513316440230792,0.14512297222341636,0.26845011387580003
LBP05_S01,LBP05,123,124,1,123,123,1715760672.92,2024-05-15 08:11:12.920000+00:00,2024-05-15 17:11:12.920000+09:00,2024,5,15,8,11,12,920,,,,,,,,,-0.412354,-0.064209,0.905518,-13.977051,-12.634277,21.240234,,,,,,,,,,,1.0,1.0,1.0,1.0,0.0,0.0,0.0,3.0,0.0,-0.35756836000000003,-0.11293286666666667,0.9456543600000001,0.690917973333333,0.6901041733333332,3.291829386666667,-13.556703595389765,-9.637887394247896,18.32754048797902,-15.034782573725954,23.499734723253113,27.613995873326317,39.25321626560764,-2.818093540557585,39.11867802440402,-2.816181748086584,-0.05478563999999997,0.04872386666666667,-0.04013636000000009,0.14364586666666673,0.08358474099505432,0.0862013856272041,0.14420747930322075,0.2656884217765906
LBP05_S01,LBP05,124,125,1,124,124,1715760672.96,2024-05-15 08:11:12.960000+00:00,2024-05-15 17:11:12.960000+09:00,2024,5,15,8,11,12,960,,,,,,,,,-0.418701,-0.159912,0.913574,-23.986816,-16.113281,28.930664,,,,,,,,,,,1.0,1.0,1.0,1.0,0.0,0.0,0.0,3.0,0.0,-0.36010416,-0.11275708000000001,0.9449154266666666,-0.11474609333333358,0.057779946666666436,4.112955693333334,-14.13681620105016,-11.655905953890553,20.70026346098032,-15.60025522176796,23.03349848509749,28.44200641176553,39.78514476754104,-2.8203847405531866,39.628203470681015,-2.819352220179905,-0.05859683999999998,-0.04715491999999999,-0.031341426666666616,0.1370931866666666,0.08148288877852845,0.08230966358189243,0.14359561596305923,0.26092528902786993
LBP05_S01,LBP05,125,126,1,125,125,1715760673.0,2024-05-15 08:11:13+00:00,2024-05-15 17:11:13+09:00,2024,5,15,8,11,13,0,8.0,11.0,12.0,40.549709,141.543625,3.815,3.0,12.0,-0.425293,-0.149902,0.936279,-19.592285,-17.822266,23.925781,-560.0,20.0,548.0,37.0,0.0,1024.699951,22.540001,0.115944,-94.839767,3.986719,1.0,1.0,1.0,1.0,0.0,0.0,0.0,3.0,0.0,-0.3613574133333333,-0.11071932,0.94511724,0.19938151999999973,-0.5891927066666669,4.942220013333334,-13.978885356770878,-12.324004087957308,22.1261997097046,-16.159410636038796,22.5405383215792,29.327054400153713,40.36432260945648,-2.82663540089945,40.12020798122912,-2.822900892802607,-0.06393558666666666,-0.03918268000000001,-0.008838239999999997,0.11195650666666666,0.07550600069326176,0.08173701454157664,0.14444009302277133,0.2559194699555333
LBP05_S01,LBP05,126,127,1,126,126,1715760673.04,2024-05-15 08:11:13.040000+00:00,2024-05-15 17:11:13.040000+09:00,2024,5,15,8,11,13,40,,,,,,,,,-0.394043,-0.141602,0.930908,-16.906738,-14.526367,21.728516,,,,,,,,,,,1.0,1.0,1.0,1.0,0.0,0.0,0.0,3.0,0.0,-0.36111326666666665,-0.10664054666666667,0.94573572,0.13916017333333308,-1.3964843733333334,5.177408813333333,-12.941349341781283,-11.721542487033286,22.1365495106816,-16.677064609710047,22.07167662209787,30.21251638058098,40.96436913896977,-2.837236849005335,40.57538664341328,-2.826731900608135,-0.03292973333333332,-0.03496145333333334,-0.014827719999999989,0.08271890666666665,0.05026461814220504,0.08133521858231901,0.14029565160113727,0.22186180591113744
LBP05_S01,LBP05,127,128,1,127,127,1715760673.08,2024-05-15 08:11:13.080000+00:00,2024-05-15 17:11:13.080000+09:00,2024,5,15,8,11,13,80,,,,,,,,,-0.400635,-0.143311,0.925293,-9.460449,-6.286621,14.892578,,,,,,,,,,,1.0,1.0,1.0,1.0,0.0,0.0,0.0,3.0,0.0,-0.3587044133333333,-0.10540356000000001,0.9468066799999999,-0.407714826666667,-1.93603516,5.306803346666666,-11.01658655500077,-10.152923279198017,20.405598052267784,-17.11772807191008,21.665559690929946,31.02874030267169,41.535476593338245,-2.8388924724402225,40.97026390135953,-2.8299826024922146,-0.041930586666666714,-0.03790743999999999,-0.02151367999999987,0.10135170666666657,0.060481290765879346,0.07957313840610433,0.1346591417770746,0.19809772263920156
LBP05_S01,LBP05,128,129,1,128,128,1715760673.12,2024-05-15 08:11:13.120000+00:00,2024-05-15 17:11:13.120000+09:00,2024,5,15,8,11,13,120,,,,,,,,,-0.400879,-0.142578,0.951172,-0.610352,-7.141113,14.648438,,,,,,,,,,,1.0,1.0,1.0,1.0,0.0,0.0,0.0,3.0,0.0,-0.35802408,-0.10274080000000001,0.94798832,-1.6243489333333336,-2.2973632800000003,5.4842122,-8.352502938061162,-8.078384368269596,16.81828840889946,-17.451828189432526,21.342424316199164,31.70147183902767,42.012482664165724,-2.8455881505867175,41.27912958155438,-2.83145022242357,-0.04285491999999996,-0.0398372,0.003183680000000022,0.08587579999999999,0.05859763212271292,0.07945386901974576,0.1314251729902081,0.18649112540626397
LBP05_S01,LBP05,129,130,1,129,129,1715760673.16,2024-05-15 08:11:13.160000+00:00,2024-05-15 17:11:13.160000+09:00,2024,5,15,8,11,13,160,,,,,,,,,-0.370605,-0.128906,0.94751,-4.577637,-1.098633,10.314941,,,,,,,,,,,1.0,1.0,1.0,1.0,0.0,0.0,0.0,3.0,0.0,-0.3553906133333333,-0.10366202666666666,0.9488802533333334,-2.858072893333334,-2.563476573333334,5.760091106666667,-5.236657573123597,-6.013877144786506,11.513585980532667,-17.66129449235747,21.101869230407704,32.16201527824897,42.32736035853552,-2.8413247231664633,41.47737338104605,-2.8304652075170713,-0.01521438666666669,-0.025243973333333336,-0.0013702533333334044,0.04182861333333343,0.029506157755533016,0.07762839646185687,0.1256835095230119,0.1813505143775315
LBP05_S01,LBP05,130,131,1,130,130,1715760673.2,2024-05-15 08:11:13.200000+00:00,2024-05-15 17:11:13.200000+09:00,2024,5,15,8,11,13,200,,,,,,,,,-0.375977,-0.122314,0.929688,-5.493164,-0.366211,12.268066,,,,,,,,,,,1.0,1.0,1.0,1.0,0.0,0.0,0.0,3.0,0.0,-0.3526692533333333,-0.10536124,0.9491178933333333,-3.8623046666666663,-2.306315106666667,6.209309853333334,-2.0553395553038367,-4.427903779711668,4.903598086400408,-17.743508074569625,20.924753079219236,32.358159201704986,42.423199279892806,-2.8348264876075766,41.54577685193288,-2.8283943416234605,-0.023307746666666684,-0.01695276000000001,-0.019429893333333337,0.05969040000000003,0.03475870943000939,0.07625017929319962,0.1224885651646124,0.17621785138707222
LBP05_S01,LBP05,131,132,1,131,131,1715760673.24,2024-05-15 08:11:13.240000+00:00,2024-05-15 17:11:13.240000+09:00,2024,5,15,8,11,13,240,,,,,,,,,-0.380127,-0.150146,0.93457,-5.432129,-1.464844,3.173828,,,,,,,,,,,1.0,1.0,1.0,1.0,0.0,0.0,0.0,3.0,0.0,-0.35205075999999996,-0.10678377333333332,0.9480697200000001,-4.855957013333334,-1.9921875066666666,6.387532506666666,0.7612900048467349,-3.6604371588576563,-2.3387697255238575,-17.713056474375755,20.77833559286493,32.264608412684034,42.26696766622824,-2.8305084744279005,41.47498874450308,-2.8250818560287736,-0.02807624000000003,-0.043362226666666684,-0.013499720000000104,0.08493818666666682,0.0533928871115562,0.07771560500513981,0.11921990588318643,0.170665005690174
LBP05_S01,LBP05,132,133,1,132,132,1715760673.28,2024-05-15 08:11:13.280000+00:00,2024-05-15 17:11:13.280000+09:00,2024,5,15,8,11,13,280,,,,,,,,,-0.398193,-0.172852,0.940674,3.540039,-6.774902,-5.554199,,,,,,,,,,,1.0,1.0,1.0,1.0,0.0,0.0,0.0,3.0,0.0,-0.35418292,-0.11091464000000002,0.9479785733333334,-5.872395813333333,-2.2338867333333337,6.53157548,2.8035846517781144,-3.878492433983719,-9.335796121666213,-17.60091308830463,20.62319589550558,31.891176567817386,41.858756471808334,-2.8210113849912637,41.26920748636102,-2.820527211742895,-0.04401008000000001,-0.06193735999999998,-0.007304573333333342,0.11325201333333333,0.07633138605421785,0.07696529416308426,0.1145585568836287,0.16660880113716592
LBP05_S01,LBP05,133,134,1,133,133,1715760673.32,2024-05-15 08:11:13.320000+00:00,2024-05-15 17:11:13.320000+09:00,2024,5,15,8,11,13,320,,,,,,,,,-0.36499,-0.113037,0.946045,6.958008,-11.474609,-13.85498,,,,,,,,,,,1.0,1.0,1.0,1.0,0.0,0.0,0.0,3.0,0.0,-0.3534863066666667,-0.11554354666666666,0.9484733599999998,-5.597330706666667,-2.7734375200000003,6.87662756,3.754359865627914,-5.0690138055520695,-15.112263849202268,-17.45073869367951,20.4204353432835,31.286686013849295,41.23565426052433,-2.8082433914925957,40.948129813858955,-2.8149290695047524,-0.011503693333333287,0.0025065466666666647,-0.0024283599999997962,0.016438599999999748,0.01202142540588068,0.07650618465841873,0.11270273989906032,0.15781686650665702
LBP05_S01,LBP05,134,135,1,134,134,1715760673.36,2024-05-15 08:11:13.360000+00:00,2024-05-15 17:11:13.360000+09:00,2024,5,15,8,11,13,360,,,,,,,,,-0.374512,-0.177979,1.0,2.197266,-9.155273,-15.869141,,,,,,,,,,,1.0,1.0,1.0,1.0,0.0,0.0,0.0,3.0,0.0,-0.3536034933333333,-0.11884758666666667,0.9490723200000001,-4.982096333333334,-3.251953146666667,7.00113928,3.4611383283923907,-7.058361438421377,-18.747260257596768,-17.312293160543817,20.138100885746645,30.536795603545425,40.469179476409366,-2.799676081617083,40.546509690387424,-2.8081189559442064,-0.020908506666666715,-0.05913141333333333,0.05092767999999992,0.13096759999999996,0.08079182065042197,0.07764988201055699,0.11083290420132912,0.15525697726267457
LBP05_S01,LBP05,135,136,1,135,135,1715760673.4,2024-05-15 08:11:13.400000+00:00,2024-05-15 17:11:13.400000+09:00,2024,5,15,8,11,13,400,,,,,,,,,-0.383057,-0.075684,0.956299,5.187988,-7.385254,-39.367676,,,,,,,,,,,1.0,1.0,1.0,1.0,0.0,0.0,0.0,3.0,0.0,-0.35145832000000005,-0.12055982666666665,0.94957036,-4.331054666666668,-3.6857096533333333,7.06461584,1.9934962928550186,-9.544397667521082,-19.54486487769637,-17.232553308829615,19.756324979045804,29.75500100843757,39.6564415351585,-2.79351054495258,40.111129762663545,-2.8014351307226777,-0.031598679999999935,0.044875826666666646,0.0067286400000000635,0.08320314666666664,0.05529548799864874,0.07836934322676188,0.1056441966111025,0.15529965680781427
LBP05_S01,LBP05,136,137,1,136,136,1715760673.44,2024-05-15 08:11:13.440000+00:00,2024-05-15 17:11:13.440000+09:00,2024,5,15,8,11,13,440,,,,,,,,,-0.366455,-0.081787,0.922363,7.507324,-7.080078,-22.460938,,,,,,,,,,,1.0,1.0,1.0,1.0,0.0,0.0,0.0,3.0,0.0,-0.34987954666666665,-0.12078118666666667,0.9505143733333333,-3.8826497200000003,-3.8346354400000005,6.870117133333333,-0.33348428598272056,-12.13323275961141,-17.183870573679727,-17.245892680268923,19.270995668661346,29.067646185490382,38.90655655754915,-2.7916904061465484,39.6955271291137,-2.795346860934906,-0.016575453333333323,0.038994186666666666,-0.028151373333333285,0.08372101333333327,0.05087034565985436,0.0768267252986766,0.10325326070368732,0.15330963300119604
LBP05_S01,LBP05,137,138,1,137,137,1715760673.48,2024-05-15 08:11:13.480000+00:00,2024-05-15 17:11:13.480000+09:00,2024,5,15,8,11,13,480,,,,,,,,,-0.35498,-0.128906,0.934082,-3.90625,-10.742188,-8.850098,,,,,,,,,,,1.0,1.0,1.0,1.0,0.0,0.0,0.0,3.0,0.0,-0.34796874666666666,-0.12353509333333335,0.9507129466666667,-3.964843733333333,-4.00309248,6.55192052,-2.9859010819768077,-14.382598970250505,-11.8051979062486,-17.365328723547997,18.695691709851324,28.59543826924044,38.32469986831763,-2.7829110500588,39.35332949775788,-2.789529660822615,-0.007011253333333356,-0.005370906666666647,-0.016630946666666757,0.02901310666666676,0.018830631926617238,0.07219047104638701,0.09945024801399253,0.1516380977355969
LBP05_S01,LBP05,138,139,1,138,138,1715760673.52,2024-05-15 08:11:13.520000+00:00,2024-05-15 17:11:13.520000+09:00,2024,5,15,8,11,13,520,,,,,,,,,-0.337158,-0.157715,0.979492,0.671387,-13.73291,-2.990723,,,,,,,,,,,1.0,1.0,1.0,1.0,0.0,0.0,0.0,3.0,0.0,-0.34573568,-0.12489902666666666,0.9514551333333333,-3.7158202933333335,-4.090169306666667,6.314290306666667,-5.295492233527463,-15.858946143881978,-4.01084674907614,-17.577148412889095,18.061333864096046,28.435004399277393,37.9962814294504,-2.7774870149812494,39.131373746872214,-2.7845802329649554,0.008577679999999976,-0.03281597333333333,0.028036866666666715,0.06943052000000002,0.04400602904694868,0.07195595362550274,0.09443791426608897,0.1456912431494147
LBP05_S01,LBP05,139,140,1,139,139,1715760673.56,2024-05-15 08:11:13.560000+00:00,2024-05-15 17:11:13.560000+09:00,2024,5,15,8,11,13,560,,,,,,,,,-0.356934,-0.138428,0.970459,-0.549316,-15.441895,1.098633,,,,,,,,,,,1.0,1.0,1.0,1.0,0.0,0.0,0.0,3.0,0.0,-0.34379232000000004,-0.12542312,0.95253912,-3.3561197733333334,-3.86067712,5.978190053333334,-6.596113304103329,-16.210893455271847,5.226004904729861,-17.840992945053227,17.41289812588517,28.644044595466585,37.97356108129672,-2.774486470951179,39.06374668884491,-2.7805047924801,-0.013141679999999933,-0.013004879999999996,0.01791988,0.04406643999999993,0.02574786896524056,0.06779736964713144,0.09233605864059756,0.14459589797911487
LBP05_S01,LBP05,140,141,1,140,140,1715760673.6,2024-05-15 08:11:13.600000+00:00,2024-05-15 17:11:13.600000+09:00,2024,5,15,8,11,13,600,,,,,,,,,-0.341797,-0.1604,0.94873,-14.038086,-23.071289,18.188477,,,,,,,,,,,1.0,1.0,1.0,1.0,0.0,0.0,0.0,3.0,0.0,-0.3417187466666667,-0.12494786666666667,0.9525912,-2.9654947733333334,-3.5343424800000003,5.652669213333333,-6.389944897648698,-15.249895649004703,14.717092249003922,-18.096590740959176,16.802902299924984,29.23272828542674,38.26717294439429,-2.7739437897298576,39.16756428999979,-2.777076829170885,-7.825333333333351e-05,-0.035452133333333316,-0.003861200000000009,0.03939158666666666,0.03566186684553434,0.06526413045884033,0.08959332197752935,0.140115512732902
LBP05_S01,LBP05,141,142,1,141,141,1715760673.64,2024-05-15 08:11:13.640000+00:00,2024-05-15 17:11:13.640000+09:00,2024,5,15,8,11,13,640,,,,,,,,,-0.310059,-0.170654,0.972168,-20.446777,-20.263672,34.667969,,,,,,,,,,,1.0,1.0,1.0,1.0,0.0,0.0,0.0,3.0,0.0,-0.34005208000000003,-0.12501622666666667,0.95346684,-2.8190104000000002,-3.311360706666667,5.437825466666667,-4.50445801943141,-13.01678372894909,23.24661978525764,-18.27676906173643,16.28223095076702,30.162593076837048,38.844991352670164,-2.772336473304998,39.44093886832089,-2.774308094817689,0.02999308000000006,-0.045637773333333326,0.018701159999999994,0.09433201333333338,0.05772455792863825,0.06314779138206916,0.08790159428744354,0.13949325887047298
LBP05_S01,LBP05,142,143,1,142,142,1715760673.68,2024-05-15 08:11:13.680000+00:00,2024-05-15 17:11:13.680000+09:00,2024,5,15,8,11,13,680,,,,,,,,,-0.249023,-0.206543,0.92749,-17.578125,-12.756348,30.944824,,,,,,,,,,,1.0,1.0,1.0,1.0,0.0,0.0,0.0,3.0,0.0,-0.3382389333333334,-0.12472326666666665,0.9535384533333335,-2.6806640400000004,-3.1616211200000004,5.175781186666667,-1.1900108978304802,-9.807693427815941,29.7535182658885,-18.32436949764965,15.88992321365438,31.35273380747259,39.63919896295156,-2.7715171064146626,39.86336782454977,-2.77135084122819,0.08921593333333339,-0.08181973333333335,-0.0260484533333335,0.19708412000000025,0.12382436530963695,0.06712410991091722,0.08758022233363091,0.13310232514043177
LBP05_S01,LBP05,143,144,1,143,143,1715760673.72,2024-05-15 08:11:13.720000+00:00,2024-05-15 17:11:13.720000+09:00,2024,5,15,8,11,13,720,,,,,,,,,-0.299805,-0.230225,0.954834,-2.563477,-6.225586,28.991699,,,,,,,,,,,1.0,1.0,1.0,1.0,0.0,0.0,0.0,3.0,0.0,-0.3357487066666667,-0.12540361333333336,0.9537793333333332,-2.4121093466666665,-2.99072268,4.7111002,2.888013464276396,-6.139452123394134,33.47745866912278,-18.208848959078594,15.644345128718616,32.6918321542375,40.559383680251315,-2.7674889866440404,40.39867273535178,-2.7687691152384795,0.035943706666666686,-0.10482138666666665,0.0010546666666667592,0.1418197600000001,0.11081780305275862,0.06747535250320955,0.08639546766282712,0.13082768652545676
LBP05_S01,LBP05,144,145,1,144,144,1715760673.76,2024-05-15 08:11:13.760000+00:00,2024-05-15 17:11:13.760000+09:00,2024,5,15,8,11,13,760,,,,,,,,,-0.339355,-0.217529,1.0,16.174316,-5.615234,35.095215,,,,,,,,,,,1.0,1.0,1.0,1.0,0.0,0.0,0.0,3.0,0.0,-0.33451824,-0.12577796,0.9544010666666666,-2.2159830400000002,-2.675781266666667,4.248860626666667,6.781893180559601,-2.651545729361936,34.05084200087514,-17.93757323185621,15.538283299544139,34.05386583427251,41.507355487958144,-2.7653964485249287,41.000414792326204,-2.766320451579228,-0.0048367599999999955,-0.09175104,0.045598933333333425,0.14218673333333343,0.10257148877498555,0.06897794347182133,0.08187547001666175,0.12495174201452651
LBP05_S01,LBP05,145,146,1,145,145,1715760673.8,2024-05-15 08:11:13.800000+00:00,2024-05-15 17:11:13.800000+09:00,2024,5,15,8,11,13,800,,,,,,,,,-0.316406,-0.137451,1.024414,17.028809,3.662109,24.780273,,,,,,,,,,,1.0,1.0,1.0,1.0,0.0,0.0,0.0,3.0,0.0,-0.33397461333333334,-0.12544266666666665,0.9551725466666666,-2.1801757600000005,-2.552083346666667,3.579915306666667,9.494701119642432,0.03761214650687873,31.534700855381487,-17.55778518707051,15.539787785404414,35.315253868487765,42.39018731836953,-2.7658232014206243,41.61923940836124,-2.763900694237221,0.017568613333333316,-0.012008333333333343,0.06924145333333331,0.09881839999999997,0.07243780162051301,0.06569956220350988,0.07669298955734115,0.12143141691344345
LBP05_S01,LBP05,146,147,1,146,146,1715760673.84,2024-05-15 08:11:13.840000+00:00,2024-05-15 17:11:13.840000+09:00,2024,5,15,8,11,13,840,,,,,,,,,-0.284668,-0.105957,0.971924,23.31543,8.056641,21.118164,,,,,,,,,,,1.0,1.0,1.0,1.0,0.0,0.0,0.0,3.0,0.0,-0.33208984,-0.1261881066666667,0.9557910400000001,-2.4023437333333337,-2.556152346666667,3.2234700000000003,10.248549718380206,1.4858564667677052,26.406022700689327,-17.147843198335302,15.599222044075121,36.37149477651534,43.130846119837905,-2.762117870251559,42.21092069219345,-2.7613038685269244,0.04742184000000005,0.020231106666666693,0.016132959999999863,0.0837859066666666,0.054022226761817636,0.06425381707829605,0.07283196984492407,0.11754880661857657
LBP05_S01,LBP05,147,148,1,147,147,1715760673.88,2024-05-15 08:11:13.880000+00:00,2024-05-15 17:11:13.880000+09:00,2024,5,15,8,11,13,880,,,,,,,,,-0.230713,0.217773,0.804443,18.859863,3.967285,32.775879,,,,,,,,,,,1.0,1.0,1.0,1.0,0.0,0.0,0.0,3.0,0.0,-0.33008788,-0.12735673333333333,0.9550716399999999,-2.5740559733333335,-2.4332682266666668,3.0818684400000005,8.704681804748514,1.5512283584484612,19.502805182311008,-16.799655926145363,15.66127117841306,37.15160698380778,43.6777489763378,-2.7570937901616928,42.74334634798982,-2.7582372965821733,0.09937488,0.3451297333333333,-0.15062863999999987,0.5951332533333331,0.3894597370640535,0.07351959075442034,0.07932637757836412,0.12125517840041769
LBP05_S01,LBP05,148,149,1,148,148,1715760673.92,2024-05-15 08:11:13.920000+00:00,2024-05-15 17:11:13.920000+09:00,2024,5,15,8,11,13,920,,,,,,,,,-0.418457,-0.164795,1.039307,15.075684,32.775879,34.790039,,,,,,,,,,,1.0,1.0,1.0,1.0,0.0,0.0,0.0,3.0,0.0,-0.3292708266666666,-0.12859695999999998,0.9551953333333334,-2.7490234266666667,-2.4446614533333335,3.126627546666667,5.064176640820361,0.44352266350143216,11.924708176828219,-16.59708886051255,15.679012084953117,37.62859531088091,44.01370199919457,-2.753000378388736,43.20076408031919,-2.7542713068999194,-0.0891861733333334,-0.036198040000000015,0.08411166666666658,0.20949588,0.12782505264277977,0.07528920322032935,0.08074529442376673,0.12123472060892361
LBP05_S01,LBP05,149,150,1,149,149,1715760673.96,2024-05-15 08:11:13.960000+00:00,2024-05-15 17:11:13.960000+09:00,2024,5,15,8,11,13,960,,,,,,,,,-0.311279,0.132324,0.875977,25.45166,-9.277344,-1.159668,,,,,,,,,,,1.0,1.0,1.0,1.0,0.0,0.0,0.0,3.0,0.0,-0.32876628,-0.12942378666666668,0.9546875200000001,-2.95817056,-2.5032552133333335,3.4586588,0.01345963783876497,-1.323773860264279,4.882132585123939,-16.596550474999,15.626061130542546,37.82388061428587,44.161807241647075,-2.7502888975311097,43.58442915075094,-2.749910421283314,0.01748728000000005,0.26174778666666665,-0.07871052000000012,0.3579455866666668,0.27388511231055923,0.08298529216161059,0.0826474778717515,0.12339217469590968
LBP05_S01,LBP05,150,151,1,150,150,1715760674.0,2024-05-15 08:11:14+00:00,2024-05-15 17:11:14+09:00,2024,5,15,8,11,14,0,8.0,11.0,13.0,40.549709,141.543625,3.359,3.0,12.0,-0.272705,0.190674,0.98584,-38.391113,-22.644043,-12.084961,-552.0,14.0,549.0,39.0,0.0,1024.699951,22.59,0.115944,-94.839767,3.986719,1.0,1.0,1.0,1.0,0.0,0.0,0.0,5.0,0.0,-0.32892252,-0.13036129333333332,0.9559440266666667,-3.1770833200000004,-2.6627604133333334,3.7443033333333333,-5.472859841406061,-3.0793852206135828,-0.5026830291322407,-16.81546486865524,15.502885721718002,37.80377329312058,44.18398578271638,-2.7479755326268926,43.9099171569191,-2.745031159930148,0.05621752000000002,0.32103529333333336,0.02989597333333338,0.40714878666666676,0.3272886162733394,0.09305659678481369,0.08739680566319516,0.1273122609434521
LBP05_S01,LBP05,151,152,1,151,151,1715760674.04,2024-05-15 08:11:14.040000+00:00,2024-05-15 17:11:14.040000+09:00,2024,5,15,8,11,14,40,,,,,,,,,-0.324219,-0.135254,1.010254,-53.161621,-16.418457,-25.32959,,,,,,,,,,,1.0,1.0,1.0,1.0,0.0,0.0,0.0,5.0,0.0,-0.32748046666666664,-0.13221025333333333,0.9566536666666665,-3.527832013333334,-2.8922526000000004,4.119466093333334,-10.408490121223931,-4.197805438272611,-3.4116750583809745,-17.231804473504198,15.334973504187097,37.66730629078534,44.16924791063389,-2.741670753857486,44.202146707072316,-2.739738072979393,0.003261466666666657,-0.00304374666666668,0.05360033333333347,0.05990554666666681,0.053785660654426116,0.09319743848530253,0.08726632853381078,0.12459624722919235
LBP05_S01,LBP05,152,153,1,152,152,1715760674.08,2024-05-15 08:11:14.080000+00:00,2024-05-15 17:11:14.080000+09:00,2024,5,15,8,11,14,80,,,,,,,,,-0.265625,-0.153564,1.003418,-19.40918,-9.033203,2.746582,,,,,,,,,,,1.0,1.0,1.0,1.0,0.0,0.0,0.0,5.0,0.0,-0.32574869333333334,-0.13526038666666668,0.9567806133333334,-3.8142903466666667,-3.0883789066666667,4.36035152,-14.05282638652992,-4.2917561900979795,-3.5084410555066543,-17.793917528965395,15.163303256583179,37.526968648565074,44.21337628624525,-2.731857209592126,44.48931384689565,-2.7340917449319244,0.06012369333333334,-0.01830361333333333,0.0466373866666665,0.12506469333333317,0.07826191025136718,0.09390866326472205,0.08674090083541319,0.12107564893962376
LBP05_S01,LBP05,153,154,1,153,153,1715760674.12,2024-05-15 08:11:14.120000+00:00,2024-05-15 17:11:14.120000+09:00,2024,5,15,8,11,14,120,,,,,,,,,-0.289551,-0.147461,0.982422,1.403809,-0.671387,2.13623,,,,,,,,,,,1.0,1.0,1.0,1.0,0.0,0.0,0.0,5.0,0.0,-0.3236979066666667,-0.13748369333333335,0.95644208,-3.8102213333333337,-3.3569336,4.371744746666667,-16.056913676285372,-3.326586016475161,-1.022111382995646,-18.43619407601681,15.030239815924173,37.48608419324525,44.396034384568864,-2.723880130477983,44.79672726913132,-2.7284867689033003,0.0341469066666667,-0.009977306666666658,0.025979920000000045,0.0701041333333334,0.04405126702410681,0.0933268086607778,0.08639033884026177,0.1187257182137313
LBP05_S01,LBP05,154,155,1,154,154,1715760674.16,2024-05-15 08:11:14.160000+00:00,2024-05-15 17:11:14.160000+09:00,2024,5,15,8,11,14,160,,,,,,,,,-0.281494,-0.110596,0.950684,-4.455566,-3.662109,-5.310059,,,,,,,,,,,1.0,1.0,1.0,1.0,0.0,0.0,0.0,5.0,0.0,-0.32180662666666665,-0.13950192,0.9568945466666666,-3.8354491866666662,-3.52864584,4.2309569866666665,-16.460457241412144,-1.6214158271052255,3.2902166979716987,-19.094612365673296,14.965383182839963,37.617692861164116,44.762235549639726,-2.7166038349932706,45.1413601057529,-2.7223637111454084,0.04031262666666663,0.02890592,-0.00621054666666665,0.07542909333333328,0.049992309105614294,0.09414625471478104,0.08588732558831896,0.11517109125360162
LBP05_S01,LBP05,155,156,1,155,155,1715760674.2,2024-05-15 08:11:14.200000+00:00,2024-05-15 17:11:14.200000+09:00,2024,5,15,8,11,14,200,,,,,,,,,-0.243896,-0.185059,0.943604,-13.244629,-8.850098,-1.098633,,,,,,,,,,,1.0,1.0,1.0,1.0,0.0,0.0,0.0,5.0,0.0,-0.32054360000000004,-0.14040686666666666,0.9570898666666666,-3.5196939733333337,-3.70035808,4.060058546666666,-15.573091507720468,0.2579478403773336,8.29639679565996,-19.717536025982113,14.975701096455056,37.949548732990515,45.31248281990173,-2.7128923319130793,45.52794386656154,-2.7160955420676305,0.07664760000000004,-0.044652133333333344,-0.013485866666666624,0.1347856,0.08972478028242195,0.09634489754887757,0.0862975384210386,0.11377400929270079
LBP05_S01,LBP05,156,157,1,156,156,1715760674.24,2024-05-15 08:11:14.240000+00:00,2024-05-15 17:11:14.240000+09:00,2024,5,15,8,11,14,240,,,,,,,,,-0.205811,-0.167236,0.984619,-5.859375,6.469727,17.822266,,,,,,,,,,,1.0,1.0,1.0,1.0,0.0,0.0,0.0,5.0,0.0,-0.31888345333333334,-0.1424902,0.9578222800000001,-3.309733026666667,-3.8387044266666672,3.902994746666667,-13.81347715154953,1.6796216680063816,12.727367547302368,-20.270075112044093,15.042885963175312,38.45864343488261,46.00251751807117,-2.705654589776869,45.9474317127972,-2.7093718438406547,0.11307245333333335,-0.024745799999999984,0.026796719999999885,0.16461497333333322,0.118809926029845,0.09896157910560911,0.08833859205537445,0.11246713029066067
LBP05_S01,LBP05,157,158,1,157,157,1715760674.28,2024-05-15 08:11:14.280000+00:00,2024-05-15 17:11:14.280000+09:00,2024,5,15,8,11,14,280,,,,,,,,,-0.246582,-0.164062,1.001465,-10.864258,19.836426,25.20752,,,,,,,,,,,1.0,1.0,1.0,1.0,0.0,0.0,0.0,5.0,0.0,-0.3170638,-0.14349605333333332,0.9582780133333334,-3.1681314666666665,-3.9884440133333334,3.7060546400000005,-11.574335233339008,2.148075342523354,15.454593026610963,-20.733048521377654,15.128808976876247,39.07682715594705,46.75188319869449,-2.7010440298754514,46.37836570192036,-2.7025876215777394,0.07048180000000001,-0.020565946666666696,0.04318698666666665,0.13423473333333336,0.08518073790994665,0.09931555317983826,0.08814042367146126,0.10947755564903187
LBP05_S01,LBP05,158,159,1,158,158,1715760674.32,2024-05-15 08:11:14.320000+00:00,2024-05-15 17:11:14.320000+09:00,2024,5,15,8,11,14,320,,,,,,,,,-0.340332,-0.165527,0.956787,-5.432129,22.216797,31.12793,,,,,,,,,,,1.0,1.0,1.0,1.0,0.0,0.0,0.0,5.0,0.0,-0.31504232,-0.14618812,0.9592643466666667,-3.1477864133333338,-4.15364584,3.59456376,-9.150255094855423,1.4680322441580849,15.74716824269325,-21.099058725171872,15.18753026664257,39.70671388565478,47.46003036541049,-2.6917698008098205,46.791007706177226,-2.696446132304271,-0.025289680000000037,-0.019338880000000003,-0.0024773466666666577,0.0471059066666667,0.03193270174388078,0.10011200423335825,0.0883090944458885,0.10850582801049297
LBP05_S01,LBP05,159,160,1,159,159,1715760674.36,2024-05-15 08:11:14.360000+00:00,2024-05-15 17:11:14.360000+09:00,2024,5,15,8,11,14,360,,,,,,,,,-0.31958,-0.106934,0.9104,-9.033203,1.708984,27.709961,,,,,,,,,,,1.0,1.0,1.0,1.0,0.0,0.0,0.0,5.0,0.0,-0.3128776133333333,-0.14685218666666666,0.9600586133333333,-3.00048824,-4.287923173333334,3.427734333333333,-6.732412805339339,-0.18666058045146422,13.442772388916127,-21.368355237385448,15.180063843424511,40.24442478121142,48.027644849733434,-2.6876072067533263,47.153278330075096,-2.690610017295125,-0.006702386666666671,0.03991818666666666,-0.049658613333333324,0.09627918666666666,0.06406529085217569,0.09944294304142842,0.0885464125259927,0.10703625048136223
LBP05_S01,LBP05,160,161,1,160,160,1715760674.4,2024-05-15 08:11:14.400000+00:00,2024-05-15 17:11:14.400000+09:00,2024,5,15,8,11,14,400,,,,,,,,,-0.449707,-0.166748,0.947266,-14.770508,-4.211426,12.573242,,,,,,,,,,,1.0,1.0,1.0,1.0,0.0,0.0,0.0,5.0,0.0,-0.30956056,-0.14802081333333333,0.9607812666666669,-2.9915364133333338,-4.180501293333333,3.1770832933333333,-4.450297333860591,-2.3298302563326425,8.980171855060044,-21.54636713073987,15.086870633171205,40.60363165541382,48.37886424507291,-2.6807385503571353,47.437022636597746,-2.685107102276218,-0.14014644000000004,-0.018727186666666673,-0.013515266666666803,0.17238889333333351,0.1420365959821373,0.10291258736076796,0.09064096529376492,0.10473366019432431
LBP05_S01,LBP05,161,162,1,161,161,1715760674.44,2024-05-15 08:11:14.440000+00:00,2024-05-15 17:11:14.440000+09:00,2024,5,15,8,11,14,440,,,,,,,,,-0.401855,-0.15332,0.943848,-13.183594,-19.775391,-1.953125,,,,,,,,,,,1.0,1.0,1.0,1.0,0.0,0.0,0.0,5.0,0.0,-0.30730144,-0.1496484133333333,0.9616373866666666,-2.8312174,-4.084472653333333,3.011067666666667,-2.4268614380680416,-4.3303311603699965,3.277307225459142,-21.643441588262593,14.913657386756405,40.73472394443219,48.47858780186554,-2.6738285312283327,47.62316677995031,-2.6795836653702896,-0.09455356000000004,-0.0036715866666666985,-0.01778938666666663,0.11601453333333336,0.09628249339989398,0.10472907327036955,0.09077789928452307,0.10374519822591473
LBP05_S01,LBP05,162,163,1,162,162,1715760674.48,2024-05-15 08:11:14.480000+00:00,2024-05-15 17:11:14.480000+09:00,2024,5,15,8,11,14,480,,,,,,,,,-0.364014,-0.207031,1.003906,0.671387,-24.963379,-13.366699,,,,,,,,,,,1.0,1.0,1.0,1.0,0.0,0.0,0.0,5.0,0.0,-0.30503581333333335,-0.14991209333333333,0.9622721599999999,-2.56510412,-3.9453125066666668,2.7718098533333335,-0.8125509976147487,-5.629270250681426,-2.513243382652503,-21.675943628167182,14.688486576729149,40.63419420912609,48.339796328813904,-2.6704423168574403,47.704847712997996,-2.674431843193532,-0.058978186666666654,-0.05711890666666666,0.04163384000000003,0.15773093333333335,0.09205635575249085,0.10765810222340448,0.08992428663489575,0.10218619941712985
LBP05_S01,LBP05,163,164,1,163,163,1715760674.52,2024-05-15 08:11:14.520000+00:00,2024-05-15 17:11:14.520000+09:00,2024,5,15,8,11,14,520,,,,,,,,,-0.272705,-0.150635,0.988281,4.943848,-15.686035,-24.169922,,,,,,,,,,,1.0,1.0,1.0,1.0,0.0,0.0,0.0,5.0,0.0,-0.30236002666666667,-0.15055012,0.9626953466666667,-2.29980464,-3.799641933333333,2.6326497066666663,0.22255474084763285,-5.925327419362289,-7.299675580496165,-21.66704143853328,14.451473479954657,40.34220718590625,48.01874062354756,-2.6655189803865222,47.68823116589935,-2.6693857305680853,0.029655026666666695,-8.487999999998164e-05,0.02558565333333329,0.05532555999999997,0.0391669946218576,0.10746454084640085,0.0897102472359518,0.09878012312619293
LBP05_S01,LBP05,164,165,1,164,164,1715760674.56,2024-05-15 08:11:14.560000+00:00,2024-05-15 17:11:14.560000+09:00,2024,5,15,8,11,14,560,,,,,,,,,-0.270752,-0.156494,0.977295,4.272461,1.586914,-19.714355,,,,,,,,,,,1.0,1.0,1.0,1.0,0.0,0.0,0.0,5.0,0.0,-0.3000716133333333,-0.1509798,0.9633724266666664,-2.09309892,-3.6816406400000004,2.49755856,0.5355968557295698,-5.261046580744682,-10.309949572060573,-21.645617564304096,14.24103161672487,39.92980920302382,47.59967861486623,-2.6615746848042026,47.591188210932955,-2.6649062472601073,0.029319613333333328,-0.005514199999999997,0.013922573333333577,0.0487563866666669,0.03292239626573723,0.10775152193842072,0.08777444579277609,0.09747454640653862
LBP05_S01,LBP05,165,166,1,165,165,1715760674.6,2024-05-15 08:11:14.600000+00:00,2024-05-15 17:11:14.600000+09:00,2024,5,15,8,11,14,600,,,,,,,,,-0.299561,-0.112305,0.944092,5.79834,2.746582,-14.465332,,,,,,,,,,,1.0,1.0,1.0,1.0,0.0,0.0,0.0,5.0,0.0,-0.29786132,-0.15141925333333336,0.9640462533333333,-1.9954426666666665,-3.5522461066666664,2.484537733333333,0.07284967357914282,-3.985361225118013,-11.242010326427188,-21.64270357736093,14.081617167720148,39.480128789966734,47.17392425342736,-2.657657962853795,47.440228224321054,-2.6606684308331747,-0.0016996800000000367,0.03911425333333336,-0.019954253333333227,0.060768186666666626,0.04394298524244137,0.108082766674297,0.08667344856656867,0.09575647020978524
LBP05_S01,LBP05,166,167,1,166,166,1715760674.64,2024-05-15 08:11:14.640000+00:00,2024-05-15 17:11:14.640000+09:00,2024,5,15,8,11,14,640,,,,,,,,,-0.275146,-0.133545,0.992432,1.89209,-9.216309,-13.73291,,,,,,,,,,,1.0,1.0,1.0,1.0,0.0,0.0,0.0,5.0,0.0,-0.29610675999999997,-0.15190753333333334,0.9641601866666666,-2.0003254666666668,-3.4659830933333335,2.4739582933333333,-1.0845011195505425,-2.6156425739822735,-10.271791310867131,-21.686083622142952,13.976991464760857,39.06925713753205,46.819326848548066,-2.654136368009298,47.26619733358991,-2.6568663402395085,0.020960759999999967,0.018362533333333347,0.028271813333333395,0.06759510666666671,0.03969674444271501,0.10736165413486005,0.08525472275846462,0.09438828090324905
LBP05_S01,LBP05,167,168,1,167,167,1715760674.68,2024-05-15 08:11:14.680000+00:00,2024-05-15 17:11:14.680000+09:00,2024,5,15,8,11,14,680,,,,,,,,,-0.217041,-0.177734,1.02002,0.427246,8.544922,4.638672,,,,,,,,,,,1.0,1.0,1.0,1.0,0.0,0.0,0.0,5.0,0.0,-0.29404621333333336,-0.15225258666666666,0.9646777599999999,-1.8929035866666668,-3.5009765866666673,2.4137369466666665,-2.7138996484121045,-1.6543307559626543,-7.933230732211556,-21.794639608079436,13.91081823452235,38.75192790824359,46.58571772770806,-2.6505829036209807,47.09935556988704,-2.653151328280756,0.07700521333333335,-0.02548141333333334,0.05534223999999999,0.15782886666666668,0.09819301825585135,0.10633640025270863,0.08673025508181292,0.09383228163999015
LBP05_S01,LBP05,168,169,1,168,168,1715760674.72,2024-05-15 08:11:14.720000+00:00,2024-05-15 17:11:14.720000+09:00,2024,5,15,8,11,14,720,,,,,,,,,-0.268799,-0.117676,0.953125,-7.8125,21.484375,15.808105,,,,,,,,,,,1.0,1.0,1.0,1.0,0.0,0.0,0.0,5.0,0.0,-0.29236652,-0.15279296,0.9654004133333335,-1.8432616666666668,-3.49283856,2.2648111733333334,-4.490524224072307,-1.4234701095698281,-4.924217083216138,-21.97426057704233,13.853879430139557,38.55495922491494,46.48960081574646,-2.6469749677300394,46.96456399915163,-2.6495420703805057,0.02356752000000001,0.03511696,-0.012275413333333485,0.0709598933333335,0.044037650381192936,0.10366519414584602,0.0855702733245278,0.09215204315716674
LBP05_S01,LBP05,169,170,1,169,169,1715760674.76,2024-05-15 08:11:14.760000+00:00,2024-05-15 17:11:14.760000+09:00,2024,5,15,8,11,14,760,,,,,,,,,-0.380371,-0.155762,0.93042,-15.258789,6.408691,3.90625,,,,,,,,,,,1.0,1.0,1.0,1.0,0.0,0.0,0.0,5.0,0.0,-0.29057616,-0.15256836,0.9657324533333334,-1.6601562,-3.5294596533333342,2.0654296666666667,-6.060024999246463,-1.9706693308700005,-1.9110194824796891,-22.21666157701219,13.775052656904757,38.47851844561575,46.51804498361448,-2.6452290424840017,46.87737997508181,-2.6457397818275954,-0.08979484000000004,-0.0031936400000000253,-0.03531245333333333,0.1283009333333334,0.09654160754562797,0.1034239988966717,0.08620097118424651,0.08905831297666507
LBP05_S01,LBP05,170,171,1,170,170,1715760674.8,2024-05-15 08:11:14.800000+00:00,2024-05-15 17:11:14.800000+09:00,2024,5,15,8,11,14,800,,,,,,,,,-0.367676,-0.168213,0.963867,-7.202148,-13.183594,-0.671387,,,,,,,,,,,1.0,1.0,1.0,1.0,0.0,0.0,0.0,5.0,0.0,-0.2887565066666667,-0.15260741333333333,0.9661621333333333,-1.67399084,-3.5245768400000004,1.97672524,-7.1200821080709344,-3.075854677339982,0.6056451117382913,-22.501464861335027,13.652018469811157,38.50274425008528,46.638555337761424,-2.6427176444204745,46.84178052798777,-2.641648617971771,-0.07891949333333331,-0.015605586666666671,-0.00229513333333331,0.0968202133333333,0.08048036033852397,0.10374570124539215,0.08472263172445102,0.0857105601200248
LBP05_S01,LBP05,171,172,1,171,171,1715760674.84,2024-05-15 08:11:14.840000+00:00,2024-05-15 17:11:14.840000+09:00,2024,5,15,8,11,14,840,,,,,,,,,-0.301514,-0.163574,0.970215,-12.390137,-26.916504,-6.530762,,,,,,,,,,,1.0,1.0,1.0,1.0,0.0,0.0,0.0,5.0,0.0,-0.28713866666666665,-0.15405273333333333,0.9667708533333332,-1.83024084,-3.5774739866666674,2.1980794,-7.483471950639526,-4.350563573543532,2.3339165109939675,-22.800803739360607,13.477995926869415,38.59610091052504,46.81017016483684,-2.6366784116408093,46.849965502902094,-2.637861924093655,-0.014375333333333351,-0.009521266666666667,0.003444146666666814,0.027340746666666832,0.01758314174553953,0.10228813784474103,0.08327097746151853,0.08265069251152972
LBP05_S01,LBP05,172,173,1,172,172,1715760674.88,2024-05-15 08:11:14.880000+00:00,2024-05-15 17:11:14.880000+09:00,2024,5,15,8,11,14,880,,,,,,,,,-0.225098,-0.220703,0.981445,-6.408691,-15.930176,-3.112793,,,,,,,,,,,1.0,1.0,1.0,1.0,0.0,0.0,0.0,5.0,0.0,-0.28389648000000006,-0.15327148,0.9666536666666667,-1.7122395466666667,-3.51725264,2.292480453333333,-7.104390178612083,-5.382887385189437,3.156708600677024,-23.08497934650509,13.262680431461838,38.72236925455212,46.99188062145982,-2.6343497378549325,46.884275969915755,-2.63409561823842,0.05879848000000007,-0.06743152000000002,0.014791333333333267,0.14102133333333336,0.09068106021435009,0.09033699077075288,0.08192829076258662,0.08299658197582704
LBP05_S01,LBP05,173,174,1,173,173,1715760674.92,2024-05-15 08:11:14.920000+00:00,2024-05-15 17:11:14.920000+09:00,2024,5,15,8,11,14,920,,,,,,,,,-0.258789,-0.169434,0.951416,2.258301,4.272461,-2.563477,,,,,,,,,,,1.0,1.0,1.0,1.0,0.0,0.0,0.0,5.0,0.0,-0.28209634666666666,-0.15488605333333336,0.96674156,-1.8400064666666671,-3.2967122800000004,2.3795572799999998,-6.065655586722237,-5.865367619794697,3.0620720477490098,-23.32760556997398,13.02806572667005,38.84485213646208,47.14690038284933,-2.6274960948574204,46.92081024159853,-2.6304918268595285,0.023307346666666673,-0.014547946666666645,-0.01532555999999996,0.05318085333333328,0.03146025985541051,0.08648239905925811,0.08088580113979373,0.08265766263559719
LBP05_S01,LBP05,174,175,1,174,174,1715760674.96,2024-05-15 08:11:14.960000+00:00,2024-05-15 17:11:14.960000+09:00,2024,5,15,8,11,14,960,,,,,,,,,-0.294922,-0.196533,0.961182,-4.943848,-1.403809,-2.01416,,,,,,,,,,,1.0,1.0,1.0,1.0,0.0,0.0,0.0,5.0,0.0,-0.28060872,-0.15665362666666666,0.9675130533333334,-1.7569986533333335,-3.213704466666667,2.3014322933333333,-4.539054721814346,-5.661952876444059,2.0834789311894015,-23.50916775884655,12.801587611612288,38.92819129370966,47.24368414392582,-2.6206630462459612,46.93396593084668,-2.62710311653715,-0.01431328000000004,-0.03987937333333336,-0.006331053333333392,0.06052370666666679,0.04284059567895027,0.07724061839399375,0.08011295527780217,0.0808451913791656
LBP05_S01,LBP05,175,176,1,175,175,1715760675.0,2024-05-15 08:11:15+00:00,2024-05-15 17:11:15+09:00,2024,5,15,8,11,15,0,8.0,11.0,14.0,40.549706,141.543625,3.327,3.0,11.0,-0.264893,-0.203613,0.965576,-2.502441,-7.751465,2.13623,-551.0,21.0,552.0,45.0,0.0,1024.5,22.65,0.113962,-93.190956,3.986719,1.0,1.0,1.0,1.0,0.0,0.0,0.0,4.0,0.0,-0.27953776,-0.15641274666666666,0.9676920933333334,-1.5087890133333335,-3.0712890933333337,2.1036783866666666,-2.737887111945801,-4.807770633157773,0.2786912459142417,-23.618683243324384,12.609276786285976,38.939338943546225,47.25577400257071,-2.6197910240726343,46.90099864836544,-2.6237470604347735,0.014644760000000034,-0.04720025333333333,-0.002116093333333402,0.06396110666666677,0.04946524801498344,0.06612768366365952,0.07959214022423661,0.0803070983300166
LBP05_S01,LBP05,176,177,1,176,176,1715760675.04,2024-05-15 08:11:15.040000+00:00,2024-05-15 17:11:15.040000+09:00,2024,5,15,8,11,15,40,,,,,,,,,-0.269287,-0.177246,0.988281,1.037598,3.173828,-0.183105,,,,,,,,,,,1.0,1.0,1.0,1.0,0.0,0.0,0.0,4.0,0.0,-0.27801432,-0.15683592,0.9679915733333333,-1.5104166266666668,-2.86458336,1.9401041733333333,-0.8778751776270106,-3.4642718708023463,-2.2489920032912663,-23.653798250429464,12.470705911453882,38.849379263414576,47.16243151868462,-2.61647330945694,46.805803689982966,-2.6207886309442747,0.008727319999999983,-0.020410079999999997,0.020289426666666666,0.049426826666666646,0.030073215898051942,0.06517918587340454,0.07918831217935354,0.0799039476470087
LBP05_S01,LBP05,177,178,1,177,177,1715760675.08,2024-05-15 08:11:15.080000+00:00,2024-05-15 17:11:15.080000+09:00,2024,5,15,8,11,15,80,,,,,,,,,-0.284668,-0.172852,0.95459,0.183105,1.403809,-1.77002,,,,,,,,,,,1.0,1.0,1.0,1.0,0.0,0.0,0.0,4.0,0.0,-0.27657550666666664,-0.15678057333333334,0.9681999066666667,-1.3712564800000002,-2.541503933333334,1.8627929733333333,0.8463304018247716,-1.8593501412902849,-5.30512705108326,-23.619945034356473,12.39633190580227,38.63717418137124,46.95106044453579,-2.6145449898320745,46.64141710545934,-2.618586951732997,-0.00809249333333334,-0.016071426666666666,-0.013609906666666616,0.03777382666666662,0.02256122254948666,0.06295115836532933,0.07842991081502569,0.07881098667871855
LBP05_S01,LBP05,178,179,1,178,178,1715760675.12,2024-05-15 08:11:15.120000+00:00,2024-05-15 17:11:15.120000+09:00,2024,5,15,8,11,15,120,,,,,,,,,-0.278076,-0.180176,0.978271,-1.647949,-3.173828,1.77002,,,,,,,,,,,1.0,1.0,1.0,1.0,0.0,0.0,0.0,4.0,0.0,-0.27460935999999997,-0.156263,0.9687532933333334,-1.1881510133333335,-2.076822946666667,1.6967773466666665,2.270800830317197,-0.23402820201227265,-8.564435085217955,-23.529113001143784,12.38697077772178,38.294596777962525,46.621157708227976,-2.613087864506253,46.41104831833417,-2.616659431301357,-0.003466640000000021,-0.02391299999999999,0.009517706666666625,0.036897346666666636,0.02596990377499135,0.06222790383536471,0.07777735624807126,0.07833619383862941
LBP05_S01,LBP05,179,180,1,179,179,1715760675.16,2024-05-15 08:11:15.160000+00:00,2024-05-15 17:11:15.160000+09:00,2024,5,15,8,11,15,160,,,,,,,,,-0.281006,-0.159424,0.963379,0.610352,-3.540039,-4.577637,,,,,,,,,,,1.0,1.0,1.0,1.0,0.0,0.0,0.0,4.0,0.0,-0.27298826666666665,-0.15590493333333336,0.9685482133333333,-1.0481770533333337,-1.4884440400000003,1.4184570266666667,3.2652164417542866,1.1948611211155518,-11.5675273546673,-23.39850434347361,12.434765222566401,37.831895683775834,46.18837215880201,-2.611668481460233,46.12768456020494,-2.6151656209750773,-0.008017733333333332,-0.0035190666666666537,-0.005169213333333311,0.016706013333333297,0.010168020677319636,0.06063493229823292,0.07739059350650698,0.07746986115829028
LBP05_S01,LBP05,180,181,1,180,180,1715760675.2,2024-05-15 08:11:15.200000+00:00,2024-05-15 17:11:15.200000+09:00,2024,5,15,8,11,15,200,,,,,,,,,-0.240479,-0.164551,0.965332,8.605957,2.746582,-18.249512,,,,,,,,,,,1.0,1.0,1.0,1.0,0.0,0.0,0.0,4.0,0.0,-0.2729915333333333,-0.15537433333333334,0.9690885866666668,-0.9252929333333335,-0.9309896133333336,1.3167317733333332,3.7368278721345174,2.2570109837543915,-13.77280704624502,-23.24903122858823,12.525045661916577,37.28098340192603,45.68660575393679,-2.6131333495154885,45.812425647278424,-2.6141103444937146,0.032512533333333316,-0.009176666666666666,-0.0037565866666667835,0.045445786666666765,0.03399099848851751,0.05840558102647675,0.07737523928767714,0.07700021928951797
LBP05_S01,LBP05,181,182,1,181,181,1715760675.24,2024-05-15 08:11:15.240000+00:00,2024-05-15 17:11:15.240000+09:00,2024,5,15,8,11,15,240,,,,,,,,,-0.275879,-0.173828,0.978271,-1.220703,5.371094,-18.066406,,,,,,,,,,,1.0,1.0,1.0,1.0,0.0,0.0,0.0,4.0,0.0,-0.27271484,-0.15466794666666667,0.9692773866666666,-1.0205077733333334,-0.5582682533333335,1.1808268266666666,3.6397927518451123,2.842126367060701,-14.66130702711177,-23.103439518514424,12.638730716599005,36.69453112084156,45.16630431960055,-2.614661619528032,45.49175826833122,-2.611814775347605,-0.0031641599999999714,-0.019160053333333343,0.008993613333333372,0.03131782666666669,0.02140104280242647,0.05450922569738001,0.07673540240149455,0.07706213660270965
LBP05_S01,LBP05,182,183,1,182,182,1715760675.28,2024-05-15 08:11:15.280000+00:00,2024-05-15 17:11:15.280000+09:00,2024,5,15,8,11,15,280,,,,,,,,,-0.259033,-0.168701,0.979492,9.521484,1.831055,-21.789551,,,,,,,,,,,1.0,1.0,1.0,1.0,0.0,0.0,0.0,4.0,0.0,-0.27200521333333333,-0.15413084,0.9687239999999999,-1.3533528133333335,-0.236002626666667,0.9106445333333333,2.9885038930600274,2.909016040581269,-13.869162861660552,-22.983899362792023,12.755091358222256,36.13976460637514,44.68819275020811,-2.6150745335385364,45.19402324460142,-2.6095328472663426,0.012972213333333316,-0.014570159999999999,0.01076800000000011,0.038310373333333425,0.022282677244691962,0.051993303270769814,0.07565442822530404,0.07609138353789745
