file_name,test_id,_program_index,program_index,session_id,index,_index,unixtime,datetime_utc,datetime_jst,rtc_year,rtc_month,rtc_day,rtc_hour,rtc_min,rtc_sec,rtc_msec,gps_hour,gps_min,gps_sec,latitude,longitude,altitude,fix_type,SIV,acc_x,acc_y,acc_z,gyro_x,gyro_y,gyro_z,mag_x,mag_y,mag_z,illuminance,atmopress,water_pressure,water_temp,depth,alt_wps,battery_level,behavior_class,camera_command,camera_recording,camera_count,play_audio,speaker_on,audio_file,prev_sd_write_time_ms,delay_occurred_counter,acc_x_ma,acc_y_ma,acc_z_ma,gyro_x_ma,gyro_y_ma,gyro_z_ma,gyro_x_lowpass,gyro_y_lowpass,gyro_z_lowpass,angle_x,angle_y,angle_z,combined_angle_change,gravity_adjusted_angle,smoothed_angle_change,smoothed_gravity_angle,acc_x_dy,acc_y_dy,acc_z_dy,ODBA,VeDBA,smoothed_VeDBA_1s,smoothed_VeDBA_2s,smoothed_VeDBA_3s
LBP05_S10,LBP05,-1650,1,10,0,-1650,1715804265.0,2024-05-15 20:17:45+00:00,2024-05-16 05:17:45+09:00,2024,5,15,20,17,45,0,20.0,17.0,45.0,40.67794,141.608536,8.612,3.0,9.0,-0.04126,0.158936,1.08374,-13.366699,25.634766,-10.742188,-568.0,56.0,552.0,28.0,0.0,1020.299988,16.08,0.072341,-58.496948,3.789844,0.0,1.0,1.0,10.0,0.0,0.0,0.0,5.0,0.0,,,,,,,-13.416968576898093,24.356855773802927,-10.715048167774913,-0.5366787430759237,0.9742742309521171,-0.42860192671099656,1.1920293460931535,,2.735507719238137,,,,,,,,,
LBP05_S10,LBP05,-1649,2,10,1,-1649,1715804265.04,2024-05-15 20:17:45.040000+00:00,2024-05-16 05:17:45.040000+09:00,2024,5,15,20,17,45,40,,,,,,,,,-0.408447,0.029541,0.059814,-45.10498,110.900879,-51.513672,,,,,,,,,,,0.0,1.0,1.0,10.0,0.0,0.0,0.0,5.0,0.0,,,,,,,-16.091228977495046,17.237348475164353,-3.755092694240304,-1.1803279021757254,1.6637681699586913,-0.5788056344806087,2.1204514713920575,,3.033432803141919,,,,,,,,,
LBP05_S10,LBP05,-1648,3,10,2,-1648,1715804265.08,2024-05-15 20:17:45.080000+00:00,2024-05-16 05:17:45.080000+09:00,2024,5,15,20,17,45,80,,,,,,,,,-0.170898,0.008789,0.110352,-133.300781,-59.448242,-10.559082,,,,,,,,,,,0.0,1.0,1.0,10.0,0.0,0.0,0.0,5.0,0.0,,,,,,,-17.7714424303896,10.615968054791777,2.2459861749139054,-1.8911855993913096,2.0884068921503625,-0.4889661874840525,2.8595653954803852,,3.312931610150705,,,,,,,,,
LBP05_S10,LBP05,-1647,4,10,3,-1647,1715804265.12,2024-05-15 20:17:45.120000+00:00,2024-05-16 05:17:45.120000+09:00,2024,5,15,20,17,45,120,,,,,,,,,0.231201,-0.359863,0.445801,-110.534668,-87.70752,4.211426,,,,,,,,,,,0.0,1.0,1.0,10.0,0.0,0.0,0.0,5.0,0.0,,,,,,,-18.050200255703423,4.935241442634086,6.463751150500712,-2.6131936096194464,2.285816549855726,-0.23041614146402406,3.479486993681312,,3.580630519407543,,,,,,,,,
LBP05_S10,LBP05,-1646,5,10,4,-1646,1715804265.16,2024-05-15 20:17:45.160000+00:00,2024-05-16 05:17:45.160000+09:00,2024,5,15,20,17,45,160,,,,,,,,,0.439453,-0.368408,0.979248,89.660645,46.264648,47.790527,,,,,,,,,,,0.0,1.0,1.0,10.0,0.0,0.0,0.0,5.0,0.0,,,,,,,-17.17137795287133,0.44991940635786865,8.36352061672835,-3.3000487277343,2.3038133261100406,0.10412468320510992,4.026005389543777,,3.8439256087992555,,,,,,,,,
LBP05_S10,LBP05,-1645,6,10,5,-1645,1715804265.2,2024-05-15 20:17:45.200000+00:00,2024-05-16 05:17:45.200000+09:00,2024,5,15,20,17,45,200,,,,,,,,,-0.607178,0.121582,1.395996,21.362305,101.501465,32.897949,,,,,,,,,,,0.0,1.0,1.0,10.0,0.0,0.0,0.0,5.0,0.0,,,,,,,-15.853290651607791,-2.7901522075557352,7.840423263902969,-3.9341803537986113,2.192207237807811,0.4177416137612287,4.523058222660831,,4.109332300375064,,,,,,,,,
LBP05_S10,LBP05,-1644,7,10,6,-1644,1715804265.24,2024-05-15 20:17:45.240000+00:00,2024-05-16 05:17:45.240000+09:00,2024,5,15,20,17,45,240,,,,,,,,,-0.744385,-0.541748,1.89917,-3.601074,-71.166992,-1.464844,,,,,,,,,,,0.0,1.0,1.0,10.0,0.0,0.0,0.0,5.0,0.0,,,,,,,-14.87671671792955,-4.869201336732592,5.278379775789997,-4.529249022515794,1.9974391843385073,0.6288768047928286,4.989924452203419,,4.698918113524276,,,,,,,,,
LBP05_S10,LBP05,-1643,8,10,7,-1643,1715804265.28,2024-05-15 20:17:45.280000+00:00,2024-05-16 05:17:45.280000+09:00,2024,5,15,20,17,45,280,,,,,,,,,-0.027588,-0.343994,1.386963,44.250488,-61.767578,8.483887,,,,,,,,,,,0.0,1.0,1.0,10.0,0.0,0.0,0.0,5.0,0.0,,,,,,,-14.6798291938129,-5.913791055883717,1.473905536948592,-5.11644219026831,1.7608875421031587,0.6878330262707723,5.454522884205408,,5.25476617325929,,,,,,,,,
LBP05_S10,LBP05,-1642,9,10,8,-1642,1715804265.32,2024-05-15 20:17:45.320000+00:00,2024-05-16 05:17:45.320000+09:00,2024,5,15,20,17,45,320,,,,,,,,,-0.219238,0.061279,0.385986,10.498047,111.938477,-33.26416,,,,,,,,,,,0.0,1.0,1.0,10.0,0.0,0.0,0.0,5.0,0.0,,,,,,,-15.169416137267138,-6.038481675053011,-2.570199308119095,-5.7232188357589955,1.5193482751010383,0.5850250539460085,5.950286323932957,,5.7904384970225,,,,,,,,,
LBP05_S10,LBP05,-1641,10,10,9,-1641,1715804265.36,2024-05-15 20:17:45.360000+00:00,2024-05-16 05:17:45.360000+09:00,2024,5,15,20,17,45,360,,,,,,,,,-0.097412,-0.112305,0.142578,-112.182617,-44.98291,-15.930176,,,,,,,,,,,0.0,1.0,1.0,10.0,0.0,0.0,0.0,5.0,0.0,,,,,,,-15.817337669908797,-5.341253170792312,-5.913655828092343,-6.355912342555348,1.3056981482693457,0.34847882082231474,6.497992524557343,,6.307836885953626,,,,,,,,,
LBP05_S10,LBP05,-1640,11,10,10,-1640,1715804265.4,2024-05-15 20:17:45.400000+00:00,2024-05-16 05:17:45.400000+09:00,2024,5,15,20,17,45,400,,,,,,,,,0.147217,-0.096191,0.431396,-80.26123,-74.768066,-18.432617,,,,,,,,,,,0.0,1.0,1.0,10.0,0.0,0.0,0.0,5.0,0.0,,,,,,,-15.95642736607715,-3.9334972827578074,-7.915065435464266,-6.994169437198433,1.1483582569590334,0.031876203403744086,7.087887477585269,,6.801887171179496,,,,,,,,,
LBP05_S10,LBP05,-1639,12,10,11,-1639,1715804265.44,2024-05-15 20:17:45.440000+00:00,2024-05-16 05:17:45.440000+09:00,2024,5,15,20,17,45,440,,,,,,,,,0.397949,-0.230957,0.925537,39.18457,26.916504,-8.544922,,,,,,,,,,,0.0,1.0,1.0,10.0,0.0,0.0,0.0,5.0,0.0,,,,,,,-15.098635630904711,-1.9793677365120244,-8.358931738286447,-7.598114862434622,1.0691835474985525,-0.3024810661277138,7.678932068742193,,7.265276236907208,,,,,,,,,
LBP05_S10,LBP05,-1638,13,10,12,-1638,1715804265.48,2024-05-15 20:17:45.480000+00:00,2024-05-16 05:17:45.480000+09:00,2024,5,15,20,17,45,480,,,,,,,,,-0.432617,-0.250977,1.488525,-26.062012,81.420898,-2.075195,,,,,,,,,,,0.0,1.0,1.0,10.0,0.0,0.0,0.0,5.0,0.0,,,,,,,-13.116317604079871,0.2856975955150568,-7.444739589863442,-8.122767566597817,1.0806114513191547,-0.6002706497222514,8.21628863311249,,7.691027062105347,,,,,,,,,
LBP05_S10,LBP05,-1637,14,10,13,-1637,1715804265.52,2024-05-15 20:17:45.520000+00:00,2024-05-16 05:17:45.520000+09:00,2024,5,15,20,17,45,520,,,,,,,,,-0.71582,-0.522461,1.812988,-11.84082,-82.580566,7.629395,,,,,,,,,,,0.0,1.0,1.0,10.0,0.0,0.0,0.0,5.0,0.0,,,,,,,-10.235547376947414,2.5732669240144626,-5.662192116299398,-8.532189461675713,1.1835421282797332,-0.8267583343742273,8.653470882992574,,8.073026890589519,,,,,,,,,
LBP05_S10,LBP05,-1636,15,10,14,-1636,1715804265.56,2024-05-15 20:17:45.560000+00:00,2024-05-16 05:17:45.560000+09:00,2024,5,15,20,17,45,560,,,,,,,,,-0.035889,0.027588,1.43457,87.585449,-49.072266,9.033203,,,,,,,,,,,0.0,1.0,1.0,10.0,0.0,0.0,0.0,5.0,0.0,,,,,,,-6.902480938805771,4.589712252561036,-3.6116166138475867,-8.808288699227944,1.3671306183821745,-0.9712229989281308,8.966508241802472,,8.406058460457524,,,,,,,,,
LBP05_S10,LBP05,-1635,16,10,15,-1635,1715804265.6,2024-05-15 20:17:45.600000+00:00,2024-05-16 05:17:45.600000+09:00,2024,5,15,20,17,45,600,,,,,,,,,-0.338623,0.010986,0.414551,-31.12793,137.695312,-4.638672,,,,,,,,,,,0.0,1.0,1.0,10.0,0.0,0.0,0.0,5.0,0.0,,,,,,,-3.6267910892122104,6.100459110143272,-1.8351568409078216,-8.953360342796433,1.6111489827879053,-1.0446292725644437,9.15694887993795,,8.686687221829667,,,,,,,,,
LBP05_S10,LBP05,-1634,17,10,16,-1634,1715804265.64,2024-05-15 20:17:45.640000+00:00,2024-05-16 05:17:45.640000+09:00,2024,5,15,20,17,45,640,,,,,,,,,-0.21875,-0.418457,0.272217,-104.187012,-15.197754,-4.150391,,,,,,,,,,,0.0,1.0,1.0,10.0,0.0,0.0,0.0,5.0,0.0,,,,,,,-0.8718167493408174,6.995262955144868,-0.7048653569410874,-8.988233012770065,1.8909595009937,-1.0728238868420872,9.247432704184819,,8.91484283060579,,,,,,,,,
LBP05_S10,LBP05,-1633,18,10,17,-1633,1715804265.68,2024-05-15 20:17:45.680000+00:00,2024-05-16 05:17:45.680000+09:00,2024,5,15,20,17,45,680,,,,,,,,,0.32959,-0.04126,0.627197,30.334473,-57.861328,-7.568359,,,,,,,,,,,0.0,1.0,1.0,10.0,0.0,0.0,0.0,5.0,0.0,,,,,,,1.0106250243222175,7.324400601488181,-0.3811987431421133,-8.947808011797177,2.183935525053227,-1.0880718365677717,9.274521169047125,,9.094555981194208,,,,,,,,,
LBP05_S10,LBP05,-1632,19,10,18,-1632,1715804265.72,2024-05-15 20:17:45.720000+00:00,2024-05-16 05:17:45.720000+09:00,2024,5,15,20,17,45,720,,,,,,,,,0.411865,-0.273193,1.030273,13.977051,24.108887,1.220703,,,,,,,,,,,0.0,1.0,1.0,10.0,0.0,0.0,0.0,5.0,0.0,,,,,,,1.8471175362580041,7.278505982376819,-0.8278641014355105,-8.873923310346857,2.4750757643482997,-1.1211864006251921,9.280602022613001,,9.232702738885907,,,,,,,,,
LBP05_S10,LBP05,-1631,20,10,19,-1631,1715804265.76,2024-05-15 20:17:45.760000+00:00,2024-05-16 05:17:45.760000+09:00,2024,5,15,20,17,45,760,,,,,,,,,-0.458984,-0.212158,1.523438,54.6875,104.797363,-1.708984,,,,,,,,,,,0.0,1.0,1.0,10.0,0.0,0.0,0.0,5.0,0.0,,,,,,,1.7284316956617745,7.116218482300345,-1.8585933313611234,-8.804786042520385,2.7597245036403137,-1.1955301338796371,9.30428013827877,,9.336331042626128,,,,,,,,,
LBP05_S10,LBP05,-1630,21,10,20,-1630,1715804265.8,2024-05-15 20:17:45.800000+00:00,2024-05-16 05:17:45.800000+09:00,2024,5,15,20,17,45,800,,,,,,,,,-0.866211,-0.307617,1.869141,6.774902,-75.317383,4.394531,,,,,,,,,,,0.0,1.0,1.0,10.0,0.0,0.0,0.0,5.0,0.0,,,,,,,1.0607811308074615,7.0671016899628585,-3.1964978262111807,-8.762354797288086,3.0424085712388282,-1.3233900469280844,9.369443565346522,,9.410260729853277,,,,,,,,,
LBP05_S10,LBP05,-1629,22,10,21,-1629,1715804265.84,2024-05-15 20:17:45.840000+00:00,2024-05-16 05:17:45.840000+09:00,2024,5,15,20,17,45,840,,,,,,,,,-0.131836,-0.215332,1.743652,36.743164,-91.674805,-14.892578,,,,,,,,,,,0.0,1.0,1.0,10.0,0.0,0.0,0.0,5.0,0.0,,,,,,,0.5006859178783505,7.242653968317502,-4.535926462612591,-8.742327360572952,3.3321147299715284,-1.5048271054325881,9.476063574626348,,9.456248495598512,,,,,,,,,
LBP05_S10,LBP05,-1628,23,10,22,-1628,1715804265.88,2024-05-15 20:17:45.880000+00:00,2024-05-16 05:17:45.880000+09:00,2024,5,15,20,17,45,880,,,,,,,,,-0.211914,-0.057617,0.712402,-36.743164,133.850098,1.586914,,,,,,,,,,,0.0,1.0,1.0,10.0,0.0,0.0,0.0,5.0,0.0,,,,,,,0.7454340658943631,7.595857251516727,-5.60090643056409,-8.712509997937177,3.6359490200321973,-1.7288633626551517,9.597756210029491,,9.473764225209036,,,,,,,,,
LBP05_S10,LBP05,-1627,24,10,23,-1627,1715804265.92,2024-05-15 20:17:45.920000+00:00,2024-05-16 05:17:45.920000+09:00,2024,5,15,20,17,45,920,,,,,,,,,-0.26416,-0.195801,0.152588,-129.455566,-7.629395,-17.700195,,,,,,,,,,,0.0,1.0,1.0,10.0,0.0,0.0,0.0,5.0,0.0,,,,,,,2.2504132423789542,7.96064940728611,-6.192835744417398,-8.62249346824202,3.954374996323642,-1.9765767924318476,9.689753920394782,,9.461455714965664,,,,,,,,,
LBP05_S10,LBP05,-1626,25,10,24,-1626,1715804265.96,2024-05-15 20:17:45.960000+00:00,2024-05-16 05:17:45.960000+09:00,2024,5,15,20,17,45,960,,,,,,,,,0.306641,-0.455566,0.797119,39.794922,-43.884277,-1.464844,,,,,,,,,,,0.0,1.0,1.0,10.0,0.0,0.0,0.0,5.0,0.0,,,,,,,5.0163123361657815,8.154538827198442,-6.218771355378058,-8.421840974795389,4.280556549411579,-2.22532764664697,9.70580511407396,,9.418274547276141,,,,,,,,,
LBP05_S10,LBP05,-1625,26,10,25,-1625,1715804266.0,2024-05-15 20:17:46+00:00,2024-05-16 05:17:46+09:00,2024,5,15,20,17,46,0,20.0,17.0,46.0,40.677856,141.60849,8.673,3.0,9.0,0.222168,0.148926,1.282227,74.157715,81.604004,-9.643555,-567.0,75.0,543.0,24.0,0.0,1021.400024,16.09,0.083242,-67.59491,3.789844,0.0,1.0,1.0,10.0,0.0,0.0,0.0,4.0,0.0,,,,,,,8.570737084401411,8.081451557341477,-5.694906966012622,-8.079011491419333,4.603814611705238,-2.453123925287475,9.61682653739029,,9.343829580133647,,,,,,,,,
LBP05_S10,LBP05,-1624,27,10,26,-1624,1715804266.04,2024-05-15 20:17:46.040000+00:00,2024-05-16 05:17:46.040000+09:00,2024,5,15,20,17,46,40,,,,,,,,,-0.781006,-0.225098,1.733643,22.521973,59.753418,2.197266,,,,,,,,,,,0.0,1.0,1.0,10.0,0.0,0.0,0.0,4.0,0.0,,,,,,,12.158000596913437,7.773789327962012,-4.727332855651927,-7.592691467542796,4.914766184823719,-2.6422172395135517,9.422590000290075,,9.238249563139039,,,,,,,,,
LBP05_S10,LBP05,-1623,28,10,27,-1623,1715804266.08,2024-05-15 20:17:46.080000+00:00,2024-05-16 05:17:46.080000+09:00,2024,5,15,20,17,46,80,,,,,,,,,-0.730469,-0.508301,1.94873,0.610352,-125.732422,1.647949,,,,,,,,,,,0.0,1.0,1.0,10.0,0.0,0.0,0.0,4.0,0.0,,,,,,,15.030862617055895,7.351869128759258,-3.4800256856015688,-6.9914569628605605,5.208840949974089,-2.7814182669376146,9.151436066613405,,9.102143220633895,,,,,,,,,
LBP05_S10,LBP05,-1622,29,10,28,-1622,1715804266.12,2024-05-15 20:17:46.120000+00:00,2024-05-16 05:17:46.120000+09:00,2024,5,15,20,17,46,120,,,,,,,,,0.047852,-0.120117,1.412598,27.099609,-4.02832,3.173828,,,,,,,,,,,0.0,1.0,1.0,10.0,0.0,0.0,0.0,4.0,0.0,,,,,,,16.703296069344063,6.928828347506335,-2.1431616510077935,-6.323325120086798,5.485994083874343,-2.8671447329779265,8.848790345717774,,8.936966255973628,,,,,,,,,
LBP05_S10,LBP05,-1621,30,10,29,-1621,1715804266.16,2024-05-15 20:17:46.160000+00:00,2024-05-16 05:17:46.160000+09:00,2024,5,15,20,17,46,160,,,,,,,,,-0.455566,-0.089355,0.226318,41.19873,119.934082,-21.789551,,,,,,,,,,,0.0,1.0,1.0,10.0,0.0,0.0,0.0,4.0,0.0,,,,,,,17.077587817568304,6.525291165906213,-0.9097888696226056,-5.640221607384066,5.747005730510591,-2.903536287762831,8.559830466853839,,8.7455700274904,,,,,,,,,
LBP05_S10,LBP05,-1620,31,10,30,-1620,1715804266.2,2024-05-15 20:17:46.200000+00:00,2024-05-16 05:17:46.200000+09:00,2024,5,15,20,17,46,200,,,,,,,,,-0.086182,-0.056641,0.371826,-27.832031,-48.034668,-4.516602,,,,,,,,,,,0.0,1.0,1.0,10.0,0.0,0.0,0.0,4.0,0.0,,,,,,,16.432991548542248,6.046645311522741,0.041989511244226285,-4.982901945442376,5.988871542971501,-2.901856707313062,8.313643395400423,,8.532513317731091,,,,,,,,,
LBP05_S10,LBP05,-1619,32,10,31,-1619,1715804266.24,2024-05-15 20:17:46.240000+00:00,2024-05-16 05:17:46.240000+09:00,2024,5,15,20,17,46,240,,,,,,,,,0.347412,-0.208984,0.803955,21.789551,-51.513672,12.207031,,,,,,,,,,,0.0,1.0,1.0,10.0,0.0,0.0,0.0,4.0,0.0,,,,,,,15.309686153520246,5.32467013574457,0.5707991314685682,-4.370514499301566,6.201858348401284,-2.879024742054319,8.115000149574913,,8.304085657524782,,,,,,,,,
LBP05_S10,LBP05,-1618,33,10,32,-1618,1715804266.28,2024-05-15 20:17:46.280000+00:00,2024-05-16 05:17:46.280000+09:00,2024,5,15,20,17,46,280,,,,,,,,,0.063721,-0.003662,1.19165,20.141602,79.284668,15.74707,,,,,,,,,,,0.0,1.0,1.0,10.0,0.0,0.0,0.0,4.0,0.0,,,,,,,14.339525564202356,4.191804801961144,0.6003806650811668,-3.796933476733472,6.36953054047973,-2.8550095154510724,7.945986563426817,,8.068441096936889,,,,,,,,,
LBP05_S10,LBP05,-1617,34,10,33,-1617,1715804266.32,2024-05-15 20:17:46.320000+00:00,2024-05-16 05:17:46.320000+09:00,2024,5,15,20,17,46,320,,,,,,,,,-0.741943,-0.204346,1.750732,35.766602,36.865234,-5.67627,,,,,,,,,,,0.0,1.0,1.0,10.0,0.0,0.0,0.0,4.0,0.0,,,,,,,14.07102610445981,2.5582914618501174,0.14242691089398005,-3.2340924325550793,6.471862198953735,-2.8493124390153133,7.775791635562498,,7.836053084853885,-2.293900989105892,,,,,,,,
LBP05_S10,LBP05,-1616,35,10,34,-1616,1715804266.36,2024-05-15 20:17:46.360000+00:00,2024-05-16 05:17:46.360000+09:00,2024,5,15,20,17,46,360,,,,,,,,,-0.416748,-0.367432,1.879883,-3.112793,-112.854004,-10.192871,,,,,,,,,,,0.0,1.0,1.0,10.0,0.0,0.0,0.0,4.0,0.0,,,,,,,14.81940323038325,0.46859483694624854,-0.7034153081283647,-2.6413163033397495,6.490605992431585,-2.877449051340448,7.575238016480881,,7.6197473641446125,-2.2990149683450776,,,,,,,,
LBP05_S10,LBP05,-1615,36,10,35,-1615,1715804266.4,2024-05-15 20:17:46.400000+00:00,2024-05-16 05:17:46.400000+09:00,2024,5,15,20,17,46,400,,,,,,,,,0.075195,-0.177979,1.104492,3.051758,59.082031,9.033203,,,,,,,,,,,0.0,1.0,1.0,10.0,0.0,0.0,0.0,4.0,0.0,,,,,,,16.562918509786286,-1.8814452959862362,-1.777529918755861,-1.9787995629482982,6.415348180592136,-2.9485502480906822,7.332549935327194,,7.432985295521402,-2.300954011571627,,,,,,,,
LBP05_S10,LBP05,-1614,37,10,36,-1614,1715804266.44,2024-05-15 20:17:46.440000+00:00,2024-05-16 05:17:46.440000+09:00,2024,5,15,20,17,46,440,,,,,,,,,-0.499268,0.054932,0.087646,-1.525879,63.354492,-12.207031,,,,,,,,,,,0.0,1.0,1.0,10.0,0.0,0.0,0.0,4.0,0.0,,,,,,,18.91279035423508,-4.170937160980713,-2.9043017132570945,-1.222287948778895,6.248510694152907,-3.064722316620966,7.066144394411137,,7.286512994958142,-2.299401640511184,,,,,,,,
LBP05_S10,LBP05,-1613,38,10,37,-1613,1715804266.48,2024-05-15 20:17:46.480000+00:00,2024-05-16 05:17:46.480000+09:00,2024,5,15,20,17,46,480,,,,,,,,,-0.120361,-0.181641,0.207764,12.756348,-71.655273,-10.314941,,,,,,,,,,,0.0,1.0,1.0,10.0,0.0,0.0,0.0,4.0,0.0,-0.15405928,-0.17519858666666666,0.9594367999999999,-0.9887694800000004,1.4567056666666665,-0.24088547999999985,21.186577356511314,-6.017906395340653,-3.9325182303703206,-0.3748248545184423,6.007794438339281,-3.222023045835779,6.827555945783383,-2.293900989105892,7.185925422324649,-2.308461744436026,0.03369828,-0.006442413333333341,-0.7516727999999999,0.7918134933333333,0.7524553654698435,0.7524553654698435,0.7524553654698435,0.7524553654698435
LBP05_S10,LBP05,-1612,39,10,38,-1612,1715804266.52,2024-05-15 20:17:46.520000+00:00,2024-05-16 05:17:46.520000+09:00,2024,5,15,20,17,46,520,,,,,,,,,0.401367,-0.015381,0.598633,36.987305,-71.472168,-2.990723,,,,,,,,,,,0.0,1.0,1.0,10.0,0.0,0.0,0.0,4.0,0.0,-0.16180666666666668,-0.18018557333333335,0.9659927866666665,-0.5957030800000005,2.1671548799999996,0.2506509866666668,22.59129198540277,-7.069462077189516,-4.756084285351525,0.5288268248976685,5.7250159552517,-3.41226641724984,6.685733138625033,-2.3041289475842626,7.132369597052744,-2.3169961702520934,0.5631736666666667,0.16480457333333334,-0.3673597866666666,1.0953380266666666,0.6922993132151285,0.7223773393424859,0.7223773393424859,0.7223773393424859
LBP05_S10,LBP05,-1611,40,10,39,-1611,1715804266.56,2024-05-15 20:17:46.560000+00:00,2024-05-16 05:17:46.560000+09:00,2024,5,15,20,17,46,560,,,,,,,,,0.262939,-0.119141,1.154541,46.142578,59.936523,-10.314941,,,,,,,,,,,0.0,1.0,1.0,10.0,0.0,0.0,0.0,4.0,0.0,-0.16666669333333334,-0.18533205333333336,0.99025712,-0.38167313333333386,-1.1564128266666671,0.8504231200000001,22.474691335070524,-7.089309544745737,-5.308285218724464,1.4278144783004896,5.4414435734618705,-3.6245978259988183,6.692209780621745,-2.3048320980247268,7.125630029098062,-2.3165638002389666,0.4296056933333333,0.06619105333333336,0.16428388000000005,0.6600806266666668,0.4646843019875372,0.6364796602241697,0.6364796602241697,0.6364796602241697
LBP05_S10,LBP05,-1610,41,10,40,-1610,1715804266.6,2024-05-15 20:17:46.600000+00:00,2024-05-16 05:17:46.600000+09:00,2024,5,15,20,17,46,600,,,,,,,,,-0.567627,-0.495117,1.644775,48.339844,41.687012,7.93457,,,,,,,,,,,0.0,1.0,1.0,10.0,0.0,0.0,0.0,4.0,0.0,-0.16205081333333335,-0.18396812,1.0055338133333334,1.8766276399999993,-0.6892904266666672,0.6689452533333334,20.55858084866127,-6.005786318618696,-5.53563043611594,2.2501577122469403,5.2012121207171225,-3.8460230434434557,6.848920389767803,-2.2947445273298555,7.1670436478306385,-2.3122369195186696,-0.4055761866666666,-0.31114887999999996,0.6392411866666667,1.3559662533333334,0.8184955488256106,0.68198363237453,0.68198363237453,0.68198363237453
LBP05_S10,LBP05,-1609,42,10,41,-1609,1715804266.64,2024-05-15 20:17:46.640000+00:00,2024-05-16 05:17:46.640000+09:00,2024,5,15,20,17,46,640,,,,,,,,,-0.605957,-0.126465,1.707031,30.456543,-96.801758,4.882812,,,,,,,,,,,0.0,1.0,1.0,10.0,0.0,0.0,0.0,4.0,0.0,-0.1710677333333333,-0.17516604000000002,1.00058264,3.3341471733333328,2.0353189599999997,0.10009760000000019,17.05795233143228,-3.910411071365018,-5.369964581367425,2.9324758055042315,5.044795677862521,-4.060821626698153,7.109124423240003,-2.344702160135393,7.260235390939712,-2.31132519393555,-0.43488926666666666,0.04870104000000003,0.70644836,1.1900386666666667,0.8310052652695061,0.7117879589535252,0.7117879589535252,0.7117879589535252
LBP05_S10,LBP05,-1608,43,10,42,-1608,1715804266.68,2024-05-15 20:17:46.680000+00:00,2024-05-16 05:17:46.680000+09:00,2024,5,15,20,17,46,680,,,,,,,,,0.168213,-0.011475,1.135498,5.554199,3.295898,-0.488281,,,,,,,,,,,0.0,1.0,1.0,10.0,0.0,0.0,0.0,4.0,0.0,-0.17858401333333332,-0.17730797333333334,0.9925813333333334,0.515950546666666,0.7267252133333331,-0.4003906799999998,12.628321156848624,-1.0265649905127536,-4.721958441500105,3.4376086517781763,5.0037330782420115,-4.249699964358157,7.410428310707767,-2.359668299332431,7.409202544416199,-2.311022443271006,0.34679701333333335,0.16583297333333333,0.14291666666666647,0.6555466533333332,0.4101145170712752,0.6615090519731502,0.6615090519731502,0.6615090519731502
LBP05_S10,LBP05,-1607,44,10,43,-1607,1715804266.72,2024-05-15 20:17:46.720000+00:00,2024-05-16 05:17:46.720000+09:00,2024,5,15,20,17,46,720,,,,,,,,,-0.442871,0.076172,0.069092,-17.63916,102.478027,-24.047852,,,,,,,,,,,0.0,1.0,1.0,10.0,0.0,0.0,0.0,4.0,0.0,-0.16396161333333334,-0.17888674666666668,0.9828645333333332,0.4207356933333326,-1.569824266666667,-0.5737305199999997,8.157257479639709,2.3330788089653907,-3.5084994165376617,3.763898950963765,5.097056230600627,-4.390039941019663,7.70839595601567,-2.3139695801602063,7.614848017317419,-2.311551717362856,-0.27890938666666665,0.25505874666666667,-0.9137725333333332,1.4477406666666663,0.9888506726985448,0.7082721406482066,0.7082721406482066,0.7082721406482066
LBP05_S10,LBP05,-1606,45,10,44,-1606,1715804266.76,2024-05-15 20:17:46.760000+00:00,2024-05-16 05:17:46.760000+09:00,2024,5,15,20,17,46,760,,,,,,,,,-0.030518,-0.238281,0.314209,-58.166504,-54.077148,-2.441406,,,,,,,,,,,0.0,1.0,1.0,10.0,0.0,0.0,0.0,4.0,0.0,-0.14866538666666668,-0.17326174666666666,0.9735774266666668,0.7486979333333326,0.587565053333333,-0.35970057333333305,4.489172070506049,5.811044858152693,-1.7042284395647043,3.943465833784007,5.3294980249267345,-4.458209078602251,7.989374203806659,-2.28194875447659,7.872293976969528,-2.314443714480325,0.11814738666666667,-0.06501925333333333,-0.6593684266666668,0.8425350666666669,0.6730178529318985,0.7038653546836681,0.7038653546836681,0.7038653546836681
LBP05_S10,LBP05,-1605,46,10,45,-1605,1715804266.8,2024-05-15 20:17:46.800000+00:00,2024-05-16 05:17:46.800000+09:00,2024,5,15,20,17,46,800,,,,,,,,,0.327393,-0.16333,0.643555,13.61084,-54.6875,-5.737305,,,,,,,,,,,0.0,1.0,1.0,10.0,0.0,0.0,0.0,4.0,0.0,-0.15807293333333333,-0.17602215999999998,0.9793716933333333,0.08382163999999924,2.0019530666666663,-0.2750651599999997,2.2036721153794643,9.041518010673487,0.6112153016688611,4.0316127183991854,5.691158745353674,-4.433760466535497,8.26446736641792,-2.304031389270592,8.17134311873576,-2.3178644069858665,0.4854659333333333,0.01269215999999998,-0.3358166933333333,0.8339747866666666,0.5904329893171655,0.6912617585318345,0.6912617585318345,0.6912617585318345
LBP05_S10,LBP05,-1604,47,10,46,-1604,1715804266.84,2024-05-15 20:17:46.840000+00:00,2024-05-16 05:17:46.840000+09:00,2024,5,15,20,17,46,840,,,,,,,,,0.275635,-0.109863,1.156494,20.019531,86.425781,6.774902,,,,,,,,,,,0.0,1.0,1.0,10.0,0.0,0.0,0.0,4.0,0.0,-0.16522462666666668,-0.18238934666666667,0.99971024,0.986328146666666,-1.6959636000000005,0.25797520000000024,1.5328142330056034,11.676464261306132,3.2385160602436542,4.092925287719409,6.158217315805919,-4.3042198241257505,8.555815929176012,-2.30829768729011,8.500136846111232,-2.319780283435051,0.44085962666666667,0.07252634666666667,0.15678375999999994,0.6701697333333333,0.4734959649091255,0.6694851791695635,0.6694851791695635,0.6694851791695635
LBP05_S10,LBP05,-1603,48,10,47,-1603,1715804266.88,2024-05-15 20:17:46.880000+00:00,2024-05-16 05:17:46.880000+09:00,2024,5,15,20,17,46,880,,,,,,,,,-0.730469,-0.541992,1.691162,43.334961,64.086914,15.136719,,,,,,,,,,,0.0,1.0,1.0,10.0,0.0,0.0,0.0,4.0,0.0,-0.15923830666666666,-0.1790788,1.01411128,2.698567733333333,-0.9741211600000005,0.562337186666667,2.416053123473544,13.410622308292293,5.886101343447323,4.189567412658351,6.69464220813761,-4.068775770387858,8.884010674795574,-2.29919373002439,8.848844628949788,-2.314196480689263,-0.5712306933333333,-0.36291320000000005,0.67705072,1.6111946133333332,0.9572921044241611,0.6956494451017997,0.6956494451017997,0.6956494451017997
LBP05_S10,LBP05,-1602,49,10,48,-1602,1715804266.92,2024-05-15 20:17:46.920000+00:00,2024-05-16 05:17:46.920000+09:00,2024,5,15,20,17,46,920,,,,,,,,,-0.565918,-0.367676,1.880615,54.870605,-100.036621,12.695312,,,,,,,,,,,0.0,1.0,1.0,10.0,0.0,0.0,0.0,4.0,0.0,-0.16724286666666666,-0.17540368,1.0087955333333334,2.866210959999999,1.5047199866666663,0.6079101066666669,4.609343976592854,14.008101178643411,8.22717281498266,4.373941171722065,7.254966255283347,-3.7396888577885514,9.260192735146138,-2.3330489187589514,9.21017449540292,-2.3110134054606,-0.3986751333333334,-0.19227232,0.8718194666666665,1.46276692,0.977742138518886,0.7191571695532235,0.7191571695532235,0.7191571695532235
LBP05_S10,LBP05,-1601,50,10,49,-1601,1715804266.96,2024-05-15 20:17:46.960000+00:00,2024-05-16 05:17:46.960000+09:00,2024,5,15,20,17,46,960,,,,,,,,,0.077637,-0.088867,1.420166,-14.160156,10.070801,6.164551,,,,,,,,,,,0.0,1.0,1.0,10.0,0.0,0.0,0.0,4.0,0.0,-0.17275718666666667,-0.17897789333333333,1.00176428,1.4160156533333326,0.733235613333333,0.6966145333333336,7.747583542351943,13.326147006350801,9.96389523843842,4.683844513416143,7.788012135537379,-3.3411330482510144,9.682701198284036,-2.339039023080146,9.576696895664314,-2.310435829640169,0.2503941866666667,0.09011089333333333,0.4184017200000001,0.7589068000000001,0.4958600821933052,0.7019804705255375,0.7019804705255375,0.7019804705255375
LBP05_S10,LBP05,-1600,51,10,50,-1600,1715804267.0,2024-05-15 20:17:47+00:00,2024-05-16 05:17:47+09:00,2024,5,15,20,17,47,0,20.0,17.0,47.0,40.677788,141.608444,8.654,3.0,9.0,-0.575928,0.127197,0.115234,-59.570312,119.689941,-2.685547,-567.0,65.0,550.0,25.0,0.0,1020.299988,16.139999,0.072341,-58.496948,3.789844,0.0,1.0,1.0,10.0,0.0,0.0,0.0,4.0,0.0,-0.16046226666666666,-0.17506513333333334,0.99291012,2.300618519999999,-0.40445969333333365,0.46061192000000023,11.32412557856716,11.341447686449396,10.882154687970717,5.13680953655883,8.241670042995354,-2.905846860732186,10.136857663522552,-2.3139032918217,9.937410296425096,-2.312839759742105,-0.41546573333333336,0.30226213333333335,-0.8776761200000001,1.5954039866666667,1.0170002676694223,0.7244818846072436,0.7244818846072436,0.7244818846072436
LBP05_S10,LBP05,-1599,52,10,51,-1599,1715804267.04,2024-05-15 20:17:47.040000+00:00,2024-05-16 05:17:47.040000+09:00,2024,5,15,20,17,47,40,,,,,,,,,-0.04541,-0.325195,0.386475,-49.01123,-51.086426,10.986328,,,,,,,,,,,0.0,1.0,1.0,10.0,0.0,0.0,0.0,4.0,0.0,-0.1515234666666667,-0.17407229333333332,0.9880175466666666,2.3836263333333325,2.4959309199999997,0.2254231066666669,14.650497651258096,8.18245150785825,10.89307962900317,5.722829442609154,8.568968103309684,-2.4701236755720593,10.59620225162556,-2.288864132677516,10.27596047333665,-2.316770242911586,0.10611346666666668,-0.1511227066666667,-0.6015425466666666,0.85877872,0.629246832116377,0.7181328811078524,0.7181328811078524,0.7181328811078524
LBP05_S10,LBP05,-1598,53,10,52,-1598,1715804267.08,2024-05-15 20:17:47.080000+00:00,2024-05-16 05:17:47.080000+09:00,2024,5,15,20,17,47,80,,,,,,,,,0.3479,-0.210449,0.807617,40.344238,-27.893066,14.892578,,,,,,,,,,,0.0,1.0,1.0,10.0,0.0,0.0,0.0,4.0,0.0,-0.16482423999999998,-0.17473636,0.99419268,1.4208984666666657,2.82307936,-6.666666645098e-08,16.90965321635257,4.147061888578275,10.063018723423456,6.399215571263257,8.734850578852816,-2.067602926635121,11.023726975239073,-2.3278375470458,10.571470224877187,-2.321269593495256,0.5127242399999999,-0.03571263999999999,-0.18657568000000002,0.7350125599999999,0.546783342199458,0.7074235349260778,0.7074235349260778,0.7074235349260778
LBP05_S10,LBP05,-1597,54,10,53,-1597,1715804267.12,2024-05-15 20:17:47.120000+00:00,2024-05-16 05:17:47.120000+09:00,2024,5,15,20,17,47,120,,,,,,,,,0.059082,-0.23999,1.283447,73.425293,79.89502,26.489258,,,,,,,,,,,0.0,1.0,1.0,10.0,0.0,0.0,0.0,4.0,0.0,-0.16472984,-0.18186526666666666,1.013212853333333,1.8383789333333327,-1.2849935466666667,0.06673170666666688,17.360886177210553,-0.32303784316064166,8.625444582202363,7.093651018351679,8.72192906512639,-1.7225851433470265,11.373619958629629,-2.3081938219558973,10.801370332866556,-2.3225489778281734,0.22381183999999998,-0.058124733333333345,0.2702341466666669,0.5521707200000002,0.35566377152293477,0.6867317841376577,0.6867317841376577,0.6867317841376577
LBP05_S10,LBP05,-1596,55,10,54,-1596,1715804267.16,2024-05-15 20:17:47.160000+00:00,2024-05-16 05:17:47.160000+09:00,2024,5,15,20,17,47,160,,,,,,,,,-0.87085,-0.501465,1.729736,73.242188,7.202148,21.66748,,,,,,,,,,,0.0,1.0,1.0,10.0,0.0,0.0,0.0,4.0,0.0,-0.15963218666666668,-0.17700523999999998,1.0221125866666667,3.4440104533333322,0.20019525333333338,0.20589186666666687,15.625364036353476,-4.71889938267476,6.955753430660007,7.718665579805818,8.5331730898194,-1.4443550061206263,11.596508211414449,-2.3059880554959515,10.944833734856866,-2.3190128048194363,-0.7112178133333333,-0.3244597600000001,0.7076234133333332,1.7433009866666667,1.0544362517285828,0.7071598101149312,0.7071598101149312,0.7071598101149312
LBP05_S10,LBP05,-1595,56,10,55,-1595,1715804267.2,2024-05-15 20:17:47.200000+00:00,2024-05-16 05:17:47.200000+09:00,2024,5,15,20,17,47,200,,,,,,,,,-0.440674,0.172852,1.66333,92.041016,-146.789551,1.281738,,,,,,,,,,,0.0,1.0,1.0,10.0,0.0,0.0,0.0,4.0,0.0,-0.16938153333333333,-0.17392256,1.01398108,1.710612013333332,1.5079752,-0.1708985066666665,11.883520752566094,-8.57316622206748,5.491242876159189,8.194006409908463,8.1902464409367,-1.2247052910742586,11.649969135533473,-2.343336220965398,10.985615474768565,-2.3169640981879134,-0.2712924666666667,0.34677456,0.64934892,1.2674159466666666,0.78454204338483,0.7112325592343997,0.7112325592343997,0.7112325592343997
LBP05_S10,LBP05,-1594,57,10,56,-1594,1715804267.24,2024-05-15 20:17:47.240000+00:00,2024-05-16 05:17:47.240000+09:00,2024,5,15,20,17,47,240,,,,,,,,,0.131592,-0.359375,1.195557,-98.144531,44.677734,-11.962891,,,,,,,,,,,0.0,1.0,1.0,10.0,0.0,0.0,0.0,4.0,0.0,-0.17416342666666668,-0.17520837333333333,1.0055142933333334,1.0392252933333324,0.3906249333333335,-0.03662115999999983,6.83924401794515,-11.561841351105816,4.6030945449107294,8.467576170626268,7.727772786892468,-1.0405815092778294,11.510913444581387,-2.353291193126809,10.913890882846632,-2.3164782339511873,0.30575542666666666,-0.18416662666666667,0.19004270666666656,0.6799647599999998,0.4043760102566514,0.6958897317855122,0.6958897317855122,0.6958897317855122
LBP05_S10,LBP05,-1593,58,10,57,-1593,1715804267.28,2024-05-15 20:17:47.280000+00:00,2024-05-16 05:17:47.280000+09:00,2024,5,15,20,17,47,280,,,,,,,,,-0.380127,-0.112305,0.064209,-49.316406,65.795898,-27.770996,,,,,,,,,,,0.0,1.0,1.0,10.0,0.0,0.0,0.0,4.0,0.0,-0.1614225466666667,-0.1768132,0.9982161066666667,0.6103515999999989,-0.9562175066666665,0.0016275333333335034,1.4464183703799798,-13.552890307828651,4.464064277881556,8.525432905441468,7.1856571745793225,-0.8620189381625672,11.183011754689268,-2.3119875733535675,10.727461910248485,-2.318312471031483,-0.2187044533333333,0.0645082,-0.9340071066666668,1.21721976,0.961437580438226,0.7085348674356414,0.7085348674356414,0.7085348674356414
LBP05_S10,LBP05,-1592,59,10,58,-1592,1715804267.32,2024-05-15 20:17:47.320000+00:00,2024-05-16 05:17:47.320000+09:00,2024,5,15,20,17,47,320,,,,,,,,,-0.070801,0.006592,0.252686,-47.973633,-70.251465,-17.63916,,,,,,,,,,,0.0,1.0,1.0,10.0,0.0,0.0,0.0,4.0,0.0,-0.1522038,-0.17167648,0.9939973466666667,1.8481445733333324,1.438802026666667,-0.18229173333333318,-3.44895445087722,-14.584360427309132,4.977728361848859,8.38747472740638,6.602282757486957,-0.6629098036886129,10.694826755049228,-2.297687188671581,10.432939270416878,-2.3198327182767686,0.0814028,0.17826847999999998,-0.7413113466666668,1.0009826266666666,0.7667780510070026,0.7111822848707033,0.7111822848707033,0.7111822848707033
LBP05_S10,LBP05,-1591,60,10,59,-1591,1715804267.36,2024-05-15 20:17:47.360000+00:00,2024-05-16 05:17:47.360000+09:00,2024,5,15,20,17,47,360,,,,,,,,,0.34082,-0.418213,0.56665,-18.737793,-83.129883,36.193848,,,,,,,,,,,0.0,1.0,1.0,10.0,0.0,0.0,0.0,4.0,0.0,-0.16135744,-0.17435877333333333,0.9965559466666667,0.6453450933333321,1.9148762533333339,-0.0789388666666665,-7.343759478210084,-14.796618243251467,5.817895308190589,8.093724348277977,6.010418027756899,-0.4301939913609893,10.090518597401028,-2.318551956764914,10.046910595495866,-2.322497651397225,0.50217744,-0.24385422666666667,-0.4299059466666667,1.1759376133333332,0.7046035680349018,0.7108962537039293,0.7108962537039293,0.7108962537039293
LBP05_S10,LBP05,-1590,61,10,60,-1590,1715804267.4,2024-05-15 20:17:47.400000+00:00,2024-05-16 05:17:47.400000+09:00,2024,5,15,20,17,47,400,,,,,,,,,0.22998,0.025146,1.010498,48.461914,60.058594,34.729004,,,,,,,,,,,0.0,1.0,1.0,10.0,0.0,0.0,0.0,4.0,0.0,-0.1615267066666667,-0.17799809333333333,1.0105956666666667,0.5973307733333323,-1.1922201066666662,-0.38004563999999985,-10.075086585806046,-14.351754454698503,6.570075051463237,7.690720884845735,5.436347849568959,-0.16739098930245977,9.419611744303216,-2.309044649454443,9.596023281089405,-2.321668156833799,0.39150670666666665,0.20314409333333333,-9.76666666667736e-05,0.5947484666666667,0.44107259443313773,0.699653601234313,0.699653601234313,0.699653601234313
LBP05_S10,LBP05,-1589,62,10,61,-1589,1715804267.44,2024-05-15 20:17:47.440000+00:00,2024-05-16 05:17:47.440000+09:00,2024,5,15,20,17,47,440,,,,,,,,,-0.552002,-0.482422,1.60498,55.053711,53.955078,33.691406,,,,,,,,,,,0.0,1.0,1.0,10.0,0.0,0.0,0.0,4.0,0.0,-0.1590202,-0.1758822,1.0184993066666665,3.345540399999999,0.7250976133333338,-0.19368497333333315,-11.634065569951996,-13.361094040146762,6.903994860979117,7.2253582620476555,4.901904087963088,0.10876880513670495,8.731912525644105,-2.307206503480467,9.114442702798403,-2.3170988068990956,-0.3929818,-0.30653980000000003,0.5864806933333335,1.2860022933333335,0.7696498864860747,0.7024534526443834,0.7024534526443834,0.7024534526443834
LBP05_S10,LBP05,-1588,63,10,62,-1588,1715804267.48,2024-05-15 20:17:47.480000+00:00,2024-05-16 05:17:47.480000+09:00,2024,5,15,20,17,47,480,,,,,,,,,-0.55957,-0.461426,1.738037,54.504395,-115.539551,4.882812,,,,,,,,,,,0.0,1.0,1.0,10.0,0.0,0.0,0.0,4.0,0.0,-0.16647789333333332,-0.17104170666666668,1.0111197466666666,2.5211588933333324,1.4290364133333335,-0.38085945333333315,-11.9750614641121,-11.847048937557757,6.684069066849352,6.746355803483172,4.4280221304607785,0.376131567810679,8.078500576922998,-2.3430400194986563,8.63814437086287,-2.313876395539997,-0.3930921066666667,-0.2903842933333333,0.7269172533333335,1.4103936533333334,0.875929868957564,0.7073924327838924,0.7091256225025828,0.7091256225025828
LBP05_S10,LBP05,-1587,64,10,63,-1587,1715804267.52,2024-05-15 20:17:47.520000+00:00,2024-05-16 05:17:47.520000+09:00,2024,5,15,20,17,47,520,,,,,,,,,0.060547,0.250244,0.958984,-22.949219,15.991211,-20.080566,,,,,,,,,,,0.0,1.0,1.0,10.0,0.0,0.0,0.0,4.0,0.0,-0.1674512,-0.17497725333333333,1.0014387466666668,2.0402018666666657,-0.45410161333333304,-0.2490235066666665,-10.99542475140752,-9.767801484100172,5.964524172431674,6.306538813426871,4.037310071096772,0.614712534707946,7.513333209419511,-2.334843153160458,8.197449577387193,-2.312488879705419,0.22799819999999998,0.4252212533333334,-0.04245474666666682,0.6956742000000001,0.48435389851238086,0.6990746161957824,0.700800743836279,0.700800743836279
LBP05_S10,LBP05,-1586,65,10,64,-1586,1715804267.56,2024-05-15 20:17:47.560000+00:00,2024-05-16 05:17:47.560000+09:00,2024,5,15,20,17,47,560,,,,,,,,,-0.397217,0.011963,0.010986,-131.469727,60.302734,-22.338867,,,,,,,,,,,0.0,1.0,1.0,10.0,0.0,0.0,0.0,4.0,0.0,-0.15360354666666665,-0.17326501333333333,0.9923306666666666,2.0743815466666655,-0.7381185466666664,-0.24251309333333315,-8.727282064114533,-7.102063357351209,4.891024548376803,5.95744753086229,3.7532275368027235,0.8103535166430181,7.087635067349838,-2.2976931098616986,7.810616404877699,-2.3144230462311524,-0.24361345333333334,0.18522801333333333,-0.9813446666666665,1.4101861333333332,1.0279563640366824,0.7216054986777481,0.7124848731291504,0.7124848731291504
LBP05_S10,LBP05,-1585,66,10,65,-1585,1715804267.6,2024-05-15 20:17:47.600000+00:00,2024-05-16 05:17:47.600000+09:00,2024,5,15,20,17,47,600,,,,,,,,,-0.107666,0.003662,0.202881,-78.369141,-69.091797,-19.592285,,,,,,,,,,,0.0,1.0,1.0,10.0,0.0,0.0,0.0,4.0,0.0,-0.15232098666666669,-0.17183272,0.98722976,2.2615560266666654,2.0222981200000003,-0.038248773333333146,-5.602410192889456,-3.953599939319459,3.5876499675167075,5.733351123146712,3.595083539229945,0.9538595153436864,6.834163352623455,-2.2976427216183617,7.481093889881734,-2.315296568198872,0.04465498666666669,0.17549472,-0.78434876,1.0044984666666665,0.8049816407195981,0.7210649423535077,0.715674416839166,0.715674416839166
LBP05_S10,LBP05,-1584,67,10,66,-1584,1715804267.64,2024-05-15 20:17:47.640000+00:00,2024-05-16 05:17:47.640000+09:00,2024,5,15,20,17,47,640,,,,,,,,,0.32666,-0.549561,0.584229,-59.387207,-85.388184,23.4375,,,,,,,,,,,0.0,1.0,1.0,10.0,0.0,0.0,0.0,4.0,0.0,-0.16220054666666664,-0.17436853333333333,0.9914192133333332,2.150065146666666,0.5395507200000003,0.1416014933333335,-2.5540371534097956,-0.6216800383405153,2.1080342297013437,5.63118963701032,3.5702163376963245,1.0381808845317402,6.747930125226052,-2.3210670795358235,7.199334526287936,-2.316731354410268,0.4888605466666667,-0.3751924666666666,-0.40719021333333316,1.2712432266666664,0.7386189078036761,0.7173694880548745,0.7164392332046496,0.7164392332046496
LBP05_S10,LBP05,-1583,68,10,67,-1583,1715804267.68,2024-05-15 20:17:47.680000+00:00,2024-05-16 05:17:47.680000+09:00,2024,5,15,20,17,47,680,,,,,,,,,0.283691,-0.157227,0.891602,119.262695,67.565918,29.23584,,,,,,,,,,,0.0,1.0,1.0,10.0,0.0,0.0,0.0,4.0,0.0,-0.15509442666666667,-0.17478846666666667,1.0075520266666667,2.416178439999999,-1.4396159466666665,0.3531900400000001,-0.795631999642991,2.411591242929809,0.47483607724203664,5.599364357024601,3.666679987413517,1.0571743276214216,6.776063819932492,-2.2981124150077865,6.947867170715156,-2.3140647701321586,0.4387854266666667,0.017561466666666664,-0.11595002666666665,0.57229692,0.45418659651131704,0.7191323712324763,0.7079794707306711,0.7079794707306711
LBP05_S10,LBP05,-1582,69,10,68,-1582,1715804267.72,2024-05-15 20:17:47.720000+00:00,2024-05-16 05:17:47.720000+09:00,2024,5,15,20,17,47,720,,,,,,,,,-0.662598,-0.125977,1.449707,87.280273,83.007812,17.76123,,,,,,,,,,,0.0,1.0,1.0,10.0,0.0,0.0,0.0,4.0,0.0,-0.15849285333333332,-0.17178390666666665,1.0048860133333333,2.751464893333332,0.7169595733333336,0.042317653333333476,-1.3325343796624876,4.596801393058092,-1.2367407379697084,5.546062981838101,3.8505520431358407,1.0077046981026332,6.826495029954291,-2.3170288539289148,6.7070208135242755,-2.30827071358129,-0.5041051466666667,0.04580690666666665,0.4448209866666668,0.9947330400000002,0.6738590221799343,0.7065327052117317,0.7069132067134606,0.7069132067134606
LBP05_S10,LBP05,-1581,70,10,69,-1581,1715804267.76,2024-05-15 20:17:47.760000+00:00,2024-05-16 05:17:47.760000+09:00,2024,5,15,20,17,47,760,,,,,,,,,-0.698242,-0.401123,1.744141,48.339844,-74.09668,0.915527,,,,,,,,,,,0.0,1.0,1.0,10.0,0.0,0.0,0.0,4.0,0.0,-0.16470378666666666,-0.17480474666666665,0.9976887466666666,0.8227539466666659,0.6844074933333337,-0.2539063066666665,-4.465553978399579,5.494910015812971,-2.8479369063037954,5.367440822702117,4.07034844376836,0.8937872218504814,6.79529344744139,-2.3272871764421117,6.459047505655022,-2.305543289571852,-0.5335382133333334,-0.22631825333333336,0.7464522533333333,1.50630872,0.9450258956161928,0.7174130269191035,0.7141287427408162,0.7141287427408162
LBP05_S10,LBP05,-1580,71,10,70,-1580,1715804267.8,2024-05-15 20:17:47.800000+00:00,2024-05-16 05:17:47.800000+09:00,2024,5,15,20,17,47,800,,,,,,,,,0.087402,-0.010254,1.244385,-10.498047,9.033203,-13.183594,,,,,,,,,,,0.0,1.0,1.0,10.0,0.0,0.0,0.0,4.0,0.0,-0.16295574666666668,-0.17434576,0.9883690933333334,1.0424805066666658,-1.214192773333333,-0.8325195866666666,-9.581428294000943,4.931413087784491,-4.108317809641265,4.984183690942079,4.267604967279739,0.7294545094648308,6.60201810836522,-2.323392511568406,6.189994487470753,-2.304671610900444,0.25035774666666666,0.16409175999999998,0.2560159066666666,0.6704654133333332,0.39388989766464405,0.7095513032530026,0.7047099531797523,0.7047099531797523
LBP05_S10,LBP05,-1579,72,10,71,-1579,1715804267.84,2024-05-15 20:17:47.840000+00:00,2024-05-16 05:17:47.840000+09:00,2024,5,15,20,17,47,840,,,,,,,,,-0.335938,0.000732,0.037842,-77.392578,105.651855,-52.124023,,,,,,,,,,,0.0,1.0,1.0,10.0,0.0,0.0,0.0,4.0,0.0,-0.1476692933333333,-0.1725912,0.9780696133333333,-0.011393200000000926,-1.057942773333333,-1.1832682799999998,-15.363322330530616,3.0574343989786557,-4.797386495635079,4.369650797720855,4.3899023432388855,0.5375590496394276,6.217238969916309,-2.280540660699369,5.890185113241312,-2.3048531472769946,-0.1882687066666667,0.1733232,-0.9402276133333333,1.30181952,0.9744300911007805,0.7295886683006688,0.7124162428346388,0.7124162428346388
LBP05_S10,LBP05,-1578,73,10,72,-1578,1715804267.88,2024-05-15 20:17:47.880000+00:00,2024-05-16 05:17:47.880000+09:00,2024,5,15,20,17,47,880,,,,,,,,,-0.083496,-0.052246,0.181641,-129.516602,-64.819336,-22.583008,,,,,,,,,,,0.0,1.0,1.0,10.0,0.0,0.0,0.0,4.0,0.0,-0.14988284,-0.17354822666666667,0.9734114133333333,-0.20833330666666758,1.6593423866666672,-1.19954432,-20.309850909283995,0.29962819726128437,-4.828275646005925,3.557256761349495,4.401887471129337,0.3444280237991906,5.670037005014195,-2.2850994539899685,5.554508693935652,-2.302865985890084,0.06638683999999999,0.12130222666666667,-0.7917704133333332,0.9794594799999998,0.8037548321158102,0.7234471774083349,0.7149534258702269,0.7149534258702269
LBP05_S10,LBP05,-1577,74,10,73,-1577,1715804267.92,2024-05-15 20:17:47.920000+00:00,2024-05-16 05:17:47.920000+09:00,2024,5,15,20,17,47,920,,,,,,,,,0.31958,-0.370117,0.608398,-71.716309,-92.834473,10.620117,,,,,,,,,,,0.0,1.0,1.0,10.0,0.0,0.0,0.0,4.0,0.0,-0.16148765333333334,-0.17852869333333335,0.9821451333333334,-0.4410807066666676,-0.2652995333333329,-1.1572266133333333,-23.285223616957328,-2.774044765984248,-4.279828551624463,2.625847816671202,4.290925680489967,0.17323488173421206,5.03360013072698,-2.307568913066077,5.183118763090198,-2.3034465022011394,0.48106765333333334,-0.19158830666666662,-0.3737471333333334,1.0464030933333333,0.6386071452856799,0.7098817776790065,0.7128900128814554,0.7128900128814554
LBP05_S10,LBP05,-1576,75,10,74,-1576,1715804267.96,2024-05-15 20:17:47.960000+00:00,2024-05-16 05:17:47.960000+09:00,2024,5,15,20,17,47,960,,,,,,,,,0.271484,-0.234619,1.082031,64.880371,58.410645,35.27832,,,,,,,,,,,0.0,1.0,1.0,10.0,0.0,0.0,0.0,4.0,0.0,-0.15586590666666666,-0.17903976,1.0007486533333334,1.0432942933333325,-2.033691453333333,-0.4972331333333333,-23.83354633589389,-5.612978373034461,-3.333067187185018,1.6725059632354464,4.066406545568588,0.03991219424681133,4.397104885507143,-2.2889763231476192,4.7825104181401406,-2.300139069399907,0.42734990666666667,-0.05557924,0.08128234666666656,0.5642114933333332,0.43854739142608806,0.707589270048318,0.7056704702115772,0.7056704702115772
LBP05_S10,LBP05,-1575,76,10,75,-1575,1715804268.0,2024-05-15 20:17:48+00:00,2024-05-16 05:17:48+09:00,2024,5,15,20,17,48,0,20.0,17.0,48.0,40.677715,141.608383,8.353,3.0,9.0,-0.622314,-0.215088,1.575439,16.113281,78.918457,26.123047,-567.0,70.0,548.0,29.0,0.0,1020.700012,16.219999,0.076305,-61.806309,3.789844,0.0,1.0,1.0,10.0,0.0,0.0,0.0,5.0,0.0,-0.15888349333333332,-0.17859053333333333,1.004095,0.20182293333333234,0.4671223466666669,0.054524679999999964,-22.156701534543235,-7.801555394577724,-2.159342195847487,0.786237901853717,3.7543443297854795,-0.04646149358708816,3.836069610329049,-2.2994580853838724,4.366400840795619,-2.296176979677268,-0.46343050666666674,-0.03649746666666667,0.5713440000000001,1.0712719733333333,0.7365689824574532,0.696372018639839,0.7064627397563432,0.7064627397563432
LBP05_S10,LBP05,-1574,77,10,76,-1574,1715804268.04,2024-05-15 20:17:48.040000+00:00,2024-05-16 05:17:48.040000+09:00,2024,5,15,20,17,48,40,,,,,,,,,-0.772949,-0.356445,1.879639,-29.052734,-138.366699,-6.530762,,,,,,,,,,,0.0,1.0,1.0,10.0,0.0,0.0,0.0,5.0,0.0,-0.1651855733333333,-0.18505862666666664,0.9990461733333332,-1.0660807200000009,1.0400390133333335,0.16927077333333332,-18.854772021534842,-9.106983774242934,-0.8445171459882714,0.03204702099232326,3.390064978815762,-0.08024217942661901,3.391165932169455,-2.301195465666718,3.9553578433220515,-2.296124843321368,-0.6077634266666667,-0.17138637333333337,0.8805928266666668,1.659742626666667,1.0836020478638604,0.7145462272697385,0.7158912224590313,0.7158912224590313
LBP05_S10,LBP05,-1573,78,10,77,-1573,1715804268.08,2024-05-15 20:17:48.080000+00:00,2024-05-16 05:17:48.080000+09:00,2024,5,15,20,17,48,80,,,,,,,,,0.175293,0.111084,1.256104,36.071777,-24.414062,-24.169922,,,,,,,,,,,0.0,1.0,1.0,10.0,0.0,0.0,0.0,5.0,0.0,-0.16428388,-0.18301109333333335,0.9920084133333333,0.5118815199999991,-0.4028320799999999,0.22216790666666664,-14.625968593753484,-9.469371069195475,0.5955212406086052,-0.5529917227578162,3.011290136047943,-0.05642132980227481,3.0621645114779437,-2.3039175781183356,3.5743301678542387,-2.2973742463052336,0.33957687999999997,0.29409509333333334,0.26409558666666677,0.8977675600000001,0.5211054214360923,0.7135191104392038,0.7111403492633498,0.7111403492633498
LBP05_S10,LBP05,-1572,79,10,78,-1572,1715804268.12,2024-05-15 20:17:48.120000+00:00,2024-05-16 05:17:48.120000+09:00,2024,5,15,20,17,48,120,,,,,,,,,-0.445068,0.300293,0.074463,-1.220703,116.638184,-38.452148,,,,,,,,,,,0.0,1.0,1.0,10.0,0.0,0.0,0.0,5.0,0.0,-0.15331382666666668,-0.17795901333333333,0.9862466933333334,0.21565755999999908,-0.03173833333333334,-0.1098633333333334,-10.081188314764152,-8.952062763908177,2.1252297371820275,-0.9562392553483823,2.653207625491616,0.028587859685006295,2.820411580453721,-2.283954525916592,3.248104849941356,-2.299824879561684,-0.2917541733333333,0.47825201333333334,-0.9117836933333334,1.6817898800000002,1.0701378366095546,0.7420980730426686,0.7196879084858784,0.7196879084858784
LBP05_S10,LBP05,-1571,80,10,79,-1571,1715804268.16,2024-05-15 20:17:48.160000+00:00,2024-05-16 05:17:48.160000+09:00,2024,5,15,20,17,48,160,,,,,,,,,-0.124268,-0.529053,0.37915,-121.704102,-51.879883,10.253906,,,,,,,,,,,0.0,1.0,1.0,10.0,0.0,0.0,0.0,5.0,0.0,-0.15603518666666666,-0.17974612,0.9863118000000001,0.1749674533333324,2.230631466666667,-0.27832036000000004,-5.712013392223253,-7.669907706443224,3.600272566867727,-1.1847197910373124,2.346411317233887,0.17259876235971539,2.634197673996176,-2.287666279215723,2.9959759184357084,-2.301567683318952,0.031767186666666655,-0.34930688,-0.6071618000000001,0.9882358666666667,0.7011917725867077,0.7279682938769938,0.7192577657905489,0.7192577657905489
LBP05_S10,LBP05,-1570,81,10,80,-1570,1715804268.2,2024-05-15 20:17:48.200000+00:00,2024-05-16 05:17:48.200000+09:00,2024,5,15,20,17,48,200,,,,,,,,,0.489502,0.003174,0.667236,14.221191,-70.739746,19.897461,,,,,,,,,,,0.0,1.0,1.0,10.0,0.0,0.0,0.0,5.0,0.0,-0.16977217333333333,-0.18185874666666665,0.9961230000000001,-0.07649738666666758,1.0904947600000003,-0.4654948400000001,-1.945343018443078,-5.730563225676319,4.7518728105547945,-1.2625335117750356,2.117188788206834,0.36267367478190715,2.491588133629541,-2.3228711480094093,2.828166431495758,-2.305786333143762,0.6592741733333334,0.18503274666666666,-0.32888700000000004,1.1731939200000001,0.7596355782428579,0.7269720352713148,0.7201754433462833,0.7201754433462833
LBP05_S10,LBP05,-1569,82,10,81,-1569,1715804268.24,2024-05-15 20:17:48.240000+00:00,2024-05-16 05:17:48.240000+09:00,2024,5,15,20,17,48,240,,,,,,,,,0.402832,-0.119873,1.202637,20.996094,90.637207,14.587402,,,,,,,,,,,0.0,1.0,1.0,10.0,0.0,0.0,0.0,5.0,0.0,-0.16493818666666668,-0.18792319999999998,1.0170149199999998,0.3092447999999991,-1.400553413333333,-0.23356124000000003,0.821973527162391,-3.225188095806995,5.263022103094386,-1.22965457068854,1.9881812643745542,0.5731945589056826,2.4069622152381824,-2.293034690538022,2.745867134795827,-2.3055692387876654,0.5677701866666667,0.06805019999999999,0.18562208000000013,0.8214424666666668,0.6012065960808047,0.7348452587042809,0.7175316911848282,0.7175316911848282
LBP05_S10,LBP05,-1568,83,10,82,-1568,1715804268.28,2024-05-15 20:17:48.280000+00:00,2024-05-16 05:17:48.280000+09:00,2024,5,15,20,17,48,280,,,,,,,,,-0.733154,-0.551025,1.821533,-5.615234,44.311523,14.831543,,,,,,,,,,,0.0,1.0,1.0,10.0,0.0,0.0,0.0,5.0,0.0,-0.16729169333333332,-0.18416344,1.0190982533333335,1.0546875066666657,0.883789026666667,-0.2132161866666667,2.271301551614925,-0.2747954664394145,4.8937168314835855,-1.138802508623943,1.9771894457169776,0.768943232165026,2.4077838258853705,-2.3096057865544712,2.7441757679008214,-2.3040539639217963,-0.5658623066666666,-0.36686156,0.8024347466666666,1.7351586133333332,1.0481837038276027,0.738315103639856,0.7247197784161928,0.7247197784161928
LBP05_S10,LBP05,-1567,84,10,83,-1567,1715804268.32,2024-05-15 20:17:48.320000+00:00,2024-05-16 05:17:48.320000+09:00,2024,5,15,20,17,48,320,,,,,,,,,-0.755615,-0.41626,1.911377,78.186035,-165.405273,6.713867,,,,,,,,,,,0.0,1.0,1.0,10.0,0.0,0.0,0.0,5.0,0.0,-0.17456709333333334,-0.18618166666666666,1.0131607466666666,0.24169922666666574,1.494140586666667,-0.0048828533333333726,2.2660032493521114,2.8944878770149423,3.5873566992953636,-1.0481623786498586,2.092968960797575,0.9124375001368406,2.512310815670501,-2.32499695063876,2.815895676905054,-2.3048662984478137,-0.5810479066666667,-0.23007833333333336,0.8982162533333335,1.7093424933333337,1.0942326750117322,0.7514132886000452,0.7325817549395022,0.7325817549395022
LBP05_S10,LBP05,-1566,85,10,84,-1566,1715804268.36,2024-05-15 20:17:48.360000+00:00,2024-05-16 05:17:48.360000+09:00,2024,5,15,20,17,48,360,,,,,,,,,0.351562,0.135986,1.222656,16.235352,9.155273,6.896973,,,,,,,,,,,0.0,1.0,1.0,10.0,0.0,0.0,0.0,5.0,0.0,-0.17586917333333332,-0.18520185333333333,1.0031737733333335,0.38411459999999903,-0.8496094133333331,-0.10579430666666671,0.9234292699019623,5.900506085576253,1.507886652447981,-1.0112252078537802,2.3289892042206253,0.9727529662347598,2.7190100161076396,-2.331162821395714,2.9545301890840547,-2.3051067829884877,0.5274311733333333,0.32118785333333333,0.2194822266666665,1.0681012533333332,0.6553760199726638,0.7494441866775557,0.7309733021276931,0.7309733021276931
LBP05_S10,LBP05,-1565,86,10,85,-1565,1715804268.4,2024-05-15 20:17:48.400000+00:00,2024-05-16 05:17:48.400000+09:00,2024,5,15,20,17,48,400,,,,,,,,,-0.453125,0.179443,0.032715,-67.687988,111.14502,-15.014648,,,,,,,,,,,0.0,1.0,1.0,10.0,0.0,0.0,0.0,5.0,0.0,-0.15940432,-0.18000329333333334,0.99317052,-0.273437480000001,-1.616210973333333,-0.48583988000000006,-1.4146923788372898,8.242993247839669,-1.0047556254555432,-1.0678129030072718,2.658708934134212,0.932562741216538,3.013076643329738,-2.2972871418229075,3.1554244931194093,-2.306080404474341,-0.29372068,0.35944629333333333,-0.9604555199999999,1.6136224933333332,1.0667465873154718,0.7744711463928491,0.7378258181519334,0.7378258181519334
LBP05_S10,LBP05,-1564,87,10,86,-1564,1715804268.44,2024-05-15 20:17:48.440000+00:00,2024-05-16 05:17:48.440000+09:00,2024,5,15,20,17,48,440,,,,,,,,,-0.015625,-0.499023,0.398193,-69.580078,-30.944824,-1.89209,,,,,,,,,,,0.0,1.0,1.0,10.0,0.0,0.0,0.0,5.0,0.0,-0.15560224,-0.17985029333333333,0.9871842,-0.7836913866666676,0.994466106666667,-0.7625325866666667,-4.304029564829906,9.452852784595933,-3.538003560812059,-1.2399740856004682,3.0368230455180494,0.7910425987840557,3.374252263219404,-2.2860427170080238,3.414686060256251,-2.305936772060488,0.13997724,-0.31917270666666664,-0.5889911999999999,1.0481411466666666,0.6843796300858052,0.7710603361368382,0.7367568943906109,0.7367568943906109
LBP05_S10,LBP05,-1563,88,10,87,-1563,1715804268.48,2024-05-15 20:17:48.480000+00:00,2024-05-16 05:17:48.480000+09:00,2024,5,15,20,17,48,480,,,,,,,,,0.489502,0.04248,0.824463,40.283203,-3.90625,-19.775391,,,,,,,,,,,0.0,1.0,1.0,10.0,0.0,0.0,0.0,5.0,0.0,-0.16718101333333332,-0.1831413066666667,0.9912727466666666,-0.1424153466666676,-0.05045577333333294,-0.72102868,-7.327003660932327,9.290459951674379,-5.725689534684466,-1.5330542320377614,3.4084414435850245,0.562015017396677,3.7793636015202674,-2.3120409233785133,3.726477086339422,-2.309370666300871,0.6566830133333333,0.2256213066666667,-0.1668097466666667,1.0491140666666667,0.7141169691342717,0.7645878201439065,0.7359901264638994,0.7363129742875453
LBP05_S10,LBP05,-1562,89,10,88,-1562,1715804268.52,2024-05-15 20:17:48.520000+00:00,2024-05-16 05:17:48.520000+09:00,2024,5,15,20,17,48,520,,,,,,,,,-0.04541,-0.447998,1.446045,-5.615234,134.94873,-10.009766,,,,,,,,,,,0.0,1.0,1.0,10.0,0.0,0.0,0.0,5.0,0.0,-0.16124350666666667,-0.18626630666666666,1.0104915066666667,0.869140639999999,-3.0476888399999997,-0.6005859733333333,-10.14276518526861,7.881358607109252,-7.338328029576051,-1.9387648394485058,3.723695787869395,0.268481896213635,4.206756702243728,-2.2863593713233303,4.080405726666439,-2.3072826673505396,0.11583350666666667,-0.26173169333333335,0.4355534933333334,0.8131186933333334,0.5211791689205362,0.7660608309602328,0.7325677235780076,0.7321757857227952
LBP05_S10,LBP05,-1561,90,10,89,-1561,1715804268.56,2024-05-15 20:17:48.560000+00:00,2024-05-16 05:17:48.560000+09:00,2024,5,15,20,17,48,560,,,,,,,,,-1.033447,-0.022217,1.897705,15.380859,-24.536133,-7.873535,,,,,,,,,,,0.0,1.0,1.0,10.0,0.0,0.0,0.0,5.0,0.0,-0.16146812,-0.18228193333333334,1.0125846,0.8789062533333324,-0.9578450933333331,-0.7250976933333334,-12.44556085042405,5.705640475511708,-8.315821431627434,-2.436587273465468,3.951921406889863,-0.06415096105146234,4.643140714349724,-2.2974024940742597,4.460874812853102,-2.3001170882374478,-0.87197888,0.16006493333333333,0.8851203999999999,1.9171642133333333,1.2527593833395216,0.7750529517323463,0.7483292252050472,0.7419981177532995
LBP05_S10,LBP05,-1560,91,10,90,-1560,1715804268.6,2024-05-15 20:17:48.600000+00:00,2024-05-16 05:17:48.600000+09:00,2024,5,15,20,17,48,600,,,,,,,,,-0.331543,-0.523682,1.841064,0.183105,-170.410156,0.366211,,,,,,,,,,,0.0,1.0,1.0,10.0,0.0,0.0,0.0,5.0,0.0,-0.16895509333333333,-0.18151370666666666,1.00296872,-0.5322265600000009,-0.3645833866666662,-0.9635417066666667,-13.899022380448267,3.435244673788567,-8.738921945418701,-2.9925481686833986,4.089331193841406,-0.4137078388682104,5.084203804997961,-2.321434823870876,4.848512248886921,-2.295816131623829,-0.16258790666666664,-0.3421682933333333,0.8380952800000001,1.3428514800000002,0.9197378249888244,0.7796431991031153,0.7503540707283115,0.7452895938132166
LBP05_S10,LBP05,-1559,92,10,91,-1559,1715804268.64,2024-05-15 20:17:48.640000+00:00,2024-05-16 05:17:48.640000+09:00,2024,5,15,20,17,48,640,,,,,,,,,0.163574,-0.053955,0.939697,16.235352,96.191406,6.286621,,,,,,,,,,,0.0,1.0,1.0,10.0,0.0,0.0,0.0,5.0,0.0,-0.16953126666666668,-0.17991865333333332,0.9905728933333334,-1.4160156266666675,-2.223307346666666,-1.5885417066666665,-14.129098090408528,1.698893250927471,-8.760084874411108,-3.55771209229974,4.157286923878504,-0.7641112338446547,5.524872476069886,-2.3273736329418533,5.222590777021327,-2.294515382442846,0.3331052666666667,0.12596365333333331,-0.05087589333333342,0.5099448133333334,0.3597420147336366,0.7644881233803137,0.7409288057175941,0.7382796378299514
LBP05_S10,LBP05,-1558,93,10,92,-1558,1715804268.68,2024-05-15 20:17:48.680000+00:00,2024-05-16 05:17:48.680000+09:00,2024,5,15,20,17,48,680,,,,,,,,,-0.401611,0.189941,0.017334,-99.67041,40.222168,-35.827637,,,,,,,,,,,0.0,1.0,1.0,10.0,0.0,0.0,0.0,5.0,0.0,-0.15133790666666666,-0.17392256,0.9766568799999998,-1.777343760000001,-2.577311253333333,-1.8562825866666666,-12.80642468535066,0.8937602776800602,-8.526844423894278,-4.069969079713767,4.193037334985707,-1.105185010800426,5.947070229155537,-2.288725797051158,5.564080140215482,-2.2935136452048015,-0.25027309333333336,0.36386356,-0.9593228799999999,1.5734595333333332,1.0560936036327477,0.7885644036651709,0.7538483874488235,0.7439548872192872
LBP05_S10,LBP05,-1557,94,10,93,-1557,1715804268.72,2024-05-15 20:17:48.720000+00:00,2024-05-16 05:17:48.720000+09:00,2024,5,15,20,17,48,720,,,,,,,,,0.053223,-0.369629,0.395264,-36.376953,-59.692383,11.291504,,,,,,,,,,,0.0,1.0,1.0,10.0,0.0,0.0,0.0,5.0,0.0,-0.14511069333333335,-0.17954756000000002,0.9706347466666667,-3.147786480000001,0.6054686933333336,-1.6243489866666665,-9.775969724154397,1.1171387422532997,-8.12670058882568,-4.461007868679943,4.237722884675839,-1.4302530343534532,6.317001677537132,-2.2533411595078414,5.85914461497713,-2.2939600704827114,0.19833369333333334,-0.19008143999999996,-0.5753707466666667,0.96378588,0.6375881930082079,0.787113570498302,0.7468231378550169,0.7420888048647069
LBP05_S10,LBP05,-1556,95,10,94,-1556,1715804268.76,2024-05-15 20:17:48.760000+00:00,2024-05-16 05:17:48.760000+09:00,2024,5,15,20,17,48,760,,,,,,,,,0.496582,-0.33252,0.976074,22.521973,3.78418,1.159668,,,,,,,,,,,0.0,1.0,1.0,10.0,0.0,0.0,0.0,5.0,0.0,-0.15752606666666666,-0.18130537333333335,0.9781510133333334,-0.6404622666666675,-0.09195969333333301,-1.33219404,-5.15268814551985,2.205565982451653,-7.568928692422038,-4.667115394500737,4.325945523973905,-1.7330101820503347,6.595384376445832,-2.2881532552595245,6.101841514153298,-2.2958734683145594,0.6541080666666667,-0.15121462666666663,-0.002077013333333433,0.8073997066666667,0.6713624506782686,0.7761670327007849,0.7467900298099442,0.7408693849649406
LBP05_S10,LBP05,-1555,96,10,95,-1555,1715804268.8,2024-05-15 20:17:48.800000+00:00,2024-05-16 05:17:48.800000+09:00,2024,5,15,20,17,48,800,,,,,,,,,-0.174805,0.077637,1.552734,99.609375,104.309082,-9.399414,,,,,,,,,,,0.0,1.0,1.0,10.0,0.0,0.0,0.0,5.0,0.0,-0.15594404,-0.18089521333333333,0.9991471066666666,0.48502601333333234,-2.5170898933333326,-0.70475264,0.6695100770104497,3.8244557461144586,-6.806971065349469,-4.6403349914203185,4.478923753818483,-2.0052890246643136,6.753861924673795,-2.284279650013076,6.294328449144871,-2.29445171244485,-0.018860959999999982,0.2585322133333333,0.5535868933333334,0.8309800666666667,0.6112716986852943,0.784862304741611,0.7472068039973068,0.7386728140110482
LBP05_S10,LBP05,-1554,97,10,96,-1554,1715804268.84,2024-05-15 20:17:48.840000+00:00,2024-05-16 05:17:48.840000+09:00,2024,5,15,20,17,48,840,,,,,,,,,-0.818359,-0.416504,1.935547,-53.466797,-55.969238,-7.141113,,,,,,,,,,,0.0,1.0,1.0,10.0,0.0,0.0,0.0,5.0,0.0,-0.15347658666666666,-0.18109378666666665,1.0064778266666667,-0.2913411733333343,-0.44433598666666624,-0.56152348,7.077499882768572,5.559656712888077,-5.795681372885333,-4.357234996109575,4.701310022334006,-2.237116279579727,6.789145895160953,-2.2760253446275844,6.443923523575665,-2.288860159975988,-0.6648824133333333,-0.23541021333333334,0.9290691733333332,1.8293617999999998,1.16647165458055,0.7925439672808017,0.7610663177907354,0.7458027946872067
LBP05_S10,LBP05,-1553,98,10,97,-1553,1715804268.88,2024-05-15 20:17:48.880000+00:00,2024-05-16 05:17:48.880000+09:00,2024,5,15,20,17,48,880,,,,,,,,,-0.224609,-0.330566,1.765381,-40.344238,-99.182129,-20.996094,,,,,,,,,,,0.0,1.0,1.0,10.0,0.0,0.0,0.0,5.0,0.0,-0.16198894666666666,-0.17578454666666665,0.9991666400000001,-2.2656250266666675,0.7031249600000005,-1.34277348,13.312507723009238,6.99019865376294,-4.564205839835999,-3.824734687189206,4.9809179684845235,-2.419684513173167,6.73000834913675,-2.3165051761576096,6.558541057587017,-2.2846542863387973,-0.06262005333333334,-0.15478145333333337,0.76621436,0.9836158666666667,0.7841957758402285,0.7917616050297785,0.7576043912190566,0.7464321878208627
LBP05_S10,LBP05,-1552,99,10,98,-1552,1715804268.92,2024-05-15 20:17:48.920000+00:00,2024-05-16 05:17:48.920000+09:00,2024,5,15,20,17,48,920,,,,,,,,,-0.076172,-0.037109,0.745361,76.660156,136.169434,-3.723145,,,,,,,,,,,0.0,1.0,1.0,10.0,0.0,0.0,0.0,5.0,0.0,-0.16465821333333333,-0.18283206666666668,0.9909081733333335,-3.420410186666668,-1.0026042133333328,-1.7700195733333333,18.53561315998012,7.751175007656907,-3.2711442956855237,-3.083310160790001,5.290964968790799,-2.5505302850005878,6.6337256940054035,-2.3054933496418117,6.643714427027019,-2.2832394672343916,0.08848621333333333,0.14572306666666668,-0.24554717333333342,0.47975645333333344,0.2989288150058472,0.7781744718185851,0.744028124748796,0.7392143914851368
LBP05_S10,LBP05,-1551,100,10,99,-1551,1715804268.96,2024-05-15 20:17:48.960000+00:00,2024-05-16 05:17:48.960000+09:00,2024,5,15,20,17,48,960,,,,,,,,,-0.252686,-0.092529,0.243652,-22.033691,8.911133,-15.50293,,,,,,,,,,,0.0,1.0,1.0,10.0,0.0,0.0,0.0,5.0,0.0,-0.15161785333333333,-0.17626956,0.9778613066666666,-2.348632840000001,-1.8318685333333327,-2.3836263466666665,21.912294578298635,7.6040019735048485,-2.206833411229022,-2.206818377658055,5.595125047730994,-2.638803621449749,6.568010064265462,-2.283184935377165,6.703401308484928,-2.2842505534447373,-0.10106814666666669,0.08374055999999999,-0.7342093066666666,0.9190180133333333,0.7458488839273649,0.7904665315186362,0.749027900783477,0.7393197008889817
LBP05_S10,LBP05,-1550,101,10,100,-1550,1715804269.0,2024-05-15 20:17:49+00:00,2024-05-16 05:17:49+09:00,2024,5,15,20,17,49,0,20.0,17.0,49.0,40.677639,141.608337,8.174,3.0,9.0,0.14917,-0.14624,0.556152,38.085938,-59.631348,0.244141,-567.0,73.0,545.0,30.0,0.0,1020.900024,16.290001,0.078287,-63.460594,3.789844,0.0,1.0,1.0,10.0,0.0,0.0,0.0,4.0,0.0,-0.1443815333333333,-0.17411136,0.9715820133333334,-2.383626333333334,0.8593749600000007,-2.4316406666666666,22.744341317115033,6.503181489208708,-1.7246715027952835,-1.2970447249734538,5.855252307299342,-2.70779048156156,6.580154549305899,-2.265519299182256,6.743700367107989,-2.2849059358996113,0.2935515333333333,0.027871359999999984,-0.4154300133333334,0.7368529066666667,0.5094422552250002,0.7813814624293381,0.7388767405345886,0.7357278658004819
LBP05_S10,LBP05,-1549,102,10,101,-1549,1715804269.04,2024-05-15 20:17:49.040000+00:00,2024-05-16 05:17:49.040000+09:00,2024,5,15,20,17,49,40,,,,,,,,,0.257568,-0.09668,1.050537,25.085449,38.452148,2.685547,,,,,,,,,,,0.0,1.0,1.0,10.0,0.0,0.0,0.0,4.0,0.0,-0.15607749333333334,-0.18068688,0.9816568933333334,-1.6162109600000003,0.4532877200000007,-2.3445638533333333,20.639119479315372,4.622640135158787,-2.1133589789157883,-0.47147994580083885,6.040157912705693,-2.7923248407181918,6.671047816183409,-2.28531489656995,6.7762541089326,-2.2884469217283487,0.41364549333333334,0.08400687999999999,0.06888010666666666,0.56653248,0.4276730283016717,0.7551443016468505,0.7348452644582945,0.7309885606081925
LBP05_S10,LBP05,-1548,103,10,102,-1548,1715804269.08,2024-05-15 20:17:49.080000+00:00,2024-05-16 05:17:49.080000+09:00,2024,5,15,20,17,49,80,,,,,,,,,-0.634277,-0.400879,1.566162,14.648438,81.298828,16.967773,,,,,,,,,,,0.0,1.0,1.0,10.0,0.0,0.0,0.0,4.0,0.0,-0.15601889333333332,-0.18468428,1.00408528,0.9366861866666659,-1.9580078533333327,-2.132161506666667,15.672012131656372,2.317886559308141,-3.4527554294517726,0.155400539465416,6.132873375078018,-2.9304350578962626,6.7988039235555595,-2.274577606007097,6.8176591249299605,-2.2878908903516892,-0.4782581066666667,-0.21619471999999998,0.5620767200000001,1.2565295466666666,0.7690261456636059,0.7650611306159512,0.7392901205275774,0.7315648876544867
LBP05_S10,LBP05,-1547,104,10,103,-1547,1715804269.12,2024-05-15 20:17:49.120000+00:00,2024-05-16 05:17:49.120000+09:00,2024,5,15,20,17,49,120,,,,,,,,,-0.693115,-0.310303,1.726807,18.737793,-115.234375,16.662598,,,,,,,,,,,0.0,1.0,1.0,10.0,0.0,0.0,0.0,4.0,0.0,-0.15457358666666668,-0.18726565333333334,1.01231444,1.822102853333333,-0.1985677466666659,-1.738281306666667,8.484192367707339,0.03193467726886097,-5.514928861045346,0.4947682341737095,6.1341507621687725,-3.1510322123380763,6.913870492116214,-2.263452021611298,6.8832896064793605,-2.2802026911474558,-0.5385414133333334,-0.12303734666666666,0.71449256,1.37607132,0.9031415508353003,0.758381279184981,0.7502396761138247,0.7341257333736033
LBP05_S10,LBP05,-1546,105,10,104,-1546,1715804269.16,2024-05-15 20:17:49.160000+00:00,2024-05-16 05:17:49.160000+09:00,2024,5,15,20,17,49,160,,,,,,,,,0.077393,-0.12085,1.436279,61.157227,-28.503418,-5.92041,,,,,,,,,,,0.0,1.0,1.0,10.0,0.0,0.0,0.0,4.0,0.0,-0.16175132,-0.18363934666666665,1.00599608,2.5382486799999993,1.4599609066666672,-1.8473307866666668,0.26003870136021945,-1.8227768274162301,-7.7669191147954235,0.5051697822281183,6.061239689072123,-3.461708976929893,6.998374962676445,-2.2947070798082696,6.978672976179453,-2.275411379254492,0.23914432000000002,0.06278934666666665,0.43028292,0.7322165866666667,0.4962619258887545,0.7501840853170627,0.7390761895970281,0.7306277362047084
LBP05_S10,LBP05,-1545,106,10,105,-1545,1715804269.2,2024-05-15 20:17:49.200000+00:00,2024-05-16 05:17:49.200000+09:00,2024,5,15,20,17,49,200,,,,,,,,,-0.341064,0.168701,0.171875,-2.685547,113.708496,-27.832031,,,,,,,,,,,0.0,1.0,1.0,10.0,0.0,0.0,0.0,4.0,0.0,-0.16683594666666668,-0.17987957333333335,0.9984667733333333,1.5478515466666658,-0.04231773333333261,-2.3632813066666665,-7.451232653139578,-2.9606203393875496,-9.497460917609269,0.20712047610253514,5.942814875496621,-3.841607413634264,7.079399342919892,-2.3196895083004487,7.095029780083387,-2.272270373286445,-0.1742280533333333,0.34858057333333337,-0.8265917733333333,1.3494004,0.9138477939000909,0.7563525739433521,0.7416623046073334,0.7332830993597139
LBP05_S10,LBP05,-1544,107,10,106,-1544,1715804269.24,2024-05-15 20:17:49.240000+00:00,2024-05-16 05:17:49.240000+09:00,2024,5,15,20,17,49,240,,,,,,,,,-0.118408,-0.435547,0.26416,-122.86377,-53.955078,-10.009766,,,,,,,,,,,0.0,1.0,1.0,10.0,0.0,0.0,0.0,4.0,0.0,-0.15176758666666668,-0.18118816000000001,0.98774412,0.07731118666666593,-1.4982096533333327,-2.5406901600000005,-13.05752716084573,-3.2628260637544066,-10.037150817441074,-0.3151806103312941,5.812301832946445,-4.2430934463319065,7.203196055134566,-2.2704650308609904,7.21347169691329,-2.269744349736338,0.03335958666666668,-0.25435884,-0.7235841199999999,1.0113025466666665,0.7677143089879794,0.7630128824596392,0.74892907058196,0.733774973782975
LBP05_S10,LBP05,-1543,108,10,107,-1543,1715804269.28,2024-05-15 20:17:49.280000+00:00,2024-05-16 05:17:49.280000+09:00,2024,5,15,20,17,49,280,,,,,,,,,0.194824,0.030762,0.492676,36.621094,-63.110352,-27.648926,,,,,,,,,,,0.0,1.0,1.0,10.0,0.0,0.0,0.0,4.0,0.0,-0.14006837333333336,-0.17831706666666666,0.9821321333333335,0.2587890533333326,0.7120768133333341,-2.4894206266666665,-15.309598457041577,-2.7632497631628037,-8.996129590601997,-0.9275645486129572,5.701771842419933,-4.602938629955986,7.386313164630744,-2.239623184115272,7.31635465240103,-2.27040292010243,0.3348923733333333,0.20907906666666667,-0.4894561333333335,1.0334275733333333,0.6288356417162239,0.7462389599751839,0.7422770318075199,0.7322969550214714
LBP05_S10,LBP05,-1542,109,10,108,-1542,1715804269.32,2024-05-15 20:17:49.320000+00:00,2024-05-16 05:17:49.320000+09:00,2024,5,15,20,17,49,320,,,,,,,,,0.404541,-0.072754,0.978271,-43.273926,48.583984,-31.982422,,,,,,,,,,,0.0,1.0,1.0,10.0,0.0,0.0,0.0,4.0,0.0,-0.15171225333333332,-0.18609701333333334,0.9894465866666667,1.5673827999999992,0.7316080666666674,-2.0125326,-13.624682331115615,-1.6049101953307172,-6.428570767493388,-1.4725518418575818,5.637575434606704,-4.860081460655722,7.587559391006345,-2.2575802307121737,7.39904663009086,-2.2735835159635913,0.5562532533333333,0.11334301333333334,-0.011175586666666737,0.6807718533333333,0.567793284790109,0.725181384366319,0.7382973364831821,0.7300121818238137
LBP05_S10,LBP05,-1541,110,10,109,-1541,1715804269.36,2024-05-15 20:17:49.360000+00:00,2024-05-16 05:17:49.360000+09:00,2024,5,15,20,17,49,360,,,,,,,,,-0.582764,-0.439209,1.530518,-17.883301,90.942383,-11.413574,,,,,,,,,,,0.0,1.0,1.0,10.0,0.0,0.0,0.0,4.0,0.0,-0.15256185333333336,-0.18941081333333332,1.0124706666666667,3.4627278533333326,-2.6717122399999993,-1.1442057866666666,-8.23945533673918,0.009069731112922266,-2.8545068760486716,-1.802130055327149,5.637938223851221,-4.974261735697668,7.7315781033047895,-2.2517748756966953,7.474092941754444,-2.272983632791118,-0.43020214666666656,-0.2497981866666667,0.5180473333333333,1.1980476666666666,0.718224241189575,0.7276953132149955,0.7385697499462757,0.7298507031849885
LBP05_S10,LBP05,-1540,111,10,110,-1540,1715804269.4,2024-05-15 20:17:49.400000+00:00,2024-05-16 05:17:49.400000+09:00,2024,5,15,20,17,49,400,,,,,,,,,-0.795166,-0.551514,1.759521,-14.404297,-85.266113,12.207031,,,,,,,,,,,0.0,1.0,1.0,10.0,0.0,0.0,0.0,4.0,0.0,-0.14900065333333332,-0.18948242666666665,1.02309892,4.574381506666666,-1.564127599999999,-0.8878581333333333,-0.15261512336602417,1.8476363681054748,0.881509931555837,-1.80823466026179,5.71184367857544,-4.9390013384354345,7.764573717604934,-2.240259063681186,7.563724557308783,-2.2656208941313,-0.6461653466666667,-0.3620315733333333,0.7364220799999999,1.744619,1.0444682834986367,0.7268041810623221,0.7506376637275856,0.7341022921081457
LBP05_S10,LBP05,-1539,112,10,111,-1539,1715804269.44,2024-05-15 20:17:49.440000+00:00,2024-05-16 05:17:49.440000+09:00,2024,5,15,20,17,49,440,,,,,,,,,-0.077637,0.016602,1.48291,109.802246,-69.274902,37.29248,,,,,,,,,,,0.0,1.0,1.0,10.0,0.0,0.0,0.0,4.0,0.0,-0.15906901333333334,-0.18161784,1.0154133733333333,5.406901039999999,0.7405599066666673,-1.5462240133333331,9.110341816357888,3.6533343703003105,3.8725739149371634,-1.4438209876074746,5.857977053387453,-4.784098381837948,7.699877371060804,-2.2919006002308735,7.685307701495877,-2.257965304388308,0.08143201333333334,0.19821984,0.4674966266666667,0.7471484800000001,0.5142716925029595,0.7199998635590084,0.7455300998479233,0.7311712174467434
LBP05_S10,LBP05,-1538,113,10,112,-1538,1715804269.48,2024-05-15 20:17:49.480000+00:00,2024-05-16 05:17:49.480000+09:00,2024,5,15,20,17,49,480,,,,,,,,,-0.34668,-0.147949,0.45874,-50.354004,115.905762,31.066895,,,,,,,,,,,0.0,1.0,1.0,10.0,0.0,0.0,0.0,4.0,0.0,-0.16299478666666667,-0.180625,1.0042577733333333,3.040364586666666,-0.8040364533333327,-2.076822973333333,17.833285485374105,5.133457907457453,5.436315061916433,-0.7304895681925103,6.063315369685751,-4.5666457793612905,7.625723700453867,-2.3063835646187045,7.841129229308064,-2.25384287684327,-0.18368521333333332,0.03267600000000001,-0.5455177733333334,0.7618789866666668,0.5765393478296779,0.7144967587068244,0.7395422894253655,0.7288256705448745
LBP05_S10,LBP05,-1537,114,10,113,-1537,1715804269.52,2024-05-15 20:17:49.520000+00:00,2024-05-16 05:17:49.520000+09:00,2024,5,15,20,17,49,520,,,,,,,,,-0.071289,-0.500488,0.219971,-58.105469,-28.503418,5.615234,,,,,,,,,,,0.0,1.0,1.0,10.0,0.0,0.0,0.0,4.0,0.0,-0.15056641333333334,-0.18472005333333333,0.9917219733333333,2.290852866666666,-2.6961262933333328,-1.9091797466666667,24.462867146220667,5.982407808905766,5.3153888807588086,0.2480251176563164,6.302611682041982,-4.354030224130938,7.664333608752048,-2.257453189886567,8.019821590340138,-2.2542102488716393,0.07927741333333334,-0.31576794666666674,-0.7717509733333333,1.1667963333333333,0.8376120040017659,0.7271540721100735,0.7466074515351532,0.7307631730886963
LBP05_S10,LBP05,-1536,115,10,114,-1536,1715804269.56,2024-05-15 20:17:49.560000+00:00,2024-05-16 05:17:49.560000+09:00,2024,5,15,20,17,49,560,,,,,,,,,0.330566,0.034424,0.626709,164.489746,-48.278809,-6.347656,,,,,,,,,,,0.0,1.0,1.0,10.0,0.0,0.0,0.0,4.0,0.0,-0.13751628,-0.18209635999999998,0.9805859066666668,3.5701497333333325,0.026855480000000397,-1.1897787066666665,27.917083989887264,5.949520794044738,3.7187903388071204,1.364708477251807,6.540592513803771,-4.205278610578653,7.894691118219839,-2.221079693210087,8.205998796820205,-2.2574429964849854,0.46808228,0.21652036,-0.3538769066666668,1.0384795466666668,0.6254685861148398,0.7020624402210864,0.7385576959767163,0.7329069635437269
LBP05_S10,LBP05,-1535,116,10,115,-1535,1715804269.6,2024-05-15 20:17:49.600000+00:00,2024-05-16 05:17:49.600000+09:00,2024,5,15,20,17,49,600,,,,,,,,,0.255127,-0.116211,1.212646,26.123047,69.519043,-16.967773,,,,,,,,,,,0.0,1.0,1.0,10.0,0.0,0.0,0.0,4.0,0.0,-0.14815430666666665,-0.18733724,0.9849055600000001,4.675292973333334,1.097005213333334,-0.366211,27.80116447717486,4.9245629332359355,1.2040429345765495,2.4767550563388014,6.7375750311332085,-4.1571168931955915,8.295230784790839,-2.243133610870526,8.389212645493483,-2.262320568502487,0.4032813066666666,0.07112624,0.22774043999999982,0.7021479866666664,0.46857279299454113,0.684015838941315,0.7318295190222152,0.7282413267993126
LBP05_S10,LBP05,-1534,117,10,116,-1534,1715804269.64,2024-05-15 20:17:49.640000+00:00,2024-05-16 05:17:49.640000+09:00,2024,5,15,20,17,49,640,,,,,,,,,-0.810059,-0.260498,1.711914,27.404785,72.875977,-7.751465,,,,,,,,,,,0.0,1.0,1.0,10.0,0.0,0.0,0.0,4.0,0.0,-0.14939454666666668,-0.19455403999999998,1.0069596,4.708658853333333,-1.538899746666666,0.41829420000000006,24.474436440475408,2.9969419144781804,-1.5341078752320894,3.455732513957818,6.857452707712336,-4.218481208204875,8.761411333256426,-2.229240755410616,8.56636452952745,-2.2634045469719544,-0.6606644533333332,-0.06594396000000002,0.7049543999999999,1.4315628133333331,0.968393944548433,0.708361916133907,0.7364250197571103,0.730073175856365
LBP05_S10,LBP05,-1533,118,10,117,-1533,1715804269.68,2024-05-15 20:17:49.680000+00:00,2024-05-16 05:17:49.680000+09:00,2024,5,15,20,17,49,680,,,,,,,,,-0.862061,-0.169922,1.871338,-13.305664,-82.214355,-14.526367,,,,,,,,,,,0.0,1.0,1.0,10.0,0.0,0.0,0.0,4.0,0.0,-0.14680665333333331,-0.185472,1.01687172,5.970865893333333,-0.17578125333333267,-0.19775397333333322,18.92486732259411,0.4520492681604095,-3.877536328100269,4.212727206861582,6.875534678438752,-4.373582661328886,9.173236774951485,-2.243296904398964,8.737538598026187,-2.257575737876288,-0.7152543466666667,0.015550000000000008,0.85446628,1.5852706266666667,1.11442505651237,0.7106951742490919,0.7496297889571315,0.739463983048913
LBP05_S10,LBP05,-1532,119,10,118,-1532,1715804269.72,2024-05-15 20:17:49.720000+00:00,2024-05-16 05:17:49.720000+09:00,2024,5,15,20,17,49,720,,,,,,,,,-0.080322,-0.378662,1.635986,11.291504,-84.350586,-6.652832,,,,,,,,,,,0.0,1.0,1.0,10.0,0.0,0.0,0.0,4.0,0.0,-0.15997072,-0.18342448,1.0083300533333335,4.437662773333333,2.1500650933333336,-1.2605794933333332,12.474965695770331,-2.3028752510262245,-5.428466425632659,4.711725834692396,6.783419668397704,-4.590721318354192,9.44933145580703,-2.2899077068456335,8.8990784074591,-2.253745197307252,0.07964872,-0.19523752,0.6276559466666665,0.9025421866666665,0.6621280806606967,0.7116767697551915,0.7493951701267466,0.7351076818217417
LBP05_S10,LBP05,-1531,120,10,119,-1531,1715804269.76,2024-05-15 20:17:49.760000+00:00,2024-05-16 05:17:49.760000+09:00,2024,5,15,20,17,49,760,,,,,,,,,-0.207031,0.043701,0.470459,-2.258301,117.248535,-0.915527,,,,,,,,,,,0.0,1.0,1.0,10.0,0.0,0.0,0.0,4.0,0.0,-0.16575522666666667,-0.18595377333333332,0.9966340800000001,1.7675781333333331,0.04394530666666734,-1.2719727199999997,6.418610651740752,-4.845696745502977,-6.052749117848549,4.968470260762025,6.589591798577585,-4.832831283068134,9.563716590037558,-2.300550595871714,9.03937838588557,-2.25317191698551,-0.04127577333333332,0.2296547733333333,-0.52617508,0.7971056266666666,0.5755911910306271,0.7078459193692858,0.7420064760350354,0.7338086596630582
LBP05_S10,LBP05,-1530,121,10,120,-1530,1715804269.8,2024-05-15 20:17:49.800000+00:00,2024-05-16 05:17:49.800000+09:00,2024,5,15,20,17,49,800,,,,,,,,,-0.218262,-0.314697,0.198242,-47.363281,-8.911133,9.887695,,,,,,,,,,,0.0,1.0,1.0,10.0,0.0,0.0,0.0,4.0,0.0,-0.15051760000000003,-0.18717773333333335,0.9828417599999998,1.3126627599999998,-1.387532546666666,-0.6949870399999998,1.7119831276516777,-6.82500052081566,-5.835417081772199,5.036949585868093,6.316591777744959,-5.066247966339022,9.536092557944592,-2.2510988483758565,9.14172403079316,-2.2588478797582234,-0.06774439999999998,-0.12751926666666666,-0.7845997599999998,0.9798634266666664,0.7977764414261815,0.7153061090789212,0.7500842069102661,0.7365732390245117
LBP05_S10,LBP05,-1529,122,10,121,-1529,1715804269.84,2024-05-15 20:17:49.840000+00:00,2024-05-16 05:17:49.840000+09:00,2024,5,15,20,17,49,840,,,,,,,,,0.177979,-0.036377,0.407471,30.700684,-89.355469,-0.793457,,,,,,,,,,,0.0,1.0,1.0,10.0,0.0,0.0,0.0,4.0,0.0,-0.13997398666666666,-0.18050781333333332,0.9742577733333333,1.487630213333333,1.8570963600000006,-0.1342773999999998,-1.1922040343633553,-8.00434690929729,-4.9891511750185105,4.9892614244935585,5.996417901373067,-5.265814013339762,9.411618056048189,-2.2336125092742143,9.192675089176571,-2.266758941711139,0.31795298666666666,0.14413081333333333,-0.5667867733333333,1.0288705733333332,0.6656688662600896,0.6952739975461029,0.7439089824134524,0.7391355443758578
LBP05_S10,LBP05,-1528,123,10,122,-1528,1715804269.88,2024-05-15 20:17:49.880000+00:00,2024-05-16 05:17:49.880000+09:00,2024,5,15,20,17,49,880,,,,,,,,,0.504395,-0.1521,0.940918,-5.981445,6.591797,-13.366699,,,,,,,,,,,0.0,1.0,1.0,10.0,0.0,0.0,0.0,4.0,0.0,-0.15660158666666665,-0.187972,0.9819954133333334,1.1848958266666663,1.9799804800000007,0.05859369333333352,-2.3401398428347573,-8.279339934646655,-3.7611972110717584,4.895655830780168,5.665244303987201,-5.416261901782632,9.241121794782995,-2.2680781589283416,9.188711444596697,-2.276215633480308,0.6609965866666667,0.03587199999999999,-0.04107741333333337,0.7379460000000001,0.6632425211452759,0.6904358673583046,0.7410987361940415,0.7352148832654727
LBP05_S10,LBP05,-1527,124,10,123,-1527,1715804269.92,2024-05-15 20:17:49.920000+00:00,2024-05-16 05:17:49.920000+09:00,2024,5,15,20,17,49,920,,,,,,,,,-0.280762,-0.356201,1.431641,16.601562,95.76416,-8.056641,,,,,,,,,,,0.0,1.0,1.0,10.0,0.0,0.0,0.0,4.0,0.0,-0.15680992,-0.19478839999999997,1.0064485333333333,2.4641926933333327,-1.4591471333333323,0.22460930666666684,-2.1395688907420034,-7.680009816819771,-2.3683987361701173,4.810073075150488,5.35804391131441,-5.510997851229437,9.067333393016746,-2.2517203866691444,9.136253779469202,-2.2772170067893485,-0.12395208000000002,-0.16141260000000002,0.42519246666666666,0.7105571466666667,0.4713881407981865,0.6973342403899983,0.7377543561042917,0.7284634966291967
LBP05_S10,LBP05,-1526,125,10,124,-1526,1715804269.96,2024-05-15 20:17:49.960000+00:00,2024-05-16 05:17:49.960000+09:00,2024,5,15,20,17,49,960,,,,,,,,,-0.790771,-0.335693,1.726807,33.935547,-68.29834,9.277344,,,,,,,,,,,0.0,1.0,1.0,10.0,0.0,0.0,0.0,4.0,0.0,-0.15440106666666664,-0.18149088,1.01519528,3.744303373333333,-0.5444335999999992,-0.27180995999999974,-1.1714202346237044,-6.362910322646904,-0.9674722296942948,4.763216265765539,5.103527498408534,-5.549696740417208,8.918147567295737,-2.2778393209372254,9.046645248388987,-2.273133382494134,-0.6363699333333334,-0.15420212000000003,0.7116117200000001,1.5021837733333334,0.9670244184634244,0.7061812617714406,0.7483238966450385,0.7347456877794649
LBP05_S10,LBP05,-1525,126,10,125,-1525,1715804270.0,2024-05-15 20:17:50+00:00,2024-05-16 05:17:50+09:00,2024,5,15,20,17,50,0,20.0,17.0,50.0,40.677574,141.608276,8.687,3.0,9.0,-0.130615,-0.107178,1.556641,16.296387,-105.102539,6.347656,-564.0,68.0,549.0,25.0,0.0,1020.200012,16.360001,0.07135,-57.669693,3.789844,0.0,1.0,1.0,10.0,0.0,0.0,0.0,3.0,0.0,-0.16716473333333334,-0.17928058666666666,1.0045637733333332,1.5901692666666665,0.4842122400000009,-0.7535807866666664,-0.03561045847561132,-4.597305144132674,0.3453503570164976,4.761791847426514,4.9196352926432265,-5.535882726136548,8.804741368624944,-2.32224423039968,8.930321950182378,-2.271079484337718,0.036549733333333334,0.07210258666666666,0.5520772266666667,0.6607295466666667,0.5579640940192478,0.7081221353232106,0.7447517988762743,0.7286252054641293
LBP05_S10,LBP05,-1524,127,10,126,-1524,1715804270.04,2024-05-15 20:17:50.040000+00:00,2024-05-16 05:17:50.040000+09:00,2024,5,15,20,17,50,40,,,,,,,,,-0.062256,-0.026367,0.543457,-48.278809,105.651855,1.647949,,,,,,,,,,,0.0,1.0,1.0,10.0,0.0,0.0,0.0,3.0,0.0,-0.16759117333333332,-0.17916990666666668,0.9897981466666667,0.5989583199999996,-2.1801757733333327,-0.921224013333333,0.7253425519000778,-2.7368864999072464,1.5123042123221784,4.790805549502518,4.810159832646937,-5.475390557643661,8.721774887457684,-2.323807673102308,8.793425532160095,-2.272298061102984,0.10533517333333331,0.15280290666666668,-0.4463411466666667,0.7044792266666666,0.4833887113231548,0.7103507626440698,0.7327475321454603,0.7266804305202196
LBP05_S10,LBP05,-1523,128,10,127,-1523,1715804270.08,2024-05-15 20:17:50.080000+00:00,2024-05-16 05:17:50.080000+09:00,2024,5,15,20,17,50,80,,,,,,,,,-0.213623,-0.152832,0.086426,-65.490723,16.601562,-2.990723,,,,,,,,,,,0.0,1.0,1.0,10.0,0.0,0.0,0.0,3.0,0.0,-0.14756838666666666,-0.18263018666666664,0.97344072,0.227864573333333,-2.499186186666666,-0.530599013333333,0.6485880436440354,-1.1589539427619402,2.4776307566548903,4.816749071248279,4.76380167493646,-5.376285327377466,8.648660123676546,-2.2533106374893666,8.638119761803216,-2.2755161890728894,-0.06605461333333335,0.029798186666666643,-0.88701472,0.98286752,0.8899698069979206,0.7151885090974425,0.7401248198566968,0.7312562500508658
LBP05_S10,LBP05,-1522,129,10,128,-1522,1715804270.12,2024-05-15 20:17:50.120000+00:00,2024-05-16 05:17:50.120000+09:00,2024,5,15,20,17,50,120,,,,,,,,,0.015869,-0.120361,0.35376,7.141113,-59.509277,-20.385742,,,,,,,,,,,0.0,1.0,1.0,10.0,0.0,0.0,0.0,3.0,0.0,-0.14100588,-0.17599932000000001,0.9670182000000002,0.3759765599999996,1.034342453333334,-0.1774089066666664,-0.6074986827899845,-0.17734154247831962,3.153133511276427,4.79244912393668,4.7567080132373265,-5.250159986926409,8.553246145004875,-2.2490714638934897,8.465755588717984,-2.2817544600697257,0.15687488,0.05563832000000002,-0.6132582000000002,0.8257714000000003,0.6354454897901763,0.7044806666556375,0.7314309729203091,0.7349866729610957
LBP05_S10,LBP05,-1521,130,10,129,-1521,1715804270.16,2024-05-15 20:17:50.160000+00:00,2024-05-16 05:17:50.160000+09:00,2024,5,15,20,17,50,160,,,,,,,,,0.493652,-0.051758,0.686035,46.142578,-19.348145,1.586914,,,,,,,,,,,0.0,1.0,1.0,10.0,0.0,0.0,0.0,3.0,0.0,-0.15373374666666664,-0.17993812,0.9789810933333333,0.30029295999999966,-0.33610025333333265,-0.3906250533333331,-3.1450771401558777,0.03635031174854886,3.410262688683978,4.666646038330445,4.758162025707269,-5.11374947937905,8.400483607971474,-2.280011614307552,8.280330170919646,-2.2861891807539916,0.6473857466666666,0.12818012,-0.2929460933333333,1.06851196,0.7220497640395943,0.7135121801816712,0.731848132749367,0.7305548531252425
LBP05_S10,LBP05,-1520,131,10,130,-1520,1715804270.2,2024-05-15 20:17:50.200000+00:00,2024-05-16 05:17:50.200000+09:00,2024,5,15,20,17,50,200,,,,,,,,,0.026367,-0.249023,1.21167,-10.742188,91.918945,18.676758,,,,,,,,,,,0.0,1.0,1.0,10.0,0.0,0.0,0.0,3.0,0.0,-0.15347658666666666,-0.1860025733333333,1.0049218533333333,1.464843733333333,-2.687174466666666,-0.08219405333333302,-6.659205025638801,-0.5049577428495543,3.1159315473904483,4.400277837304893,4.737963715993287,-4.989112217483432,8.167128377721756,-2.263284616028518,8.089667461881756,-2.283925505511565,0.17984358666666667,-0.06302042666666668,0.20674814666666674,0.4496121600000001,0.28117625431832094,0.6882053185984003,0.7222789462708762,0.7238433092710224
LBP05_S10,LBP05,-1519,132,10,131,-1519,1715804270.24,2024-05-15 20:17:50.240000+00:00,2024-05-16 05:17:50.240000+09:00,2024,5,15,20,17,50,240,,,,,,,,,-0.799561,-0.491211,1.759277,89.904785,-7.629395,9.94873,,,,,,,,,,,0.0,1.0,1.0,10.0,0.0,0.0,0.0,3.0,0.0,-0.15143882666666666,-0.18252276,1.0156119466666667,1.9498697733333332,-0.9163411333333329,-0.552571653333333,-10.337528271849909,-1.6077817843459032,2.2034325211126893,3.9867767064308968,4.67365244461945,-4.9009749166389245,7.858560352479407,-2.26579378897327,7.904277889742906,-2.27850017008959,-0.6481221733333333,-0.30868824,0.7436650533333333,1.7004754666666666,1.0336287982781296,0.6988418981700063,0.7309273903148227,0.7322333464446421
LBP05_S10,LBP05,-1518,133,10,132,-1518,1715804270.28,2024-05-15 20:17:50.280000+00:00,2024-05-16 05:17:50.280000+09:00,2024,5,15,20,17,50,280,,,,,,,,,-0.261475,-0.081543,1.638916,35.095215,-116.088867,19.287109,,,,,,,,,,,0.0,1.0,1.0,10.0,0.0,0.0,0.0,3.0,0.0,-0.1653060133333333,-0.17429684,1.0043196266666667,0.468749973333333,0.08626302666666713,-1.350097693333333,-12.960491151938754,-2.951406791496971,0.7419097839393244,3.4683570603533465,4.5555961729595715,-4.871298525281351,7.51748006393067,-2.3304608688967052,7.736693953915852,-2.2744940109369067,-0.0961689866666667,0.09275384,0.6345963733333333,0.8235192,0.6485092951369767,0.6996288443068365,0.7229339021410103,0.7280609693072921
LBP05_S10,LBP05,-1517,134,10,133,-1517,1715804270.32,2024-05-15 20:17:50.320000+00:00,2024-05-16 05:17:50.320000+09:00,2024,5,15,20,17,50,320,,,,,,,,,0.114258,-0.008301,0.80249,-106.201172,85.205078,-6.896973,,,,,,,,,,,0.0,1.0,1.0,10.0,0.0,0.0,0.0,3.0,0.0,-0.16212891999999998,-0.18357093333333332,0.9906379866666667,-1.4713542000000004,-1.9344075466666664,-1.2280273866666664,-13.249774266059575,-4.17906960477512,-1.038974526269884,2.9383660897109634,4.388433388768567,-4.912857506332147,7.213079215033354,-2.2960675935117982,7.603148673933968,-2.276272701995448,0.27638692,0.17526993333333332,-0.18814798666666666,0.6398048399999999,0.37750356814800795,0.6920172556411524,0.7085993200037357,0.7228706428691722
LBP05_S10,LBP05,-1516,135,10,134,-1516,1715804270.36,2024-05-15 20:17:50.360000+00:00,2024-05-16 05:17:50.360000+09:00,2024,5,15,20,17,50,360,,,,,,,,,-0.297607,-0.02002,0.018311,-166.809082,2.929688,-22.399902,,,,,,,,,,,0.0,1.0,1.0,10.0,0.0,0.0,0.0,3.0,0.0,-0.14564780000000002,-0.17949866666666667,0.9773144133333334,0.39550778666666647,-0.6396484399999998,-1.0571289466666662,-10.358317327943093,-4.99296938155972,-2.7904265746041492,2.5240333965932398,4.1887146135061775,-5.024474569316313,7.0115204769168695,-2.255202568512959,7.5255840729114905,-2.280801406292316,-0.1519592,0.15947866666666666,-0.9590034133333334,1.27044128,0.9839779420146582,0.7026474036741557,0.7151713584445756,0.7265956345222356
LBP05_S10,LBP05,-1515,136,10,135,-1515,1715804270.4,2024-05-15 20:17:50.400000+00:00,2024-05-16 05:17:50.400000+09:00,2024,5,15,20,17,50,400,,,,,,,,,0.029785,-0.503418,0.391113,-38.146973,-67.871094,2.685547,,,,,,,,,,,0.0,1.0,1.0,10.0,0.0,0.0,0.0,3.0,0.0,-0.14681642666666667,-0.17615557333333332,0.9744498266666667,1.2703450266666665,2.054036453333334,-0.5289713866666664,-4.263691946687644,-5.220548789144981,-4.137448344492575,2.353485718725734,3.979892661940378,-5.1899725030960155,6.950845647236426,-2.267990876179936,7.5305447712673566,-2.2837411011345794,0.17660142666666667,-0.3272624266666667,-0.5833368266666668,1.08720068,0.6917879828054215,0.6885401916464271,0.7076721863543746,0.7299385063671994
LBP05_S10,LBP05,-1514,137,10,136,-1514,1715804270.44,2024-05-15 20:17:50.440000+00:00,2024-05-16 05:17:50.440000+09:00,2024,5,15,20,17,50,440,,,,,,,,,0.426025,0.009766,0.626465,135.437012,-8.239746,-12.329102,,,,,,,,,,,0.0,1.0,1.0,10.0,0.0,0.0,0.0,3.0,0.0,-0.15822268,-0.18378253333333333,0.9884049066666667,0.7291666399999998,-0.5729166799999996,-0.36946617333333304,4.164712834869737,-4.841410283627589,-4.784252938659171,2.5200742321205234,3.7862362505952745,-5.381342620642382,7.045935529187151,-2.2837460815754715,7.644180028706406,-2.285466328920374,0.58424768,0.19354853333333333,-0.36193990666666664,1.13973612,0.7140076206727364,0.6965296287732181,0.7082647461661132,0.7291966094896882
LBP05_S10,LBP05,-1513,138,10,137,-1513,1715804270.48,2024-05-15 20:17:50.480000+00:00,2024-05-16 05:17:50.480000+09:00,2024,5,15,20,17,50,480,,,,,,,,,-0.016846,-0.299561,1.26709,51.879883,86.303711,1.281738,,,,,,,,,,,0.0,1.0,1.0,10.0,0.0,0.0,0.0,3.0,0.0,-0.15615886666666665,-0.18619790666666666,1.0083300400000001,1.5185546533333332,-2.078450533333333,0.006510386666666932,13.472657283866615,-3.978866762346962,-4.592992718732717,3.058980523475188,3.627081580101396,-5.565062329391691,7.3132073238576965,-2.2710975480747795,7.885527738618538,-2.2834733424698292,0.13931286666666665,-0.11336309333333336,0.2587599599999999,0.5114359199999999,0.31498568641795144,0.6860674823167492,0.7002821205117868,0.7217173537224933
LBP05_S10,LBP05,-1512,139,10,138,-1512,1715804270.52,2024-05-15 20:17:50.520000+00:00,2024-05-16 05:17:50.520000+09:00,2024,5,15,20,17,50,520,,,,,,,,,-0.81665,-0.24292,1.7146,34.606934,-14.465332,-13.549805,,,,,,,,,,,0.0,1.0,1.0,10.0,0.0,0.0,0.0,3.0,0.0,-0.15943361333333333,-0.18111653333333333,1.0091601199999998,0.9326171466666665,0.29134113333333367,-0.23030602666666639,22.12508321236981,-2.868746405780226,-3.6135488948845906,3.9439838519699806,3.5123317238701866,-5.7096042851870745,7.777600134780104,-2.294358506862169,8.260759285899251,-2.276268798438153,-0.6572163866666667,-0.06180346666666667,0.7054398800000001,1.4244597333333335,0.966125494793312,0.691208021948411,0.7091810470292422,0.7281409750062391
LBP05_S10,LBP05,-1511,140,10,139,-1511,1715804270.56,2024-05-15 20:17:50.560000+00:00,2024-05-16 05:17:50.560000+09:00,2024,5,15,20,17,50,560,,,,,,,,,-0.392822,-0.287842,1.693115,59.997559,-120.544434,-6.408691,,,,,,,,,,,0.0,1.0,1.0,10.0,0.0,0.0,0.0,3.0,0.0,-0.16576823999999998,-0.18257486666666664,0.99637692,-1.525065146666667,-0.45979818666666633,-0.6689453466666664,28.94147813270961,-1.822304619202022,-2.060457428773899,5.101642977278365,3.4394395391021058,-5.7920225823380305,8.450090591530143,-2.3094085627301877,8.760464822156722,-2.272573742806453,-0.22705376000000002,-0.10526713333333335,0.6967380799999999,1.0290589733333333,0.7403232614287097,0.6958022089609658,0.698932324591026,0.7243058669714662
LBP05_S10,LBP05,-1510,141,10,140,-1510,1715804270.6,2024-05-15 20:17:50.600000+00:00,2024-05-16 05:17:50.600000+09:00,2024,5,15,20,17,50,600,,,,,,,,,0.000732,-0.189941,0.820068,-11.962891,62.866211,9.94873,,,,,,,,,,,0.0,1.0,1.0,10.0,0.0,0.0,0.0,3.0,0.0,-0.15728842666666665,-0.18392902666666666,0.9821777066666666,-0.5729167200000004,-2.3120117333333328,-1.4274088799999995,33.28974270269179,-1.182665887097936,-0.24621540879539278,6.433232685386036,3.3921329036181884,-5.801871198689846,9.303480952112233,-2.280536893886463,9.361221916322597,-2.2739934074154644,0.15802042666666666,-0.006011973333333337,-0.16210970666666658,0.32614210666666654,0.22646446975812512,0.6861178760315092,0.6850668574864122,0.7165923046919799
LBP05_S10,LBP05,-1509,142,10,141,-1509,1715804270.64,2024-05-15 20:17:50.640000+00:00,2024-05-16 05:17:50.640000+09:00,2024,5,15,20,17,50,640,,,,,,,,,-0.21167,-0.277588,0.110352,-5.67627,39.001465,15.258789,,,,,,,,,,,0.0,1.0,1.0,10.0,0.0,0.0,0.0,3.0,0.0,-0.14189780000000002,-0.17832681333333333,0.96965492,-0.025227920000000285,-0.5729166799999996,-1.6113281599999998,35.03406180654569,-1.2533093441398517,1.5091007212691865,7.834595157647864,3.3420005298525943,-5.741507169839078,10.272037451600724,-2.2458639244678227,10.030494246635044,-2.274581506385819,-0.06977219999999998,-0.09926118666666667,-0.85930292,1.0283363066666666,0.8678262795005929,0.6820951694295956,0.6952285427817513,0.7183150696479388
LBP05_S10,LBP05,-1508,143,10,142,-1508,1715804270.68,2024-05-15 20:17:50.680000+00:00,2024-05-16 05:17:50.680000+09:00,2024,5,15,20,17,50,680,,,,,,,,,-0.097656,0.124756,0.326904,44.98291,-45.10498,-9.460449,,,,,,,,,,,0.0,1.0,1.0,10.0,0.0,0.0,0.0,3.0,0.0,-0.14655601333333332,-0.17942706666666666,0.9692708133333334,-0.7145182933333336,1.109212226666667,-1.350911493333333,34.353718384236146,-2.1944941191253498,2.964356375035141,9.20874389301731,3.2542207650875805,-5.622932914837673,11.26979553673782,-2.2584154285799407,10.731488167621144,-2.2762104275544677,0.04890001333333331,0.30418306666666667,-0.6423668133333335,0.9954498933333334,0.7124280119582326,0.6660152876474301,0.6883552309482609,0.7217582885205643
LBP05_S10,LBP05,-1507,144,10,143,-1507,1715804270.72,2024-05-15 20:17:50.720000+00:00,2024-05-16 05:17:50.720000+09:00,2024,5,15,20,17,50,720,,,,,,,,,0.467529,-0.224121,0.645508,-23.010254,-26.184082,4.455566,,,,,,,,,,,0.0,1.0,1.0,10.0,0.0,0.0,0.0,3.0,0.0,-0.15398766666666666,-0.18830726666666667,0.9901106533333335,-0.46061204000000033,-1.4103190266666663,-0.6681315466666664,31.57473958338853,-3.9245730851006164,4.0144936169025165,10.471733476352851,3.097237841683556,-5.462353170161572,12.210134577608052,-2.2591170371948004,11.425519676625143,-2.277626694750258,0.6215166666666666,-0.03581373333333332,-0.3446026533333335,1.0019330533333335,0.7115592590389708,0.667992534782561,0.6898346522688762,0.7222609583453514
LBP05_S10,LBP05,-1506,145,10,144,-1506,1715804270.76,2024-05-15 20:17:50.760000+00:00,2024-05-16 05:17:50.760000+09:00,2024,5,15,20,17,50,760,,,,,,,,,0.179199,-0.185791,1.323242,61.950684,91.674805,4.760742,,,,,,,,,,,0.0,1.0,1.0,10.0,0.0,0.0,0.0,3.0,0.0,-0.15318689333333332,-0.18327470666666668,1.0066340933333333,1.9490559333333333,-2.308756533333333,-0.3694661733333331,27.099139976900506,-6.078223437372133,4.705163666027385,11.55569907542887,2.8541089041886707,-5.274146623520477,13.019091418575613,-2.269399214603074,12.073046187419196,-2.271362580522445,0.33238589333333335,-0.002516293333333336,0.3166079066666667,0.6515100933333334,0.45905041159221954,0.6633309036050247,0.6855884114871553,0.7157812852250318
LBP05_S10,LBP05,-1505,146,10,145,-1505,1715804270.8,2024-05-15 20:17:50.800000+00:00,2024-05-16 05:17:50.800000+09:00,2024,5,15,20,17,50,800,,,,,,,,,-0.785889,-0.59375,1.792969,87.646484,10.498047,22.583008,,,,,,,,,,,0.0,1.0,1.0,10.0,0.0,0.0,0.0,3.0,0.0,-0.15794274666666666,-0.18725582666666665,1.0066829199999998,0.7332356133333331,-0.042317719999999594,-0.016276066666666367,21.422767288984215,-8.0575269992994,5.20444130851969,12.41260976698824,2.5318078242166946,-5.065968971179689,13.643568950360903,-2.2738718658834824,12.635801601896613,-2.263641006469954,-0.6279462533333333,-0.4064941733333334,0.7862860800000002,1.820726506666667,1.085264856904105,0.6748304402241416,0.6950682746515315,0.7249996180148913
LBP05_S10,LBP05,-1504,147,10,146,-1504,1715804270.84,2024-05-15 20:17:50.840000+00:00,2024-05-16 05:17:50.840000+09:00,2024,5,15,20,17,50,840,,,,,,,,,-0.399658,-0.247803,1.764648,64.758301,-149.597168,13.000488,,,,,,,,,,,0.0,1.0,1.0,10.0,0.0,0.0,0.0,3.0,0.0,-0.16614586666666667,-0.18659828,0.9943587066666667,0.35319003999999987,-0.7877604266666663,-0.137532573333333,15.156387137476495,-9.181970270573407,5.73712716043009,13.0188652524873,2.1645290133937585,-4.836483884762486,14.055874739048146,-2.3000352932619577,13.080141688069096,-2.2612691594561434,-0.23351213333333334,-0.06120471999999999,0.7702892933333333,1.0650061466666667,0.8072295395908954,0.6804928671573738,0.6878834323517382,0.7227702773280928
LBP05_S10,LBP05,-1503,148,10,147,-1503,1715804270.88,2024-05-15 20:17:50.880000+00:00,2024-05-16 05:17:50.880000+09:00,2024,5,15,20,17,50,880,,,,,,,,,0.183594,-0.057617,0.97876,-46.142578,18.249512,-3.356934,,,,,,,,,,,0.0,1.0,1.0,10.0,0.0,0.0,0.0,3.0,0.0,-0.15796551999999997,-0.18291664,0.9788834399999999,-0.11311854666666694,-3.076171893333333,-0.48014325333333296,8.954276063811742,-8.897024373042411,6.493475826449481,13.37703629503977,1.808648038472062,-4.576744851704507,14.253522413897691,-2.2852602200326824,13.379750525989555,-2.2631409554045834,0.34155952,0.12529964,-0.00012343999999997468,0.46698259999999997,0.36381715287241967,0.6685158524264595,0.6794758598923822,0.7169044416048476
LBP05_S10,LBP05,-1502,149,10,148,-1502,1715804270.92,2024-05-15 20:17:50.920000+00:00,2024-05-16 05:17:50.920000+09:00,2024,5,15,20,17,50,920,,,,,,,,,-0.435547,0.219727,0.031982,-9.277344,80.01709,-38.757324,,,,,,,,,,,0.0,1.0,1.0,10.0,0.0,0.0,0.0,3.0,0.0,-0.1395508,-0.18070634666666668,0.9654426933333333,0.6233723466666665,-2.107747413333333,-0.965169293333333,3.329263611247977,-6.9595563903884905,7.540286797325425,13.51020683948969,1.5302657828565223,-4.275133379811489,14.252865242720633,-2.2317173645840405,13.516803933576094,-2.2649849144004564,-0.29599620000000004,0.4004333466666667,-0.9334606933333334,1.6298902400000002,1.0579742348164507,0.6919792961871901,0.6946567682885941,0.7224960027985912
LBP05_S10,LBP05,-1501,150,10,149,-1501,1715804270.96,2024-05-15 20:17:50.960000+00:00,2024-05-16 05:17:50.960000+09:00,2024,5,15,20,17,50,960,,,,,,,,,-0.022949,-0.160156,0.245361,-112.609863,-57.434082,-4.516602,,,,,,,,,,,0.0,1.0,1.0,10.0,0.0,0.0,0.0,3.0,0.0,-0.14013348,-0.18129229333333333,0.9634830666666666,-0.9903971866666668,0.36621092000000033,-1.6056315333333329,-1.5511251817841496,-3.5299293594107297,8.779172110363696,13.448161832218325,1.389068608480093,-3.9239664953969413,14.077644736304306,-2.23219282220528,13.482338602539022,-2.26906448453,0.11718448000000001,0.021136293333333334,-0.7181220666666666,0.8564428399999999,0.727927364427487,0.6824154140257527,0.6942983378985965,0.7263544024386098
LBP05_S10,LBP05,-1500,151,10,150,-1500,1715804271.0,2024-05-15 20:17:51+00:00,2024-05-16 05:17:51+09:00,2024,5,15,20,17,51,0,20.0,17.0,51.0,40.677505,141.608215,8.381,3.0,9.0,0.309814,-0.522217,0.635254,-40.100098,-62.988281,38.696289,-566.0,67.0,551.0,35.0,0.0,1020.599976,16.42,0.075314,-60.978813,3.789844,0.0,1.0,1.0,10.0,0.0,0.0,0.0,7.0,0.0,-0.14848308000000002,-0.18240231999999998,0.9808463466666668,-0.5501302533333334,-1.5234375199999997,-1.917317733333333,-5.929136573829205,0.8462149078412841,9.988290598402937,13.210996369265157,1.4229172047937444,-3.524434871460824,13.746881813837067,-2.256818423748352,13.276598805760425,-2.2676605546631974,0.45829708,-0.33981468000000004,-0.3455923466666668,1.1437041066666669,0.6670414532505476,0.6867785083950046,0.6974503218591076,0.725427368715851
LBP05_S10,LBP05,-1499,152,10,151,-1499,1715804271.04,2024-05-15 20:17:51.040000+00:00,2024-05-16 05:17:51.040000+09:00,2024,5,15,20,17,51,40,,,,,,,,,0.205811,-0.159668,1.044434,66.894531,65.856934,47.424316,,,,,,,,,,,0.0,1.0,1.0,10.0,0.0,0.0,0.0,7.0,0.0,-0.1504394666666667,-0.1817936,1.0015559733333332,0.7462564666666666,-2.5496419466666667,-1.9116211199999995,-10.280469759837796,5.350018912166835,10.936731924389594,12.799777578871645,1.6369179612804179,-3.08696559448524,13.268125830805317,-2.2645818839522236,12.90899336579034,-2.2609779769382756,0.3562504666666667,0.022125599999999995,0.042878026666666846,0.4212540933333335,0.3595030769637517,0.6818230830206286,0.6960869228323493,0.7157727157705164
LBP05_S10,LBP05,-1498,153,10,152,-1498,1715804271.08,2024-05-15 20:17:51.080000+00:00,2024-05-16 05:17:51.080000+09:00,2024,5,15,20,17,51,80,,,,,,,,,-0.622559,-0.281982,1.580078,118.95752,55.847168,37.597656,,,,,,,,,,,0.0,1.0,1.0,10.0,0.0,0.0,0.0,7.0,0.0,-0.15556641333333335,-0.18326821333333332,1.0036816266666666,-1.8326823333333335,-0.28483074666666597,-1.7488607066666662,-14.955171701854614,9.072198412049733,11.502697838517044,12.20157071079746,1.9998058977624074,-2.6268576809445583,12.640329612603193,-2.2768550185386704,12.396610820359895,-2.255431617693707,-0.46699258666666665,-0.09871378666666669,0.5763963733333335,1.142102746666667,0.7483710756513214,0.6761591337667646,0.6956738214321035,0.718802924493386
LBP05_S10,LBP05,-1497,154,10,153,-1497,1715804271.12,2024-05-15 20:17:51.120000+00:00,2024-05-16 05:17:51.120000+09:00,2024,5,15,20,17,51,120,,,,,,,,,-0.538086,-0.240967,1.728516,1.281738,-81.054688,20.385742,,,,,,,,,,,0.0,1.0,1.0,10.0,0.0,0.0,0.0,7.0,0.0,-0.16344401333333333,-0.18359698666666666,0.9886295466666667,-3.7825521333333336,-1.1206054799999994,-1.6634114933333328,-19.848996958602022,11.227460751403724,11.710064680391131,11.40761083245338,2.4489043278185565,-2.158455093728913,11.865481267237348,-2.2999127384902396,11.760866221330005,-2.2530794718018354,-0.3746419866666666,-0.05737001333333333,0.7398864533333332,1.1718984533333332,0.8313121558293205,0.6839938004083304,0.694237233531984,0.7156185820829829
LBP05_S10,LBP05,-1496,155,10,154,-1496,1715804271.16,2024-05-15 20:17:51.160000+00:00,2024-05-16 05:17:51.160000+09:00,2024,5,15,20,17,51,160,,,,,,,,,0.069824,0.1521,1.122559,-27.038574,50.354004,-35.949707,,,,,,,,,,,0.0,1.0,1.0,10.0,0.0,0.0,0.0,7.0,0.0,-0.14975585333333336,-0.18457029333333333,0.97260416,-2.6977539600000005,-2.7229817866666663,-1.7008463866666663,-24.339594878599797,11.343020137727336,11.648772622849924,10.434027037309388,2.90262513332765,-1.6925041888149162,10.96169345078965,-2.2553599159350433,11.02330175581005,-2.255110140723379,0.21957985333333335,0.3366702933333333,0.14995484000000003,0.7062049866666668,0.4290089188379031,0.6722721666002627,0.692892173390967,0.7119894773663322
LBP05_S10,LBP05,-1495,156,10,155,-1495,1715804271.2,2024-05-15 20:17:51.200000+00:00,2024-05-16 05:17:51.200000+09:00,2024,5,15,20,17,51,200,,,,,,,,,-0.497803,0.156738,0.026611,-100.769043,103.69873,-59.814453,,,,,,,,,,,0.0,1.0,1.0,10.0,0.0,0.0,0.0,7.0,0.0,-0.13319985333333334,-0.18176430666666665,0.9623144400000001,-2.07031256,-0.8854166933333328,-1.302083373333333,-27.56665075861419,9.369651692490244,11.332531541218584,9.331361006964821,3.2774112010272596,-1.2392029271661729,9.967514550660043,-2.2070460886342693,10.202518312545859,-2.2591332158861666,-0.36460314666666666,0.33850230666666664,-0.93570344,1.6388088933333333,1.059745343847154,0.7034149301814161,0.6958101243899083,0.7159909409077229
LBP05_S10,LBP05,-1494,157,10,156,-1494,1715804271.24,2024-05-15 20:17:51.240000+00:00,2024-05-16 05:17:51.240000+09:00,2024,5,15,20,17,51,240,,,,,,,,,-0.031006,-0.30957,0.325439,-179.260254,-67.321777,13.73291,,,,,,,,,,,0.0,1.0,1.0,10.0,0.0,0.0,0.0,7.0,0.0,-0.14283853333333332,-0.18003578666666667,0.9613313733333333,-1.282552146666667,1.5144856533333337,-1.034342493333333,-28.904501295634155,5.685203694622578,10.606037803100252,8.175180955139455,3.5048193488121626,-0.8149614150421628,8.932049284743703,-2.24457170081627,9.313777422510256,-2.2633567276678717,0.11183253333333332,-0.12953421333333334,-0.6358923733333333,0.87725912,0.6585170752525221,0.6884104612603917,0.6936261797151989,0.7167550806300124
LBP05_S10,LBP05,-1493,158,10,157,-1493,1715804271.28,2024-05-15 20:17:51.280000+00:00,2024-05-16 05:17:51.280000+09:00,2024,5,15,20,17,51,280,,,,,,,,,0.409668,-0.642822,0.787109,-39.733887,-63.049316,58.105469,,,,,,,,,,,0.0,1.0,1.0,10.0,0.0,0.0,0.0,7.0,0.0,-0.15294270666666668,-0.18600584,0.9794661333333333,-1.42822272,-1.9677734533333326,-0.9334310399999997,-28.337117924116516,0.9881950441561551,9.189775991370482,7.041696238174794,3.544347150578409,-0.44737037538734353,7.896076423598783,-2.261738761113963,8.371484542401907,-2.2651070382084577,0.5626107066666667,-0.45681616,-0.19235713333333337,1.211784,0.7498086942929706,0.6924624372266314,0.696045640766734,0.7127767471695506
LBP05_S10,LBP05,-1492,159,10,158,-1492,1715804271.32,2024-05-15 20:17:51.320000+00:00,2024-05-16 05:17:51.320000+09:00,2024,5,15,20,17,51,320,,,,,,,,,0.035156,0.083984,1.267578,91.308594,77.941895,48.76709,,,,,,,,,,,0.0,1.0,1.0,10.0,0.0,0.0,0.0,7.0,0.0,-0.14820637333333334,-0.18387693333333333,0.9969661333333333,0.06429029333333328,-2.749837253333333,-1.146647186666666,-26.501172688135803,-3.8811995426949006,6.851165936704222,5.981649330649361,3.389099168870613,-0.17332373791917466,6.877220587521074,-2.2520240537994822,7.394156129270163,-2.2621405699348704,0.18336237333333333,0.26786093333333333,0.2706118666666668,0.7218351733333335,0.4226133243775627,0.6942668274758137,0.693142041558483,0.7038218224944284
LBP05_S10,LBP05,-1491,160,10,159,-1491,1715804271.36,2024-05-15 20:17:51.360000+00:00,2024-05-16 05:17:51.360000+09:00,2024,5,15,20,17,51,360,,,,,,,,,-0.895508,-0.423828,1.802979,-6.469727,18.371582,21.362305,,,,,,,,,,,0.0,1.0,1.0,10.0,0.0,0.0,0.0,7.0,0.0,-0.15513021333333335,-0.18446938666666665,0.9951171733333333,-0.4728190933333334,0.42805988000000034,-1.2491862533333329,-24.376588713231897,-8.128312272066953,3.5914721522252573,5.006585782120085,3.063966677987935,-0.029664851830164374,5.869810303662421,-2.2724235738331515,6.413665214370676,-2.2596249442462044,-0.7403777866666666,-0.23935861333333333,0.8078618266666668,1.7875982266666668,1.1216472456844406,0.6997735996226049,0.7012105016483803,0.7100387721705853
LBP05_S10,LBP05,-1490,161,10,160,-1490,1715804271.4,2024-05-15 20:17:51.400000+00:00,2024-05-16 05:17:51.400000+09:00,2024,5,15,20,17,51,400,,,,,,,,,-0.46875,-0.331787,1.866699,28.259277,-146.789551,-2.563477,,,,,,,,,,,0.0,1.0,1.0,10.0,0.0,0.0,0.0,7.0,0.0,-0.16357422666666668,-0.18407876,0.9845637866666668,-1.1791993066666666,-0.21728517333333297,-1.2272135999999996,-22.82197557613464,-11.147028520897468,-0.28004637196137516,4.0937067590747,2.618085537152036,-0.04086670670861938,4.859472913481024,-2.299053541565406,5.491965250665045,-2.262761695928145,-0.30517577333333334,-0.14770824,0.8821352133333333,1.3350192266666667,0.9450463011917147,0.7099039323580567,0.6992220620022419,0.7084161016889353
LBP05_S10,LBP05,-1489,162,10,161,-1489,1715804271.44,2024-05-15 20:17:51.440000+00:00,2024-05-16 05:17:51.440000+09:00,2024,5,15,20,17,51,440,,,,,,,,,0.165039,0.498291,1.054199,26.428223,37.658691,-39.123535,,,,,,,,,,,0.0,1.0,1.0,10.0,0.0,0.0,0.0,7.0,0.0,-0.15605469333333333,-0.18189777333333335,0.97335936,-0.9562175333333335,-2.3575846533333333,-1.0978190666666663,-22.222455423173816,-12.593287134392947,-4.237214657423085,3.2048085421477475,2.114354051776318,-0.2103552930055428,3.8451970297218256,-2.2820849893580837,4.70730510014569,-2.269394548055412,0.3210936933333333,0.6801887733333334,0.0808396400000001,1.0821221066666666,0.7565004789572014,0.7116036466894353,0.7040666377313266,0.7093777130072205
LBP05_S10,LBP05,-1488,163,10,162,-1488,1715804271.48,2024-05-15 20:17:51.480000+00:00,2024-05-16 05:17:51.480000+09:00,2024,5,15,20,17,51,480,,,,,,,,,-0.467773,0.208252,0.0271,-121.276855,73.242188,-55.908203,,,,,,,,,,,0.0,1.0,1.0,10.0,0.0,0.0,0.0,7.0,0.0,-0.14154624000000002,-0.17738932,0.9657031066666667,-0.9798178,-0.42805990666666655,-0.9977214133333329,-22.412871232301754,-12.38127235414682,-7.737150345923232,2.308293692855677,1.619103157610445,-0.5198413068424721,2.867045481285761,-2.2471903358027947,4.1001807432132376,-2.2756440160851383,-0.32622675999999995,0.38564131999999995,-0.9386031066666667,1.6504711866666666,1.0658887927339127,0.7416397709420737,0.7138536266294114,0.7140680039885492
LBP05_S10,LBP05,-1487,164,10,163,-1487,1715804271.52,2024-05-15 20:17:51.520000+00:00,2024-05-16 05:17:51.520000+09:00,2024,5,15,20,17,51,520,,,,,,,,,-0.077393,-0.439697,0.338623,-79.956055,-64.880371,-22.583008,,,,,,,,,,,0.0,1.0,1.0,10.0,0.0,0.0,0.0,7.0,0.0,-0.15052085333333334,-0.1781119733333333,0.9671712,-1.6455079066666667,1.90917968,-0.9790039599999997,-22.857475911615435,-10.621050613665753,-10.409050891122721,1.39399465639106,1.194261133063815,-0.936203342487381,2.0605721182424652,-2.2747564816035757,3.677433971334593,-2.2819341938428535,0.07312785333333334,-0.2615850266666667,-0.6285482,0.9632610800000001,0.6847242137040155,0.7303837196985019,0.7107958708234564,0.7162486045856622
LBP05_S10,LBP05,-1486,165,10,164,-1486,1715804271.56,2024-05-15 20:17:51.560000+00:00,2024-05-16 05:17:51.560000+09:00,2024,5,15,20,17,51,560,,,,,,,,,0.468262,-0.281738,0.670898,-12.451172,-48.461914,21.42334,,,,,,,,,,,0.0,1.0,1.0,10.0,0.0,0.0,0.0,7.0,0.0,-0.16044271999999998,-0.18523112,0.9849055733333332,-1.3305664933333332,-1.5698242266666664,-1.0913086399999996,-22.932240757872663,-7.546033284494281,-12.12919319416853,0.4767050260761534,0.8924198016840439,-1.4213710702541222,1.7446938137333448,-2.286727432754456,3.432287772383064,-2.2879866151444945,0.62870472,-0.09650687999999999,-0.3140075733333332,1.0392191733333331,0.7093546073356409,0.7291449735347791,0.7124735912478726,0.7090032075722771
LBP05_S10,LBP05,-1485,166,10,165,-1485,1715804271.6,2024-05-15 20:17:51.600000+00:00,2024-05-16 05:17:51.600000+09:00,2024,5,15,20,17,51,600,,,,,,,,,0.160645,-0.026367,1.359375,11.291504,94.604492,26.855469,,,,,,,,,,,0.0,1.0,1.0,10.0,0.0,0.0,0.0,7.0,0.0,-0.15605469333333333,-0.1851985733333333,1.00122068,0.37841788,-2.2184244799999995,-1.1686198266666663,-22.14306501246391,-3.472968847124734,-12.96322924401584,-0.40901757442240305,0.7535010477990545,-1.9399002400147558,2.1209130454664957,-2.2733746099069325,3.3538658237999948,-2.290224972764645,0.31669969333333337,0.1588315733333333,0.3581543199999999,0.8336855866666666,0.5037863449713894,0.7402378485433097,0.7131778622874094,0.7034571878387113
LBP05_S10,LBP05,-1484,167,10,166,-1484,1715804271.64,2024-05-15 20:17:51.640000+00:00,2024-05-16 05:17:51.640000+09:00,2024,5,15,20,17,51,640,,,,,,,,,-0.791016,-0.349365,1.836914,10.559082,-6.591797,-9.70459,,,,,,,,,,,0.0,1.0,1.0,10.0,0.0,0.0,0.0,7.0,0.0,-0.16246094666666666,-0.17978190666666669,0.9977408533333333,0.45572908,0.2612304666666669,-1.1905924799999996,-20.209691875457306,1.1986470141230723,-13.044230960337645,-1.2174052494406953,0.8014469283639774,-2.4616694784282616,2.8608057154191866,-2.3070663811135352,3.4309605991962884,-2.2918987488845226,-0.6285550533333334,-0.1695830933333333,0.8391731466666666,1.6373112933333334,1.0620976653311156,0.7480087039765307,0.7150519367030631,0.7128219298466777
LBP05_S10,LBP05,-1483,168,10,167,-1483,1715804271.68,2024-05-15 20:17:51.680000+00:00,2024-05-16 05:17:51.680000+09:00,2024,5,15,20,17,51,680,,,,,,,,,-0.382324,-0.264893,1.962891,-12.329102,-136.108398,-12.695312,,,,,,,,,,,0.0,1.0,1.0,10.0,0.0,0.0,0.0,7.0,0.0,-0.17084635999999997,-0.1823470133333333,0.9928645466666668,-0.8642578933333334,-0.007324213333333015,-1.4095052399999994,-17.05790330910959,5.970992458422643,-12.483394898534096,-1.8997213818050789,1.040286626700883,-2.9610052743696254,3.668608704812335,-2.324640538691116,3.6522331235272576,-2.2960115482798034,-0.21147764000000002,-0.08254598666666668,0.9700264533333331,1.2640500799999999,0.996236895673508,0.7593610593251416,0.7126881734862859,0.7120238404072212
LBP05_S10,LBP05,-1482,169,10,168,-1482,1715804271.72,2024-05-15 20:17:51.720000+00:00,2024-05-16 05:17:51.720000+09:00,2024,5,15,20,17,51,720,,,,,,,,,0.206055,-0.108643,1.197021,0.0,73.120117,-23.986816,,,,,,,,,,,0.0,1.0,1.0,10.0,0.0,0.0,0.0,7.0,0.0,-0.16629882666666668,-0.18198244,0.9867056933333334,-0.9138998133333335,-1.7545572799999996,-1.7366536799999994,-12.800477630580154,10.257583318776131,-11.366011419013953,-2.4117404870282853,1.4505899594519283,-3.4156457311301835,4.425758598005773,-2.312548266815891,4.003002686029669,-2.301168207261566,0.37235382666666667,0.07333943999999999,0.21031530666666653,0.6560085733333332,0.43388774344422043,0.7482541987013517,0.7081233667419563,0.7093078344130347
LBP05_S10,LBP05,-1481,170,10,169,-1481,1715804271.76,2024-05-15 20:17:51.760000+00:00,2024-05-16 05:17:51.760000+09:00,2024,5,15,20,17,51,760,,,,,,,,,-0.543457,0.284424,0.12915,-88.562012,78.979492,-58.654785,,,,,,,,,,,0.0,1.0,1.0,10.0,0.0,0.0,0.0,7.0,0.0,-0.15444661333333334,-0.17528648,0.9785188533333333,-1.73990892,-0.6095377466666664,-1.8782552399999994,-7.740867341224655,13.458534518883875,-9.810954966576158,-2.7213751806772715,1.9889313402072832,-3.80808392979323,5.085590817831734,-2.29480715003466,4.456133713718189,-2.307459415833718,-0.38901038666666665,0.45971048000000003,-0.8493688533333333,1.69808972,1.0411965498258058,0.7715400442306951,0.7174354739178598,0.7142389557350018
LBP05_S10,LBP05,-1480,171,10,170,-1480,1715804271.8,2024-05-15 20:17:51.800000+00:00,2024-05-16 05:17:51.800000+09:00,2024,5,15,20,17,51,800,,,,,,,,,0.063477,-0.61792,0.526611,-45.898438,-47.241211,-0.244141,,,,,,,,,,,0.0,1.0,1.0,10.0,0.0,0.0,0.0,7.0,0.0,-0.16251952,-0.17664064000000002,0.9791633866666666,-2.64729824,1.3875325600000001,-2.282714866666666,-2.363726628088924,15.098681462924024,-8.024558034473324,-2.8159242458008285,2.592878598724244,-4.129066251172163,5.630420667443961,-2.3157913027641794,4.95384635126815,-2.313824066675748,0.22599652,-0.44127936,-0.45255238666666653,1.1198282666666666,0.6712716017319786,0.75498031402381,0.7149053771239758,0.715038954442291
LBP05_S10,LBP05,-1479,172,10,171,-1479,1715804271.84,2024-05-15 20:17:51.840000+00:00,2024-05-16 05:17:51.840000+09:00,2024,5,15,20,17,51,840,,,,,,,,,0.417725,-0.111084,0.936279,86.547852,41.137695,5.67627,,,,,,,,,,,0.0,1.0,1.0,10.0,0.0,0.0,0.0,7.0,0.0,-0.17302408,-0.18522788,0.9934374800000001,-1.49088548,-1.8554687466666664,-2.311197933333333,2.746366594364122,14.966614032573519,-6.288359646045312,-2.7060695820262635,3.191543160027185,-4.380600637013975,6.057922273031518,-2.3232129833108917,5.419537661487037,-2.320839251262001,0.59074908,0.07414388000000001,-0.05715848000000012,0.7220514400000002,0.5981211267780224,0.746615977511295,0.7135544223343344,0.7074609474049238
LBP05_S10,LBP05,-1478,173,10,172,-1478,1715804271.88,2024-05-15 20:17:51.880000+00:00,2024-05-16 05:17:51.880000+09:00,2024,5,15,20,17,51,880,,,,,,,,,-0.312256,-0.079834,1.550537,25.268555,102.844238,18.615723,,,,,,,,,,,0.0,1.0,1.0,10.0,0.0,0.0,0.0,7.0,0.0,-0.16504882666666668,-0.18583334666666665,1.0083919066666667,0.9887694666666664,-1.7586263066666663,-1.9628906399999997,7.064595658723186,13.17741857628997,-4.874008449085802,-2.423485755677336,3.718639903078784,-4.5755609749774075,6.374741106309882,-2.298756925620418,5.810947434108451,-2.3202996596105394,-0.1472071733333333,0.10599934666666665,0.5421450933333334,0.7953516133333334,0.5716879529953023,0.7549308095162105,0.711723330971335,0.7046275097669916
LBP05_S10,LBP05,-1477,174,10,173,-1477,1715804271.92,2024-05-15 20:17:51.920000+00:00,2024-05-16 05:17:51.920000+09:00,2024,5,15,20,17,51,920,,,,,,,,,-0.931641,-0.609131,1.791992,36.071777,-60.852051,8.239746,,,,,,,,,,,0.0,1.0,1.0,10.0,0.0,0.0,0.0,7.0,0.0,-0.17169596,-0.17837892000000002,1.00479816,1.8717447333333332,0.49072265333333365,-2.2835286666666663,10.286573899391737,10.12068789300969,-3.937045794970696,-2.0120227997016666,4.123467418799171,-4.733042806776235,6.591882395127654,-2.3376685673250974,6.117179603870062,-2.319425511577627,-0.7599450400000001,-0.43075208,0.78719384,1.97789096,1.1758987881526513,0.7596477916496585,0.7258135439184242,0.7163204427422822
LBP05_S10,LBP05,-1476,175,10,174,-1476,1715804271.96,2024-05-15 20:17:51.960000+00:00,2024-05-16 05:17:51.960000+09:00,2024,5,15,20,17,51,960,,,,,,,,,-0.0979,-0.273682,1.738037,37.17041,-104.003906,12.695312,,,,,,,,,,,0.0,1.0,1.0,10.0,0.0,0.0,0.0,7.0,0.0,-0.17853189333333333,-0.18069011999999998,1.0008626133333334,0.26855462666666635,0.11149088000000025,-2.218424493333333,12.38022501716875,6.316162239687131,-3.4620902165762844,-1.5168137990149166,4.376113908386657,-4.871526415439287,6.721820189232969,-2.350373941174758,6.341314416613393,-2.322144542052304,0.08063189333333333,-0.09299188,0.7371743866666667,0.91079816,0.7473787984187327,0.7604258490093083,0.7214206315175304,0.7163408416021672
LBP05_S10,LBP05,-1475,176,10,175,-1475,1715804272.0,2024-05-15 20:17:52+00:00,2024-05-16 05:17:52+09:00,2024,5,15,20,17,52,0,20.0,17.0,52.0,40.677433,141.608154,8.467,3.0,9.0,-0.096436,0.234863,0.618408,-5.859375,118.103027,-17.51709,-568.0,70.0,545.0,30.0,0.0,1020.200012,16.49,0.07135,-57.669693,3.789844,0.0,1.0,1.0,10.0,0.0,0.0,0.0,5.0,0.0,-0.17312498666666667,-0.17770834666666668,0.9927213333333333,0.017089786666666384,-1.4331054799999998,-1.9132487066666661,13.479404165827134,2.252319536614159,-3.3021813453034645,-0.9776376323818313,4.466206689851223,-5.0036136692514255,6.777826147655359,-2.343526455769461,6.49363070532832,-2.3264275094062556,0.07668898666666668,0.41257134666666667,-0.3743133333333334,0.8635736666666667,0.5623226727399654,0.7562370977888849,0.7215078030919447,0.7170459138357
LBP05_S10,LBP05,-1474,177,10,176,-1474,1715804272.04,2024-05-15 20:17:52.040000+00:00,2024-05-16 05:17:52.040000+09:00,2024,5,15,20,17,52,40,,,,,,,,,-0.217529,-0.206055,0.091797,-159.240723,-17.883301,-30.212402,,,,,,,,,,,0.0,1.0,1.0,10.0,0.0,0.0,0.0,5.0,0.0,-0.15846678666666666,-0.17732422666666667,0.98513344,-0.144043026666667,-0.09602865333333303,-1.3745117199999997,13.681693878039598,-1.7086272599931374,-3.2960666329568,-0.43036987726024745,4.397861599451497,-5.135456334569698,6.774903441633328,-2.301670464598923,6.589443338816514,-2.329731059542959,-0.059062213333333335,-0.02873077333333332,-0.89333644,0.9811294266666667,0.8957476192611606,0.7776868794807814,0.729754981250705,0.7232869083818266
LBP05_S10,LBP05,-1473,178,10,177,-1473,1715804272.08,2024-05-15 20:17:52.080000+00:00,2024-05-16 05:17:52.080000+09:00,2024,5,15,20,17,52,80,,,,,,,,,0.001709,-0.502441,0.501221,86.05957,-57.617188,-39.916992,,,,,,,,,,,0.0,1.0,1.0,10.0,0.0,0.0,0.0,5.0,0.0,-0.16342121333333334,-0.17758138666666665,0.9841894266666668,0.04638665333333298,2.5089518266666673,-1.0636393333333332,12.893614067346977,-5.328052258707694,-3.3948746541866575,0.08537468543363169,4.184739509103189,-5.271251320737164,6.7309304024284335,-2.315899058361991,6.648685413056984,-2.33391413616418,0.16513021333333333,-0.32485961333333335,-0.48296842666666673,0.9729582533333334,0.6050291372218949,0.7719532019436042,0.7240561678551843,0.7211002816026038
LBP05_S10,LBP05,-1472,179,10,178,-1472,1715804272.12,2024-05-15 20:17:52.120000+00:00,2024-05-16 05:17:52.120000+09:00,2024,5,15,20,17,52,120,,,,,,,,,0.461182,0.109863,0.787598,59.814453,15.197754,2.868652,,,,,,,,,,,0.0,1.0,1.0,10.0,0.0,0.0,0.0,5.0,0.0,-0.1747884,-0.18082684000000002,0.9974120933333334,0.5273436933333331,-0.00569661333333291,-1.0929361999999996,10.848077166551759,-8.423485047436163,-3.7156640119355906,0.519297772095702,3.847800107205743,-5.419877881214588,6.667106725439096,-2.3397385715626595,6.695648982151849,-2.3401777736933775,0.6359703999999999,0.29068984000000003,-0.20981409333333334,1.1364743333333331,0.7300553996216138,0.7679029316952959,0.7259483660518131,0.7187924662530879
LBP05_S10,LBP05,-1471,180,10,179,-1471,1715804272.16,2024-05-15 20:17:52.160000+00:00,2024-05-16 05:17:52.160000+09:00,2024,5,15,20,17,52,160,,,,,,,,,-0.271973,-0.203369,1.407471,9.460449,97.65625,13.61084,,,,,,,,,,,0.0,1.0,1.0,10.0,0.0,0.0,0.0,5.0,0.0,-0.16999022666666666,-0.17661134666666667,1.0128287599999999,0.4109699999999998,-0.6217447866666664,-1.6040039066666665,7.300776370743311,-10.795502873793836,-4.477273275153497,0.8113288269254344,3.4159799922539893,-5.598968812220728,6.608753704981005,-2.3376368235741745,6.757021858273221,-2.341117944287221,-0.10198277333333336,-0.026757653333333326,0.39464224000000003,0.5233826666666668,0.4084837275349931,0.7670819240431797,0.7196770453217212,0.7176220902750379
LBP05_S10,LBP05,-1470,181,10,180,-1470,1715804272.2,2024-05-15 20:17:52.200000+00:00,2024-05-16 05:17:52.200000+09:00,2024,5,15,20,17,52,200,,,,,,,,,-0.898438,-0.497314,1.734863,16.357422,-75.256348,23.376465,,,,,,,,,,,0.0,1.0,1.0,10.0,0.0,0.0,0.0,5.0,0.0,-0.17467448,-0.17734702666666666,1.0090169199999999,-0.8626302533333337,1.3777669200000002,-1.739095053333333,2.284342578643936,-12.201864933670873,-5.845552321803567,0.9027025300711918,2.9279053949071545,-5.832790905092871,6.58854700232589,-2.3488268041312135,6.857400485776777,-2.34220276491052,-0.72376352,-0.31996697333333335,0.7258460800000002,1.7695765733333335,1.0738086555612463,0.7676444565117433,0.7355296933465797,0.7197549017638533
LBP05_S10,LBP05,-1469,182,10,181,-1469,1715804272.24,2024-05-15 20:17:52.240000+00:00,2024-05-16 05:17:52.240000+09:00,2024,5,15,20,17,52,240,,,,,,,,,-0.05835,-0.058105,1.503418,57.861328,-121.337891,12.390137,,,,,,,,,,,0.0,1.0,1.0,10.0,0.0,0.0,0.0,5.0,0.0,-0.18179036,-0.17849937333333332,1.0041568933333334,-1.148274786666667,1.0262044133333335,-1.7773437466666664,-3.736830220696271,-12.404036482536945,-7.775330737469784,0.753229321243341,2.4317439356056765,-6.1438041345916625,6.650343015436218,-2.3650437495231036,7.013992827069363,-2.345105804484291,0.12344036000000001,0.12039437333333333,0.49926110666666657,0.7430958399999998,0.5281988074932396,0.762431725801372,0.7254210935308819,0.7165613617439234
