file_name,test_id,_program_index,program_index,session_id,index,_index,unixtime,datetime_utc,datetime_jst,rtc_year,rtc_month,rtc_day,rtc_hour,rtc_min,rtc_sec,rtc_msec,gps_hour,gps_min,gps_sec,latitude,longitude,altitude,fix_type,SIV,acc_x,acc_y,acc_z,gyro_x,gyro_y,gyro_z,mag_x,mag_y,mag_z,illuminance,atmopress,water_pressure,water_temp,depth,alt_wps,battery_level,behavior_class,camera_command,camera_recording,camera_count,play_audio,speaker_on,audio_file,prev_sd_write_time_ms,delay_occurred_counter,acc_x_ma,acc_y_ma,acc_z_ma,gyro_x_ma,gyro_y_ma,gyro_z_ma,gyro_x_lowpass,gyro_y_lowpass,gyro_z_lowpass,angle_x,angle_y,angle_z,combined_angle_change,gravity_adjusted_angle,smoothed_angle_change,smoothed_gravity_angle,acc_x_dy,acc_y_dy,acc_z_dy,ODBA,VeDBA,smoothed_VeDBA_1s,smoothed_VeDBA_2s,smoothed_VeDBA_3s
LBP05_S06,LBP05,-1650,1,6,0,-1650,1715801061.0,2024-05-15 19:24:21+00:00,2024-05-16 04:24:21+09:00,2024,5,15,19,24,21,0,19.0,24.0,21.0,40.861744,141.740356,5.295,3.0,12.0,0.139404,-0.06958,1.037354,129.272461,20.629883,15.686035,-571.0,21.0,560.0,5.0,0.0,1019.599976,15.88,0.065405,-52.703289,3.839062,0.0,1.0,1.0,6.0,0.0,0.0,0.0,5.0,0.0,,,,,,,128.54415674704086,20.23595843018446,15.429176028448236,5.141766269881635,0.8094383372073785,0.6171670411379294,5.241549957073813,,8.166008214448516,,,,,,,,,
LBP05_S06,LBP05,-1649,2,6,1,-1649,1715801061.04,2024-05-15 19:24:21.040000+00:00,2024-05-16 04:24:21.040000+09:00,2024,5,15,19,24,21,40,,,,,,,,,-0.499023,-0.192871,1.601807,1.159668,43.884277,28.991699,,,,,,,,,,,0.0,1.0,1.0,6.0,0.0,0.0,0.0,5.0,0.0,,,,,,,77.65171805924444,11.962861841768932,7.486022180994245,8.247834992251413,1.2879528108781357,0.9166079283776992,8.39796252651919,,7.845239065162725,,,,,,,,,
LBP05_S06,LBP05,-1648,3,6,2,-1648,1715801061.08,2024-05-15 19:24:21.080000+00:00,2024-05-16 04:24:21.080000+09:00,2024,5,15,19,24,21,80,,,,,,,,,-0.537842,-0.413818,1.690674,16.174316,-71.838379,-2.685547,,,,,,,,,,,0.0,1.0,1.0,6.0,0.0,0.0,0.0,5.0,0.0,,,,,,,31.607123871563292,4.463777301084759,0.09908218854910765,9.512119947113945,1.466503902921526,0.9205712159196635,9.668428566687911,,7.341632140060639,,,,,,,,,
LBP05_S06,LBP05,-1647,4,6,3,-1647,1715801061.12,2024-05-15 19:24:21.120000+00:00,2024-05-16 04:24:21.120000+09:00,2024,5,15,19,24,21,120,,,,,,,,,-0.084473,-0.088135,1.348633,-24.902344,2.807617,-19.287109,,,,,,,,,,,0.0,1.0,1.0,6.0,0.0,0.0,0.0,5.0,0.0,,,,,,,-5.638945671633921,-1.589552192166423,-6.236500243068806,9.286562120248588,1.4029218152348693,0.6711112061969112,9.415881046613796,,6.785003190297249,,,,,,,,,
LBP05_S06,LBP05,-1646,5,6,4,-1646,1715801061.16,2024-05-15 19:24:21.160000+00:00,2024-05-16 04:24:21.160000+09:00,2024,5,15,19,24,21,160,,,,,,,,,-0.345215,-0.111328,0.416016,-39.855957,113.891602,-31.433105,,,,,,,,,,,0.0,1.0,1.0,6.0,0.0,0.0,0.0,5.0,0.0,,,,,,,-31.732856111165166,-5.656389765447721,-11.18877476016728,8.017247875801981,1.1766662246169604,0.22356021579022,8.10621897534787,,6.314617370596718,,,,,,,,,
LBP05_S06,LBP05,-1645,6,6,5,-1645,1715801061.2,2024-05-15 19:24:21.200000+00:00,2024-05-16 04:24:21.200000+09:00,2024,5,15,19,24,21,200,,,,,,,,,-0.140381,-0.034424,0.083008,-88.745117,-41.19873,-19.470215,,,,,,,,,,,0.0,1.0,1.0,6.0,0.0,0.0,0.0,5.0,0.0,,,,,,,-46.22361246939584,-7.391117906342242,-14.631443876149877,6.168303377026148,0.8810215083632706,-0.3616975392557751,6.241393318733771,,5.9972260934639845,,,,,,,,,
LBP05_S06,LBP05,-1644,7,6,6,-1644,1715801061.24,2024-05-15 19:24:21.240000+00:00,2024-05-16 04:24:21.240000+09:00,2024,5,15,19,24,21,240,,,,,,,,,0.25293,-0.050049,0.406982,-93.078613,-106.018066,-7.8125,,,,,,,,,,,0.0,1.0,1.0,6.0,0.0,0.0,0.0,5.0,0.0,,,,,,,-50.42440878591123,-6.721036978401465,-16.62415253864908,4.151327025589699,0.612180029227212,-1.0266636408017384,4.319990589448121,,5.868549779652789,,,,,,,,,
LBP05_S06,LBP05,-1643,8,6,7,-1643,1715801061.28,2024-05-15 19:24:21.280000+00:00,2024-05-16 04:24:21.280000+09:00,2024,5,15,19,24,21,280,,,,,,,,,0.413818,-0.502197,1.000244,69.335938,12.023926,16.967773,,,,,,,,,,,0.0,1.0,1.0,6.0,0.0,0.0,0.0,5.0,0.0,,,,,,,-46.90110113946923,-3.918736081097623,-17.342735244715783,2.275282980010929,0.4554305859833071,-1.7203730505903698,2.888600541953513,,5.5023232657634935,,,,,,,,,
LBP05_S06,LBP05,-1642,9,6,8,-1642,1715801061.32,2024-05-15 19:24:21.320000+00:00,2024-05-16 04:24:21.320000+09:00,2024,5,15,19,24,21,320,,,,,,,,,-0.327881,0.26416,1.397949,12.268066,57.067871,2.197266,,,,,,,,,,,0.0,1.0,1.0,6.0,0.0,0.0,0.0,5.0,0.0,,,,,,,-38.75839677871418,0.3924707101326167,-17.005246204662797,0.724947108862362,0.4711294143886118,-2.400582898776882,2.551530812992481,,5.082775349723772,,,,,,,,,
LBP05_S06,LBP05,-1641,10,6,9,-1641,1715801061.36,2024-05-15 19:24:21.360000+00:00,2024-05-16 04:24:21.360000+09:00,2024,5,15,19,24,21,360,,,,,,,,,-0.578613,-0.255859,1.632324,-51.696777,-43.579102,-38.94043,,,,,,,,,,,0.0,1.0,1.0,6.0,0.0,0.0,0.0,5.0,0.0,,,,,,,-28.949688943632143,5.3457413810133065,-15.844393803671844,-0.4330404488829238,0.6849590696291441,-3.0343586509237555,3.140704599269371,,4.7624528053268005,,,,,,,,,
LBP05_S06,LBP05,-1640,11,6,10,-1640,1715801061.4,2024-05-15 19:24:21.400000+00:00,2024-05-16 04:24:21.400000+09:00,2024,5,15,19,24,21,400,,,,,,,,,-0.032471,-0.369629,1.516113,-46.75293,-18.371582,-35.583496,,,,,,,,,,,0.0,1.0,1.0,6.0,0.0,0.0,0.0,5.0,0.0,,,,,,,-19.799351552429336,10.030546839707064,-14.140648968840596,-1.2250145109800972,1.0861809432174268,-3.5999846096773793,3.9547868189618636,,4.652112701471729,,,,,,,,,
LBP05_S06,LBP05,-1639,12,6,11,-1639,1715801061.44,2024-05-15 19:24:21.440000+00:00,2024-05-16 04:24:21.440000+09:00,2024,5,15,19,24,21,440,,,,,,,,,-0.140625,-0.053223,0.577881,0.061035,135.742188,-26.245117,,,,,,,,,,,0.0,1.0,1.0,6.0,0.0,0.0,0.0,5.0,0.0,,,,,,,-12.803712283773432,13.713570961703434,-12.276886849497316,-1.7371630023310345,1.634723781685564,-4.091060083657272,4.735697387626237,,4.816038455400716,,,,,,,,,
LBP05_S06,LBP05,-1638,13,6,12,-1638,1715801061.48,2024-05-15 19:24:21.480000+00:00,2024-05-16 04:24:21.480000+09:00,2024,5,15,19,24,21,480,,,,,,,,,-0.18042,0.226318,0.025635,-16.418457,16.357422,-25.32959,,,,,,,,,,,0.0,1.0,1.0,6.0,0.0,0.0,0.0,5.0,0.0,,,,,,,-8.652169600034256,15.997193280148734,-10.74835136176102,-2.083249786332405,2.2746115128915134,-4.520994138127713,5.472949406290704,,5.270688498649739,,,,,,,,,
LBP05_S06,LBP05,-1637,14,6,13,-1637,1715801061.52,2024-05-15 19:24:21.520000+00:00,2024-05-16 04:24:21.520000+09:00,2024,5,15,19,24,21,520,,,,,,,,,0.146729,0.004395,0.441895,-107.849121,-78.063965,-1.586914,,,,,,,,,,,0.0,1.0,1.0,6.0,0.0,0.0,0.0,5.0,0.0,,,,,,,-7.356576684090427,16.85288291176865,-10.084682005515198,-2.377512853696022,2.9487268293622595,-4.924381418348321,6.212655602644076,,5.977372226067915,,,,,,,,,
LBP05_S06,LBP05,-1636,15,6,14,-1636,1715801061.56,2024-05-15 19:24:21.560000+00:00,2024-05-16 04:24:21.560000+09:00,2024,5,15,19,24,21,560,,,,,,,,,0.328613,-0.562256,1.192383,83.251953,45.532227,35.27832,,,,,,,,,,,0.0,1.0,1.0,6.0,0.0,0.0,0.0,5.0,0.0,,,,,,,-8.396921070651054,16.523505102610482,-10.698347619606311,-2.7133896965220643,3.6096670334666787,-5.352315323132573,7.002817936797156,,6.833459671742368,,,,,,,,,
LBP05_S06,LBP05,-1635,16,6,15,-1635,1715801061.6,2024-05-15 19:24:21.600000+00:00,2024-05-16 04:24:21.600000+09:00,2024,5,15,19,24,21,600,,,,,,,,,-0.579834,0.046875,1.577881,29.418945,44.006348,1.525879,,,,,,,,,,,0.0,1.0,1.0,6.0,0.0,0.0,0.0,5.0,0.0,,,,,,,-10.851703482284535,15.357936586091064,-12.72735604462332,-3.1474578358134457,4.2239844969103215,-5.861409564917506,7.880650858023634,,7.7472337480165105,,,,,,,,,
LBP05_S06,LBP05,-1634,17,6,16,-1634,1715801061.64,2024-05-15 19:24:21.640000+00:00,2024-05-16 04:24:21.640000+09:00,2024,5,15,19,24,21,640,,,,,,,,,-0.640381,-0.268799,1.749268,-15.319824,-61.035156,-34.973145,,,,,,,,,,,0.0,1.0,1.0,6.0,0.0,0.0,0.0,5.0,0.0,,,,,,,-13.54657839790923,13.66745458276524,-15.953530824227018,-3.6893209717298148,4.770682680220931,-6.499550797886586,8.86649102193836,,8.690511231726052,,,,,,,,,
LBP05_S06,LBP05,-1633,18,6,17,-1633,1715801061.68,2024-05-15 19:24:21.680000+00:00,2024-05-16 04:24:21.680000+09:00,2024,5,15,19,24,21,680,,,,,,,,,-0.077881,-0.392334,1.462646,-14.770508,-3.78418,-33.508301,,,,,,,,,,,0.0,1.0,1.0,6.0,0.0,0.0,0.0,5.0,0.0,,,,,,,-15.275619809632676,11.66182683663074,-19.839861978174813,-4.3003457641151215,5.23715575368616,-7.293145277013579,9.95543781613528,,9.655420198964602,,,,,,,,,
LBP05_S06,LBP05,-1632,19,6,18,-1632,1715801061.72,2024-05-15 19:24:21.720000+00:00,2024-05-16 04:24:21.720000+09:00,2024,5,15,19,24,21,720,,,,,,,,,-0.321045,-0.09375,0.583496,-50.292969,144.165039,-28.259277,,,,,,,,,,,0.0,1.0,1.0,6.0,0.0,0.0,0.0,5.0,0.0,,,,,,,-15.096300302298959,9.470087967464586,-23.66802536192082,-4.90419777620708,5.615959272384743,-8.239866291490411,11.112405269736998,,10.631772973149038,,,,,,,,,
LBP05_S06,LBP05,-1631,20,6,19,-1631,1715801061.76,2024-05-15 19:24:21.760000+00:00,2024-05-16 04:24:21.760000+09:00,2024,5,15,19,24,21,760,,,,,,,,,-0.126221,-0.042969,0.067139,-77.819824,-30.395508,-22.644043,,,,,,,,,,,0.0,1.0,1.0,6.0,0.0,0.0,0.0,5.0,0.0,,,,,,,-12.611326975931043,7.204170383586116,-26.715626947689508,-5.408650855244321,5.904126087728188,-9.308491369397991,12.278445362010803,,11.603578547567158,,,,,,,,,
LBP05_S06,LBP05,-1630,21,6,20,-1630,1715801061.8,2024-05-15 19:24:21.800000+00:00,2024-05-16 04:24:21.800000+09:00,2024,5,15,19,24,21,800,,,,,,,,,0.321289,-0.13208,0.625732,-22.338867,-75.805664,-28.625488,,,,,,,,,,,0.0,1.0,1.0,6.0,0.0,0.0,0.0,5.0,0.0,,,,,,,-8.105292361379579,5.003788167458048,-28.41374961532442,-5.7328625496995045,6.10427761442651,-10.445041354010968,13.387561656057274,,12.550534903358223,,,,,,,,,
LBP05_S06,LBP05,-1629,22,6,21,-1629,1715801061.84,2024-05-15 19:24:21.840000+00:00,2024-05-16 04:24:21.840000+09:00,2024,5,15,19,24,21,840,,,,,,,,,0.23291,-0.453369,1.135742,15.136719,45.227051,-29.602051,,,,,,,,,,,0.0,1.0,1.0,6.0,0.0,0.0,0.0,5.0,0.0,,,,,,,-2.445590175653093,3.0304476465511785,-28.45167941349327,-5.830686156725628,6.225495520288558,-11.5831085305507,14.384787060011739,,13.450371702755813,,,,,,,,,
LBP05_S06,LBP05,-1628,23,6,22,-1628,1715801061.88,2024-05-15 19:24:21.880000+00:00,2024-05-16 04:24:21.880000+09:00,2024,5,15,19,24,21,880,,,,,,,,,-0.581299,-0.136475,1.595703,83.190918,53.222656,-40.344238,,,,,,,,,,,0.0,1.0,1.0,6.0,0.0,0.0,0.0,5.0,0.0,,,,,,,3.2315019266650093,1.430423184842869,-26.81948651402374,-5.7014260796590275,6.282712447682273,-12.65588799111165,15.236477148135062,,14.28171119431616,,,,,,,,,
LBP05_S06,LBP05,-1627,24,6,23,-1627,1715801061.92,2024-05-15 19:24:21.920000+00:00,2024-05-16 04:24:21.920000+09:00,2024,5,15,19,24,21,920,,,,,,,,,-0.538574,-0.506348,1.699707,23.193359,-79.711914,-15.563965,,,,,,,,,,,0.0,1.0,1.0,6.0,0.0,0.0,0.0,5.0,0.0,,,,,,,7.9126042675949835,0.30353486011917585,-23.79116271154694,-5.384921908955228,6.29485384208704,-13.607534499573527,15.93071134682528,,15.027811192597776,,,,,,,,,
LBP05_S06,LBP05,-1626,25,6,24,-1626,1715801061.96,2024-05-15 19:24:21.960000+00:00,2024-05-16 04:24:21.960000+09:00,2024,5,15,19,24,21,960,,,,,,,,,-0.080322,-0.082764,1.393066,43.334961,-22.705078,-11.047363,,,,,,,,,,,0.0,1.0,1.0,6.0,0.0,0.0,0.0,5.0,0.0,,,,,,,10.997356380692635,-0.30504762568890653,-19.85880303972871,-4.945027653727522,6.282651937059484,-14.401886621162674,16.47238149470779,,15.680636554925488,,,,,,,,,
LBP05_S06,LBP05,-1625,26,6,25,-1625,1715801062.0,2024-05-15 19:24:22+00:00,2024-05-16 04:24:22+09:00,2024,5,15,19,24,22,0,19.0,24.0,22.0,40.861713,141.740448,4.934,3.0,12.0,-0.338379,-0.253906,0.569092,-36.010742,116.577148,-7.324219,-572.0,41.0,558.0,5.0,0.0,1020.299988,15.89,0.072341,-58.496948,3.839062,0.0,1.0,1.0,6.0,0.0,0.0,0.0,4.0,0.0,,,,,,,12.372375150602153,-0.3909680823090729,-15.637328263986852,-4.450132647703437,6.267013213767121,-15.02737975172215,16.87901885199956,,16.24372377924522,,,,,,,,,
LBP05_S06,LBP05,-1624,27,6,26,-1624,1715801062.04,2024-05-15 19:24:22.040000+00:00,2024-05-16 04:24:22.040000+09:00,2024,5,15,19,24,22,40,,,,,,,,,-0.088379,0.00415,0.175049,-58.654785,-37.780762,-25.390625,,,,,,,,,,,0.0,1.0,1.0,6.0,0.0,0.0,0.0,4.0,0.0,,,,,,,12.285427565822413,0.03190775639042988,-11.763566034962501,-3.95871554507054,6.268289524022738,-15.49792239312065,17.17988593754181,,16.73244261453448,,,,,,,,,
LBP05_S06,LBP05,-1623,28,6,27,-1623,1715801062.08,2024-05-15 19:24:22.080000+00:00,2024-05-16 04:24:22.080000+09:00,2024,5,15,19,24,22,80,,,,,,,,,0.347412,-0.381348,0.693848,-29.541016,-64.697266,-16.601562,,,,,,,,,,,0.0,1.0,1.0,6.0,0.0,0.0,0.0,4.0,0.0,,,,,,,11.144015399817748,0.9391587220104904,-8.805989820993867,-3.51295492907783,6.305855872903158,-15.850161985960405,17.416437798951417,,17.171428481341668,,,,,,,,,
LBP05_S06,LBP05,-1622,29,6,28,-1622,1715801062.12,2024-05-15 19:24:22.120000+00:00,2024-05-16 04:24:22.120000+09:00,2024,5,15,19,24,22,120,,,,,,,,,0.195068,-0.057373,1.151367,130.126953,45.288086,-4.760742,,,,,,,,,,,0.0,1.0,1.0,6.0,0.0,0.0,0.0,4.0,0.0,,,,,,,9.373601877386584,2.2774762482503634,-7.187939501233423,-3.1380108539823666,6.396954922833173,-16.13767956600974,17.640658893014145,,17.590179842179925,,,,,,,,,
LBP05_S06,LBP05,-1621,30,6,29,-1621,1715801062.16,2024-05-15 19:24:22.160000+00:00,2024-05-16 04:24:22.160000+09:00,2024,5,15,19,24,22,160,,,,,,,,,-0.570068,-0.145996,1.625244,1.220703,43.762207,6.530762,,,,,,,,,,,0.0,1.0,1.0,6.0,0.0,0.0,0.0,4.0,0.0,,,,,,,7.383021185945675,3.9390656322992545,-7.122462490899327,-2.8426900065445397,6.554517548125142,-16.422578065645713,17.909317605208088,,18.018277117807433,,,,,,,,,
LBP05_S06,LBP05,-1620,31,6,30,-1620,1715801062.2,2024-05-15 19:24:22.200000+00:00,2024-05-16 04:24:22.200000+09:00,2024,5,15,19,24,22,200,,,,,,,,,-0.614746,-0.382568,1.843994,-7.263184,-76.904297,-13.427734,,,,,,,,,,,0.0,1.0,1.0,6.0,0.0,0.0,0.0,4.0,0.0,,,,,,,5.580221235192213,5.756056384032553,-8.565481051284907,-2.619481157136851,6.784759803486445,-16.765197307697107,18.274750008949912,,18.481292249104854,,,,,,,,,
LBP05_S06,LBP05,-1619,32,6,31,-1619,1715801062.24,2024-05-15 19:24:22.240000+00:00,2024-05-16 04:24:22.240000+09:00,2024,5,15,19,24,22,240,,,,,,,,,-0.179688,-0.227051,1.279053,8.850098,-6.713867,-6.347656,,,,,,,,,,,0.0,1.0,1.0,6.0,0.0,0.0,0.0,4.0,0.0,,,,,,,4.354859761037515,7.526180187701229,-11.203683417368806,-2.4452867666953506,7.085807010994494,-17.21334464439186,18.77464572808361,,18.997751353857904,,,,,,,,,
LBP05_S06,LBP05,-1618,33,6,32,-1618,1715801062.28,2024-05-15 19:24:22.280000+00:00,2024-05-16 04:24:22.280000+09:00,2024,5,15,19,24,22,280,,,,,,,,,-0.323242,0.101074,0.483643,-7.8125,129.272461,-11.413574,,,,,,,,,,,0.0,1.0,1.0,6.0,0.0,0.0,0.0,4.0,0.0,,,,,,,4.0038209664069475,9.064195284509056,-14.491695350795453,-2.285133928039073,7.4483748223748565,-17.79301245842368,19.42399075651765,,19.57711936652006,,,,,,,,,
LBP05_S06,LBP05,-1617,34,6,33,-1617,1715801062.32,2024-05-15 19:24:22.320000+00:00,2024-05-16 04:24:22.320000+09:00,2024,5,15,19,24,22,320,,,,,,,,,-0.153809,-0.202881,0.208496,-76.904297,-26.123047,-18.920898,,,,,,,,,,,0.0,1.0,1.0,6.0,0.0,0.0,0.0,4.0,0.0,,,,,,,4.647610461083295,10.255979343923102,-17.740626953437605,-2.099229509595741,7.858613996131781,-18.50263753656118,20.211684103100332,,20.21884993090945,-2.2898689157329555,,,,,,,,
LBP05_S06,LBP05,-1616,35,6,34,-1616,1715801062.36,2024-05-15 19:24:22.360000+00:00,2024-05-16 04:24:22.360000+09:00,2024,5,15,19,24,22,360,,,,,,,,,0.256348,-0.205078,0.625,57.861328,-54.443359,-21.118164,,,,,,,,,,,0.0,1.0,1.0,6.0,0.0,0.0,0.0,4.0,0.0,,,,,,,6.205619295016281,11.078936985497037,-20.245659628928763,-1.8510047377950898,8.301771475551663,-19.312463921718333,21.102532807682003,,20.9127286784912,-2.3059787441372475,,,,,,,,
LBP05_S06,LBP05,-1615,36,6,35,-1615,1715801062.4,2024-05-15 19:24:22.400000+00:00,2024-05-16 04:24:22.400000+09:00,2024,5,15,19,24,22,400,,,,,,,,,0.201904,-0.118652,1.171875,54.382324,54.443359,-21.30127,,,,,,,,,,,0.0,1.0,1.0,6.0,0.0,0.0,0.0,4.0,0.0,,,,,,,8.457871299711417,11.571245152726709,-21.429118592644162,-1.512689885806633,8.76462128166073,-20.1696286654241,22.043609899530054,,21.64065671988032,-2.305003765043062,,,,,,,,
LBP05_S06,LBP05,-1614,37,6,36,-1614,1715801062.44,2024-05-15 19:24:22.440000+00:00,2024-05-16 04:24:22.440000+09:00,2024,5,15,19,24,22,440,,,,,,,,,-0.597168,-0.266357,1.546875,10.559082,46.447754,-25.695801,,,,,,,,,,,0.0,1.0,1.0,6.0,0.0,0.0,0.0,4.0,0.0,,,,,,,11.152546678752735,11.773445780337147,-20.96851284795823,-1.0665880186565238,9.235559112874217,-21.008369179342427,22.973566064163403,,22.379636695717412,-2.2971119197177186,,,,,,,,
LBP05_S06,LBP05,-1613,38,6,37,-1613,1715801062.48,2024-05-15 19:24:22.480000+00:00,2024-05-16 04:24:22.480000+09:00,2024,5,15,19,24,22,480,,,,,,,,,-0.60498,-0.396973,1.657227,14.282227,-72.143555,-43.457031,,,,,,,,,,,0.0,1.0,1.0,6.0,0.0,0.0,0.0,4.0,0.0,-0.15379557333333332,-0.17627276,1.0366113733333333,-3.0533854400000005,4.599609346666666,-13.2047526,14.077413167540731,11.682699009226537,-18.877271782479088,-0.5034914919548945,9.70286707324328,-21.76346005064159,23.833743442845314,-2.2898689157329555,23.105288768275585,-2.288996724176478,-0.45118442666666664,-0.22070024000000002,0.6206156266666667,1.2925002933333334,0.7983982332554637,0.7983982332554637,0.7983982332554637,0.7983982332554637
LBP05_S06,LBP05,-1612,39,6,38,-1612,1715801062.52,2024-05-15 19:24:22.520000+00:00,2024-05-16 04:24:22.520000+09:00,2024,5,15,19,24,22,520,,,,,,,,,-0.037842,-0.226807,1.538086,47.851562,-7.446289,-0.854492,,,,,,,,,,,0.0,1.0,1.0,6.0,0.0,0.0,0.0,4.0,0.0,-0.16289713333333333,-0.17472978666666666,1.02329756,-4.919433613333334,5.658365853333333,-13.64095052,17.03839461700664,11.245426981161438,-15.511841592413406,0.17804429272537114,10.152684152489737,-22.383933714338127,24.57944636883165,-2.3220885725415394,23.79507567755591,-2.2854757072852485,0.12505513333333335,-0.052077213333333344,0.51478844,0.6919207866666667,0.5323137800951774,0.6653560066753206,0.6653560066753206,0.6653560066753206
LBP05_S06,LBP05,-1611,40,6,39,-1611,1715801062.56,2024-05-15 19:24:22.560000+00:00,2024-05-16 04:24:22.560000+09:00,2024,5,15,19,24,22,560,,,,,,,,,-0.286865,0.03418,0.606934,-25.085449,144.714355,-12.145996,,,,,,,,,,,0.0,1.0,1.0,6.0,0.0,0.0,0.0,4.0,0.0,-0.15660807999999998,-0.174707,1.0064030266666666,-4.920247413333334,4.253743466666666,-14.332682293333335,19.76232029883645,10.392169503426896,-11.495422360447076,0.9685371046788291,10.568370932626813,-22.84375060875601,25.188598019099267,-2.303053806854691,24.43072843072904,-2.2816995461426375,-0.13025692,0.208887,-0.3994690266666666,0.7386129466666667,0.4692293120030977,0.5999804417845795,0.5999804417845795,0.5999804417845795
LBP05_S06,LBP05,-1610,41,6,40,-1610,1715801062.6,2024-05-15 19:24:22.600000+00:00,2024-05-16 04:24:22.600000+09:00,2024,5,15,19,24,22,600,,,,,,,,,-0.151855,-0.153076,0.058838,-121.520996,-32.775879,-7.873535,,,,,,,,,,,0.0,1.0,1.0,6.0,0.0,0.0,0.0,4.0,0.0,-0.14484049333333335,-0.17176429333333335,0.9931998933333334,-5.080566413333334,4.626464826666667,-14.90559896,21.81048807249373,9.092742004379412,-7.57367323877106,1.8409566275785783,10.93208061280199,-23.146697538306853,25.66454976732082,-2.2734363837416884,24.99989397612535,-2.280804377883182,-0.007014506666666642,0.018688293333333356,-0.9343618933333333,0.9600646933333333,0.9345750923949026,0.6836291044371603,0.6836291044371603,0.6836291044371603
LBP05_S06,LBP05,-1609,42,6,41,-1609,1715801062.64,2024-05-15 19:24:22.640000+00:00,2024-05-16 04:24:22.640000+09:00,2024,5,15,19,24,22,640,,,,,,,,,0.302979,-0.388184,0.621338,102.172852,-69.702148,-0.610352,,,,,,,,,,,0.0,1.0,1.0,6.0,0.0,0.0,0.0,4.0,0.0,-0.14238279999999998,-0.1749153333333333,0.99001304,-4.026692706666667,5.435384093333333,-15.334472666666667,22.60858816744135,7.391201635766044,-4.440110975405139,2.745300154276232,11.227728678232632,-23.32430197732306,26.031166453665364,-2.2565359420115154,25.497238605256747,-2.2865211134224785,0.4453618,-0.21326866666666666,-0.36867504000000006,1.0273055066666668,0.616240166006744,0.6701513167510771,0.6701513167510771,0.6701513167510771
LBP05_S06,LBP05,-1608,43,6,42,-1608,1715801062.68,2024-05-15 19:24:22.680000+00:00,2024-05-16 04:24:22.680000+09:00,2024,5,15,19,24,22,680,,,,,,,,,0.255371,0.065674,1.019043,96.252441,39.0625,9.58252,,,,,,,,,,,0.0,1.0,1.0,6.0,0.0,0.0,0.0,4.0,0.0,-0.14527993333333333,-0.17428708,1.005823586666667,-2.1826171866666666,4.32210284,-15.349934906666665,21.637286591464743,5.399246649767496,-2.5780816054975957,3.610791617934822,11.44369854422333,-23.427425241542963,26.321859849320905,-2.2678706228291023,25.924928480849463,-2.287417104713902,0.40065093333333335,0.23996108,0.013219413333332986,0.6538314266666663,0.46720150169334324,0.6363263475747881,0.6363263475747881,0.6363263475747881
LBP05_S06,LBP05,-1607,44,6,43,-1607,1715801062.72,2024-05-15 19:24:22.720000+00:00,2024-05-16 04:24:22.720000+09:00,2024,5,15,19,24,22,720,,,,,,,,,-0.487793,-0.160156,1.518555,55.297852,61.828613,11.291504,,,,,,,,,,,0.0,1.0,1.0,6.0,0.0,0.0,0.0,4.0,0.0,-0.14755857333333333,-0.18031571999999998,1.0288899866666665,-1.4591471333333335,4.114583306666667,-15.166015640000001,18.70439266770593,3.2673490771292544,-2.161453362769667,4.358967324643059,11.5743925073085,-23.513883376053748,26.568211634831613,-2.259042579286969,26.292013238769993,-2.2838984029151197,-0.34023442666666665,0.020159719999999992,0.48966501333333357,0.8500591600000003,0.5966051497283672,0.6306518907395852,0.6306518907395852,0.6306518907395852
LBP05_S06,LBP05,-1606,45,6,44,-1606,1715801062.76,2024-05-15 19:24:22.760000+00:00,2024-05-16 04:24:22.760000+09:00,2024,5,15,19,24,22,760,,,,,,,,,-0.590332,-0.335693,1.710693,15.808105,-66.711426,-2.685547,,,,,,,,,,,0.0,1.0,1.0,6.0,0.0,0.0,0.0,4.0,0.0,-0.15292316,-0.18094397333333334,1.0408756666666668,0.0626627599999999,6.262207,-14.887695333333335,14.128090219057084,1.1615691438107516,-3.04079402960646,4.924090933405342,11.620855273060931,-23.635515137238006,26.79418826164509,-2.2745382000669947,26.612335795739114,-2.2786745369201613,-0.43740883999999997,-0.15474902666666668,0.6698173333333333,1.2619752,0.8148183936302641,0.65367270360092,0.65367270360092,0.65367270360092
LBP05_S06,LBP05,-1605,46,6,45,-1605,1715801062.8,2024-05-15 19:24:22.800000+00:00,2024-05-16 04:24:22.800000+09:00,2024,5,15,19,24,22,800,,,,,,,,,-0.194824,-0.189209,1.527588,-0.976562,-27.404785,-24.353027,,,,,,,,,,,0.0,1.0,1.0,6.0,0.0,0.0,0.0,4.0,0.0,-0.16520830666666667,-0.17353837333333336,1.0302246266666666,-1.3500976666666669,7.644042933333333,-15.139160173333334,8.693589847692982,-0.7497659671423652,-4.815982016631294,5.271834527313061,11.590864634375237,-23.828154417903257,27.01705619084402,-2.332254997736851,26.901236642175537,-2.2771464740058684,-0.02961569333333333,-0.01567062666666663,0.49736337333333336,0.5426496933333333,0.4984907049938372,0.6364302593112441,0.6364302593112441,0.6364302593112441
LBP05_S06,LBP05,-1604,47,6,46,-1604,1715801062.84,2024-05-15 19:24:22.840000+00:00,2024-05-16 04:24:22.840000+09:00,2024,5,15,19,24,22,840,,,,,,,,,-0.226318,-0.064941,0.537354,-26.611328,123.10791,-28.259277,,,,,,,,,,,0.0,1.0,1.0,6.0,0.0,0.0,0.0,4.0,0.0,-0.16172849333333333,-0.183304,1.0165690266666667,-2.5984700533333336,6.165364546666667,-15.0708008,3.383934226461435,-2.3101831466201825,-6.964989456312394,5.407191896371518,11.49845730851043,-24.106753996155753,27.250464820090578,-2.2954810263367125,27.172053331232632,-2.278656973443129,-0.06458950666666666,0.118363,-0.4792150266666667,0.6621675333333333,0.49782391055831926,0.6225696244359517,0.6225696244359517,0.6225696244359517
LBP05_S06,LBP05,-1603,48,6,47,-1603,1715801062.88,2024-05-15 19:24:22.880000+00:00,2024-05-16 04:24:22.880000+09:00,2024,5,15,19,24,22,880,,,,,,,,,-0.192871,-0.126709,-0.086426,-116.699219,-49.865723,5.615234,,,,,,,,,,,0.0,1.0,1.0,6.0,0.0,0.0,0.0,4.0,0.0,-0.14875649333333332,-0.18351560000000003,1.0058626533333332,-0.22623698666666694,6.4314778399999994,-14.69970704,-0.9774935893183792,-3.3999902723511384,-8.978857624307174,5.368092152798783,11.362457697616385,-24.46590830112804,27.504591022050622,-2.254681897745132,27.43371942805083,-2.28220220991327,-0.044114506666666664,0.05680660000000004,-1.0922886533333331,1.1932097599999998,1.0946540922605412,0.665486394238187,0.665486394238187,0.665486394238187
LBP05_S06,LBP05,-1602,49,6,48,-1602,1715801062.92,2024-05-15 19:24:22.920000+00:00,2024-05-16 04:24:22.920000+09:00,2024,5,15,19,24,22,920,,,,,,,,,0.296631,-0.237061,0.5354,26.428223,-93.078613,-5.249023,,,,,,,,,,,0.0,1.0,1.0,6.0,0.0,0.0,0.0,4.0,0.0,-0.14918292,-0.17827797333333334,1.00239912,1.0156249999999998,7.68066404,-14.208170586666665,-3.9885102042618357,-3.9750178633367277,-10.460804105484073,5.20855174462831,11.203456983082916,-24.884340465347403,27.78267193852287,-2.2698499125919565,27.690398644544445,-2.2900154195746127,0.44581392,-0.058783026666666655,-0.46699912,0.9715960666666666,0.6483006043269085,0.6640542450789139,0.6640542450789139,0.6640542450789139
LBP05_S06,LBP05,-1601,50,6,49,-1601,1715801062.96,2024-05-15 19:24:22.960000+00:00,2024-05-16 04:24:22.960000+09:00,2024,5,15,19,24,22,960,,,,,,,,,0.292969,-0.06958,0.928711,67.077637,19.958496,-0.488281,,,,,,,,,,,0.0,1.0,1.0,6.0,0.0,0.0,0.0,4.0,0.0,-0.15644529333333335,-0.18013994666666666,1.0164811466666668,1.160481773333333,5.842285133333332,-14.07226564,-5.715304133157333,-4.099542420563297,-11.177646547776105,4.979939579302017,11.039475286260384,-25.331446327258448,28.077606483463438,-2.287773177711762,27.94318665861217,-2.295810020079597,0.4494142933333333,0.11055994666666666,-0.08777014666666683,0.6477443866666668,0.47106295492760175,0.6492087612211207,0.6492087612211207,0.6492087612211207
LBP05_S06,LBP05,-1600,51,6,50,-1600,1715801063.0,2024-05-15 19:24:23+00:00,2024-05-16 04:24:23+09:00,2024,5,15,19,24,23,0,19.0,24.0,23.0,40.861671,141.740509,4.642,3.0,12.0,-0.421631,-0.147949,1.48999,31.25,67.626953,-15.930176,-576.0,42.0,553.0,5.0,0.0,1019.599976,15.94,0.065405,-52.703289,3.839062,0.0,1.0,1.0,6.0,0.0,0.0,0.0,4.0,0.0,-0.16138669333333336,-0.18554684000000002,1.0380729466666665,2.2908528666666665,4.300943986666666,-14.062500013333333,-6.5434813112318775,-3.9338259156560533,-11.07837935179536,4.718200326852742,10.882122249634142,-25.77458150133026,28.372716657891818,-2.2885413781142954,28.192996817869847,-2.2970383808858785,-0.26024430666666665,0.03759784000000002,0.45191705333333343,0.7497592000000001,0.522847702317379,0.6401829712994248,0.6401829712994248,0.6401829712994248
LBP05_S06,LBP05,-1599,52,6,51,-1599,1715801063.04,2024-05-15 19:24:23.040000+00:00,2024-05-16 04:24:23.040000+09:00,2024,5,15,19,24,23,40,,,,,,,,,-0.65918,-0.248535,1.756348,-15.319824,-48.88916,-14.221191,,,,,,,,,,,0.0,1.0,1.0,6.0,0.0,0.0,0.0,4.0,0.0,-0.1638411333333333,-0.18703122666666666,1.0466959866666667,3.42285156,5.905761693333333,-14.161783866666667,-6.963896201180377,-3.6602936646515025,-10.297633403261495,4.439644478805526,10.735710503048082,-26.18648683746072,28.64782742184735,-2.2919883067129265,28.443415345551596,-2.2927004419629418,-0.4953388666666667,-0.061503773333333345,0.7096520133333333,1.2664946533333334,0.8676112533807462,0.6553448567715129,0.6553448567715129,0.6553448567715129
LBP05_S06,LBP05,-1598,53,6,52,-1598,1715801063.08,2024-05-15 19:24:23.080000+00:00,2024-05-16 04:24:23.080000+09:00,2024,5,15,19,24,23,80,,,,,,,,,-0.206055,-0.230469,1.544189,-37.231445,-47.302246,-18.188477,,,,,,,,,,,0.0,1.0,1.0,6.0,0.0,0.0,0.0,4.0,0.0,-0.17456053333333335,-0.17826169333333333,1.0315788,2.1020507866666667,6.30696612,-14.740397146666668,-7.428502662022501,-3.382679838623926,-9.145652534432099,4.142504372324626,10.600403309503125,-26.552312938838003,28.88865201425704,-2.3460027194425286,28.702686852302474,-2.2925467166684976,-0.03149446666666664,-0.052207306666666675,0.5126102000000001,0.5963119733333334,0.5162235188792208,0.6466497731532446,0.6466497731532446,0.6466497731532446
LBP05_S06,LBP05,-1597,54,6,53,-1597,1715801063.12,2024-05-15 19:24:23.120000+00:00,2024-05-16 04:24:23.120000+09:00,2024,5,15,19,24,23,120,,,,,,,,,-0.217041,-0.08374,0.804688,-14.526367,110.168457,-8.361816,,,,,,,,,,,0.0,1.0,1.0,6.0,0.0,0.0,0.0,4.0,0.0,-0.16730793333333333,-0.18138994666666666,1.0136360933333333,1.830240893333333,4.834798146666667,-14.825846359999998,-8.318026345106302,-3.0537601540157655,-8.071222455638047,3.809783318520374,10.478252903342495,-26.875161837063526,29.09609177550891,-2.31698858433681,28.984586373882507,-2.296209417245773,-0.049733066666666687,0.09764994666666667,-0.2089480933333333,0.3563311066666667,0.23594108525585222,0.622490438571045,0.622490438571045,0.622490438571045
LBP05_S06,LBP05,-1596,55,6,54,-1596,1715801063.16,2024-05-15 19:24:23.160000+00:00,2024-05-16 04:24:23.160000+09:00,2024,5,15,19,24,23,160,,,,,,,,,-0.138184,-0.039551,0.073975,-53.100586,-4.089355,-17.883301,,,,,,,,,,,0.0,1.0,1.0,6.0,0.0,0.0,0.0,4.0,0.0,-0.15468424,-0.17847327999999998,0.9993196799999998,2.4169921866666666,4.910481733333333,-14.449869786666666,-9.964619031145709,-2.472995621911569,-7.583707905831221,3.411198557274546,10.379333078466033,-27.178510153296774,29.292289854221828,-2.286821808129809,29.30819917747553,-2.300058289785942,0.01650024,0.13892227999999998,-0.9253446799999998,1.0807671999999997,0.935860264465138,0.6398998733429391,0.6398998733429391,0.6398998733429391
LBP05_S06,LBP05,-1595,56,6,55,-1595,1715801063.2,2024-05-15 19:24:23.200000+00:00,2024-05-16 04:24:23.200000+09:00,2024,5,15,19,24,23,200,,,,,,,,,0.126465,-0.033203,0.418213,-12.207031,-87.95166,-14.282227,,,,,,,,,,,0.0,1.0,1.0,6.0,0.0,0.0,0.0,4.0,0.0,-0.15201170666666666,-0.17462237333333333,0.9963769733333333,3.5791015599999993,5.838216106666667,-14.086100253333331,-12.644137673268645,-1.3695936867756269,-8.135347211078239,2.9054330503437997,10.324549330995008,-27.503924041739904,29.521241467661515,-2.288875608507483,29.696514684921432,-2.30701112024615,0.2784767066666667,0.14141937333333332,-0.5781639733333332,0.9980600533333333,0.6571318706093113,0.6408068205674851,0.6408068205674851,0.6408068205674851
LBP05_S06,LBP05,-1594,57,6,56,-1594,1715801063.24,2024-05-15 19:24:23.240000+00:00,2024-05-16 04:24:23.240000+09:00,2024,5,15,19,24,23,240,,,,,,,,,0.460938,-0.411621,1.05249,46.264648,0.061035,26.306152,,,,,,,,,,,0.0,1.0,1.0,6.0,0.0,0.0,0.0,4.0,0.0,-0.15584634666666666,-0.17716469333333335,1.0103646,4.343261719999999,4.174804653333333,-13.8273112,-16.49749865580944,0.4532082618973556,-9.98790873991357,2.245533104111422,10.342677661470903,-27.903440391336446,29.843179887599373,-2.29394377339227,30.173673069620367,-2.3117293794031406,0.6167843466666667,-0.23445630666666667,0.04212539999999998,0.8933660533333334,0.6611862365128005,0.6418257913647507,0.6418257913647507,0.6418257913647507
LBP05_S06,LBP05,-1593,58,6,57,-1593,1715801063.28,2024-05-15 19:24:23.280000+00:00,2024-05-16 04:24:23.280000+09:00,2024,5,15,19,24,23,280,,,,,,,,,-0.333252,0.367676,1.455078,-22.033691,63.598633,11.169434,,,,,,,,,,,0.0,1.0,1.0,6.0,0.0,0.0,0.0,4.0,0.0,-0.15874998666666668,-0.18145180000000002,1.0330501466666668,5.314127599999999,3.476562466666666,-13.696289066666669,-21.413543409644465,2.981006785814834,-13.108570570009402,1.3889913677256436,10.461917932903496,-28.42778321413682,30.323586237850947,-2.291308903517893,30.76102642589734,-2.313804491757804,-0.17450201333333332,0.5491278,0.42202785333333326,1.1456576666666667,0.714212715078196,0.6452727877320578,0.6452727877320578,0.6452727877320578
LBP05_S06,LBP05,-1592,59,6,58,-1592,1715801063.32,2024-05-15 19:24:23.320000+00:00,2024-05-16 04:24:23.320000+09:00,2024,5,15,19,24,23,320,,,,,,,,,-0.604004,-0.421143,1.79126,-25.817871,-52.368164,-34.362793,,,,,,,,,,,0.0,1.0,1.0,6.0,0.0,0.0,0.0,4.0,0.0,-0.16303058666666667,-0.17989906666666666,1.0406706,5.508626293333332,5.330403613333333,-13.324381520000001,-26.952176949494525,5.931795125990268,-17.143240408028667,0.3109042897458625,10.699189737943106,-29.113512830457967,31.018799974453078,-2.308338637993642,31.472718176061203,-2.309007946076247,-0.4409734133333333,-0.24124393333333333,0.7505894000000002,1.4328067466666667,0.9033496742841882,0.6570035553026091,0.6570035553026091,0.6570035553026091
LBP05_S06,LBP05,-1591,60,6,59,-1591,1715801063.36,2024-05-15 19:24:23.360000+00:00,2024-05-16 04:24:23.360000+09:00,2024,5,15,19,24,23,360,,,,,,,,,-0.180908,-0.380127,1.697754,-48.339844,-54.748535,-50.842285,,,,,,,,,,,0.0,1.0,1.0,6.0,0.0,0.0,0.0,4.0,0.0,-0.17319985333333335,-0.17280597333333336,1.0277083599999999,5.315755199999999,6.371256479999999,-13.050944013333334,-32.37360698325246,8.811614990806975,-21.488076739108106,-0.9840399895842358,11.051654337575386,-29.973035900022293,31.96076155792247,-2.3573014823138423,32.31179609853551,-2.3090783551588636,-0.007708146666666665,-0.20732102666666663,0.6700456400000001,0.8850748133333334,0.7014289581320159,0.6589350945560616,0.6589350945560616,0.6589350945560616
LBP05_S06,LBP05,-1590,61,6,60,-1590,1715801063.4,2024-05-15 19:24:23.400000+00:00,2024-05-16 04:24:23.400000+09:00,2024,5,15,19,24,23,400,,,,,,,,,-0.05542,-0.203125,1.068604,9.399414,141.479492,-28.869629,,,,,,,,,,,0.0,1.0,1.0,6.0,0.0,0.0,0.0,4.0,0.0,-0.16722002666666666,-0.17441404,1.0109212533333332,3.5115559866666666,4.824218719999999,-12.569173186666667,-36.78197988646127,11.063158000250084,-25.432078687901374,-2.4553191850426868,11.494180657585389,-30.990319047538346,33.14430050488118,-2.3357239696842034,33.26777970961349,-2.3120301990814034,0.11180002666666666,-0.028710960000000008,0.05768274666666695,0.19819373333333362,0.12903822863709752,0.6368560584761047,0.6368560584761047,0.6368560584761047
LBP05_S06,LBP05,-1589,62,6,61,-1589,1715801063.44,2024-05-15 19:24:23.440000+00:00,2024-05-16 04:24:23.440000+09:00,2024,5,15,19,24,23,440,,,,,,,,,-0.346191,0.018799,0.104736,-123.474121,35.705566,-23.010254,,,,,,,,,,,0.0,1.0,1.0,6.0,0.0,0.0,0.0,4.0,0.0,-0.15554685333333335,-0.1700813466666667,0.9989095333333332,3.0501302133333326,5.2473958,-12.35758464,-39.33440596747091,12.248883714446023,-28.312094539630273,-4.028695423741523,11.98413600616323,-32.12280282912356,34.52136098461708,-2.3127394302595574,34.31628065623902,-2.317792986140855,-0.19064414666666668,0.1888803466666667,-0.8941735333333332,1.2736980266666666,0.9335776795366303,0.6487249233185257,0.6487249233185257,0.6487249233185257
LBP05_S06,LBP05,-1588,63,6,62,-1588,1715801063.48,2024-05-15 19:24:23.480000+00:00,2024-05-16 04:24:23.480000+09:00,2024,5,15,19,24,23,480,,,,,,,,,0.082764,-0.245361,0.467529,-55.725098,-77.697754,-13.85498,,,,,,,,,,,0.0,1.0,1.0,6.0,0.0,0.0,0.0,4.0,0.0,-0.15344725333333334,-0.17295894666666667,0.9969857066666669,3.243815106666666,6.510416626666666,-12.08902996,-39.43856549543162,12.187526078842518,-29.632382310005987,-5.606238043558788,12.47163704931693,-33.3080981215238,36.0055695158957,-2.298037262626957,35.420905255718736,-2.325110122736607,0.23621125333333334,-0.07240205333333333,-0.5294567066666669,0.8380700133333335,0.5842621139201993,0.6401594785451152,0.6462455844955132,0.6462455844955132
LBP05_S06,LBP05,-1587,64,6,63,-1587,1715801063.52,2024-05-15 19:24:23.520000+00:00,2024-05-16 04:24:23.520000+09:00,2024,5,15,19,24,23,520,,,,,,,,,0.436279,-0.316406,1.07251,8.789062,22.766113,-15.74707,,,,,,,,,,,0.0,1.0,1.0,6.0,0.0,0.0,0.0,4.0,0.0,-0.15889321333333334,-0.17197913333333334,1.011445333333333,4.029134119999999,5.204264293333332,-12.06054688,-36.87008256557313,10.984511886946825,-29.13786617627367,-7.081041346181713,12.911017524794804,-34.473612768574746,37.48687100025199,-2.31769267516298,36.537277434848455,-2.330974207723359,0.5951722133333333,-0.14442686666666668,0.06106466666666699,0.800663746666667,0.6154819061957557,0.6434862035891383,0.6451061890029296,0.6451061890029296
LBP05_S06,LBP05,-1586,65,6,64,-1586,1715801063.56,2024-05-15 19:24:23.560000+00:00,2024-05-16 04:24:23.560000+09:00,2024,5,15,19,24,23,560,,,,,,,,,-0.365967,0.039551,1.546875,25.57373,79.467773,-38.085938,,,,,,,,,,,0.0,1.0,1.0,6.0,0.0,0.0,0.0,4.0,0.0,-0.16377277333333334,-0.17776364,1.0323893466666667,4.970703133333332,4.72737628,-11.866861986666667,-31.78461697023314,8.960719468596821,-26.85481492011931,-8.35242602499104,13.269446303538677,-35.54780536537952,38.85212596500156,-2.3163402473552095,37.61864314493148,-2.33242653480913,-0.20219422666666664,0.21731464,0.5144856533333333,0.9339945199999999,0.5939727649829475,0.6484759417083323,0.6432799952879302,0.6432799952879302
LBP05_S06,LBP05,-1585,66,6,65,-1585,1715801063.6,2024-05-15 19:24:23.600000+00:00,2024-05-16 04:24:23.600000+09:00,2024,5,15,19,24,23,600,,,,,,,,,-0.654053,-0.345703,1.821289,-79.223633,-56.945801,-57.434082,,,,,,,,,,,0.0,1.0,1.0,6.0,0.0,0.0,0.0,4.0,0.0,-0.16995116000000002,-0.1733691066666667,1.0395182533333334,5.3963216266666665,6.0693359199999986,-11.650390640000001,-24.65574808070859,6.5322950200474805,-23.105538031602414,-9.338655948219383,13.530738104340577,-36.47202688664361,40.00625093391684,-2.346503479101994,38.62224853106203,-2.3263541398548235,-0.48410184,-0.1723338933333333,0.7817707466666666,1.4382064799999998,0.935531433264841,0.6485141953431298,0.6533576310802375,0.6533576310802375
LBP05_S06,LBP05,-1584,67,6,66,-1584,1715801063.64,2024-05-15 19:24:23.640000+00:00,2024-05-16 04:24:23.640000+09:00,2024,5,15,19,24,23,640,,,,,,,,,-0.208984,-0.614746,1.721436,-49.987793,-72.20459,-28.808594,,,,,,,,,,,0.0,1.0,1.0,6.0,0.0,0.0,0.0,4.0,0.0,-0.17804034666666665,-0.17408200000000001,1.0279720266666665,3.3186849066666664,6.8058268,-11.75781252,-16.18847594356766,4.097196480061535,-18.48096476335248,-9.98619498596209,13.694625963543038,-37.21126547717771,40.88942588239653,-2.3671151393497936,39.515534483735784,-2.3232510267961546,-0.03094365333333335,-0.440664,0.6934639733333334,1.1650716266666667,0.8222132040346152,0.6567531168642446,0.6589861501787168,0.6589861501787168
LBP05_S06,LBP05,-1583,68,6,67,-1583,1715801063.68,2024-05-15 19:24:23.680000+00:00,2024-05-16 04:24:23.680000+09:00,2024,5,15,19,24,23,680,,,,,,,,,-0.105957,-0.127441,0.936523,16.845703,111.450195,22.033691,,,,,,,,,,,0.0,1.0,1.0,6.0,0.0,0.0,0.0,4.0,0.0,-0.17182941333333335,-0.17405270666666667,1.0100293200000001,2.3681640799999997,5.458984346666666,-11.861165386666666,-7.22568789502946,1.967094196559329,-13.749767834008576,-10.275222501763269,13.77330973140541,-37.761256190538056,41.48730802914812,-2.3499497533854115,40.28110230282711,-2.3227988876513224,0.06587241333333335,0.04661170666666667,-0.07350632000000012,0.18599044000000015,0.10915587531910186,0.6424312918092752,0.6412496896993743,0.6412496896993743
LBP05_S06,LBP05,-1582,69,6,68,-1582,1715801063.72,2024-05-15 19:24:23.720000+00:00,2024-05-16 04:24:23.720000+09:00,2024,5,15,19,24,23,720,,,,,,,,,-0.202881,-0.010498,0.064209,1.220703,21.66748,7.202148,,,,,,,,,,,0.0,1.0,1.0,6.0,0.0,0.0,0.0,4.0,0.0,-0.15911457333333334,-0.17040362666666667,0.9943717733333334,2.166341173333333,5.6225585733333325,-11.845703146666667,1.3667780496413449,0.35686258894718836,-9.710343370096803,-10.220551379777614,13.787584234963298,-38.149669925341925,41.83245707528331,-2.322861908851354,40.919440824488234,-2.3252591859056206,-0.043766426666666663,0.15990562666666666,-0.9301627733333334,1.1338348266666667,0.9448217262732618,0.6563599548710708,0.6507363158423083,0.6507363158423083
LBP05_S06,LBP05,-1581,70,6,69,-1581,1715801063.76,2024-05-15 19:24:23.760000+00:00,2024-05-16 04:24:23.760000+09:00,2024,5,15,19,24,23,760,,,,,,,,,0.103516,0.003906,0.376465,35.27832,-72.44873,-19.348145,,,,,,,,,,,0.0,1.0,1.0,6.0,0.0,0.0,0.0,4.0,0.0,-0.15416665333333332,-0.17430661333333333,0.9930957333333333,2.94433596,6.3370768,-11.830240906666667,8.836918999244391,-0.5933025703060415,-7.029334867017134,-9.86707461980784,13.763852132151056,-38.43084332002261,41.996815419227936,-2.2965775327707747,41.448719833632666,-2.3279536311330444,0.2576826533333333,0.17821261333333333,-0.6166307333333334,1.052526,0.691659993545389,0.6514336188676758,0.6519764272878562,0.6519764272878562
LBP05_S06,LBP05,-1580,71,6,70,-1580,1715801063.8,2024-05-15 19:24:23.800000+00:00,2024-05-16 04:24:23.800000+09:00,2024,5,15,19,24,23,800,,,,,,,,,0.423096,-0.212158,0.926758,20.629883,-2.258301,-11.169434,,,,,,,,,,,0.0,1.0,1.0,6.0,0.0,0.0,0.0,4.0,0.0,-0.15846353333333332,-0.17618812,1.0077344,4.17968752,4.842122373333333,-11.77083336,14.6696615472527,-0.8025720607594449,-6.119135229788175,-9.280288157917731,13.731749249720679,-38.67560872921414,42.07716003161879,-2.3046928390975117,41.90154956591023,-2.329267906520136,0.5815595333333333,-0.03596988000000001,-0.08097639999999995,0.6985058133333333,0.588270771358784,0.6550248215222736,0.6501027315252363,0.6501027315252363
LBP05_S06,LBP05,-1579,72,6,71,-1579,1715801063.84,2024-05-15 19:24:23.840000+00:00,2024-05-16 04:24:23.840000+09:00,2024,5,15,19,24,23,840,,,,,,,,,-0.175049,-0.165527,1.373047,-9.70459,73.852539,-7.751465,,,,,,,,,,,0.0,1.0,1.0,6.0,0.0,0.0,0.0,4.0,0.0,-0.16228189333333332,-0.17912432,1.02853844,5.462239599999999,4.053548159999999,-11.510416693333333,18.651665054311156,-0.2533365042237559,-7.079415592870509,-8.534221555745285,13.721615789551729,-38.95878535292896,42.17703917553027,-2.308218038811239,42.31926850873819,-2.3252894036448075,-0.012767106666666694,0.013597319999999996,0.34450855999999996,0.3708729866666667,0.34501309255895496,0.6489123888022991,0.6413858846976285,0.6413858846976285
LBP05_S06,LBP05,-1578,73,6,72,-1578,1715801063.88,2024-05-15 19:24:23.880000+00:00,2024-05-16 04:24:23.880000+09:00,2024,5,15,19,24,23,880,,,,,,,,,-0.64209,-0.455322,1.633545,9.94873,-55.419922,-20.690918,,,,,,,,,,,0.0,1.0,1.0,6.0,0.0,0.0,0.0,4.0,0.0,-0.16635090666666666,-0.17823565333333335,1.03836592,4.261067733333332,5.0732421599999995,-11.152343773333332,20.86009289535684,1.0021383604489114,-9.694392031214534,-7.699817839931011,13.761701323969685,-39.34656103417755,42.388954732507,-2.3226402451699397,42.74483127709597,-2.3180385911280506,-0.4757390933333334,-0.27708634666666665,0.5951790800000001,1.3480045200000002,0.8107667147240005,0.6375568937008375,0.6460909077539165,0.6460909077539165
LBP05_S06,LBP05,-1577,74,6,73,-1577,1715801063.92,2024-05-15 19:24:23.920000+00:00,2024-05-16 04:24:23.920000+09:00,2024,5,15,19,24,23,920,,,,,,,,,-0.195557,-0.206787,1.700439,85.327148,-53.833008,-12.329102,,,,,,,,,,,0.0,1.0,1.0,6.0,0.0,0.0,0.0,4.0,0.0,-0.17371418666666666,-0.17789712,1.0270736,3.5335286799999994,6.142578106666667,-10.75927736,21.58987017089213,2.849383394333068,-13.466562069115923,-6.836223033095326,13.875676659743007,-39.88522351694218,42.77966109169634,-2.344637127437219,43.21564478408473,-2.311021508257709,-0.02184281333333335,-0.028889880000000007,0.6733654,0.7240980933333334,0.6743387098320022,0.6385984179210412,0.646854361864135,0.646854361864135
LBP05_S06,LBP05,-1576,75,6,74,-1576,1715801063.96,2024-05-15 19:24:23.960000+00:00,2024-05-16 04:24:23.960000+09:00,2024,5,15,19,24,23,960,,,,,,,,,0.011963,-0.095947,1.041748,-9.887695,62.561035,11.657715,,,,,,,,,,,0.0,1.0,1.0,6.0,0.0,0.0,0.0,4.0,0.0,-0.16801432,-0.17751626666666667,1.0096191733333335,3.037109413333333,5.1619465999999985,-10.422363293333333,21.24599480729108,5.140362386081273,-17.67899388348687,-5.986383240803683,14.081291155186259,-40.59238327228166,43.3804232877771,-2.329483001226124,43.757726692968454,-2.3078053215768657,0.17997732,0.08156926666666667,0.03212882666666639,0.293675413333333,0.20019401210300192,0.6277636602080572,0.6351001421335789,0.6351001421335789
LBP05_S06,LBP05,-1575,76,6,75,-1575,1715801064.0,2024-05-15 19:24:24+00:00,2024-05-16 04:24:24+09:00,2024,5,15,19,24,24,0,19.0,24.0,24.0,40.861614,141.74057,5.13,3.0,12.0,-0.543213,0.046143,0.038818,-10.681152,100.036621,-17.028809,-575.0,54.0,550.0,5.0,0.0,1020.299988,16.0,0.072341,-58.496948,3.839062,0.0,1.0,1.0,6.0,0.0,0.0,0.0,6.0,0.0,-0.15574218666666664,-0.17243162666666664,0.9964941733333332,3.6564127866666665,5.209147119999999,-9.818522146666668,20.227577115412533,7.734200969668328,-21.494276982409755,-5.177280156187181,14.390659193972992,-41.452154351578045,44.183440362196556,-2.30671845034871,44.38227640008448,-2.310345665819491,-0.38747081333333333,0.21857462666666666,-0.9576761733333332,1.5637216133333331,1.0559602982963157,0.6490881640472148,0.6458914281890338,0.6458914281890338
LBP05_S06,LBP05,-1574,77,6,76,-1574,1715801064.04,2024-05-15 19:24:24.040000+00:00,2024-05-16 04:24:24.040000+09:00,2024,5,15,19,24,24,40,,,,,,,,,-0.027344,-0.191162,0.334717,1.098633,-61.462402,-22.888184,,,,,,,,,,,0.0,1.0,1.0,6.0,0.0,0.0,0.0,6.0,0.0,-0.15224284,-0.17282550666666668,0.9908301066666667,2.8149414399999997,5.779622373333333,-10.0716146,18.838953271947844,10.516697783929681,-24.100290077972275,-4.423722025309267,14.811327105330179,-42.416165954696936,45.145053565974266,-2.2946070141822226,45.08514128741324,-2.3133035177461174,0.12489883999999998,-0.018336493333333315,-0.6561131066666668,0.79934844,0.668146956859712,0.6411095921863733,0.6464478164058007,0.6464478164058007
LBP05_S06,LBP05,-1573,78,6,77,-1573,1715801064.08,2024-05-15 19:24:24.080000+00:00,2024-05-16 04:24:24.080000+09:00,2024,5,15,19,24,24,80,,,,,,,,,0.344727,-0.193115,0.700439,4.150391,-43.884277,-45.654297,,,,,,,,,,,0.0,1.0,1.0,6.0,0.0,0.0,0.0,6.0,0.0,-0.1555143333333333,-0.18208984,1.003352893333333,4.213053413333332,4.605305973333333,-9.801432306666667,17.270145060512217,13.365893087093733,-24.891238471263122,-3.7329162228887784,15.345962828813928,-43.41181549354746,46.19544309903578,-2.279778924681993,45.84892404551004,-2.3145221973634436,0.5002413333333333,-0.011025160000000006,-0.3029138933333331,0.8141803866666664,0.5849100550533344,0.6438570536333379,0.6449468953972038,0.6449468953972038
LBP05_S06,LBP05,-1572,79,6,78,-1572,1715801064.12,2024-05-15 19:24:24.120000+00:00,2024-05-16 04:24:24.120000+09:00,2024,5,15,19,24,24,120,,,,,,,,,0.099854,-0.324463,1.109619,54.138184,63.476562,-51.452637,,,,,,,,,,,0.0,1.0,1.0,6.0,0.0,0.0,0.0,6.0,0.0,-0.16146486666666665,-0.18482095999999998,1.02597984,6.739095079999999,3.9192708133333327,-9.444987,15.661918460454169,16.080071758528668,-23.63673474344353,-3.1064394844706116,15.989165699155075,-44.357284883285196,47.25327616412048,-2.290700042042924,46.6469482765441,-2.311267374386257,0.26131886666666665,-0.13964204000000002,0.08363915999999993,0.4846000666666666,0.3078684110083695,0.6467341466634386,0.6369212171974697,0.6369212171974697
LBP05_S06,LBP05,-1571,80,6,79,-1571,1715801064.16,2024-05-15 19:24:24.160000+00:00,2024-05-16 04:24:24.160000+09:00,2024,5,15,19,24,24,160,,,,,,,,,-0.5625,-0.064209,1.601807,98.449707,30.395508,-32.592773,,,,,,,,,,,0.0,1.0,1.0,6.0,0.0,0.0,0.0,6.0,0.0,-0.16703128,-0.17921222666666667,1.0366146,5.605468773333332,4.42952472,-9.408365906666667,14.210124726228669,18.331224534043162,-20.569964727903514,-2.538034495421465,16.722414680516803,-45.180083472401336,48.2423124903882,-2.321980975197025,47.4481561091156,-2.3033538285412627,-0.39546872,0.11500322666666667,0.5651923999999999,1.0756643466666667,0.6993308942553181,0.6372729718550458,0.6383726050360244,0.6383726050360244
LBP05_S06,LBP05,-1570,81,6,80,-1570,1715801064.2,2024-05-15 19:24:24.200000+00:00,2024-05-16 04:24:24.200000+09:00,2024,5,15,19,24,24,200,,,,,,,,,-0.311279,-0.486572,1.812988,-34.484863,-56.762695,-5.67627,,,,,,,,,,,0.0,1.0,1.0,6.0,0.0,0.0,0.0,6.0,0.0,-0.17339846666666667,-0.18140949333333334,1.0286426,4.217122426666666,5.21240232,-9.450683626666665,13.219119575218855,19.69508184247954,-16.342462699142665,-2.009269712412711,17.510217954215985,-45.83378198036704,49.10580890490641,-2.3342713583637815,48.222118799194206,-2.2967470103440344,-0.1378805333333333,-0.30516250666666667,0.7843454000000001,1.22738844,0.8528381461030738,0.6451012228747963,0.6432468218784574,0.6432468218784574
LBP05_S06,LBP05,-1569,82,6,81,-1569,1715801064.24,2024-05-15 19:24:24.240000+00:00,2024-05-16 04:24:24.240000+09:00,2024,5,15,19,24,24,240,,,,,,,,,-0.149414,-0.097168,1.305908,21.057129,55.053711,13.061523,,,,,,,,,,,0.0,1.0,1.0,6.0,0.0,0.0,0.0,6.0,0.0,-0.16910810666666667,-0.18206053333333333,1.0108235866666666,3.006184919999999,3.929850239999999,-9.560546906666668,13.036289291913185,19.759056117109086,-11.846069657758791,-1.4878181407361835,18.30058019890035,-46.30762476667739,49.81486675649831,-2.3204048349844975,48.943475742853806,-2.2942649435579634,0.019694106666666683,0.08489253333333333,0.29508441333333346,0.39967105333333347,0.3076839466813742,0.6309611312815392,0.6357898690962999,0.6357898690962999
LBP05_S06,LBP05,-1568,83,6,82,-1568,1715801064.28,2024-05-15 19:24:24.280000+00:00,2024-05-16 04:24:24.280000+09:00,2024,5,15,19,24,24,280,,,,,,,,,-0.507568,0.053223,0.201416,-36.621094,115.661621,-1.89209,,,,,,,,,,,0.0,1.0,1.0,6.0,0.0,0.0,0.0,6.0,0.0,-0.15750654666666666,-0.18052733333333335,0.9944629199999999,3.094075546666666,3.614908839999999,-9.524739613333333,13.88619490345712,18.268003015482414,-7.96271277559883,-0.9323703445978986,19.031300319519644,-46.62613327770134,50.36919704284755,-2.2900920153980744,49.59522229607896,-2.294372839314371,-0.3500614533333334,0.23375033333333334,-0.7930469199999999,1.3768587066666667,0.8978338692457398,0.6383059774482409,0.6414864777952008,0.6414864777952008
LBP05_S06,LBP05,-1567,84,6,83,-1567,1715801064.32,2024-05-15 19:24:24.320000+00:00,2024-05-16 04:24:24.320000+09:00,2024,5,15,19,24,24,320,,,,,,,,,-0.066895,-0.468262,0.373779,-81.359863,-53.833008,7.324219,,,,,,,,,,,0.0,1.0,1.0,6.0,0.0,0.0,0.0,6.0,0.0,-0.14951501333333334,-0.18034504,0.9860124,3.5270182533333325,4.1381835733333325,-9.344889359999998,15.70903378010808,15.245592192748733,-5.333062969567113,-0.30400899339357534,19.641124007229593,-46.839455796484025,50.79173941741133,-2.2655016689872727,50.17041205714564,-2.297411710421067,0.08262001333333334,-0.28791696,-0.6122334,0.9827703733333334,0.6815805004065196,0.6294352104931342,0.6423395421060799,0.6423395421060799
LBP05_S06,LBP05,-1566,85,6,84,-1566,1715801064.36,2024-05-15 19:24:24.360000+00:00,2024-05-16 04:24:24.360000+09:00,2024,5,15,19,24,24,360,,,,,,,,,0.394287,-0.271729,0.829346,126.220703,-23.620605,-11.108398,,,,,,,,,,,0.0,1.0,1.0,6.0,0.0,0.0,0.0,6.0,0.0,-0.15134444000000002,-0.18335285333333332,0.9988867466666667,4.808756533333333,3.451334613333332,-9.034016973333332,18.1213256336181,11.033552970864124,-4.220229441006652,0.4208440319511486,20.08246612606416,-47.00826497412429,51.12005018856323,-2.263414819253845,50.67207049386901,-2.299880297754798,0.54563144,-0.08837614666666668,-0.16954074666666663,0.8035483333333333,0.57815921370883,0.6245044207162068,0.6410024519311371,0.6410024519311371
LBP05_S06,LBP05,-1565,86,6,85,-1565,1715801064.4,2024-05-15 19:24:24.400000+00:00,2024-05-16 04:24:24.400000+09:00,2024,5,15,19,24,24,400,,,,,,,,,-0.064453,0.023193,1.256348,46.386719,75.317383,1.281738,,,,,,,,,,,0.0,1.0,1.0,6.0,0.0,0.0,0.0,6.0,0.0,-0.15714522666666667,-0.18317381333333332,1.0224512000000001,6.244303413333332,3.583170559999999,-9.100748733333333,20.539060429287833,6.231864465841796,-4.499208256572995,1.242406449122662,20.33174070469783,-47.18823330438721,51.39700979879244,-2.2818977824880027,51.111428376327034,-2.2957876315578964,0.09269222666666667,0.20636681333333332,0.2338967999999999,0.5329558399999998,0.3254025561977341,0.6323589938186323,0.6345616377324964,0.6345616377324964
LBP05_S06,LBP05,-1564,87,6,86,-1564,1715801064.44,2024-05-15 19:24:24.440000+00:00,2024-05-16 04:24:24.440000+09:00,2024,5,15,19,24,24,440,,,,,,,,,-0.685303,-0.192871,1.634033,10.925293,-2.13623,-16.052246,,,,,,,,,,,0.0,1.0,1.0,6.0,0.0,0.0,0.0,6.0,0.0,-0.16420577333333333,-0.18602537333333333,1.03778324,5.99039716,4.431966133333333,-8.900553426666667,22.391668318362292,1.5703178530782353,-5.754709091948841,2.1380731818571537,20.39455341882096,-47.418421668065164,51.66251909822585,-2.295685971746296,51.50492789706906,-2.2877714064574914,-0.5210972266666667,-0.00684562666666666,0.5962497600000001,1.1241926133333333,0.7918983258879946,0.6266918196726868,0.6377083714956062,0.6377083714956062
LBP05_S06,LBP05,-1563,88,6,87,-1563,1715801064.48,2024-05-15 19:24:24.480000+00:00,2024-05-16 04:24:24.480000+09:00,2024,5,15,19,24,24,480,,,,,,,,,-0.551025,-0.179199,1.64502,68.359375,-99.243164,-24.597168,,,,,,,,,,,0.0,1.0,1.0,6.0,0.0,0.0,0.0,6.0,0.0,-0.17071293333333332,-0.18771482666666667,1.0359407866666668,4.924316426666666,5.648600253333332,-8.726399786666667,23.299163116272904,-2.241608376296149,-7.438380647362937,3.07003970650807,20.304889083769112,-47.715956893959685,51.94734070970256,-2.310167635748951,51.87072274945672,-2.2821051456157404,-0.38031206666666667,0.00851582666666667,0.6090792133333331,0.9979071066666665,0.7181136925799702,0.6320458828190777,0.6361026806820964,0.6392849464188292
LBP05_S06,LBP05,-1562,89,6,88,-1562,1715801064.52,2024-05-15 19:24:24.520000+00:00,2024-05-16 04:24:24.520000+09:00,2024,5,15,19,24,24,520,,,,,,,,,-0.037354,-0.106934,1.088623,-22.949219,42.297363,-9.033203,,,,,,,,,,,0.0,1.0,1.0,6.0,0.0,0.0,0.0,6.0,0.0,-0.16834313333333334,-0.18312173333333334,1.0168262000000001,3.9990234533333324,4.951171866666666,-8.7345378,23.1258751070903,-4.645764021989792,-9.02692347484602,3.9950747107916817,20.11905852288952,-48.077033832953525,52.26986053135419,-2.3153859153802374,52.22545362375424,-2.28025568113535,0.13098913333333334,0.07618773333333334,0.07179679999999977,0.27897366666666645,0.16768274882088752,0.6141339165240829,0.6288100600566107,0.6302156733880995
LBP05_S06,LBP05,-1561,90,6,89,-1561,1715801064.56,2024-05-15 19:24:24.560000+00:00,2024-05-16 04:24:24.560000+09:00,2024,5,15,19,24,24,560,,,,,,,,,-0.475342,0.095459,0.058594,-15.808105,75.622559,-8.117676,,,,,,,,,,,0.0,1.0,1.0,6.0,0.0,0.0,0.0,6.0,0.0,-0.15787112,-0.18438801333333332,0.9992903866666668,3.758951839999999,4.175618479999999,-8.363444053333334,21.917911034804668,-5.3194985685804275,-10.134068789577793,4.871791152183868,19.906278580146303,-48.48239658453664,52.63589131496852,-2.281054313228007,52.58188811664276,-2.2810605540662867,-0.31747088,0.27984701333333334,-0.9406963866666668,1.53801428,1.031509477613892,0.6316353850293208,0.6400556633688265,0.6377872545999068
LBP05_S06,LBP05,-1560,91,6,90,-1560,1715801064.6,2024-05-15 19:24:24.600000+00:00,2024-05-16 04:24:24.600000+09:00,2024,5,15,19,24,24,600,,,,,,,,,-0.035889,-0.187744,0.232178,9.033203,-66.40625,-4.882812,,,,,,,,,,,0.0,1.0,1.0,6.0,0.0,0.0,0.0,6.0,0.0,-0.14964194666666666,-0.18487629333333333,0.9906152666666667,5.468750013333333,4.578450506666666,-7.76774092,19.802594298151405,-4.210723928885423,-10.556257635421135,5.663894924109925,19.737849622990886,-48.90464688995348,53.04080411232654,-2.254109107359728,52.94767947663708,-2.2858491291027176,0.11375294666666666,-0.002867706666666664,-0.7584372666666667,0.8750579199999999,0.7669257096262193,0.6248911560837758,0.6367026757134528,0.6401787074707644
LBP05_S06,LBP05,-1559,92,6,91,-1559,1715801064.64,2024-05-15 19:24:24.640000+00:00,2024-05-16 04:24:24.640000+09:00,2024,5,15,19,24,24,640,,,,,,,,,0.306396,-0.050049,0.675537,28.686523,-55.358887,-6.774902,,,,,,,,,,,0.0,1.0,1.0,6.0,0.0,0.0,0.0,6.0,0.0,-0.14977541333333333,-0.18130858666666666,0.9983203333333334,5.883789066666666,3.863118479999999,-7.06054692,16.93366521001316,-1.5417338255904276,-10.261193869549981,6.341241532510451,19.67618026996727,-49.31509464473548,53.47281528037497,-2.263742226566987,53.3252035880076,-2.2876927480201994,0.45617141333333333,0.13125958666666665,-0.3227833333333333,0.9102143333333333,0.5740300669060923,0.614963830598635,0.6358584737314399,0.6389760049150431
LBP05_S06,LBP05,-1558,93,6,92,-1558,1715801064.68,2024-05-15 19:24:24.680000+00:00,2024-05-16 04:24:24.680000+09:00,2024,5,15,19,24,24,680,,,,,,,,,0.122559,-0.103516,1.241943,72.387695,65.795898,-6.225586,,,,,,,,,,,0.0,1.0,1.0,6.0,0.0,0.0,0.0,6.0,0.0,-0.15595378666666668,-0.18573566666666666,1.0198470266666666,6.150716146666666,3.3390299333333324,-6.755371133333333,13.509937979801688,2.213434427947442,-9.345584997309127,6.8816390517025186,19.764717647085167,-49.68891804462785,53.916505785822764,-2.271597370594173,53.71227265759603,-2.2862138771525764,0.2785127866666667,0.08221966666666666,0.22209597333333342,0.5828284266666668,0.3655900262513882,0.6252211966359265,0.6338262442226007,0.6340941124389065
LBP05_S06,LBP05,-1557,94,6,93,-1557,1715801064.72,2024-05-15 19:24:24.720000+00:00,2024-05-16 04:24:24.720000+09:00,2024,5,15,19,24,24,720,,,,,,,,,-0.608643,-0.284424,1.632568,7.019043,19.40918,-8.850098,,,,,,,,,,,0.0,1.0,1.0,6.0,0.0,0.0,0.0,6.0,0.0,-0.15976889333333336,-0.18951822666666665,1.0354557466666667,6.269531253333332,3.8753255066666656,-6.67317712,9.822753648592794,6.395030236764493,-7.987947129828847,7.27454919764623,20.020518856555746,-50.008435929821005,54.356084346296434,-2.273550398296642,54.103455340592824,-2.280832084132728,-0.4488741066666667,-0.09490577333333336,0.5971122533333333,1.1408921333333333,0.7530193307801646,0.6175491008162024,0.6369545278436367,0.6361805197782269
LBP05_S06,LBP05,-1556,95,6,94,-1556,1715801064.76,2024-05-15 19:24:24.760000+00:00,2024-05-16 04:24:24.760000+09:00,2024,5,15,19,24,24,760,,,,,,,,,-0.343994,-0.364502,1.768555,-5.004883,-82.763672,-12.817383,,,,,,,,,,,0.0,1.0,1.0,6.0,0.0,0.0,0.0,6.0,0.0,-0.16789716000000002,-0.18417317333333333,1.0315755466666667,5.481770839999999,5.140787746666666,-6.936848986666667,6.258584571319081,10.274340168404253,-6.41042105409887,7.524892580498994,20.431492463291917,-50.26485277198496,54.77796378850648,-2.3113005696181492,54.49168022056345,-2.276420525938034,-0.17609684,-0.18032882666666666,0.7369794533333334,1.09340512,0.7788885012763131,0.6210382411254395,0.6362359299965576,0.638641002217849
LBP05_S06,LBP05,-1555,96,6,95,-1555,1715801064.8,2024-05-15 19:24:24.800000+00:00,2024-05-16 04:24:24.800000+09:00,2024,5,15,19,24,24,800,,,,,,,,,0.000244,-0.015625,1.197266,-7.751465,63.232422,-0.732422,,,,,,,,,,,0.0,1.0,1.0,6.0,0.0,0.0,0.0,6.0,0.0,-0.16647462666666668,-0.18682942666666666,1.0132031466666667,5.046386719999999,4.422200506666666,-7.306315133333334,3.220114444414509,13.200637506213829,-4.850241343200782,7.653697158275574,20.95951796354047,-50.458862425712994,55.17225091249769,-2.3003339716628193,54.86977396597289,-2.2752715273973854,0.16671862666666667,0.17120442666666666,0.18406285333333328,0.5219859066666666,0.30163751451881704,0.6095729108518408,0.6322988661870572,0.6329290786975265
LBP05_S06,LBP05,-1554,97,6,96,-1554,1715801064.84,2024-05-15 19:24:24.840000+00:00,2024-05-16 04:24:24.840000+09:00,2024,5,15,19,24,24,840,,,,,,,,,-0.529785,0.078613,0.163574,0.671387,123.291016,-9.094238,,,,,,,,,,,0.0,1.0,1.0,6.0,0.0,0.0,0.0,6.0,0.0,-0.15694012,-0.18335937333333333,0.9943066533333332,4.832356773333332,3.967285146666666,-7.0117187733333335,0.9965397321422806,14.739348516345457,-3.534166107815671,7.693558747561266,21.549091904194288,-50.60022907002562,55.53320979411017,-2.28089726307007,55.23166000973113,-2.2775356560279607,-0.37284487999999993,0.26197237333333334,-0.8307326533333332,1.4655499066666664,0.9475017521072738,0.6336724572337736,0.6412924230180362,0.6381719565876889
LBP05_S06,LBP05,-1553,98,6,97,-1553,1715801064.88,2024-05-15 19:24:24.880000+00:00,2024-05-16 04:24:24.880000+09:00,2024,5,15,19,24,24,880,,,,,,,,,-0.132812,-0.25708,0.33667,-52.124023,-62.805176,-4.211426,,,,,,,,,,,0.0,1.0,1.0,6.0,0.0,0.0,0.0,6.0,0.0,-0.14923504,-0.1835123733333333,0.98355796,5.714518239999999,4.47184244,-6.1580403866666655,-0.34246114021371554,14.75357075301011,-2.649744322428858,7.679860301952717,22.13923473431469,-50.70621884292277,55.859167539670445,-2.256349705550469,55.57310510480945,-2.282398321410115,0.01642304,-0.07356762666666666,-0.6468879599999999,0.7368786266666666,0.6512648806201431,0.6272923838696193,0.6324246387852284,0.6383865946865815
LBP05_S06,LBP05,-1552,99,6,98,-1552,1715801064.92,2024-05-15 19:24:24.920000+00:00,2024-05-16 04:24:24.920000+09:00,2024,5,15,19,24,24,920,,,,,,,,,0.336914,-0.181396,0.798828,-11.413574,-47.973633,0.305176,,,,,,,,,,,0.0,1.0,1.0,6.0,0.0,0.0,0.0,6.0,0.0,-0.14958334666666667,-0.17825521333333333,0.9872591200000002,5.964355479999999,3.465169266666666,-5.6152344,-0.9595898888567622,13.393602836245543,-2.3131678916839147,7.641476706398446,22.674978847764514,-50.79874555859013,56.15210933106056,-2.271270333433296,55.89203790713218,-2.2863772061063328,0.48649734666666666,-0.003140786666666673,-0.18843112000000017,0.6780692533333335,0.52172389234062,0.6211877911699639,0.6298931045455026,0.6365049381971306
LBP05_S06,LBP05,-1551,100,6,99,-1551,1715801064.96,2024-05-15 19:24:24.960000+00:00,2024-05-16 04:24:24.960000+09:00,2024,5,15,19,24,24,960,,,,,,,,,0.077148,-0.298584,1.248779,57.861328,72.021484,9.094238,,,,,,,,,,,0.0,1.0,1.0,6.0,0.0,0.0,0.0,6.0,0.0,-0.1532064,-0.18323242666666664,1.0079720133333334,6.927897146666666,2.6017252666666657,-5.52083336,-1.1470974826798095,11.008037894120687,-2.540797977276545,7.595592807091254,23.115300363529343,-50.90037747768119,56.41682876906278,-2.2695643278215183,56.18851786215306,-2.2883578060945324,0.2303544,-0.11535157333333337,0.24080698666666667,0.5865129600000001,0.35264307720032667,0.627285753773857,0.6275247069909571,0.6319991943717845
LBP05_S06,LBP05,-1550,101,6,100,-1550,1715801065.0,2024-05-15 19:24:25+00:00,2024-05-16 04:24:25+09:00,2024,5,15,19,24,25,0,19.0,24.0,25.0,40.861549,141.740585,4.344,3.0,12.0,-0.746826,-0.18042,1.653564,22.888184,18.615723,-5.187988,-578.0,52.0,548.0,6.0,0.0,1020.099976,16.08,0.070359,-56.841873,3.839062,0.0,1.0,1.0,6.0,0.0,0.0,0.0,4.0,0.0,-0.15655601333333335,-0.18445313333333332,1.0231087333333333,7.923990906666666,2.969563813333333,-5.498860706666667,-1.153965705688897,8.035305072306718,-3.2364562921364186,7.549434178863699,23.436712566421612,-51.029835729366646,56.65966454990892,-2.2767503936654836,56.46444087764907,-2.283010690618629,-0.5902699866666666,0.0040331333333333275,0.6304552666666667,1.2247583866666667,0.8636600989924735,0.6195937458017032,0.634340954924459,0.6356188960064828
LBP05_S06,LBP05,-1549,102,6,101,-1549,1715801065.04,2024-05-15 19:24:25.040000+00:00,2024-05-16 04:24:25.040000+09:00,2024,5,15,19,24,25,40,,,,,,,,,-0.454346,-0.429688,1.74585,11.962891,-73.547363,-10.864258,,,,,,,,,,,0.0,1.0,1.0,6.0,0.0,0.0,0.0,4.0,0.0,-0.16441733333333333,-0.17994793333333334,1.0206184933333333,7.939453146666667,3.7475586133333323,-5.729980506666666,-1.041141022831549,4.926938762240534,-4.204822426861132,7.507788537950437,23.633790116911232,-51.19802862644109,56.88726623115821,-2.3123688803885307,56.723061326363016,-2.2795433834622356,-0.2899286666666667,-0.24974006666666668,0.7252315066666666,1.26490024,0.8199935798015651,0.6256676107193774,0.6333886014528753,0.6384554296033301
LBP05_S06,LBP05,-1548,103,6,102,-1548,1715801065.08,2024-05-15 19:24:25.080000+00:00,2024-05-16 04:24:25.080000+09:00,2024,5,15,19,24,25,80,,,,,,,,,-0.115967,-0.051758,1.228516,2.380371,35.949707,-0.366211,,,,,,,,,,,0.0,1.0,1.0,6.0,0.0,0.0,0.0,4.0,0.0,-0.16240886666666665,-0.17811850666666665,1.0007812533333333,6.157226586666666,3.0297851866666656,-5.6380208666666665,-0.6563438387585678,2.112807708785523,-5.191548438660893,7.481534784400094,23.718302425262653,-51.40569056398753,57.10583380905006,-2.311386217556349,56.9683874498863,-2.2788306811893024,0.04644186666666665,0.12636050666666665,0.2277347466666666,0.4005371199999999,0.2645504478617868,0.6128532264317155,0.6283551400325267,0.6327902026072462
LBP05_S06,LBP05,-1547,104,6,103,-1547,1715801065.12,2024-05-15 19:24:25.120000+00:00,2024-05-16 04:24:25.120000+09:00,2024,5,15,19,24,25,120,,,,,,,,,-0.411621,-0.11084,0.2854,-25.695801,100.524902,-12.817383,,,,,,,,,,,0.0,1.0,1.0,6.0,0.0,0.0,0.0,4.0,0.0,-0.15448894666666668,-0.17586265333333334,0.9802278666666666,6.005045599999999,2.7880859733333327,-4.965006546666666,0.25161660120725465,-0.012672598756783449,-5.939124695636741,7.491599448448384,23.717795521312382,-51.643255551813,57.320883896505315,-2.2933563981786382,57.204490108767196,-2.2814382534203923,-0.25713205333333333,0.06502265333333335,-0.6948278666666666,1.0169825733333333,0.7437275056056983,0.6302875902156085,0.6385108684395235,0.6344459832490141
LBP05_S06,LBP05,-1546,105,6,104,-1546,1715801065.16,2024-05-15 19:24:25.160000+00:00,2024-05-16 04:24:25.160000+09:00,2024,5,15,19,24,25,160,,,,,,,,,-0.104248,-0.143799,0.279541,-70.068359,-57.250977,-1.220703,,,,,,,,,,,0.0,1.0,1.0,6.0,0.0,0.0,0.0,4.0,0.0,-0.14444664000000002,-0.17703453333333333,0.9694401066666668,5.642903666666666,3.343098999999999,-4.313151079999999,1.8500127477817216,-1.1188976422086383,-6.242197360813613,7.565599958359653,23.673039615624038,-51.892943446245546,57.53719394346648,-2.2578294148591183,57.43478332176092,-2.284376690429035,0.04019864000000002,0.03323553333333332,-0.6898991066666669,0.7633332800000002,0.6918679850327415,0.6299890738467055,0.6336310228508757,0.635290424451716
LBP05_S06,LBP05,-1545,106,6,105,-1545,1715801065.2,2024-05-15 19:24:25.200000+00:00,2024-05-16 04:24:25.200000+09:00,2024,5,15,19,24,25,200,,,,,,,,,0.338867,-0.108887,0.669678,-22.399902,-64.63623,-12.268066,,,,,,,,,,,0.0,1.0,1.0,6.0,0.0,0.0,0.0,4.0,0.0,-0.14475262666666666,-0.17450523999999998,0.9750846400000001,6.112467466666666,2.803548226666666,-4.70621748,4.091239003296554,-1.0093123507728077,-5.988280961808658,7.729249518491515,23.632667121593126,-52.13247468471789,57.75845539963722,-2.265660900098881,57.66137794872592,-2.289379738880129,0.48361962666666664,0.06561823999999998,-0.30540664000000006,0.8546445066666667,0.5757316323374922,0.6189048132960824,0.6320030180854392,0.6344272535515099
LBP05_S06,LBP05,-1544,107,6,106,-1544,1715801065.24,2024-05-15 19:24:25.240000+00:00,2024-05-16 04:24:25.240000+09:00,2024,5,15,19,24,25,240,,,,,,,,,0.191406,-0.519775,1.18335,67.199707,46.875,-5.187988,,,,,,,,,,,0.0,1.0,1.0,6.0,0.0,0.0,0.0,4.0,0.0,-0.15133790666666666,-0.17940758666666665,0.99690756,5.811360693333333,2.2542318266666657,-5.152994813333333,6.7249697850925045,0.2824675153343938,-5.175266609500932,7.9982483098952155,23.643965822206503,-52.33948534909793,57.98647102934311,-2.273770240340743,57.88464017061075,-2.291660562841707,0.34274390666666665,-0.3403674133333333,0.18644243999999988,0.8695537599999998,0.517768428015369,0.627308192549442,0.6291346619154906,0.6327606989009935
LBP05_S06,LBP05,-1543,108,6,107,-1543,1715801065.28,2024-05-15 19:24:25.280000+00:00,2024-05-16 04:24:25.280000+09:00,2024,5,15,19,24,25,280,,,,,,,,,-0.645508,-0.040039,1.581543,84.838867,17.150879,-6.958008,,,,,,,,,,,0.0,1.0,1.0,6.0,0.0,0.0,0.0,4.0,0.0,-0.15569012,-0.18127606666666668,1.0142773466666666,5.824381533333333,2.1614583866666663,-5.126953146666667,9.445699073854357,2.4309090855618143,-3.9027829442132806,8.37607627284939,23.741202185628975,-52.49559666686646,58.220194128479385,-2.282425427861362,58.10308435527416,-2.288815979710483,-0.48981788,0.1412370666666667,0.5672656533333333,1.1983206,0.7626662350071572,0.6219014871798988,0.6301037323140699,0.6345903543391086
LBP05_S06,LBP05,-1542,109,6,108,-1542,1715801065.32,2024-05-15 19:24:25.320000+00:00,2024-05-16 04:24:25.320000+09:00,2024,5,15,19,24,25,320,,,,,,,,,-0.440186,-0.423096,1.768799,19.287109,-85.266113,0.610352,,,,,,,,,,,0.0,1.0,1.0,6.0,0.0,0.0,0.0,4.0,0.0,-0.16177410666666667,-0.18139650666666665,1.0152376266666667,5.3230794533333325,3.1486003199999995,-4.72900392,12.064912273510174,4.8476756726813015,-2.340648894674585,8.858672763789798,23.935109212536226,-52.589222622653445,58.455041460997634,-2.3006547035197236,58.31368303395069,-2.284709797941518,-0.2784118933333334,-0.24169949333333338,0.7535613733333333,1.2736727600000002,0.8389198834257421,0.6281950625006677,0.6288151364969009,0.6374282644653118
LBP05_S06,LBP05,-1541,110,6,109,-1541,1715801065.36,2024-05-15 19:24:25.360000+00:00,2024-05-16 04:24:25.360000+09:00,2024,5,15,19,24,25,360,,,,,,,,,-0.048828,-0.138428,1.362061,-32.226562,22.033691,5.737305,,,,,,,,,,,0.0,1.0,1.0,6.0,0.0,0.0,0.0,4.0,0.0,-0.16491212,-0.17783205333333335,0.9973339733333334,5.232747426666665,2.8263346933333326,-4.7412109466666665,14.577074015243612,6.815127636462522,-0.6847449400323607,9.441755724399542,24.207714317994725,-52.61661242025474,58.68277503871288,-2.3195948123324595,58.51257924152945,-2.282753145340043,0.11608411999999999,0.039404053333333355,0.36472702666666657,0.5202151999999999,0.3847778661986392,0.6204598086002601,0.6224821146582333,0.6339673001054943
LBP05_S06,LBP05,-1540,111,6,110,-1540,1715801065.4,2024-05-15 19:24:25.400000+00:00,2024-05-16 04:24:25.400000+09:00,2024,5,15,19,24,25,400,,,,,,,,,-0.350342,-0.093262,0.324951,-0.183105,134.643555,8.178711,,,,,,,,,,,0.0,1.0,1.0,6.0,0.0,0.0,0.0,4.0,0.0,-0.15582682666666667,-0.17512371999999998,0.9799511600000002,4.947916706666667,2.6049805333333325,-4.54182944,17.074817563525183,7.6907971454735575,0.8838562773667175,10.124748426940549,24.515346203813667,-52.58125816916007,58.89228676875724,-2.29955863328126,58.69607172911056,-2.284479893940275,-0.19451517333333332,0.08186171999999999,-0.6550001600000002,0.9313770533333334,0.6881589231117191,0.6349700632768195,0.6336645285477259,0.6346996193353082
LBP05_S06,LBP05,-1539,112,6,111,-1539,1715801065.44,2024-05-15 19:24:25.440000+00:00,2024-05-16 04:24:25.440000+09:00,2024,5,15,19,24,25,440,,,,,,,,,-0.169678,-0.237793,0.237793,-26.672363,-27.099609,-0.427246,,,,,,,,,,,0.0,1.0,1.0,6.0,0.0,0.0,0.0,4.0,0.0,-0.14810546666666669,-0.17190432,0.96682616,3.9078776533333324,2.8784180399999997,-4.8209635466666665,19.586402147739022,7.109205847179597,2.221483856567668,10.90820451285011,24.79971443770085,-52.49239881489736,59.07170807779228,-2.2839230490762956,58.861654855984646,-2.2878595972565674,-0.02157253333333331,-0.06588868,-0.72903316,0.8164943733333333,0.7323223612086044,0.6325870246896438,0.6296394221811653,0.6360012558936188
LBP05_S06,LBP05,-1538,113,6,112,-1538,1715801065.48,2024-05-15 19:24:25.480000+00:00,2024-05-16 04:24:25.480000+09:00,2024,5,15,19,24,25,480,,,,,,,,,0.31543,-0.015625,0.672852,60.72998,-68.603516,1.831055,,,,,,,,,,,0.0,1.0,1.0,6.0,0.0,0.0,0.0,4.0,0.0,-0.14771484000000001,-0.17638674666666668,0.9698372266666666,4.567057333333333,3.0981445999999995,-5.29622396,21.959528395069587,5.094463175362763,3.2212041447984974,11.786585648652894,25.00349296471536,-52.36355064910542,59.211820595815404,-2.270324399866702,59.00884154419009,-2.2951510290985953,0.46314484,0.16076174666666668,-0.2969852266666666,0.9208918133333333,0.5731908119188535,0.6267901094631992,0.6294179961411384,0.6329984902757974
LBP05_S06,LBP05,-1537,114,6,113,-1537,1715801065.52,2024-05-15 19:24:25.520000+00:00,2024-05-16 04:24:25.520000+09:00,2024,5,15,19,24,25,520,,,,,,,,,0.224609,-0.256348,1.113281,-15.258789,35.339355,-19.836426,,,,,,,,,,,0.0,1.0,1.0,6.0,0.0,0.0,0.0,4.0,0.0,-0.15010741333333333,-0.17793622666666667,0.9920605333333333,5.11230472,1.884765693333333,-5.2848307199999995,23.872271711481957,2.041192815022204,3.799449011849789,12.741476517112172,25.085140677316247,-52.21157268863143,59.30984597229292,-2.2737898721638876,59.139491215684856,-2.2973701190828657,0.37471641333333333,-0.07841177333333335,0.12122046666666664,0.5743486533333333,0.4015659325161436,0.6361454368110094,0.6251396766675462,0.6312551856414103
LBP05_S06,LBP05,-1536,115,6,114,-1536,1715801065.56,2024-05-15 19:24:25.560000+00:00,2024-05-16 04:24:25.560000+09:00,2024,5,15,19,24,25,560,,,,,,,,,-0.532227,-0.660645,1.546143,79.772949,56.640625,8.117676,,,,,,,,,,,0.0,1.0,1.0,6.0,0.0,0.0,0.0,4.0,0.0,-0.15451496,-0.18267581333333333,1.0118554533333335,5.184733106666666,1.7008464133333328,-4.980468733333333,24.96262507297979,-1.4083044034228995,3.8909957143318645,13.739981520031364,25.02880850117933,-52.05593286005816,59.37211881927739,-2.2750969008614303,59.25744429332593,-2.295986168294982,-0.37771204,-0.4779691866666667,0.5342875466666666,1.3899687733333332,0.8102987789000067,0.627297008862454,0.6294661969458873,0.6358027785333691
LBP05_S06,LBP05,-1535,116,6,115,-1535,1715801065.6,2024-05-15 19:24:25.600000+00:00,2024-05-16 04:24:25.600000+09:00,2024,5,15,19,24,25,600,,,,,,,,,-0.598145,-0.35791,1.755859,67.932129,-84.228516,18.859863,,,,,,,,,,,0.0,1.0,1.0,6.0,0.0,0.0,0.0,4.0,0.0,-0.16081705333333332,-0.18076176000000002,1.0182584533333332,4.829915386666666,3.2568359866666663,-4.388834613333334,24.995898914473525,-4.532058170604517,3.4683147014010625,14.739817476610305,24.84752617435515,-51.91720027200211,59.414286668378224,-2.2994579332618095,59.36744552129212,-2.292822626902582,-0.43732794666666674,-0.17714823999999998,0.7376005466666669,1.3520767333333334,0.8756093868351037,0.6316443559508095,0.6282677560172927,0.635016569125905
LBP05_S06,LBP05,-1534,117,6,116,-1534,1715801065.64,2024-05-15 19:24:25.640000+00:00,2024-05-16 04:24:25.640000+09:00,2024,5,15,19,24,25,640,,,,,,,,,-0.114502,0.032471,1.418945,17.150879,-31.433105,2.13623,,,,,,,,,,,0.0,1.0,1.0,6.0,0.0,0.0,0.0,4.0,0.0,-0.16915365333333335,-0.17249678666666668,1.0044726533333332,3.7434895999999998,3.7272135999999993,-4.030761693333334,23.969451432150983,-6.6954886391969515,2.5810992919692577,15.698595533896345,24.57970662878727,-51.81395630032334,59.45833791139756,-2.3466845587610226,59.473568847406966,-2.291084174140419,0.05465165333333334,0.20496778666666668,0.41447234666666666,0.6740917866666667,0.4656027522840394,0.6273072633659272,0.621135546982281,0.6330080702762689
LBP05_S06,LBP05,-1533,118,6,117,-1533,1715801065.68,2024-05-15 19:24:25.680000+00:00,2024-05-16 04:24:25.680000+09:00,2024,5,15,19,24,25,680,,,,,,,,,-0.222168,-0.099121,0.421143,-7.873535,97.77832,6.408691,,,,,,,,,,,0.0,1.0,1.0,6.0,0.0,0.0,0.0,4.0,0.0,-0.16066732,-0.17870121333333336,0.9888769466666666,1.520996106666666,2.5447591733333326,-3.468424453333333,22.094621293886192,-7.486446321227714,1.3915321250474155,16.582380385651792,24.280248775938162,-51.758295015321444,59.526690843427076,-2.3046163277040654,59.5775398346287,-2.293088751018854,-0.06150068,0.07958021333333336,-0.5677339466666667,0.7088148400000001,0.5765736537445592,0.6357466084656541,0.6304839025507902,0.6344663656369518
LBP05_S06,LBP05,-1532,119,6,118,-1532,1715801065.72,2024-05-15 19:24:25.720000+00:00,2024-05-16 04:24:25.720000+09:00,2024,5,15,19,24,25,720,,,,,,,,,-0.166016,-0.208984,0.182129,-35.522461,-34.362793,3.051758,,,,,,,,,,,0.0,1.0,1.0,6.0,0.0,0.0,0.0,4.0,0.0,-0.1516862,-0.17501957333333332,0.9777962266666667,3.0753580799999995,3.408203173333333,-3.3032226266666664,19.676236030316385,-6.798930932816991,0.17729099256181965,17.369429826864447,24.008291538625482,-51.75120337561897,59.6345722374084,-2.2868151956408873,59.67740572259718,-2.2989605406780664,-0.014329800000000004,-0.033964426666666686,-0.7956672266666667,0.8439614533333334,0.7965207222905504,0.6374866641260696,0.627517882471136,0.6371319066044476
LBP05_S06,LBP05,-1531,120,6,119,-1531,1715801065.76,2024-05-15 19:24:25.760000+00:00,2024-05-16 04:24:25.760000+09:00,2024,5,15,19,24,25,760,,,,,,,,,0.279785,-0.220703,0.483643,22.399902,-90.332031,0.0,,,,,,,,,,,0.0,1.0,1.0,6.0,0.0,0.0,0.0,4.0,0.0,-0.15162434666666666,-0.17452804,0.9800260533333333,3.347981773333333,3.5034180133333326,-3.3715819999999996,16.977799839459237,-4.860605441908323,-0.7110127520439504,18.048541820442818,23.81386732094915,-51.77964388570073,59.782787318374744,-2.287959398408459,59.76691814259034,-2.3061924709246036,0.43140934666666664,-0.046174960000000015,-0.49638305333333327,0.9739673599999998,0.6592740605839763,0.6327020864983761,0.6268701638119079,0.6350579821638305
LBP05_S06,LBP05,-1530,121,6,120,-1530,1715801065.8,2024-05-15 19:24:25.800000+00:00,2024-05-16 04:24:25.800000+09:00,2024,5,15,19,24,25,800,,,,,,,,,0.404541,-0.175537,0.893799,31.494141,11.84082,-10.864258,,,,,,,,,,,0.0,1.0,1.0,6.0,0.0,0.0,0.0,4.0,0.0,-0.15563150666666667,-0.18132166666666666,1.0013509200000001,3.6954752666666657,1.6438802533333325,-3.427734346666667,14.160926702452972,-2.197772380583744,-0.9301945228694373,18.614978888540936,23.7259564257258,-51.816851666615506,59.953520029905654,-2.2821741056596316,59.83582656300856,-2.309040976664302,0.5601725066666666,0.00578466666666666,-0.10755192000000013,0.6735090933333334,0.5704332696199859,0.6434539167024228,0.6265134137771319,0.6360172163588458
LBP05_S06,LBP05,-1529,122,6,121,-1529,1715801065.84,2024-05-15 19:24:25.840000+00:00,2024-05-16 04:24:25.840000+09:00,2024,5,15,19,24,25,840,,,,,,,,,-0.363525,-0.290527,1.50293,69.519043,71.594238,-4.943848,,,,,,,,,,,0.0,1.0,1.0,6.0,0.0,0.0,0.0,4.0,0.0,-0.15898436,-0.17702478666666666,1.0188737066666667,5.349121093333332,1.0725911866666662,-3.734537733333333,11.319203502071119,0.47788983699030646,-0.23856580490720058,19.06774702862378,23.745072019205413,-51.82639429881179,60.11141795000975,-2.3039688178606395,59.87109240872387,-2.3076199228126,-0.20454064,-0.11350221333333332,0.48405629333333344,0.8020991466666667,0.5376152164501868,0.6270584552761393,0.6303654562549564,0.6365477671040707
LBP05_S06,LBP05,-1528,123,6,122,-1528,1715801065.88,2024-05-15 19:24:25.880000+00:00,2024-05-16 04:24:25.880000+09:00,2024,5,15,19,24,25,880,,,,,,,,,-0.62793,-0.113281,1.680908,-9.033203,-39.978027,0.610352,,,,,,,,,,,0.0,1.0,1.0,6.0,0.0,0.0,0.0,4.0,0.0,-0.16508461333333335,-0.17456384,1.0214843733333334,3.1030273466666656,2.5976562799999994,-3.4090169066666665,8.549272220231705,2.4543659638186877,1.4264265708023793,19.40971791743305,23.84324665775816,-51.7693372359797,60.21047947550004,-2.329042296458831,59.85884549540723,-2.3003294076366445,-0.46284538666666664,0.06128283999999999,0.6594236266666667,1.1835518533333333,0.8079733645630288,0.6333267946338548,0.630309589251737,0.6327253574014371
LBP05_S06,LBP05,-1527,124,6,123,-1527,1715801065.92,2024-05-15 19:24:25.920000+00:00,2024-05-16 04:24:25.920000+09:00,2024,5,15,19,24,25,920,,,,,,,,,-0.23291,-0.450928,1.685303,7.385254,-29.418945,9.765625,,,,,,,,,,,0.0,1.0,1.0,6.0,0.0,0.0,0.0,4.0,0.0,-0.17022133333333334,-0.17379234666666665,1.0060579333333335,1.5104166666666659,1.9531250266666658,-3.4936523199999994,5.981119701933472,3.223352599670756,3.910979057966199,19.64896270551039,23.97218076174499,-51.61289807366105,60.20497017222448,-2.34610917462926,59.786743227779425,-2.2975088287036742,-0.06268866666666667,-0.27713565333333334,0.6792450666666665,1.0190693866666665,0.7362797701064061,0.6419090297444862,0.6315484104572251,0.6338984129451638
LBP05_S06,LBP05,-1526,125,6,124,-1526,1715801065.96,2024-05-15 19:24:25.960000+00:00,2024-05-16 04:24:25.960000+09:00,2024,5,15,19,24,25,960,,,,,,,,,-0.195068,-0.196289,0.790527,-12.878418,111.206055,12.573242,,,,,,,,,,,0.0,1.0,1.0,6.0,0.0,0.0,0.0,4.0,0.0,-0.15956377333333333,-0.17784833333333333,0.9884407466666666,2.3689778666666657,0.9741211199999994,-3.38216144,3.7365236114372427,2.6294676494553153,6.857588019847465,19.79842364996788,24.077359467723202,-51.33859455286715,60.06120302345973,-2.303581958258414,59.64632560088057,-2.296129621229446,-0.035504226666666666,-0.01844066666666666,-0.1979137466666666,0.2518586399999999,0.20191696168956844,0.6358799851240559,0.6315828694489565,0.6303097997019901
LBP05_S06,LBP05,-1525,126,6,125,-1525,1715801066.0,2024-05-15 19:24:26+00:00,2024-05-16 04:24:26+09:00,2024,5,15,19,24,26,0,19.0,24.0,26.0,40.861477,141.740585,4.314,3.0,12.0,-0.243896,0.196533,0.056396,-38.146973,15.319824,-16.540527,-579.0,44.0,549.0,5.0,0.0,1019.799988,16.139999,0.067386,-54.35902,3.839062,0.0,1.0,1.0,6.0,0.0,0.0,0.0,4.0,0.0,-0.14805336,-0.17135745333333333,0.9757942533333333,3.0362955733333328,1.9514974266666658,-3.6368814933333327,1.8527237710057747,0.906801105455053,9.763821343893518,19.87253260080811,24.113631511941403,-50.94804169911141,59.766945125531294,-2.285247394744792,59.43499952299717,-2.296213595640467,-0.09584264,0.36789045333333337,-0.9193982533333332,1.3831313466666666,0.9948981583701716,0.6411295074991638,0.6303616266504335,0.6366038057826939
LBP05_S06,LBP05,-1524,127,6,126,-1524,1715801066.04,2024-05-15 19:24:26.040000+00:00,2024-05-16 04:24:26.040000+09:00,2024,5,15,19,24,26,40,,,,,,,,,0.126221,-0.343506,0.441162,-33.325195,-107.055664,13.61084,,,,,,,,,,,0.0,1.0,1.0,6.0,0.0,0.0,0.0,4.0,0.0,-0.14791012,-0.17533205333333335,0.97960936,3.3610026133333326,2.261556026666666,-3.7915038933333327,0.24166322297523868,-1.4188273400232794,12.07756402865572,19.88219912972712,24.05687841834047,-50.464939137965175,59.33586877823115,-2.273779407001464,59.15734764891969,-2.300326746263507,0.27413112,-0.16817394666666663,-0.5384473599999999,0.9807524266666665,0.6271809202940303,0.6334170011188625,0.6295423059191199,0.6333980680082044
LBP05_S06,LBP05,-1523,128,6,127,-1523,1715801066.08,2024-05-15 19:24:26.080000+00:00,2024-05-16 04:24:26.080000+09:00,2024,5,15,19,24,26,80,,,,,,,,,0.411133,-0.26709,0.893555,91.003418,-17.089844,26.489258,,,,,,,,,,,0.0,1.0,1.0,6.0,0.0,0.0,0.0,4.0,0.0,-0.14977209333333333,-0.17655276,0.99999672,3.866373706666666,0.9578450799999995,-3.9046223733333334,-1.2701530627938897,-3.7272104649018054,13.314613097104646,19.831393007215365,23.9077899997444,-49.932354614080985,58.805668167149015,-2.2764105383743627,58.82548718874982,-2.29987771443952,0.5609050933333334,-0.09053723999999999,-0.10644171999999996,0.7578840533333333,0.5780496131913345,0.6459569677320444,0.62940509708188,0.6342224159323658
LBP05_S06,LBP05,-1522,129,6,128,-1522,1715801066.12,2024-05-15 19:24:26.120000+00:00,2024-05-16 04:24:26.120000+09:00,2024,5,15,19,24,26,120,,,,,,,,,-0.227051,0.183838,1.382568,16.601562,56.518555,44.677734,,,,,,,,,,,0.0,1.0,1.0,6.0,0.0,0.0,0.0,4.0,0.0,-0.15202469333333332,-0.18047529333333334,1.0190624666666666,3.5449218799999995,0.8610026266666663,-3.783365866666667,-2.8425418985463384,-5.509875096260114,13.172490920013527,19.71769133127351,23.687394995893992,-49.40545497728044,58.230395968419856,-2.273023120898611,58.4582692463823,-2.2945710746330263,-0.07502630666666668,0.36431329333333334,0.36350553333333346,0.8028451333333335,0.5200859497769299,0.6370113054988936,0.6336494478572511,0.6380110141259803
LBP05_S06,LBP05,-1521,130,6,129,-1521,1715801066.16,2024-05-15 19:24:26.160000+00:00,2024-05-16 04:24:26.160000+09:00,2024,5,15,19,24,26,160,,,,,,,,,-0.601562,-0.371582,1.688477,-33.081055,-43.395996,5.004883,,,,,,,,,,,0.0,1.0,1.0,6.0,0.0,0.0,0.0,4.0,0.0,-0.15692051999999998,-0.18029625333333332,1.02369788,3.083496106666666,2.950846386666666,-3.588867173333334,-4.540206412639103,-6.492720094645836,11.601723033995082,19.536083074767944,23.42768619210816,-48.94138605592064,57.66952653954073,-2.2887991425186653,58.07927984309947,-2.287604562544535,-0.44464148000000003,-0.1912857466666667,0.66477912,1.3007063466666666,0.8223305667445354,0.6422298087673655,0.6361094413070354,0.6364972848230388
LBP05_S06,LBP05,-1520,131,6,130,-1520,1715801066.2,2024-05-15 19:24:26.200000+00:00,2024-05-16 04:24:26.200000+09:00,2024,5,15,19,24,26,200,,,,,,,,,-0.159668,-0.316895,1.588867,-3.295898,-47.729492,-8.117676,,,,,,,,,,,0.0,1.0,1.0,6.0,0.0,0.0,0.0,4.0,0.0,-0.16561518666666666,-0.17722008,1.0087043999999998,1.723632826666666,3.5782877999999996,-3.42610676,-6.337888197887338,-6.643322509310097,8.803203471717227,19.28256754685245,23.161953291735756,-48.58925791705195,57.17700128913086,-2.32330561189003,57.71386180841493,-2.2845932343635704,0.0059471866666666595,-0.13967491999999998,0.5801626000000002,0.7257847066666668,0.5967688788341888,0.6430712986272331,0.6309880559616577,0.6356924449327039
LBP05_S06,LBP05,-1519,132,6,131,-1519,1715801066.24,2024-05-15 19:24:26.240000+00:00,2024-05-16 04:24:26.240000+09:00,2024,5,15,19,24,26,240,,,,,,,,,-0.148682,-0.010742,0.761475,-12.817383,94.970703,6.530762,,,,,,,,,,,0.0,1.0,1.0,6.0,0.0,0.0,0.0,4.0,0.0,-0.15873366666666666,-0.17842776000000002,0.9918066133333334,1.1816406399999995,2.364095093333333,-2.9874674266666665,-8.212314062283447,-6.095258461371747,5.153677308518529,18.954074984361114,22.918142953280885,-48.38311082471121,56.79281334831097,-2.299478499620771,57.38565794667642,-2.284803536995863,0.010051666666666653,0.16768576000000002,-0.2303316133333334,0.4080690400000001,0.28508279886778787,0.63376387346133,0.6305360330053861,0.6306777324307704
LBP05_S06,LBP05,-1518,133,6,132,-1518,1715801066.28,2024-05-15 19:24:26.280000+00:00,2024-05-16 04:24:26.280000+09:00,2024,5,15,19,24,26,280,,,,,,,,,-0.226562,0.168457,0.077148,-54.6875,9.70459,-16.540527,,,,,,,,,,,0.0,1.0,1.0,6.0,0.0,0.0,0.0,4.0,0.0,-0.14963210666666665,-0.1765788,0.9793879866666667,1.9807942933333327,3.065592493333333,-2.39827472,-10.252063441411954,-5.050758061878601,1.0978515067662267,18.543992446704635,22.716112630805743,-48.33919676444056,56.53830005182497,-2.2759758983938956,57.11339388519855,-2.287993416278467,-0.07692989333333336,0.3450358,-0.9022399866666667,1.32420568,0.9690226546939885,0.6420181302488033,0.631959808714351,0.6340751982923143
LBP05_S06,LBP05,-1517,134,6,133,-1517,1715801066.32,2024-05-15 19:24:26.320000+00:00,2024-05-16 04:24:26.320000+09:00,2024,5,15,19,24,26,320,,,,,,,,,0.111084,-0.160889,0.374023,-41.870117,-86.486816,-12.268066,,,,,,,,,,,0.0,1.0,1.0,6.0,0.0,0.0,0.0,4.0,0.0,-0.14991205333333332,-0.17673830666666668,0.9797916266666667,2.642415386666666,3.114420613333333,-2.0678710666666666,-12.69716293057742,-3.71829519082534,-2.943061699230573,18.03610592948154,22.56738082317273,-48.45691923240978,56.415076139396184,-2.276444053744343,56.90864303137393,-2.294786429497889,0.2609960533333333,0.015849306666666674,-0.6057686266666668,0.8826139866666667,0.6597922168614978,0.6348530235862334,0.6315240430434507,0.6308277655266785
LBP05_S06,LBP05,-1516,135,6,134,-1516,1715801066.36,2024-05-15 19:24:26.360000+00:00,2024-05-16 04:24:26.360000+09:00,2024,5,15,19,24,26,360,,,,,,,,,0.396973,-0.391602,0.891602,17.822266,-16.906738,13.183594,,,,,,,,,,,0.0,1.0,1.0,6.0,0.0,0.0,0.0,4.0,0.0,-0.15267898666666668,-0.18112306666666667,0.998929,2.9109700666666662,1.6617838933333327,-1.920572893333333,-15.854930636359024,-2.3043588891580074,-6.616138772755357,17.40190870402718,22.47520646760641,-48.72156478332,56.40702267661431,-2.2734686764487675,56.77505403262656,-2.299214992194659,0.5496519866666667,-0.21047893333333334,-0.10732699999999995,0.86745792,0.5982790091192832,0.6433930693030593,0.6319264389516597,0.6294524328731754
LBP05_S06,LBP05,-1515,136,6,135,-1515,1715801066.4,2024-05-15 19:24:26.400000+00:00,2024-05-16 04:24:26.400000+09:00,2024,5,15,19,24,26,400,,,,,,,,,-0.081543,0.191162,1.346191,28.137207,65.979004,11.84082,,,,,,,,,,,0.0,1.0,1.0,6.0,0.0,0.0,0.0,4.0,0.0,-0.15773108,-0.1817903866666667,1.0175292533333333,3.6360677200000002,1.0498047333333327,-1.9938150799999999,-19.90830764244631,-1.0279910957692777,-9.639391901313978,16.605576398329326,22.434086823775637,-49.10714045937256,56.48490650814606,-2.2873504210677185,56.70906863898542,-2.2992906456554225,0.07618807999999999,0.3729523866666667,0.3286617466666666,0.7778022133333333,0.5029081923934361,0.6359830400743278,0.6354765516755737,0.6344373657232598
LBP05_S06,LBP05,-1514,137,6,136,-1514,1715801066.44,2024-05-15 19:24:26.440000+00:00,2024-05-16 04:24:26.440000+09:00,2024,5,15,19,24,26,440,,,,,,,,,-0.61792,-0.354492,1.658203,-51.208496,-29.052734,-15.930176,,,,,,,,,,,0.0,1.0,1.0,6.0,0.0,0.0,0.0,4.0,0.0,-0.16244136,-0.18025393333333334,1.0215266533333334,4.038899746666666,1.8416341599999995,-1.997884093333333,-24.705156538390572,-0.11209127623110555,-11.79422283952605,15.617370136793703,22.42960317272639,-49.5789093729536,56.613228163452575,-2.305678199827507,56.70177311482722,-2.294366075492392,-0.45547864000000005,-0.17423806666666664,0.6366763466666667,1.2663930533333334,0.8019828338417232,0.6387694589796526,0.6356782418346483,0.6326827677806611
LBP05_S06,LBP05,-1513,138,6,137,-1513,1715801066.48,2024-05-15 19:24:26.480000+00:00,2024-05-16 04:24:26.480000+09:00,2024,5,15,19,24,26,480,,,,,,,,,-0.168457,-0.336914,1.602783,18.981934,-50.109863,-12.207031,,,,,,,,,,,0.0,1.0,1.0,6.0,0.0,0.0,0.0,4.0,0.0,-0.1701073733333333,-0.17430991999999998,1.00569332,3.1062825599999995,2.079264373333333,-2.2705077866666667,-29.64714802328897,0.26189925893934346,-12.940884413857017,14.431484215862143,22.440079143083967,-50.096544749507885,56.75815962890266,-2.34434067056858,56.74139916912477,-2.2919774334880043,0.001650373333333316,-0.16260408,0.5970896800000001,0.7613441333333334,0.6188367284892585,0.6405952956424689,0.6336927025528339,0.6331437626415819
LBP05_S06,LBP05,-1512,139,6,138,-1512,1715801066.52,2024-05-15 19:24:26.520000+00:00,2024-05-16 04:24:26.520000+09:00,2024,5,15,19,24,26,520,,,,,,,,,-0.15332,0.021484,0.885742,9.94873,81.115723,-33.081055,,,,,,,,,,,0.0,1.0,1.0,6.0,0.0,0.0,0.0,4.0,0.0,-0.16120438666666667,-0.17464846666666667,0.9870084266666667,1.5665690133333328,0.9521484799999994,-2.231445293333333,-33.762350900877586,0.014257588612357751,-13.063010625902553,13.08099017982704,22.440649446628463,-50.619065174543984,56.894505980946256,-2.3173087478663144,56.81606854055932,-2.2926266286338666,0.00788438666666666,0.19613246666666667,-0.10126642666666663,0.30528327999999993,0.22087326049953626,0.6333675887618045,0.634756512786407,0.627882314032299
LBP05_S06,LBP05,-1511,140,6,139,-1511,1715801066.56,2024-05-15 19:24:26.560000+00:00,2024-05-16 04:24:26.560000+09:00,2024,5,15,19,24,26,560,,,,,,,,,-0.215332,0.176758,0.059082,-108.093262,25.634766,-31.188965,,,,,,,,,,,0.0,1.0,1.0,6.0,0.0,0.0,0.0,4.0,0.0,-0.15071284,-0.17290692,0.9713248266666666,1.2499999999999993,0.8968099333333328,-2.129720026666667,-35.96580106110279,-0.790474783625437,-12.312873393773282,11.642358137382928,22.409030455283446,-51.111580110294916,57.009672603129395,-2.2895556771262995,56.916444342314925,-2.2949705141993553,-0.06461916000000001,0.34966492,-0.9122428266666667,1.3265269066666667,0.9790955862031562,0.6401194610539305,0.6337082349581923,0.6330172849819018
LBP05_S06,LBP05,-1510,141,6,140,-1510,1715801066.6,2024-05-15 19:24:26.600000+00:00,2024-05-16 04:24:26.600000+09:00,2024,5,15,19,24,26,600,,,,,,,,,-0.060059,-0.176514,0.279785,-90.637207,-75.073242,-6.958008,,,,,,,,,,,0.0,1.0,1.0,6.0,0.0,0.0,0.0,4.0,0.0,-0.14588210666666665,-0.17282228,0.9688703999999999,2.3950195333333326,0.9700521199999995,-1.97672524,-35.42137591889278,-1.9464348788759116,-11.015629695316763,10.225503100627217,22.33117306012841,-51.55220529810759,57.1040460475488,-2.274059910259727,57.037877259167225,-2.3007768213893423,0.08582310666666665,-0.0036917200000000094,-0.6890854,0.7786002266666666,0.6944191262685933,0.63287185063127,0.6322581032910398,0.6298024542219518
LBP05_S06,LBP05,-1509,142,6,141,-1509,1715801066.64,2024-05-15 19:24:26.640000+00:00,2024-05-16 04:24:26.640000+09:00,2024,5,15,19,24,26,640,,,,,,,,,0.544189,-0.702637,0.912354,-77.148438,-30.578613,20.080566,,,,,,,,,,,0.0,1.0,1.0,6.0,0.0,0.0,0.0,4.0,0.0,-0.1473795066666667,-0.17402670666666667,0.98597652,2.8540039066666663,0.2921549866666661,-1.82047524,-31.85320388871991,-3.1599978783000116,-9.610033411762265,8.95137494507842,22.20477314499641,-51.93660663457808,57.18907389128653,-2.2755920795768874,57.18151343826639,-2.30304904259451,0.6915685066666667,-0.5286102933333333,-0.07362252000000002,1.29380132,0.8735651762074005,0.6491903475882046,0.6382488054770659,0.6304871471842556
LBP05_S06,LBP05,-1508,143,6,142,-1508,1715801066.68,2024-05-15 19:24:26.680000+00:00,2024-05-16 04:24:26.680000+09:00,2024,5,15,19,24,26,680,,,,,,,,,-0.128906,0.062256,1.359863,52.062988,70.983887,-7.446289,,,,,,,,,,,0.0,1.0,1.0,6.0,0.0,0.0,0.0,4.0,0.0,-0.15285477333333333,-0.17794597333333334,1.0048437066666667,3.744303386666666,0.12451175999999957,-1.9189452933333333,-25.662598606357374,-4.124037261272941,-8.5406560368284,7.924871000824125,22.039811654545492,-52.27823287605121,57.28499376617042,-2.282467849852523,57.35389813012438,-2.301021379513004,0.02394877333333334,0.24020197333333335,0.3550192933333334,0.6191700400000001,0.4293125089911755,0.6432999017980692,0.6395232551318617,0.6347559022998832
LBP05_S06,LBP05,-1507,144,6,143,-1507,1715801066.72,2024-05-15 19:24:26.720000+00:00,2024-05-16 04:24:26.720000+09:00,2024,5,15,19,24,26,720,,,,,,,,,-0.696777,-0.378174,1.700928,-21.362305,-19.53125,-26.306152,,,,,,,,,,,0.0,1.0,1.0,6.0,0.0,0.0,0.0,4.0,0.0,-0.15850256000000001,-0.17799154666666667,1.0140038533333333,4.508463533333334,0.9456380533333326,-1.7610676933333331,-17.80369359717694,-4.572777606404081,-8.142804984072871,7.212723256937047,21.85690055028933,-52.60394507541413,57.41883415695224,-2.2998829093992303,57.56499137604336,-2.2936214385266993,-0.5382744399999999,-0.20018245333333334,0.6869241466666667,1.42538104,0.8953642670185101,0.6472536435871876,0.6423701538566285,0.6340964695098199
LBP05_S06,LBP05,-1506,145,6,144,-1506,1715801066.76,2024-05-15 19:24:26.760000+00:00,2024-05-16 04:24:26.760000+09:00,2024,5,15,19,24,26,760,,,,,,,,,-0.2229,-0.13623,1.679199,36.254883,-79.406738,-17.39502,,,,,,,,,,,0.0,1.0,1.0,6.0,0.0,0.0,0.0,4.0,0.0,-0.16555333333333336,-0.17417318666666667,1.0043196,3.2373046799999994,1.9433594133333327,-1.555989573333333,-9.496756435624853,-4.304090570352335,-8.557411501874551,6.832852999512053,21.684736927475235,-52.946241535489115,57.62135184513724,-2.3315317483486333,57.82508276153665,-2.2901988986005892,-0.05734666666666663,0.037943186666666684,0.6748794,0.7701692533333333,0.6783734444511809,0.6480176189418758,0.640359852720126,0.6339193155218971
LBP05_S06,LBP05,-1505,146,6,145,-1505,1715801066.8,2024-05-15 19:24:26.800000+00:00,2024-05-16 04:24:26.800000+09:00,2024,5,15,19,24,26,800,,,,,,,,,-0.033203,-0.221191,0.998779,-16.967773,71.777344,18.676758,,,,,,,,,,,0.0,1.0,1.0,6.0,0.0,0.0,0.0,4.0,0.0,-0.15915033333333334,-0.17501628000000002,0.9851464266666669,1.3118489599999996,1.1271159199999992,-1.6536458266666665,-1.9201126432201046,-3.1828046384849777,-9.6918552216851,6.756048493783249,21.557424741935836,-53.33391574435652,57.921268299137736,-2.3100726331193977,58.141540904865565,-2.2902816883138155,0.12594733333333333,-0.046174719999999975,0.01363257333333312,0.18575462666666642,0.1348357615640038,0.6305937186196364,0.6370238176610297,0.6278735153913001
LBP05_S06,LBP05,-1504,147,6,146,-1504,1715801066.84,2024-05-15 19:24:26.840000+00:00,2024-05-16 04:24:26.840000+09:00,2024,5,15,19,24,26,840,,,,,,,,,-0.4104,0.101807,0.030273,-16.479492,49.682617,-8.666992,,,,,,,,,,,0.0,1.0,1.0,6.0,0.0,0.0,0.0,4.0,0.0,-0.14872389333333336,-0.17209309333333334,0.9693228533333333,1.2361653733333327,1.2613932666666656,-1.8098958266666667,4.011741554707897,-1.1446993650602255,-11.230476484087765,6.9165181559715645,21.511636767333428,-53.783134803720024,58.337075082032484,-2.285401569012452,58.51636721699229,-2.293505133206528,-0.26167610666666663,0.2739000933333333,-0.9390498533333334,1.4746260533333333,1.0125760578710068,0.6495921522764694,0.6383253037763044,0.6367743549287941
LBP05_S06,LBP05,-1503,148,6,147,-1503,1715801066.88,2024-05-15 19:24:26.880000+00:00,2024-05-16 04:24:26.880000+09:00,2024,5,15,19,24,26,880,,,,,,,,,0.039307,-0.252197,0.329834,-11.413574,-72.021484,-5.737305,,,,,,,,,,,0.0,1.0,1.0,6.0,0.0,0.0,0.0,4.0,0.0,-0.14467766666666668,-0.17272785333333335,0.96511712,2.6383463599999994,1.6243489999999992,-1.9514973866666665,7.757078464227432,1.7802518415649793,-12.699251785543593,7.226801294540662,21.582846840996027,-54.29110487514177,58.86909208809245,-2.2703412607055267,58.945096584495865,-2.299217466749435,0.18398466666666669,-0.07946914666666666,-0.63528312,0.8987369333333333,0.6661458889742599,0.6439190532529185,0.6386229239433867,0.6348460772521308
LBP05_S06,LBP05,-1502,149,6,148,-1502,1715801066.92,2024-05-15 19:24:26.920000+00:00,2024-05-16 04:24:26.920000+09:00,2024,5,15,19,24,26,920,,,,,,,,,0.383545,0.034668,0.716064,7.324219,-33.325195,-33.26416,,,,,,,,,,,0.0,1.0,1.0,6.0,0.0,0.0,0.0,4.0,0.0,-0.14814120000000003,-0.17222654666666667,0.9817219333333332,2.9614257866666662,0.6949870133333326,-2.1630859333333334,9.176429587992708,5.420188341990643,-13.582820509601985,7.593858478060371,21.79965437467565,-54.83441769552585,59.495419835879154,-2.283083348605214,59.4170043887039,-2.304423791458693,0.5316862,0.20689454666666668,-0.2656579333333332,1.0042386799999998,0.6293406917193447,0.6396414901174361,0.6407752599309612,0.6342461036772954
LBP05_S06,LBP05,-1501,150,6,149,-1501,1715801066.96,2024-05-15 19:24:26.960000+00:00,2024-05-16 04:24:26.960000+09:00,2024,5,15,19,24,26,960,,,,,,,,,0.04126,-0.432129,1.267578,39.550781,79.040527,-23.986816,,,,,,,,,,,0.0,1.0,1.0,6.0,0.0,0.0,0.0,4.0,0.0,-0.15401033333333333,-0.17637368,1.0020051333333333,3.2918294266666663,0.04720054666666594,-2.2477213466666663,8.522124771558627,9.416797250482011,-13.46955085850239,7.934743468922716,22.176326264694932,-55.373199729865945,60.17425403641857,-2.2903835742585623,59.916269753982135,-2.305234116303833,0.19527033333333332,-0.25575532,0.2655728666666668,0.7165985200000001,0.41721725071953186,0.6482535016786346,0.6420667434013453,0.6371397468588492
LBP05_S06,LBP05,-1500,151,6,150,-1500,1715801067.0,2024-05-15 19:24:27+00:00,2024-05-16 04:24:27+09:00,2024,5,15,19,24,27,0,19.0,24.0,27.0,40.861408,141.740585,4.56,3.0,12.0,-0.722656,-0.070068,1.705566,30.212402,9.033203,-16.174316,-577.0,55.0,549.0,5.0,0.0,1019.599976,16.219999,0.065405,-52.703289,3.839062,0.0,1.0,1.0,6.0,0.0,0.0,0.0,7.0,0.0,-0.16019524000000002,-0.17752928,1.0128547333333333,2.7840169333333327,0.6290690399999992,-2.2607421866666666,6.393377436001011,13.22927159401466,-12.179045432664205,8.190478566362756,22.70549712845552,-55.860361547172516,60.85230916881609,-2.3062943591868548,60.42383895983846,-2.3002798494873486,-0.56246076,0.10746128,0.6927112666666666,1.3626333066666665,0.8987540999661441,0.6444077393424734,0.6427686234208188,0.6350436642144468
LBP05_S06,LBP05,-1499,152,6,151,-1499,1715801067.04,2024-05-15 19:24:27.040000+00:00,2024-05-16 04:24:27.040000+09:00,2024,5,15,19,24,27,40,,,,,,,,,-0.35791,-0.546631,1.819336,6.530762,-75.256348,-0.061035,,,,,,,,,,,0.0,1.0,1.0,6.0,0.0,0.0,0.0,7.0,0.0,-0.16727530666666668,-0.17555988,1.0059439333333333,2.5358072933333324,2.093098999999999,-2.057291666666666,3.6323863803347667,16.209861697112302,-9.82804482813354,8.335774021576148,23.353891596340013,-56.253483340297855,61.4763675663222,-2.3327154150059575,60.91993947762137,-2.299018341212803,-0.19063469333333333,-0.37107112,0.8133920666666667,1.37509788,0.9141345724326477,0.6558858854280183,0.6446514432734404,0.6383234990887527
LBP05_S06,LBP05,-1498,153,6,152,-1498,1715801067.08,2024-05-15 19:24:27.080000+00:00,2024-05-16 04:24:27.080000+09:00,2024,5,15,19,24,27,80,,,,,,,,,-0.12793,-0.049561,1.180664,-22.460938,72.814941,-1.281738,,,,,,,,,,,0.0,1.0,1.0,6.0,0.0,0.0,0.0,7.0,0.0,-0.16133129333333335,-0.16868161333333334,0.9863606,0.3710937599999994,0.993652386666666,-2.21842448,1.1473602564556666,17.74023349230648,-6.815526307548769,8.381668431834374,24.063500936032273,-56.526104392599805,62.004071808250835,-2.3345310969451014,61.38715769428061,-2.3020426679546224,0.03340129333333336,0.11912061333333335,0.1943033999999999,0.3468253066666666,0.2303457795767243,0.6419777320834338,0.6439673499077391,0.6335959754157312
LBP05_S06,LBP05,-1497,154,6,153,-1497,1715801067.12,2024-05-15 19:24:27.120000+00:00,2024-05-16 04:24:27.120000+09:00,2024,5,15,19,24,27,120,,,,,,,,,-0.525391,0.29541,0.075684,-27.34375,98.754883,-24.597168,,,,,,,,,,,0.0,1.0,1.0,6.0,0.0,0.0,0.0,7.0,0.0,-0.1503775066666667,-0.16604814666666667,0.9707844266666668,-0.27343749333333395,1.062825573333333,-2.508138013333333,-0.303435620601748,17.396032114623413,-3.73652975929365,8.369531007010304,24.75934222061721,-56.67556558297155,62.41148780973463,-2.3079861578506287,61.81365550899155,-2.307710740871084,-0.37501349333333334,0.4614581466666667,-0.8951004266666668,1.7315720666666667,1.0746085404117882,0.664158635708828,0.6505849706038609,0.6438191771411101
LBP05_S06,LBP05,-1496,155,6,154,-1496,1715801067.16,2024-05-15 19:24:27.160000+00:00,2024-05-16 04:24:27.160000+09:00,2024,5,15,19,24,27,160,,,,,,,,,0.073975,-0.529541,0.432129,-68.237305,-58.288574,9.58252,,,,,,,,,,,0.0,1.0,1.0,6.0,0.0,0.0,0.0,7.0,0.0,-0.14492502666666668,-0.16886390666666665,0.9663801333333333,0.5192057333333326,1.9181315599999993,-2.5716145733333335,-0.28725231616404623,15.087750581962586,-1.2496477960359624,8.358040914363741,25.362852243895713,-56.72555149481299,62.697043903700475,-2.2819890801837923,62.19570242187275,-2.3148511902337803,0.2189000266666667,-0.3606770933333334,-0.5342511333333333,1.1138282533333335,0.6807565356263579,0.6584956744641011,0.6503627416157332,0.6435715190260574
LBP05_S06,LBP05,-1495,156,6,155,-1495,1715801067.2,2024-05-15 19:24:27.200000+00:00,2024-05-16 04:24:27.200000+09:00,2024,5,15,19,24,27,200,,,,,,,,,0.362305,-0.210449,0.981934,82.092285,7.995605,6.713867,,,,,,,,,,,0.0,1.0,1.0,6.0,0.0,0.0,0.0,7.0,0.0,-0.14970366666666668,-0.16893226666666666,0.9819986133333333,0.6852213599999994,1.319173226666666,-2.7400716,1.2440896205327687,11.120340598562292,0.0737492837547176,8.407804499185051,25.807665867838203,-56.7226015234628,62.882273476966795,-2.2974575503739447,62.538563761819,-2.3213037512422554,0.5120086666666667,-0.04151673333333333,-6.461333333329655e-05,0.5535900133333334,0.5136891258955476,0.6551724843465554,0.6491218914868944,0.639049532089957
LBP05_S06,LBP05,-1494,157,6,156,-1494,1715801067.24,2024-05-15 19:24:27.240000+00:00,2024-05-16 04:24:27.240000+09:00,2024,5,15,19,24,27,240,,,,,,,,,-0.144775,-0.060303,1.473145,41.503906,62.194824,7.93457,,,,,,,,,,,0.0,1.0,1.0,6.0,0.0,0.0,0.0,7.0,0.0,-0.15773752,-0.17145180000000002,1.00381176,1.2027994799999993,0.6486003066666665,-2.972819,4.025298217766553,6.145477932219542,-0.11112431758174102,8.568816427895714,26.053484985126985,-56.72704649616607,63.009257248624984,-2.315644836430641,62.855126172965825,-2.3231243711512666,0.012962520000000005,0.11114880000000002,0.4693332399999999,0.5934445599999999,0.4824891427121318,0.6630687381003293,0.6484163057808295,0.6413802680370337
LBP05_S06,LBP05,-1493,158,6,157,-1493,1715801067.28,2024-05-15 19:24:27.280000+00:00,2024-05-16 04:24:27.280000+09:00,2024,5,15,19,24,27,280,,,,,,,,,-0.808105,-0.456299,1.800781,-10.559082,-23.803711,-6.103516,,,,,,,,,,,0.0,1.0,1.0,6.0,0.0,0.0,0.0,7.0,0.0,-0.16366525333333334,-0.17378253333333332,1.0179165733333333,0.9220377599999993,1.2792969199999997,-2.9264322799999998,7.613693720407093,1.0272598812728442,-1.8254591549165358,8.873364176711997,26.0945753803779,-56.80006486236273,63.1340702352018,-2.3270219898701443,63.16241203876167,-2.3209124023254097,-0.6444397466666666,-0.2825164666666667,0.7828644266666667,1.70982064,1.0526133438075653,0.6664123656648723,0.6542152479568376,0.6434439943645248
LBP05_S06,LBP05,-1492,159,6,158,-1492,1715801067.32,2024-05-15 19:24:27.320000+00:00,2024-05-16 04:24:27.320000+09:00,2024,5,15,19,24,27,320,,,,,,,,,-0.318359,-0.145996,1.687988,42.663574,-96.679688,-15.686035,,,,,,,,,,,0.0,1.0,1.0,6.0,0.0,0.0,0.0,7.0,0.0,-0.1721288,-0.17273436,1.01459952,0.2563476533333326,2.801106813333333,-2.6269531066666665,11.498252516168572,-3.332799269692701,-4.736120864777945,9.333294277358739,25.96126340959019,-56.989509696953846,63.31588896469116,-2.354487842232174,63.476980946985556,-2.3199857324158026,-0.1462302,0.026738360000000017,0.6733884800000001,0.8463570400000001,0.6896015199259933,0.6676047377874521,0.6512288806868427,0.643550941291451
LBP05_S06,LBP05,-1491,160,6,159,-1491,1715801067.36,2024-05-15 19:24:27.360000+00:00,2024-05-16 04:24:27.360000+09:00,2024,5,15,19,24,27,360,,,,,,,,,-0.063232,-0.087158,1.025146,-42.236328,90.759277,13.305664,,,,,,,,,,,0.0,1.0,1.0,6.0,0.0,0.0,0.0,7.0,0.0,-0.16962229333333334,-0.17007160000000002,0.9960318133333333,-0.9684244800000007,1.5755208799999998,-2.5333658666666667,15.140449233143752,-6.163852051747184,-8.199907480210447,9.93891224668449,25.714709327520303,-57.31750599616226,63.602867435880995,-2.354909184343319,63.810647559328984,-2.321377830838137,0.10639029333333334,0.08291360000000002,0.02911418666666654,0.2184180799999999,0.1379898381975072,0.6491931709505809,0.64629312012682,0.6376820162846334
LBP05_S06,LBP05,-1490,161,6,160,-1490,1715801067.4,2024-05-15 19:24:27.400000+00:00,2024-05-16 04:24:27.400000+09:00,2024,5,15,19,24,27,400,,,,,,,,,-0.449707,0.081055,0.099365,-73.059082,26.977539,-5.065918,,,,,,,,,,,0.0,1.0,1.0,6.0,0.0,0.0,0.0,7.0,0.0,-0.15779937333333335,-0.16842771999999998,0.9812922266666665,-0.566406253333334,0.9887695733333332,-2.4430338399999996,17.987202623537435,-6.954274514382821,-11.378105122306858,10.658400351625987,25.43653834694499,-57.77263020105453,64.01793328028438,-2.3245005582769624,64.16768477895492,-2.327486167664037,-0.2919076266666667,0.24948272,-0.8819272266666665,1.4233175733333332,0.9618977717100305,0.6675527541232448,0.6517678970987864,0.6461686191581307
LBP05_S06,LBP05,-1489,162,6,161,-1489,1715801067.44,2024-05-15 19:24:27.440000+00:00,2024-05-16 04:24:27.440000+09:00,2024,5,15,19,24,27,440,,,,,,,,,0.114014,-0.49707,0.312744,75.317383,-75.561523,-7.69043,,,,,,,,,,,0.0,1.0,1.0,6.0,0.0,0.0,0.0,7.0,0.0,-0.15067046666666667,-0.16547524,0.9742381866666666,-0.5061849066666675,1.9710286799999994,-2.4064127466666667,19.53373984012027,-5.536509134508444,-13.408192118544859,11.439749945230798,25.21507798156465,-58.308957885796325,64.54922622428067,-2.310595726747391,64.54392783550443,-2.335242695036098,0.2646844666666667,-0.33159476,-0.6614941866666666,1.2577734133333331,0.7858673620579176,0.6669081352518925,0.6528387971157725,0.646088206307063
LBP05_S06,LBP05,-1488,163,6,162,-1488,1715801067.48,2024-05-15 19:24:27.480000+00:00,2024-05-16 04:24:27.480000+09:00,2024,5,15,19,24,27,480,,,,,,,,,0.312256,0.307617,0.696533,118.408203,-25.939941,-43.701172,,,,,,,,,,,0.0,1.0,1.0,6.0,0.0,0.0,0.0,7.0,0.0,-0.15596994666666666,-0.16620441333333336,0.9848501733333332,-0.11962892000000078,1.3053385733333331,-2.3974609200000003,19.46839102974128,-2.1364733532899223,-13.606700728239007,12.21848558642045,25.129619047433053,-58.853225914925886,65.14976089048967,-2.325264397849028,64.92748234967311,-2.339660368131297,0.4682259466666666,0.47382141333333333,-0.2883171733333333,1.2303645333333333,0.7258574662452795,0.6711889647621334,0.6558921302023011,0.6461914566226005
LBP05_S06,LBP05,-1487,164,6,163,-1487,1715801067.52,2024-05-15 19:24:27.520000+00:00,2024-05-16 04:24:27.520000+09:00,2024,5,15,19,24,27,520,,,,,,,,,-0.026611,-0.405029,1.374756,1.403809,65.551758,-20.629883,,,,,,,,,,,0.0,1.0,1.0,6.0,0.0,0.0,0.0,7.0,0.0,-0.16318349333333332,-0.17511391999999998,1.0076561733333333,0.37272134666666595,-0.14811194666666685,-2.1541341066666666,17.833851905649887,2.6253250405312594,-11.656332411093521,12.931839662646444,25.234632049054305,-59.319479211369625,65.74815393316887,-2.321907142073976,65.30047605349054,-2.3406538189692765,0.13657249333333332,-0.22991508,0.36709982666666674,0.7335874,0.45417537657317636,0.6805210494050791,0.6569443190834418,0.6500113583259642
LBP05_S06,LBP05,-1486,165,6,164,-1486,1715801067.56,2024-05-15 19:24:27.560000+00:00,2024-05-16 04:24:27.560000+09:00,2024,5,15,19,24,27,560,,,,,,,,,-0.61499,0.003906,1.587646,22.094727,-22.155762,-16.601562,,,,,,,,,,,0.0,1.0,1.0,6.0,0.0,0.0,0.0,7.0,0.0,-0.16606761333333334,-0.17060545333333332,1.0223990133333332,1.297200506666666,0.5639648799999998,-2.4153645733333335,15.08181091693457,7.811430388371791,-7.717007587573302,13.535112099323827,25.547089264589175,-59.62815951487256,66.26741609995999,-2.3430724484427903,65.64145509134512,-2.3371944486495924,-0.44892238666666673,0.17451145333333332,0.5652469866666667,1.1886808266666669,0.7426235335153037,0.6710621672975648,0.6555908141757477,0.6461595457379832
LBP05_S06,LBP05,-1485,166,6,165,-1485,1715801067.6,2024-05-15 19:24:27.600000+00:00,2024-05-16 04:24:27.600000+09:00,2024,5,15,19,24,27,600,,,,,,,,,-0.204834,-0.481934,1.662109,-15.075684,-73.669434,4.211426,,,,,,,,,,,0.0,1.0,1.0,6.0,0.0,0.0,0.0,7.0,0.0,-0.17534496,-0.16868162666666667,1.0173697066666667,-0.6217448000000007,2.5512695733333333,-2.7612304666666665,11.945821424964969,12.336245593301772,-2.4144506964433985,14.012944956322427,26.040539088321246,-59.724737542730296,66.64470404246181,-2.375022824094555,65.92827538912705,-2.335067619535748,-0.029489039999999994,-0.31325237333333333,0.6447392933333334,0.9874807066666667,0.7174157854738449,0.671982033665775,0.6524269421485225,0.6454994134159515
LBP05_S06,LBP05,-1484,167,6,166,-1484,1715801067.64,2024-05-15 19:24:27.640000+00:00,2024-05-16 04:24:27.640000+09:00,2024,5,15,19,24,27,640,,,,,,,,,-0.060791,-0.036621,1.023193,-5.92041,101.379395,7.8125,,,,,,,,,,,0.0,1.0,1.0,6.0,0.0,0.0,0.0,7.0,0.0,-0.1752733466666667,-0.17396808,1.0011620266666668,-2.2631836000000005,1.4973958666666667,-3.5416666533333334,9.172843057589933,15.203040542556883,3.2996254770862383,14.379858678626023,26.64866071002352,-59.592752523646844,66.84480239031173,-2.3598215673826255,66.14138339367479,-2.3365518136020125,0.11448234666666669,0.13734708,0.02203097333333326,0.27386039999999995,0.18015491075418202,0.6442456230476462,0.6467179853179253,0.6402477446672593
LBP05_S06,LBP05,-1483,168,6,167,-1483,1715801067.68,2024-05-15 19:24:27.680000+00:00,2024-05-16 04:24:27.680000+09:00,2024,5,15,19,24,27,680,,,,,,,,,-0.529541,0.127197,0.117432,-29.602051,112.854004,5.981445,,,,,,,,,,,0.0,1.0,1.0,6.0,0.0,0.0,0.0,7.0,0.0,-0.16424796,-0.17088214666666665,0.9859732133333333,-1.924641933333334,0.7731120133333331,-3.7548828000000003,7.241612657685975,15.751820485719831,8.377104988485488,14.669523184933462,27.278733529452314,-59.25766832410743,66.8640072733761,-2.3369564982499433,66.26716756328184,-2.3395969453412038,-0.36529304000000007,0.2980791466666667,-0.8685412133333333,1.5319134,0.9882580745981835,0.6666034456719265,0.6549516737349979,0.6485499853118832
LBP05_S06,LBP05,-1482,169,6,168,-1482,1715801067.72,2024-05-15 19:24:27.720000+00:00,2024-05-16 04:24:27.720000+09:00,2024,5,15,19,24,27,720,,,,,,,,,-0.092529,-0.375,0.365234,-33.630371,-71.655273,24.047852,,,,,,,,,,,0.0,1.0,1.0,6.0,0.0,0.0,0.0,7.0,0.0,-0.15789378666666667,-0.17013994666666668,0.9800389733333332,-1.4664713600000008,2.1370443066666662,-3.5359700399999996,6.2040504771445235,13.832784840895744,11.927284183711686,14.917685204019243,27.832044923088144,-58.78057695675896,66.72567934323692,-2.3198941390353336,66.30073958865475,-2.345339377029114,0.06536478666666667,-0.20486005333333332,-0.6148049733333332,0.8850298133333332,0.6513258416669152,0.6568419086578627,0.6520477761225252,0.6471940721237066
LBP05_S06,LBP05,-1481,170,6,169,-1481,1715801067.76,2024-05-15 19:24:27.760000+00:00,2024-05-16 04:24:27.760000+09:00,2024,5,15,19,24,27,760,,,,,,,,,0.338623,-0.22583,0.837158,54.931641,-30.151367,31.37207,,,,,,,,,,,0.0,1.0,1.0,6.0,0.0,0.0,0.0,7.0,0.0,-0.16486318666666666,-0.17269854666666667,0.9908039466666666,-0.8553059866666674,1.9352213866666663,-3.7052408800000003,5.724375606538868,9.83188834595,13.425233017543155,15.146660228280798,28.225320456926145,-58.243567636057236,66.4710704137005,-2.3336408932048753,66.24733888891812,-2.3503297588149463,0.5034861866666667,-0.05313145333333333,-0.15364594666666664,0.7102635866666667,0.5290825724067557,0.6508702737760858,0.6494439463589807,0.6438633264054459
LBP05_S06,LBP05,-1480,171,6,170,-1480,1715801067.8,2024-05-15 19:24:27.800000+00:00,2024-05-16 04:24:27.800000+09:00,2024,5,15,19,24,27,800,,,,,,,,,-0.020752,-0.027588,1.227539,41.870117,66.894531,24.047852,,,,,,,,,,,0.0,1.0,1.0,6.0,0.0,0.0,0.0,7.0,0.0,-0.17211905333333333,-0.17819985333333335,1.0124250399999999,-0.19612629333333398,0.6331380533333332,-3.617350253333333,5.293254904571643,4.543824663598644,12.818169506189218,15.358390424463664,28.40707344347009,-57.73084085580967,66.14901332576159,-2.339342498939607,66.12180200039377,-2.3509514369415063,0.15136705333333333,0.15061185333333335,0.21511396000000005,0.5170928666666668,0.3031005295049801,0.6576008644937248,0.6440972915566806,0.6438828332719281
LBP05_S06,LBP05,-1479,172,6,171,-1479,1715801067.84,2024-05-15 19:24:27.840000+00:00,2024-05-16 04:24:27.840000+09:00,2024,5,15,19,24,27,840,,,,,,,,,-0.737305,-0.250244,1.598877,20.812988,14.343262,1.953125,,,,,,,,,,,0.0,1.0,1.0,6.0,0.0,0.0,0.0,7.0,0.0,-0.17479809333333335,-0.18033851999999997,1.0275878,0.24414062666666606,1.3110351866666667,-3.57828776,4.505818771390257,-1.0433959355440996,10.500758804256465,15.538623175319275,28.365337606048325,-57.31081050363941,65.80706792035133,-2.3410470441393016,65.9461747353387,-2.346869962137297,-0.5625069066666666,-0.06990548000000005,0.5712892,1.2037015866666667,0.8047808063183245,0.6492890544316176,0.6494406033540434,0.6419798873280753
LBP05_S06,LBP05,-1478,173,6,172,-1478,1715801067.88,2024-05-15 19:24:27.880000+00:00,2024-05-16 04:24:27.880000+09:00,2024,5,15,19,24,27,880,,,,,,,,,-0.511719,-0.307129,1.731689,2.258301,-108.703613,-9.70459,,,,,,,,,,,0.0,1.0,1.0,6.0,0.0,0.0,0.0,7.0,0.0,-0.18378246666666667,-0.17401038666666668,1.02180004,-0.7096354266666672,3.1762695599999997,-3.9388020800000003,3.2626444923030227,-5.975342820407588,7.170269883080241,15.669128955011395,28.126323893232023,-57.0239997083162,65.48548114421865,-2.3826887147281335,65.74619190179564,-2.3458077664159487,-0.3279365333333334,-0.1331186133333333,0.70988896,1.1709441066666666,0.7932246028965287,0.6543722029885083,0.6491456281207134,0.6438726836250939
LBP05_S06,LBP05,-1477,174,6,173,-1477,1715801067.92,2024-05-15 19:24:27.920000+00:00,2024-05-16 04:24:27.920000+09:00,2024,5,15,19,24,27,920,,,,,,,,,-0.016357,-0.066162,1.098633,18.798828,11.413574,0.0,,,,,,,,,,,0.0,1.0,1.0,6.0,0.0,0.0,0.0,7.0,0.0,-0.18534822666666664,-0.17946285333333337,1.004427,-2.6074218800000004,1.8383789333333331,-4.183756506666666,1.8009375896844062,-9.51417861597914,3.613349500798909,15.741166458598771,27.745756748592857,-56.87946572828424,65.21414693580267,-2.3718109599322954,65.5476199833249,-2.3464501912656615,0.16899122666666663,0.11330085333333337,0.09420600000000001,0.37649808,0.22420947458206628,0.6381669543030171,0.6389042222102266,0.6399058247216465
LBP05_S06,LBP05,-1476,175,6,174,-1476,1715801067.96,2024-05-15 19:24:27.960000+00:00,2024-05-16 04:24:27.960000+09:00,2024,5,15,19,24,27,960,,,,,,,,,-0.497803,0.147217,0.061279,-12.084961,89.84375,-11.352539,,,,,,,,,,,0.0,1.0,1.0,6.0,0.0,0.0,0.0,7.0,0.0,-0.17402986666666667,-0.17652665333333334,0.9887792133333333,-1.7797851600000005,1.2679036666666665,-4.222819,0.5556743002663468,-11.244180708550607,0.4974006540105077,15.763393430609424,27.29598952025083,-56.85956970212382,65.01204721471629,-2.3492892297083916,65.37328622445457,-2.3486590946075703,-0.32377313333333335,0.3237436533333333,-0.9275002133333333,1.575017,1.034357598065329,0.662852568196849,0.6555530349377418,0.6489953516665131
LBP05_S06,LBP05,-1475,176,6,175,-1475,1715801068.0,2024-05-15 19:24:28+00:00,2024-05-16 04:24:28+09:00,2024,5,15,19,24,28,0,19.0,24.0,28.0,40.86134,141.740585,4.556,3.0,12.0,-0.079102,-0.205811,0.252197,-92.590332,-65.917969,-2.258301,-579.0,52.0,550.0,6.0,0.0,1020.0,16.280001,0.069368,-56.014488,3.839062,0.0,1.0,1.0,6.0,0.0,0.0,0.0,5.0,0.0,-0.16702792,-0.17477209333333335,0.9809634666666667,-1.2963867333333339,2.4129232,-4.2211914,-0.06570728872915998,-11.09544690513447,-1.7701524477069581,15.760765139060258,26.852171644045452,-56.9303758000321,64.88843139191127,-2.3342080760524646,65.24121129621557,-2.3545947233685016,0.08792591999999999,-0.031038906666666644,-0.7287664666666667,0.8477312933333333,0.734707386700805,0.6562906996662354,0.6503492195043544,0.6472759821692909
LBP05_S06,LBP05,-1474,177,6,176,-1474,1715801068.04,2024-05-15 19:24:28.040000+00:00,2024-05-16 04:24:28.040000+09:00,2024,5,15,19,24,28,40,,,,,,,,,0.33252,-0.299072,0.56958,-11.779785,-77.697754,-3.234863,,,,,,,,,,,0.0,1.0,1.0,6.0,0.0,0.0,0.0,5.0,0.0,-0.17191398666666666,-0.17441076,0.9891828666666667,-1.9327799600000006,2.218424493333333,-3.97460936,0.12755470015739534,-9.30966802890126,-3.084067765320885,15.765867327066553,26.4797849228894,-57.05373851064494,64.84497405488104,-2.3491996101691393,65.16385892712864,-2.3593401992157363,0.5044339866666666,-0.12466124,-0.4196028666666667,1.0486980933333334,0.6678777113945703,0.6464404252247123,0.6511631553263654,0.6452477705905311
LBP05_S06,LBP05,-1473,178,6,177,-1473,1715801068.08,2024-05-15 19:24:28.080000+00:00,2024-05-16 04:24:28.080000+09:00,2024,5,15,19,24,28,80,,,,,,,,,0.246338,-0.04541,1.044434,88.256836,41.442871,11.108398,,,,,,,,,,,0.0,1.0,1.0,6.0,0.0,0.0,0.0,5.0,0.0,-0.1787629466666667,-0.18355464,1.0118619066666665,-1.0139974000000007,0.959472666666666,-3.8989257600000005,1.0532385746547428,-6.367536231708273,-3.591959087413189,15.807996870052744,26.22508347362107,-57.19741687414147,64.87828808866887,-2.3433807467470733,65.14824467407054,-2.361648649855882,0.4251009466666667,0.13814463999999999,0.03257209333333355,0.5958176800000002,0.44816927346901103,0.6551533649804039,0.6485655485319188,0.6476960215986273
LBP05_S06,LBP05,-1472,179,6,178,-1472,1715801068.12,2024-05-15 19:24:28.120000+00:00,2024-05-16 04:24:28.120000+09:00,2024,5,15,19,24,28,120,,,,,,,,,-0.523926,-0.201172,1.568359,8.728027,49.682617,-1.098633,,,,,,,,,,,0.0,1.0,1.0,6.0,0.0,0.0,0.0,5.0,0.0,-0.18046866666666667,-0.18583978666666667,1.0285481066666666,0.2213541599999994,1.4510091199999995,-3.7556965866666663,2.442347841921936,-2.8783330464665284,-3.588262043041083,15.905690783729622,26.10995015176241,-57.34094735586311,64.98234175453362,-2.341983172454425,65.19654537952455,-2.35774177893212,-0.34345733333333334,-0.015332213333333317,0.5398108933333334,0.8986004400000001,0.6399951696282362,0.6377688301490617,0.6509637329289449,0.6463129237855945
LBP05_S06,LBP05,-1471,180,6,179,-1471,1715801068.16,2024-05-15 19:24:28.160000+00:00,2024-05-16 04:24:28.160000+09:00,2024,5,15,19,24,28,160,,,,,,,,,-0.514893,-0.437744,1.69458,-3.295898,-69.824219,-8.605957,,,,,,,,,,,0.0,1.0,1.0,6.0,0.0,0.0,0.0,5.0,0.0,-0.19123364,-0.17722976000000001,1.0253710133333334,1.276041666666666,3.459472653333332,-3.6954752266666673,3.985304485086373,0.5575964815037313,-3.3962231007165555,16.065102963133075,26.132254011022557,-57.47679627989177,65.15032113131026,-2.3929971808141874,65.30689820159904,-2.3566011705034975,-0.32365936000000006,-0.26051424,0.6692089866666666,1.2533825866666666,0.7876951938369396,0.642046376477485,0.6502710254707931,0.6475906199029838
LBP05_S06,LBP05,-1470,181,6,180,-1470,1715801068.2,2024-05-15 19:24:28.200000+00:00,2024-05-16 04:24:28.200000+09:00,2024,5,15,19,24,28,200,,,,,,,,,-0.084717,-0.112305,1.356689,34.912109,-3.051758,-0.427246,,,,,,,,,,,0.0,1.0,1.0,6.0,0.0,0.0,0.0,5.0,0.0,-0.19177401333333333,-0.18000645333333334,1.0082095599999998,-0.4386393200000006,2.364908853333333,-3.43343096,5.432869526656092,3.47666433692647,-3.274357709675369,16.282417744199318,26.271320584499616,-57.60777058827879,65.37548963489245,-2.386797257411953,65.47421031307577,-2.3569700318866103,0.10705701333333333,0.06770145333333334,0.3484794400000002,0.5232379066666668,0.3707864762771328,0.6363302704927485,0.6457513774196519,0.644858017822179
LBP05_S06,LBP05,-1469,182,6,181,-1469,1715801068.24,2024-05-15 19:24:28.240000+00:00,2024-05-16 04:24:28.240000+09:00,2024,5,15,19,24,28,240,,,,,,,,,-0.337402,-0.233398,0.457031,-28.137207,121.704102,10.192871,,,,,,,,,,,0.0,1.0,1.0,6.0,0.0,0.0,0.0,5.0,0.0,-0.17927076,-0.17635736000000002,0.99193352,0.911458346666666,1.7163085866666665,-3.3121744533333333,6.605307885541566,5.630467749744519,-3.366100245516497,16.54663005962098,26.4965392944894,-57.74241459809945,65.65092538977026,-2.3641315505407574,65.69093992092647,-2.3596542970413803,-0.15813123999999998,-0.057040639999999976,-0.5349025199999999,0.7500743999999999,0.5606958440883056,0.6394585385477953,0.6512636383240623,0.6454303833698182
LBP05_S06,LBP05,-1468,183,6,182,-1468,1715801068.28,2024-05-15 19:24:28.280000+00:00,2024-05-16 04:24:28.280000+09:00,2024,5,15,19,24,28,280,,,,,,,,,-0.165283,-0.103271,0.143555,-59.570312,-44.067383,-14.282227,,,,,,,,,,,0.0,1.0,1.0,6.0,0.0,0.0,0.0,5.0,0.0,-0.17272454666666667,-0.17726557333333332,0.9816177733333334,0.7430013066666661,2.8076171733333326,-3.2210286133333335,7.344718233777712,6.991336645140936,-3.6950616018007327,16.840418788972087,26.776192760295036,-57.89021706217148,65.96848819875873,-2.3436200054905107,65.94787273601726,-2.3631499040864545,0.00744154666666666,0.07399457333333331,-0.8380627733333335,0.9194988933333335,0.8413559208484436,0.6310082416294305,0.6487103036471514,0.6464795791810353
