file_name,test_id,_program_index,program_index,session_id,index,_index,unixtime,datetime_utc,datetime_jst,rtc_year,rtc_month,rtc_day,rtc_hour,rtc_min,rtc_sec,rtc_msec,gps_hour,gps_min,gps_sec,latitude,longitude,altitude,fix_type,SIV,acc_x,acc_y,acc_z,gyro_x,gyro_y,gyro_z,mag_x,mag_y,mag_z,illuminance,atmopress,water_pressure,water_temp,depth,alt_wps,battery_level,behavior_class,camera_command,camera_recording,camera_count,play_audio,speaker_on,audio_file,prev_sd_write_time_ms,delay_occurred_counter,acc_x_ma,acc_y_ma,acc_z_ma,gyro_x_ma,gyro_y_ma,gyro_z_ma,gyro_x_lowpass,gyro_y_lowpass,gyro_z_lowpass,angle_x,angle_y,angle_z,combined_angle_change,gravity_adjusted_angle,smoothed_angle_change,smoothed_gravity_angle,acc_x_dy,acc_y_dy,acc_z_dy,ODBA,VeDBA,smoothed_VeDBA_1s,smoothed_VeDBA_2s,smoothed_VeDBA_3s
LBP07_S04,LBP07,0,1,4,0,0,1716274283.0,2024-05-21 06:51:23+00:00,2024-05-21 15:51:23+09:00,2024,5,21,6,51,23,0,6.0,51.0,23.0,40.548206,141.546539,5.892,3.0,14.0,-0.339844,-0.074219,-0.171143,-375.671387,47.180176,54.626465,-260.0,-48.0,393.0,1173.0,0.0,1018.900024,23.9,0.058468,-46.906914,3.909375,0.0,1.0,1.0,4.0,0.0,0.0,0.0,5.0,0.0,,,,,,,-375.8051895440627,47.60946463343837,54.34149813939635,-15.03220758176251,1.9043785853375348,2.173659925575854,15.307472686552307,,27.907857587639977,,,,,,,,,
LBP07_S04,LBP07,1,2,4,1,1,1716274283.04,2024-05-21 06:51:23.040000+00:00,2024-05-21 15:51:23.040000+09:00,2024,5,21,6,51,23,40,,,,,,,,,0.044678,-0.727051,0.447266,-308.654785,-15.625,94.848633,,,,,,,,,,,0.0,1.0,1.0,4.0,0.0,0.0,0.0,5.0,0.0,,,,,,,-255.68579920788312,30.765456831225727,30.135444266931106,-25.259639550077836,3.1349968585865637,3.3790776962530984,25.676755277497957,,28.449628606370513,,,,,,,,,
LBP07_S04,LBP07,2,3,4,2,2,1716274283.08,2024-05-21 06:51:23.080000+00:00,2024-05-21 15:51:23.080000+09:00,2024,5,21,6,51,23,80,,,,,,,,,0.464844,-0.378906,0.902832,41.687012,-63.781738,52.734375,,,,,,,,,,,0.0,1.0,1.0,4.0,0.0,0.0,0.0,5.0,0.0,,,,,,,-146.1616207469705,15.818004989276044,8.287499078951566,-31.106104379956655,3.7677170581576056,3.710577659411161,31.552397818448153,,28.436757286646273,,,,,,,,,
LBP07_S04,LBP07,3,4,4,3,3,1716274283.12,2024-05-21 06:51:23.120000+00:00,2024-05-21 15:51:23.120000+09:00,2024,5,21,6,51,23,120,,,,,,,,,0.452637,0.442139,1.010498,77.575684,48.034668,-49.804688,,,,,,,,,,,0.0,1.0,1.0,4.0,0.0,0.0,0.0,5.0,0.0,,,,,,,-55.95975432776981,4.05456308602525,-9.092509408918323,-33.34449455306745,3.9298995815986157,3.346877283054428,33.74168068233738,,28.07830869291048,,,,,,,,,
LBP07_S04,LBP07,4,5,4,4,4,1716274283.16,2024-05-21 06:51:23.160000+00:00,2024-05-21 15:51:23.160000+09:00,2024,5,21,6,51,23,160,,,,,,,,,-0.249023,-0.012939,1.582275,54.870605,-9.155273,-94.238281,,,,,,,,,,,0.0,1.0,1.0,4.0,0.0,0.0,0.0,5.0,0.0,,,,,,,9.853259993794515,-3.991536645640361,-20.665507375529014,-32.95036415331567,3.7702381157730014,2.5202569880332675,33.260981473364076,,27.541159846636905,,,,,,,,,
LBP07_S04,LBP07,5,6,4,5,5,1716274283.2,2024-05-21 06:51:23.200000+00:00,2024-05-21 15:51:23.200000+09:00,2024,5,21,6,51,23,200,,,,,,,,,0.059814,0.761475,1.39209,67.016602,-59.020996,-49.804688,,,,,,,,,,,0.0,1.0,1.0,4.0,0.0,0.0,0.0,5.0,0.0,,,,,,,50.40443560759888,-8.545578692696315,-26.152246630401216,-30.934186729011714,3.428414968065149,1.4741671228172188,31.158483700023222,,26.949141011179,,,,,,,,,
LBP07_S04,LBP07,6,7,4,6,6,1716274283.24,2024-05-21 06:51:23.240000+00:00,2024-05-21 15:51:23.240000+09:00,2024,5,21,6,51,23,240,,,,,,,,,0.126953,-0.178223,1.38623,-86.242676,53.161621,-36.621094,,,,,,,,,,,0.0,1.0,1.0,4.0,0.0,0.0,0.0,5.0,0.0,,,,,,,68.45699749437281,-10.385501612397643,-26.377842249268046,-28.1959068292368,3.0129949035692434,0.419053432846497,28.35952936830083,,27.495937775777218,,,,,,,,,
LBP07_S04,LBP07,7,8,4,7,7,1716274283.28,2024-05-21 06:51:23.280000+00:00,2024-05-21 15:51:23.280000+09:00,2024,5,21,6,51,23,280,,,,,,,,,-0.552734,0.084961,0.274658,31.494141,80.566406,-10.986328,,,,,,,,,,,0.0,1.0,1.0,4.0,0.0,0.0,0.0,5.0,0.0,,,,,,,69.08392816055111,-10.534536633547166,-23.00966792722198,-25.432549702814757,2.591613438227357,-0.5013332842423822,25.56916853675991,,26.99604869118169,,,,,,,,,
LBP07_S04,LBP07,8,9,4,8,8,1716274283.32,2024-05-21 06:51:23.320000+00:00,2024-05-21 15:51:23.320000+09:00,2024,5,21,6,51,23,320,,,,,,,,,0.299316,0.380615,0.056396,8.972168,-94.299316,59.326172,,,,,,,,,,,0.0,1.0,1.0,4.0,0.0,0.0,0.0,5.0,0.0,,,,,,,58.11487332162545,-9.97853778307317,-18.060699446046744,-23.10795476994974,2.19247192690443,-1.223761262084252,23.243969076448302,,25.964178668413716,,,,,,,,,
LBP07_S04,LBP07,9,10,4,9,9,1716274283.36,2024-05-21 06:51:23.360000+00:00,2024-05-21 15:51:23.360000+09:00,2024,5,21,6,51,23,360,,,,,,,,,0.465332,-0.299805,0.731934,-100.524902,-33.447266,46.691895,,,,,,,,,,,0.0,1.0,1.0,4.0,0.0,0.0,0.0,5.0,0.0,,,,,,,40.872860162706495,-9.493736361890496,-13.344725886115505,-21.47304036344148,1.81272247242881,-1.7575502975288722,21.620971492057873,,24.820592375595478,,,,,,,,,
LBP07_S04,LBP07,10,11,4,10,10,1716274283.4,2024-05-21 06:51:23.400000+00:00,2024-05-21 15:51:23.400000+09:00,2024,5,21,6,51,23,400,,,,,,,,,0.428955,0.270752,1.090332,240.234375,-20.141602,-24.841309,,,,,,,,,,,0.0,1.0,1.0,4.0,0.0,0.0,0.0,5.0,0.0,,,,,,,21.494872862917568,-9.589667239701326,-10.090193061065364,-20.61324544892478,1.429135782840757,-2.1611580199714866,20.775440332534494,,23.867366829513486,,,,,,,,,
LBP07_S04,LBP07,11,12,4,11,11,1716274283.44,2024-05-21 06:51:23.440000+00:00,2024-05-21 15:51:23.440000+09:00,2024,5,21,6,51,23,440,,,,,,,,,-0.52124,0.48584,1.405273,-58.166504,68.29834,-77.148438,,,,,,,,,,,0.0,1.0,1.0,4.0,0.0,0.0,0.0,5.0,0.0,,,,,,,2.8402614716336108,-10.512957715578343,-8.828693796634237,-20.499634990059434,1.0086174742176233,-2.514305771836856,20.67786443154269,,23.28387779980893,,,,,,,,,
LBP07_S04,LBP07,12,13,4,12,12,1716274283.48,2024-05-21 06:51:23.480000+00:00,2024-05-21 15:51:23.480000+09:00,2024,5,21,6,51,23,480,,,,,,,,,0.241943,0.486816,1.416504,42.785645,-91.369629,-14.648438,,,,,,,,,,,0.0,1.0,1.0,4.0,0.0,0.0,0.0,5.0,0.0,,,,,,,-13.234257440397245,-12.267413890376238,-9.524190049793006,-21.029005287675325,0.5179209186025737,-2.895273373828576,21.233697590768397,,23.139740894553054,,,,,,,,,
LBP07_S04,LBP07,13,14,4,13,13,1716274283.52,2024-05-21 06:51:23.520000+00:00,2024-05-21 15:51:23.520000+09:00,2024,5,21,6,51,23,520,,,,,,,,,0.166016,0.01416,0.918701,28.869629,13.671875,-58.349609,,,,,,,,,,,0.0,1.0,1.0,4.0,0.0,0.0,0.0,5.0,0.0,,,,,,,-25.527524219651262,-14.6507661269742,-11.796847729597362,-22.050106256461376,-0.06810972647639435,-3.3671472830124705,22.30581775415499,,23.419693038078556,,,,,,,,,
LBP07_S04,LBP07,14,15,4,14,14,1716274283.56,2024-05-21 06:51:23.560000+00:00,2024-05-21 15:51:23.560000+09:00,2024,5,21,6,51,23,560,,,,,,,,,-0.466064,-0.024902,0.010742,-29.602051,78.125,-10.559082,,,,,,,,,,,0.0,1.0,1.0,4.0,0.0,0.0,0.0,5.0,0.0,,,,,,,-33.29085831180554,-17.329741053555605,-15.090738195814287,-23.3817405889336,-0.7612993686186186,-3.970776810845042,23.728726012544136,,24.05296646049656,,,,,,,,,
LBP07_S04,LBP07,15,16,4,15,15,1716274283.6,2024-05-21 06:51:23.600000+00:00,2024-05-21 15:51:23.600000+09:00,2024,5,21,6,51,23,600,,,,,,,,,0.031982,0.215576,-0.05542,-90.881348,-100.158691,24.047852,,,,,,,,,,,0.0,1.0,1.0,4.0,0.0,0.0,0.0,5.0,0.0,,,,,,,-36.22972166778304,-19.961557630075674,-18.725465023210013,-24.83092945564492,-1.5597616738216455,-4.719795411773442,25.32359340297769,,24.94032294647794,,,,,,,,,
LBP07_S04,LBP07,16,17,4,16,16,1716274283.64,2024-05-21 06:51:23.640000+00:00,2024-05-21 15:51:23.640000+09:00,2024,5,21,6,51,23,640,,,,,,,,,0.164307,-0.175293,0.337402,-153.198242,-81.298828,53.039551,,,,,,,,,,,0.0,1.0,1.0,4.0,0.0,0.0,0.0,5.0,0.0,,,,,,,-34.61895290424279,-22.334755244035332,-21.8870420521476,-26.21568757181463,-2.453151883583059,-5.595277093859346,26.918160315742053,,25.974714232375447,,,,,,,,,
LBP07_S04,LBP07,17,18,4,17,17,1716274283.68,2024-05-21 06:51:23.680000+00:00,2024-05-21 15:51:23.680000+09:00,2024,5,21,6,51,23,680,,,,,,,,,0.466797,-0.189453,0.637695,-33.508301,-48.88916,2.624512,,,,,,,,,,,0.0,1.0,1.0,4.0,0.0,0.0,0.0,5.0,0.0,,,,,,,-29.354109807249852,-24.45967073517199,-23.678310360424668,-27.389851964104626,-3.4315387129899384,-6.542409508276333,28.36868997201491,,27.054878987114858,,,,,,,,,
LBP07_S04,LBP07,18,19,4,18,18,1716274283.72,2024-05-21 06:51:23.720000+00:00,2024-05-21 15:51:23.720000+09:00,2024,5,21,6,51,23,720,,,,,,,,,0.17334,0.217041,0.835938,65.795898,26.367188,-69.396973,,,,,,,,,,,0.0,1.0,1.0,4.0,0.0,0.0,0.0,5.0,0.0,,,,,,,-21.793994056493613,-26.53154532046579,-23.31777095937315,-28.26161172636437,-4.49280052580857,-7.475120346651259,29.576703300628377,,28.093279351851987,,,,,,,,,
LBP07_S04,LBP07,19,20,4,19,19,1716274283.76,2024-05-21 06:51:23.760000+00:00,2024-05-21 15:51:23.760000+09:00,2024,5,21,6,51,23,760,,,,,,,,,-0.198975,0.169434,1.241943,7.263184,23.376465,-116.149902,,,,,,,,,,,0.0,1.0,1.0,4.0,0.0,0.0,0.0,5.0,0.0,,,,,,,-13.395698018000829,-28.756103358769725,-20.456660485430284,-28.797439647084406,-5.643044660159359,-8.29338676606847,30.494536351871652,,29.020232006393844,,,,,,,,,
LBP07_S04,LBP07,20,21,4,20,20,1716274283.8,2024-05-21 06:51:23.800000+00:00,2024-05-21 15:51:23.800000+09:00,2024,5,21,6,51,23,800,,,,,,,,,0.049561,0.322021,1.175537,26.550293,-79.284668,-33.508301,,,,,,,,,,,0.0,1.0,1.0,4.0,0.0,0.0,0.0,5.0,0.0,,,,,,,-5.301213890898284,-31.127855327843083,-15.455877958537275,-29.009488202720338,-6.888158873273082,-8.911621884409962,31.11935319150955,,29.785773274929063,,,,,,,,,
LBP07_S04,LBP07,21,22,4,21,21,1716274283.84,2024-05-21 06:51:23.840000+00:00,2024-05-21 15:51:23.840000+09:00,2024,5,21,6,51,23,840,,,,,,,,,-0.024902,0.026123,0.503662,51.330566,27.46582,-32.897949,,,,,,,,,,,0.0,1.0,1.0,4.0,0.0,0.0,0.0,5.0,0.0,,,,,,,1.916439014809019,-33.296103684642645,-9.430435746500937,-28.93283064212798,-8.220003020658789,-9.28883931427,31.47951197893683,,30.36028499354685,,,,,,,,,
LBP07_S04,LBP07,22,23,4,22,22,1716274283.88,2024-05-21 06:51:23.880000+00:00,2024-05-21 15:51:23.880000+09:00,2024,5,21,6,51,23,880,,,,,,,,,-0.300293,0.197266,-0.126953,17.822266,4.577637,34.240723,,,,,,,,,,,0.0,1.0,1.0,4.0,0.0,0.0,0.0,5.0,0.0,,,,,,,8.226467470987435,-34.611434916128864,-3.9696211755706994,-28.603771943288482,-9.604460417303944,-9.447624161292827,31.61770123813968,,30.734121395649872,,,,,,,,,
LBP07_S04,LBP07,23,24,4,23,23,1716274283.92,2024-05-21 06:51:23.920000+00:00,2024-05-21 15:51:23.920000+09:00,2024,5,21,6,51,23,920,,,,,,,,,-0.047852,0.141357,-0.071289,-120.117188,-82.15332,69.824219,,,,,,,,,,,0.0,1.0,1.0,4.0,0.0,0.0,0.0,5.0,0.0,,,,,,,13.869387057640546,-34.35773181175281,-0.6146710188302684,-28.04899646098286,-10.978769689774056,-9.472211002046038,31.57534429957356,,30.915716474291322,,,,,,,,,
LBP07_S04,LBP07,24,25,4,24,24,1716274283.96,2024-05-21 06:51:23.960000+00:00,2024-05-21 15:51:23.960000+09:00,2024,5,21,6,51,23,960,,,,,,,,,0.456787,-0.346191,0.354004,-98.388672,-125.549316,46.264648,,,,,,,,,,,0.0,1.0,1.0,4.0,0.0,0.0,0.0,5.0,0.0,,,,,,,19.020676158284427,-32.08409339230222,-0.31291233403717217,-27.28816941465148,-12.262133425466144,-9.484727495407524,31.38413869789633,,30.92770973457698,,,,,,,,,
LBP07_S04,LBP07,25,26,4,25,25,1716274284.0,2024-05-21 06:51:24+00:00,2024-05-21 15:51:24+09:00,2024,5,21,6,51,24,0,6.0,51.0,24.0,40.548157,141.546768,6.45,3.0,15.0,0.501953,-0.007812,0.551514,80.810547,-53.100586,15.563965,-251.0,-24.0,404.0,1116.0,0.0,1018.5,23.9,0.054504,-43.592819,3.909375,0.0,1.0,1.0,4.0,0.0,0.0,0.0,6.0,0.0,,,,,,,23.613475700171808,-27.88497463622324,-3.089460181814627,-26.34363038664461,-13.377532410915075,-9.60830590268011,31.068710589155547,,30.80167584144731,,,,,,,,,
LBP07_S04,LBP07,26,27,4,26,26,1716274284.04,2024-05-21 06:51:24.040000+00:00,2024-05-21 15:51:24.040000+09:00,2024,5,21,6,51,24,40,,,,,,,,,0.255371,-0.074463,0.907715,103.820801,61.706543,-37.231445,,,,,,,,,,,0.0,1.0,1.0,4.0,0.0,0.0,0.0,6.0,0.0,,,,,,,27.437658674941353,-22.47957124093741,-8.07533961065472,-25.246124039646954,-14.276715260552571,-9.931319487106299,30.65652433677229,,30.573154076891125,,,,,,,,,
LBP07_S04,LBP07,27,28,4,27,27,1716274284.08,2024-05-21 06:51:24.080000+00:00,2024-05-21 15:51:24.080000+09:00,2024,5,21,6,51,24,80,,,,,,,,,-0.268799,0.172607,1.206787,167.297363,-22.094727,-83.496094,,,,,,,,,,,0.0,1.0,1.0,4.0,0.0,0.0,0.0,6.0,0.0,,,,,,,30.4171255682884,-17.03694141034448,-13.860893766804333,-24.02943901691542,-14.95819291696635,-10.485755237778472,30.18464075842941,,30.278692205226662,,,,,,,,,
LBP07_S04,LBP07,28,29,4,28,28,1716274284.12,2024-05-21 06:51:24.120000+00:00,2024-05-21 15:51:24.120000+09:00,2024,5,21,6,51,24,120,,,,,,,,,0.187012,0.650391,0.861816,85.754395,-57.250977,-26.916504,,,,,,,,,,,0.0,1.0,1.0,4.0,0.0,0.0,0.0,6.0,0.0,,,,,,,32.80595421380956,-12.822236738183985,-18.99729732458113,-22.717200848363035,-15.471082386493709,-11.245647130761718,29.69663590348495,,29.955228961403407,,,,,,,,,
LBP07_S04,LBP07,29,30,4,29,29,1716274284.16,2024-05-21 06:51:24.160000+00:00,2024-05-21 15:51:24.160000+09:00,2024,5,21,6,51,24,160,,,,,,,,,0.166016,0.142334,0.758545,-112.182617,32.470703,-55.847168,,,,,,,,,,,0.0,1.0,1.0,4.0,0.0,0.0,0.0,6.0,0.0,,,,,,,35.08539292253463,-10.809344316390645,-22.42197865741307,-21.31378513146165,-15.903456159149336,-12.142526277058241,29.23419742057494,,29.64025020431982,,,,,,,,,
LBP07_S04,LBP07,30,31,4,30,30,1716274284.2,2024-05-21 06:51:24.200000+00:00,2024-05-21 15:51:24.200000+09:00,2024,5,21,6,51,24,200,,,,,,,,,-0.499512,-0.281494,0.159424,-0.366211,94.055176,-28.381348,,,,,,,,,,,0.0,1.0,1.0,4.0,0.0,0.0,0.0,6.0,0.0,,,,,,,37.572823791621346,-11.396833508079355,-23.649555316597542,-19.810872179796796,-16.35932949947251,-13.088508489722143,28.834135545947735,,29.3704614892076,,,,,,,,,
LBP07_S04,LBP07,31,32,4,31,31,1716274284.24,2024-05-21 06:51:24.240000+00:00,2024-05-21 15:51:24.240000+09:00,2024,5,21,6,51,24,240,,,,,,,,,0.06543,0.219727,-0.139404,-50.476074,-67.810059,23.864746,,,,,,,,,,,0.0,1.0,1.0,4.0,0.0,0.0,0.0,6.0,0.0,,,,,,,39.996240596718145,-14.319285435246877,-22.70044617842718,-18.21102255592807,-16.932100916882384,-13.99652633685923,28.534893262292123,,29.1782071091403,,,,,,,,,
LBP07_S04,LBP07,32,33,4,32,32,1716274284.28,2024-05-21 06:51:24.280000+00:00,2024-05-21 15:51:24.280000+09:00,2024,5,21,6,51,24,280,,,,,,,,,0.112549,-0.31958,0.262207,-26.184082,-77.453613,30.090332,,,,,,,,,,,0.0,1.0,1.0,4.0,0.0,0.0,0.0,6.0,0.0,,,,,,,41.358612196713544,-18.7788725913487,-19.865043204481534,-16.55667806805953,-17.68325582053633,-14.79112806503849,28.38306879990719,,29.087198257002598,,,,,,,,,
LBP07_S04,LBP07,33,34,4,33,33,1716274284.32,2024-05-21 06:51:24.320000+00:00,2024-05-21 15:51:24.320000+09:00,2024,5,21,6,51,24,320,,,,,,,,,0.360596,0.282959,0.405273,166.992188,-83.557129,2.13623,,,,,,,,,,,0.0,1.0,1.0,4.0,0.0,0.0,0.0,6.0,0.0,,,,,,,40.26702521272205,-23.729005971514503,-15.467271274203258,-14.945997059550647,-18.63241605939691,-15.409818916006621,28.42555672873768,,29.1097184339651,1.196551925956727,,,,,,,,
LBP07_S04,LBP07,34,35,4,34,34,1716274284.36,2024-05-21 06:51:24.360000+00:00,2024-05-21 15:51:24.360000+09:00,2024,5,21,6,51,24,360,,,,,,,,,0.291504,-0.129395,0.778564,18.554688,53.771973,16.540527,,,,,,,,,,,0.0,1.0,1.0,4.0,0.0,0.0,0.0,6.0,0.0,,,,,,,35.63311733933238,-28.174439712592687,-9.7694075505613,-13.520672365977353,-19.759393647900616,-15.800595218029073,28.686251546774145,,29.24591005343017,1.1827068811530084,,,,,,,,
LBP07_S04,LBP07,35,36,4,35,35,1716274284.4,2024-05-21 06:51:24.400000+00:00,2024-05-21 15:51:24.400000+09:00,2024,5,21,6,51,24,400,,,,,,,,,-0.149902,0.135986,1.013428,203.918457,18.188477,-105.34668,,,,,,,,,,,0.0,1.0,1.0,4.0,0.0,0.0,0.0,6.0,0.0,,,,,,,27.420606260422957,-31.375710062440593,-3.0594706063844685,-12.423848115560434,-21.014422050398238,-15.922974042284451,29.146166788482542,,29.484234415280913,1.176820649713498,,,,,,,,
LBP07_S04,LBP07,36,37,4,36,36,1716274284.44,2024-05-21 06:51:24.440000+00:00,2024-05-21 15:51:24.440000+09:00,2024,5,21,6,51,24,440,,,,,,,,,-0.248047,0.720215,1.010742,114.074707,-123.596191,9.58252,,,,,,,,,,,0.0,1.0,1.0,4.0,0.0,0.0,0.0,6.0,0.0,,,,,,,17.042918092634963,-32.932634414143045,4.162285819489475,-11.742131391855036,-22.33172742696396,-15.756482609504872,29.74643581539528,,29.80239859108486,1.178802343060978,,,,,,,,
LBP07_S04,LBP07,37,38,4,37,37,1716274284.48,2024-05-21 06:51:24.480000+00:00,2024-05-21 15:51:24.480000+09:00,2024,5,21,6,51,24,480,,,,,,,,,0.080566,0.500732,0.880615,-92.285156,-69.458008,-27.526855,,,,,,,,,,,0.0,1.0,1.0,4.0,0.0,0.0,0.0,6.0,0.0,0.05758789333333334,0.14817708000000002,0.9343294,1.517740906666667,1.8074545066666672,-2.13460288,7.141724683236096,-32.775798775574096,11.054454018572365,-11.456462404525592,-23.642759377986923,-15.314304448761977,30.40984252805443,1.196551925956727,30.169116364848946,1.1848644079156279,0.022978106666666658,0.35255491999999994,-0.05371439999999994,0.42924742666666654,0.35736284329732865,0.35736284329732865,0.35736284329732865,0.35736284329732865
LBP07_S04,LBP07,38,39,4,38,38,1716274284.52,2024-05-21 06:51:24.520000+00:00,2024-05-21 15:51:24.520000+09:00,2024,5,21,6,51,24,520,,,,,,,,,-0.112793,-0.170654,0.431152,-114.318848,59.265137,-5.310059,,,,,,,,,,,0.0,1.0,1.0,4.0,0.0,0.0,0.0,6.0,0.0,0.06202474666666667,0.14737956,0.9390982800000001,3.4952799733333335,0.4793295066666669,-1.9596354399999996,0.7593465657011337,-31.086379360540704,16.495013922319423,-11.426088541897547,-24.886214552408553,-14.6545038918692,31.0585520981356,1.1688618363492895,30.547324786333974,1.1895059640526313,-0.17481774666666666,-0.31803356,-0.5079462800000001,1.0007975866666667,0.6242723870248651,0.4908176151610969,0.4908176151610969,0.4908176151610969
LBP07_S04,LBP07,39,40,4,39,39,1716274284.56,2024-05-21 06:51:24.560000+00:00,2024-05-21 15:51:24.560000+09:00,2024,5,21,6,51,24,560,,,,,,,,,-0.143799,0.092773,0.10498,8.483887,-57.556152,72.509766,,,,,,,,,,,0.0,1.0,1.0,4.0,0.0,0.0,0.0,6.0,0.0,0.06311849333333333,0.14840821333333334,0.9420377333333334,4.9601237199999995,-0.09928377333333306,-1.92871096,0.22118386666033785,-28.15615288151594,19.356589112606315,-11.417241187231134,-26.012460667669192,-13.880240327364948,31.6174410390824,1.165048186834478,30.898578941649998,1.1927118453396865,-0.20691749333333334,-0.05563521333333335,-0.8370577333333334,1.0996104400000002,0.8640461648217261,0.6152271317146399,0.6152271317146399,0.6152271317146399
LBP07_S04,LBP07,40,41,4,40,40,1716274284.6,2024-05-21 06:51:24.600000+00:00,2024-05-21 15:51:24.600000+09:00,2024,5,21,6,51,24,600,,,,,,,,,0.178955,0.304932,0.319336,-104.553223,-23.986816,87.158203,,,,,,,,,,,0.0,1.0,1.0,4.0,0.0,0.0,0.0,6.0,0.0,0.06161133333333333,0.15323893333333333,0.9456282266666667,6.1206054933333345,0.5973308000000002,-2.451171893333333,6.201279892991235,-24.229259332466714,18.895148792534947,-11.169189991511486,-26.981631040967862,-13.12443437566355,32.01577730398717,1.1847474231034172,31.187216892974597,1.1961604622218447,0.11734366666666668,0.15169306666666665,-0.6262922266666666,0.89532896,0.6549979204276963,0.6251698288929041,0.6251698288929041,0.6251698288929041
LBP07_S04,LBP07,41,42,4,41,41,1716274284.64,2024-05-21 06:51:24.640000+00:00,2024-05-21 15:51:24.640000+09:00,2024,5,21,6,51,24,640,,,,,,,,,0.546631,-0.576416,0.843506,-131.164551,-6.04248,59.631348,,,,,,,,,,,0.0,1.0,1.0,4.0,0.0,0.0,0.0,6.0,0.0,0.05579753333333333,0.14902994666666666,0.9506705466666667,6.996256533333334,-0.02929679999999982,-2.0833333466666666,17.371563588957656,-19.39390452907092,15.07202813571034,-10.47432744795318,-27.7573872221307,-12.521553250235137,32.20207099993297,1.2091126673342272,31.382524896741973,1.1990378021791332,0.49083346666666666,-0.7254459466666667,-0.10716454666666675,1.32344396,0.8824248146994657,0.6766208260542164,0.6766208260542164,0.6766208260542164
LBP07_S04,LBP07,42,43,4,42,42,1716274284.68,2024-05-21 06:51:24.680000+00:00,2024-05-21 15:51:24.680000+09:00,2024,5,21,6,51,24,680,,,,,,,,,0.022705,0.021729,1.281006,199.34082,72.570801,-35.095215,,,,,,,,,,,0.0,1.0,1.0,4.0,0.0,0.0,0.0,6.0,0.0,0.05881510666666666,0.15905924,0.9482519333333335,8.046061226666668,-1.0221353466666665,-0.4720052266666665,30.78657644946635,-13.577766748827308,8.645638379187982,-9.242864389974525,-28.30049789208379,-12.175727715067618,32.16515301475751,1.2127137447376486,31.458194581675876,1.2005736403063492,-0.036110106666666655,-0.13733024,0.3327540666666666,0.5061944133333333,0.361785576695838,0.6241482844944867,0.6241482844944867,0.6241482844944867
LBP07_S04,LBP07,43,44,4,43,43,1716274284.72,2024-05-21 06:51:24.720000+00:00,2024-05-21 15:51:24.720000+09:00,2024,5,21,6,51,24,720,,,,,,,,,-0.535645,-0.063477,1.593994,256.713867,-85.083008,-76.171875,,,,,,,,,,,0.0,1.0,1.0,4.0,0.0,0.0,0.0,6.0,0.0,0.058512373333333326,0.15783853333333336,0.9490982799999998,6.824544293333332,-0.46874993333333315,-0.1725260533333332,42.843921886406015,-6.657487353611814,0.9826325450921042,-7.529107514518284,-28.566797386228263,-12.136422413263933,31.938098281897886,1.211947133062017,31.390542040295742,1.2024023393904746,-0.5941573733333334,-0.22131553333333337,0.6448957200000001,1.460368626666667,0.9043749439559361,0.6641806644175509,0.6641806644175509,0.6641806644175509
LBP07_S04,LBP07,44,45,4,44,44,1716274284.76,2024-05-21 06:51:24.760000+00:00,2024-05-21 15:51:24.760000+09:00,2024,5,21,6,51,24,760,,,,,,,,,0.096191,1.148682,1.364746,-8.911133,-95.52002,26.550293,,,,,,,,,,,0.0,1.0,1.0,4.0,0.0,0.0,0.0,6.0,0.0,0.05911458666666667,0.16379557333333333,0.9430728933333332,7.365722679999999,0.2522787200000003,-0.12776693333333317,50.41216467699778,1.3631270738495682,-6.31953453574616,-5.512620927438372,-28.51227230327428,-12.38920379469378,31.57263106002013,1.2203007803969537,31.158362827668192,1.2095523338249814,0.03707641333333333,0.9848864266666666,0.4216731066666668,1.4436359466666666,1.072000066578271,0.7151580896876408,0.7151580896876408,0.7151580896876408
LBP07_S04,LBP07,45,46,4,45,45,1716274284.8,2024-05-21 06:51:24.800000+00:00,2024-05-21 15:51:24.800000+09:00,2024,5,21,6,51,24,800,,,,,,,,,0.500244,0.344971,1.47998,64.758301,38.635254,-24.414062,,,,,,,,,,,0.0,1.0,1.0,4.0,0.0,0.0,0.0,6.0,0.0,0.05805338666666668,0.16168945333333334,0.9422395599999999,4.685058613333332,0.36946622666666695,0.26285806666666683,51.67215212806425,10.202424745870864,-11.833851438546455,-3.4457348423158023,-28.104175313439445,-12.862557852235637,31.099246826156367,1.22205652183744,30.746067291946378,1.2136195179286942,0.4421906133333333,0.18328154666666668,0.5377404400000002,1.1632126,0.7199232213785223,0.7156875487644054,0.7156875487644054,0.7156875487644054
LBP07_S04,LBP07,46,47,4,46,46,1716274284.84,2024-05-21 06:51:24.840000+00:00,2024-05-21 15:51:24.840000+09:00,2024,5,21,6,51,24,840,,,,,,,,,-0.629883,-0.051758,0.462402,-69.885254,140.625,-11.352539,,,,,,,,,,,0.0,1.0,1.0,4.0,0.0,0.0,0.0,6.0,0.0,0.059746106666666667,0.1625,0.9473404800000002,4.043782573333334,0.839843826666667,0.0724283733333335,46.41858968435239,19.271798829436253,-14.597042442422303,-1.5889912549417067,-27.333303360261993,-13.44643954993253,30.5031326647343,1.2143961834512937,30.148552566371315,1.2170619880177376,-0.6896291066666667,-0.214258,-0.48493848000000017,1.388825586666667,0.8698621297139998,0.7311050068593649,0.7311050068593649,0.7311050068593649
LBP07_S04,LBP07,47,48,4,47,47,1716274284.88,2024-05-21 06:51:24.880000+00:00,2024-05-21 15:51:24.880000+09:00,2024,5,21,6,51,24,880,,,,,,,,,0.677002,0.132568,0.832031,96.801758,-76.538086,-14.709473,,,,,,,,,,,0.0,1.0,1.0,4.0,0.0,0.0,0.0,6.0,0.0,0.05794597333333333,0.15767904000000002,0.9539192533333335,2.4357096533333333,1.9864909733333336,-0.2954101733333332,35.86236266593916,27.785099293341258,-14.24794185045441,-0.1544967483041404,-26.221899388528342,-14.016357223950706,29.733317114253072,1.214838916797981,29.374112546229874,1.220653741672249,0.6190560266666667,-0.02511104000000003,-0.12188825333333353,0.7660553200000003,0.6314409511449611,0.7220446381580555,0.7220446381580555,0.7220446381580555
LBP07_S04,LBP07,48,49,4,48,48,1716274284.92,2024-05-21 06:51:24.920000+00:00,2024-05-21 15:51:24.920000+09:00,2024,5,21,6,51,24,920,,,,,,,,,0.157471,0.22583,1.512207,-3.295898,76.293945,9.460449,,,,,,,,,,,0.0,1.0,1.0,4.0,0.0,0.0,0.0,6.0,0.0,0.055576186666666666,0.16413412000000002,0.9523762800000001,1.9091797066666667,2.0719402000000007,-0.40039063999999985,22.14753687304078,34.939327156888204,-11.028515964831826,0.7314047266174909,-24.824326302252814,-14.45749786254398,28.73675997186014,1.2403617806943568,28.44283969024603,1.2226607667670555,0.10189481333333333,0.06169587999999998,0.55983072,0.7234214133333333,0.5723629701936768,0.7095711658276906,0.7095711658276906,0.7095711658276906
LBP07_S04,LBP07,49,50,4,49,49,1716274284.96,2024-05-21 06:51:24.960000+00:00,2024-05-21 15:51:24.960000+09:00,2024,5,21,6,51,24,960,,,,,,,,,0.018311,0.533447,1.609131,-15.380859,56.82373,-20.507812,,,,,,,,,,,0.0,1.0,1.0,4.0,0.0,0.0,0.0,6.0,0.0,0.06050782666666667,0.16021485333333335,0.9516764133333332,0.9033203333333336,0.8479818666666672,0.6705729066666668,7.79222535145324,40.08603311842388,-5.687531491711722,1.0430937406756204,-23.22088497751586,-14.684999122212448,27.49448568186426,1.2057200278716065,27.3815387689349,1.224591062948568,-0.042196826666666666,0.37323214666666665,0.6574545866666669,1.0728835600000002,0.7571851431553466,0.7132337794682795,0.7132337794682795,0.7132337794682795
LBP07_S04,LBP07,50,51,4,50,50,1716274285.0,2024-05-21 06:51:25+00:00,2024-05-21 15:51:25+09:00,2024,5,21,6,51,25,0,6.0,51.0,25.0,40.548084,141.547012,5.143,3.0,15.0,-0.01001,0.695801,1.702393,32.714844,-2.502441,1.464844,-249.0,-46.0,386.0,755.0,0.0,1019.200012,23.940001,0.061441,-49.391544,3.909375,0.0,1.0,1.0,4.0,0.0,0.0,0.0,5.0,0.0,0.057106133333333337,0.15750326666666667,0.9486555733333334,-0.3784179599999998,1.8847657200000008,0.2327473866666669,-4.825083810182769,42.85510009497073,0.6771363236661623,0.8500903882683097,-21.506680973717028,-14.6579136692658,26.040630048236494,1.2191721239938507,26.218940117789703,1.2239456638512027,-0.06711613333333334,0.5382977333333333,0.7537374266666667,1.3591512933333334,0.9286490905737812,0.7286205874043867,0.7286205874043867,0.7286205874043867
LBP07_S04,LBP07,51,52,4,51,51,1716274285.04,2024-05-21 06:51:25.040000+00:00,2024-05-21 15:51:25.040000+09:00,2024,5,21,6,51,25,40,,,,,,,,,0.253906,0.108154,1.79126,69.396973,4.638672,-1.831055,,,,,,,,,,,0.0,1.0,1.0,4.0,0.0,0.0,0.0,5.0,0.0,0.05285157333333333,0.15840170666666664,0.94283852,-1.4192708266666663,2.544759213333334,0.6925455600000002,-13.884513075506316,43.22694236079819,6.81502941534975,0.2947098652480571,-19.7776032792851,-14.38531249265181,24.45767079851856,1.2450302038793413,24.984487727718253,1.2243912118008446,0.20105442666666667,-0.05024770666666664,0.8484214800000001,1.0997236133333335,0.8733651711815121,0.7382702263228619,0.7382702263228619,0.7382702263228619
LBP07_S04,LBP07,52,53,4,52,52,1716274285.08,2024-05-21 06:51:25.080000+00:00,2024-05-21 15:51:25.080000+09:00,2024,5,21,6,51,25,80,,,,,,,,,-0.134521,0.413818,1.510498,-169.433594,167.724609,-15.319824,,,,,,,,,,,0.0,1.0,1.0,4.0,0.0,0.0,0.0,5.0,0.0,0.056897786666666665,0.16402018666666668,0.9390657333333333,-1.9995117066666663,1.0872396800000006,1.3639322800000002,-18.42462837109895,41.55039981467358,11.54590388706628,-0.4422752695959009,-18.115587286698155,-13.92347633716916,22.85242445491912,1.232783995685714,23.710689815683747,1.2246969779524879,-0.19141878666666667,0.24979781333333334,0.5714322666666666,1.0126488666666666,0.6523610463714538,0.7329009025758988,0.7329009025758988,0.7329009025758988
LBP07_S04,LBP07,53,54,4,53,53,1716274285.12,2024-05-21 06:51:25.120000+00:00,2024-05-21 15:51:25.120000+09:00,2024,5,21,6,51,25,120,,,,,,,,,-0.489014,0.288818,0.435059,-19.287109,56.945801,21.972656,,,,,,,,,,,0.0,1.0,1.0,4.0,0.0,0.0,0.0,5.0,0.0,0.05632162666666666,0.16149739999999999,0.9395800533333333,-3.730468733333333,1.6381836800000007,2.1704101333333337,-18.480384515681184,38.484209941833235,13.9906732492933,-1.1814906502231484,-16.576218889024826,-13.363849407197428,21.32508906878654,1.2312500948771423,22.43595517829971,1.2237282955542996,-0.5453356266666667,0.12732060000000003,-0.5045210533333333,1.17717728,0.7537525947901355,0.734127472706148,0.734127472706148,0.734127472706148
LBP07_S04,LBP07,54,55,4,54,54,1716274285.16,2024-05-21 06:51:25.160000+00:00,2024-05-21 15:51:25.160000+09:00,2024,5,21,6,51,25,160,,,,,,,,,0.48877,-0.046631,0.959229,-42.96875,-41.809082,96.801758,,,,,,,,,,,0.0,1.0,1.0,4.0,0.0,0.0,0.0,5.0,0.0,0.057558599999999994,0.15616212,0.9412369599999999,-3.8981119599999996,1.4013672666666672,2.441406226666667,-14.990195466154278,34.833328827401914,13.767987790590169,-1.7810984688693194,-15.18288573592875,-12.813129895573821,19.946644548568187,1.2138467894233,21.204550898740003,1.2206833869183533,0.43121139999999997,-0.20279312,0.017992040000000098,0.6519965600000001,0.4768564086941225,0.719834635816591,0.719834635816591,0.719834635816591
LBP07_S04,LBP07,55,56,4,55,55,1716274285.2,2024-05-21 06:51:25.200000+00:00,2024-05-21 15:51:25.200000+09:00,2024,5,21,6,51,25,200,,,,,,,,,0.112793,0.111572,1.503662,-47.912598,32.714844,23.193359,,,,,,,,,,,0.0,1.0,1.0,4.0,0.0,0.0,0.0,5.0,0.0,0.05534505333333333,0.15619466666666668,0.94073892,-2.661946586666666,1.0359701333333342,2.723795546666667,-9.433378579658518,31.297172875586224,11.087172129707598,-2.15843361205566,-13.9309988209053,-12.369643010385518,18.754722925441897,1.2265120013338595,20.062670842977802,1.2203498230471026,0.05744794666666667,-0.04462266666666667,0.56292308,0.6649936933333334,0.5676035966705524,0.7118224758615364,0.7118224758615364,0.7118224758615364
LBP07_S04,LBP07,56,57,4,56,56,1716274285.24,2024-05-21 06:51:25.240000+00:00,2024-05-21 15:51:25.240000+09:00,2024,5,21,6,51,25,240,,,,,,,,,0.2229,0.193604,1.683105,202.819824,-42.541504,-45.227051,,,,,,,,,,,0.0,1.0,1.0,4.0,0.0,0.0,0.0,5.0,0.0,0.058108719999999996,0.15950521333333334,0.9388085733333332,-2.5960286133333326,0.5598959066666677,3.35367836,-3.2724871397443804,28.230050047852146,6.67534621364172,-2.2893330976454354,-12.801796818991214,-12.10262916183985,17.765153544389214,1.2174538449677264,19.05253194484398,1.2164981141059588,0.16479127999999998,0.03409878666666666,0.7442964266666668,0.9431864933333335,0.7630832614891682,0.7143855151429179,0.7143855151429179,0.7143855151429179
LBP07_S04,LBP07,57,58,4,57,57,1716274285.28,2024-05-21 06:51:25.280000+00:00,2024-05-21 15:51:25.280000+09:00,2024,5,21,6,51,25,280,,,,,,,,,-0.001953,0.376465,1.791016,-62.37793,7.385254,-4.577637,,,,,,,,,,,0.0,1.0,1.0,4.0,0.0,0.0,0.0,5.0,0.0,0.06023437333333334,0.15924153333333332,0.94014972,-2.876790333333333,0.2189128266666676,3.775227840000001,2.593416047878273,25.553615511618382,1.5402274180140934,-2.1855964557303045,-11.77965219852648,-12.041020065119287,16.985970740412686,1.2051520928160993,18.207784578151035,1.2111135877245935,-0.062187373333333344,0.21722346666666667,0.85086628,1.13027712,0.8803560247501133,0.7222888727432606,0.7222888727432606,0.7222888727432606
LBP07_S04,LBP07,58,59,4,58,58,1716274285.32,2024-05-21 06:51:25.320000+00:00,2024-05-21 15:51:25.320000+09:00,2024,5,21,6,51,25,320,,,,,,,,,0.390869,0.373535,1.663818,86.669922,40.466309,-11.657715,,,,,,,,,,,0.0,1.0,1.0,4.0,0.0,0.0,0.0,5.0,0.0,0.061139320000000004,0.16409179999999998,0.9416829199999999,-3.3097330399999993,1.1360677733333342,3.6035155999999997,8.114038034779572,22.901081542080423,-3.3428907972528363,-1.8610349343391217,-10.863608936843262,-12.174735697009401,16.42271717626308,1.2099126943348932,17.55224096333843,1.209138086794838,0.32972968,0.20944320000000002,0.7221350800000002,1.2613079600000003,0.8210159497024093,0.7267764671504946,0.7267764671504946,0.7267764671504946
LBP07_S04,LBP07,59,60,4,59,59,1716274285.36,2024-05-21 06:51:25.360000+00:00,2024-05-21 15:51:25.360000+09:00,2024,5,21,6,51,25,360,,,,,,,,,-0.235596,0.452393,1.069824,65.795898,139.038086,-62.011719,,,,,,,,,,,0.0,1.0,1.0,4.0,0.0,0.0,0.0,5.0,0.0,0.06387369333333333,0.16763672,0.9502180800000001,-5.222167933333332,1.258138093333334,3.3618163733333337,13.955515391898215,19.94226223871288,-7.288081995401671,-1.302814318663193,-10.065918447294747,-12.466258976825468,16.075685124242266,1.2023843891590988,17.10080023731796,1.2071410563294658,-0.29946969333333334,0.28475628,0.11960592000000003,0.7038318933333333,0.4302020598784314,0.7138819277038833,0.7138819277038833,0.7138819277038833
LBP07_S04,LBP07,60,61,4,60,60,1716274285.4,2024-05-21 06:51:25.400000+00:00,2024-05-21 15:51:25.400000+09:00,2024,5,21,6,51,25,400,,,,,,,,,-0.387695,0.295898,0.138184,-105.34668,38.757324,-5.432129,,,,,,,,,,,0.0,1.0,1.0,4.0,0.0,0.0,0.0,5.0,0.0,0.06902669333333333,0.17003905333333336,0.9584439866666667,-7.718912733333333,3.186849026666667,2.679850226666667,20.98656017966522,16.719590194168674,-9.998005964134776,-0.4633519114765843,-9.397134839528,-12.86617921539086,15.939241066898251,1.1806550345824123,16.859287342372888,1.2072098910602453,-0.45672169333333335,0.12585894666666664,-0.8202599866666668,1.4028406266666669,0.9472389483882673,0.7236051368990659,0.7236051368990659,0.7236051368990659
LBP07_S04,LBP07,61,62,4,61,61,1716274285.44,2024-05-21 06:51:25.440000+00:00,2024-05-21 15:51:25.440000+09:00,2024,5,21,6,51,25,440,,,,,,,,,0.354736,-0.369141,1.138916,-136.108398,-31.12793,36.987305,,,,,,,,,,,0.0,1.0,1.0,4.0,0.0,0.0,0.0,5.0,0.0,0.06155274666666666,0.15598957333333333,0.9587922933333333,-7.878417933333332,4.952799546666667,1.5169270400000006,29.61497244851125,13.79992826942689,-11.483773469853528,0.7212469864638658,-8.845137708750924,-13.325530154185001,16.01019713158912,1.1911849400656895,16.821122565786872,1.2066800284761918,0.29318325333333334,-0.5251305733333334,0.18012370666666677,0.9984375333333335,0.6278240906399278,0.7197738950487004,0.7197738950487004,0.7197738950487004
LBP07_S04,LBP07,62,63,4,62,62,1716274285.48,2024-05-21 06:51:25.480000+00:00,2024-05-21 15:51:25.480000+09:00,2024,5,21,6,51,25,480,,,,,,,,,0.164795,-0.327148,1.508301,-0.12207,12.817383,37.353516,,,,,,,,,,,0.0,1.0,1.0,4.0,0.0,0.0,0.0,5.0,0.0,0.05841798666666666,0.15809569333333334,0.95328448,-5.616048146666666,5.007324280000001,1.413574186666667,39.30642288937956,12.143190851127821,-11.872552974296296,2.293503902039048,-8.359410074705812,-13.800432273156853,16.296988306793086,1.2130289863881587,16.96204423888576,1.20526129362894,0.10637701333333334,-0.48524369333333334,0.5550165199999999,1.1466372266666665,0.7448629728738062,0.7352739002317595,0.7207388595804353,0.7207388595804353
LBP07_S04,LBP07,63,64,4,63,63,1716274285.52,2024-05-21 06:51:25.520000+00:00,2024-05-21 15:51:25.520000+09:00,2024,5,21,6,51,25,520,,,,,,,,,-0.101807,-0.259033,1.641846,196.411133,-12.573242,-20.935059,,,,,,,,,,,0.0,1.0,1.0,4.0,0.0,0.0,0.0,5.0,0.0,0.060214866666666665,0.16218422666666665,0.9542675466666666,-3.858235653333333,4.37988288,0.9090168933333335,48.54066158617528,12.743723330682213,-11.224292526723998,4.235130365486059,-7.849661141478523,-14.249403974225812,16.81068180858178,1.2112797902234202,17.235992320989347,1.2069924325760284,-0.16202186666666665,-0.42121722666666667,0.6875784533333333,1.2708175466666667,0.8224592189325669,0.7432013735080675,0.7245062802971808,0.7245062802971808
LBP07_S04,LBP07,64,65,4,64,64,1716274285.56,2024-05-21 06:51:25.560000+00:00,2024-05-21 15:51:25.560000+09:00,2024,5,21,6,51,25,560,,,,,,,,,0.178223,0.856689,1.658447,224.67041,-30.273438,-27.46582,,,,,,,,,,,0.0,1.0,1.0,4.0,0.0,0.0,0.0,5.0,0.0,0.06073244,0.16527016,0.9595084266666667,-3.6816405999999993,4.118652413333334,0.22949214666666687,55.213140948897326,16.208832096799732,-9.461583063149087,6.443656003441952,-7.201307857606534,-14.627867296751775,17.531515599117473,1.2145351367310937,17.57468657138913,1.2068282905229042,0.11749056,0.6914188400000001,0.6989385733333333,1.5078479733333334,0.9901409865717582,0.7482451663780688,0.7339932340927015,0.7339932340927015
LBP07_S04,LBP07,65,66,4,65,65,1716274285.6,2024-05-21 06:51:25.600000+00:00,2024-05-21 15:51:25.600000+09:00,2024,5,21,6,51,25,600,,,,,,,,,0.093506,0.636475,1.775635,-13.73291,25.695801,-28.625488,,,,,,,,,,,0.0,1.0,1.0,4.0,0.0,0.0,0.0,5.0,0.0,0.058431013333333344,0.16224933333333336,0.9608332933333332,-2.3103840799999995,4.091796946666666,-0.24820966666666644,57.23613480967383,22.448423151072593,-6.434297318961185,8.733101395828905,-6.303370931563631,-14.885239189510223,18.37307515958178,1.221213375493326,17.891979700492307,1.208297375192039,0.03507498666666666,0.47422566666666666,0.8148017066666668,1.3241023600000001,0.9434098042749102,0.7597816417319574,0.7412144951334673,0.7412144951334673
LBP07_S04,LBP07,66,67,4,66,66,1716274285.64,2024-05-21 06:51:25.640000+00:00,2024-05-21 15:51:25.640000+09:00,2024,5,21,6,51,25,640,,,,,,,,,0.040283,-0.153564,1.820801,-30.517578,57.434082,-27.22168,,,,,,,,,,,0.0,1.0,1.0,4.0,0.0,0.0,0.0,5.0,0.0,0.05807618666666667,0.15241534666666667,0.9700683200000001,-0.7609049199999997,3.2039388800000004,0.12532549333333354,53.04224511112915,30.582699095377386,-2.0539208290162914,10.854791200274072,-5.080062967748535,-14.967396022670874,19.174370275378052,1.2032664964952093,18.09285249896061,1.2140901750384905,-0.01779318666666667,-0.3059793466666667,0.8507326799999998,1.1745052133333331,0.9042599465299218,0.7606550470051755,0.746649343513349,0.746649343513349
LBP07_S04,LBP07,67,68,4,67,67,1716274285.68,2024-05-21 06:51:25.680000+00:00,2024-05-21 15:51:25.680000+09:00,2024,5,21,6,51,25,680,,,,,,,,,-0.012939,0.454834,1.251709,-40.893555,58.837891,9.399414,,,,,,,,,,,0.0,1.0,1.0,4.0,0.0,0.0,0.0,5.0,0.0,0.06081706666666667,0.16966794666666668,0.9737760000000001,0.18391929333333376,2.946777426666667,0.1253254933333336,41.86874669977221,39.0809088854373,3.5975538280821793,12.52954106826496,-3.516826612331043,-14.823493869547587,19.725451561448548,1.2224634822869815,18.08631940272337,1.2161055179717357,-0.07375606666666668,0.28516605333333334,0.2779329999999999,0.6368551199999999,0.40497702136398706,0.7623827047919016,0.7356276557020793,0.7356276557020793
LBP07_S04,LBP07,68,69,4,68,68,1716274285.72,2024-05-21 06:51:25.720000+00:00,2024-05-21 15:51:25.720000+09:00,2024,5,21,6,51,25,720,,,,,,,,,0.236816,-0.00415,1.383545,104.797363,16.235352,16.052246,,,,,,,,,,,0.0,1.0,1.0,4.0,0.0,0.0,0.0,5.0,0.0,0.06633465333333334,0.17733396,0.9785644133333333,-2.578124973333333,3.722330813333333,-0.08951825333333317,23.903154054318026,46.06995350702337,10.242872075538294,13.48566723043768,-1.6740284720501084,-14.413778986526054,19.809659680260918,1.2082712738036527,17.802015033587875,1.215698868908588,0.17048134666666664,-0.18148396,0.4049805866666667,0.7569458933333333,0.47540466223569927,0.745223893523092,0.7274956871562549,0.7274956871562549
LBP07_S04,LBP07,69,70,4,69,69,1716274285.76,2024-05-21 06:51:25.760000+00:00,2024-05-21 15:51:25.760000+09:00,2024,5,21,6,51,25,760,,,,,,,,,0.148193,0.179443,1.600586,-61.401367,47.973633,67.687988,,,,,,,,,,,0.0,1.0,1.0,4.0,0.0,0.0,0.0,5.0,0.0,0.061582040000000005,0.16889645333333334,0.9810644133333333,-4.033203106666667,4.881998786666666,0.16276040000000014,0.40381766996652485,49.726952628088995,17.460715192917466,13.501819937236341,0.31504963307345135,-13.715350378809356,19.24861641527407,1.217075235850445,17.211266128852245,1.2152874889099048,0.08661095999999999,0.010546546666666656,0.6195215866666668,0.7166790933333335,0.625635424496326,0.7273693078398142,0.7244090125301965,0.7244090125301965
LBP07_S04,LBP07,70,71,4,70,70,1716274285.8,2024-05-21 06:51:25.800000+00:00,2024-05-21 15:51:25.800000+09:00,2024,5,21,6,51,25,800,,,,,,,,,0.129395,0.488037,1.25415,112.976074,22.888184,30.334473,,,,,,,,,,,0.0,1.0,1.0,4.0,0.0,0.0,0.0,5.0,0.0,0.06030925333333333,0.1773046533333333,0.9814843333333333,-5.143229146666666,5.620931079999999,0.5354817600000001,-26.216431832117383,48.68478471472282,24.754763065886173,12.453162663951646,2.2624410216623643,-12.72515985617391,17.947969051581293,1.2385830330469292,16.349813219525647,1.2140459274749629,0.06908574666666667,0.3107323466666667,0.2726656666666668,0.6524837600000002,0.4191348201190665,0.7153377717894359,0.715430359812222,0.715430359812222
LBP07_S04,LBP07,71,72,4,71,71,1716274285.84,2024-05-21 06:51:25.840000+00:00,2024-05-21 15:51:25.840000+09:00,2024,5,21,6,51,25,840,,,,,,,,,0.140381,0.090576,1.727539,-47.607422,72.509766,23.803711,,,,,,,,,,,0.0,1.0,1.0,4.0,0.0,0.0,0.0,5.0,0.0,0.060374359999999995,0.16251624,0.9885286133333335,-8.33251952,5.91634124,1.4111328133333334,-52.48850943769091,42.392538266135105,31.582348544558062,10.35362228644401,3.9581425523077685,-11.461865914391588,15.944866169216699,1.2113383693981405,15.317621356726619,1.210034589542556,0.08000664000000002,-0.07194024,0.7390103866666664,0.8909572666666664,0.7468017221301535,0.7104153554860823,0.7163266844498772,0.7163266844498772
LBP07_S04,LBP07,72,73,4,72,72,1716274285.88,2024-05-21 06:51:25.880000+00:00,2024-05-21 15:51:25.880000+09:00,2024,5,21,6,51,25,880,,,,,,,,,0.132812,0.016357,1.032471,30.822754,88.562012,-13.122559,,,,,,,,,,,0.0,1.0,1.0,4.0,0.0,0.0,0.0,5.0,0.0,0.06271159999999999,0.16771481333333335,0.9888183333333335,-5.170898426666666,4.85351572,1.1580403733333333,-74.33342320584842,31.358211102649946,37.33519163961021,7.380285358210072,5.212470996413766,-9.96845824880718,13.453944615438127,1.2089624957566814,14.222165022881546,1.206513365884789,0.07010040000000002,-0.15135781333333334,0.04365266666666645,0.2651108799999998,0.1724204426520222,0.6920545351463646,0.7012181777332702,0.7012181777332702
LBP07_S04,LBP07,73,74,4,73,73,1716274285.92,2024-05-21 06:51:25.920000+00:00,2024-05-21 15:51:25.920000+09:00,2024,5,21,6,51,25,920,,,,,,,,,-0.282715,0.534668,0.250977,-55.175781,63.903809,-21.057129,,,,,,,,,,,0.0,1.0,1.0,4.0,0.0,0.0,0.0,5.0,0.0,0.06344076,0.16875322666666667,0.9928906000000001,-7.159016919999999,4.680175866666666,2.176106786666667,-87.91057148255778,17.179856191243815,41.32908415312141,3.8638624989077606,5.899665244063518,-8.315294882682323,10.903192761225476,1.2071659902365885,13.127138039389902,1.2020275422045266,-0.34615576,0.36591477333333333,-0.7419136000000001,1.4539841333333334,0.8967459068151482,0.7050298526112235,0.7065027109516994,0.7065027109516994
LBP07_S04,LBP07,74,75,4,74,74,1716274285.96,2024-05-21 06:51:25.960000+00:00,2024-05-21 15:51:25.960000+09:00,2024,5,21,6,51,25,960,,,,,,,,,-0.135498,-0.057617,0.00293,-325.98877,-30.151367,99.243164,,,,,,,,,,,0.0,1.0,1.0,4.0,0.0,0.0,0.0,5.0,0.0,0.06529297333333334,0.17110674666666667,0.9971777066666667,-7.020670559999998,5.7031250799999995,1.5738932400000005,-90.71318731648505,2.2916803018087997,42.880097119815716,0.2353350062483588,5.99133245613587,-6.600090997889694,8.91698650585149,1.2021195223816745,12.069757338897961,1.1986673573380056,-0.20079097333333334,-0.22872374666666667,-0.9942477066666667,1.4237624266666669,1.0397884734277982,0.7163339858221215,0.7152733889115966,0.7152733889115966
LBP07_S04,LBP07,75,76,4,75,75,1716274286.0,2024-05-21 06:51:26+00:00,2024-05-21 15:51:26+09:00,2024,5,21,6,51,26,0,6.0,51.0,26.0,40.548027,141.547256,3.677,3.0,15.0,-0.00708,-0.134033,0.186523,-227.355957,-52.429199,67.749023,-252.0,-47.0,383.0,1164.0,0.0,1019.200012,24.0,0.061441,-49.391544,3.909375,1.0,1.0,1.0,4.0,0.0,0.0,0.0,4.0,0.0,0.06688802666666667,0.16467120000000002,1.0049218533333333,-9.031575506666666,6.49820972,1.8660481866666672,-82.53422836754419,-10.561406088400556,41.490701734225084,-3.066034128453409,5.568876212599848,-4.940462928520691,8.051156531591516,1.1810999961692559,11.096530697123274,1.197808011763581,-0.07396802666666667,-0.29870420000000003,-0.8183988533333333,1.19107108,0.8743409810845626,0.7141616614425527,0.7193520451211598,0.7193520451211598
LBP07_S04,LBP07,76,77,4,76,76,1716274286.04,2024-05-21 06:51:26.040000+00:00,2024-05-21 15:51:26.040000+09:00,2024,5,21,6,51,26,40,,,,,,,,,0.126709,-0.649902,0.667725,-198.791504,-59.020996,97.167969,,,,,,,,,,,1.0,1.0,1.0,4.0,0.0,0.0,0.0,4.0,0.0,0.07057617333333334,0.1674902,1.0167089733333334,-7.063802066666667,6.892903733333332,1.8277994933333337,-65.83021400942117,-18.98909582825243,37.07383083861847,-5.699242688830256,4.809312379469751,-3.457509694975952,8.219806936927341,1.1680542599175423,10.281106107943595,1.1914522225447821,0.05613282666666665,-0.8173922,-0.3489839733333334,1.222509,0.8905451793670834,0.7148488617699756,0.723631873477308,0.723631873477308
LBP07_S04,LBP07,77,78,4,77,77,1716274286.08,2024-05-21 06:51:26.080000+00:00,2024-05-21 15:51:26.080000+09:00,2024,5,21,6,51,26,80,,,,,,,,,0.351807,-0.016602,1.172119,128.723145,-11.535645,13.549805,,,,,,,,,,,1.0,1.0,1.0,4.0,0.0,0.0,0.0,4.0,0.0,0.06886393333333334,0.16787757333333334,1.01862304,-6.9514973866666665,8.662923253333334,1.0449218800000004,-45.17580621435345,-21.557198495592257,30.08700496466073,-7.5062749374043936,3.9470244396460608,-2.2540294963895224,8.775181726532086,1.1776052454843573,9.720688299746508,1.1857632665704243,0.28294306666666663,-0.18447957333333334,0.15349595999999988,0.6209185999999999,0.37101280528885794,0.7035949321266719,0.7150314083995409,0.7150314083995409
LBP07_S04,LBP07,78,79,4,78,78,1716274286.12,2024-05-21 06:51:26.120000+00:00,2024-05-21 15:51:26.120000+09:00,2024,5,21,6,51,26,120,,,,,,,,,0.016602,0.126465,1.388672,143.249512,1.037598,-22.216797,,,,,,,,,,,1.0,1.0,1.0,4.0,0.0,0.0,0.0,4.0,0.0,0.06890625333333332,0.16656897333333334,1.0167447866666668,-5.6315104,7.865397199999999,0.586751306666667,-25.913411359847064,-18.14444535656846,21.485655099216423,-8.542811391798276,3.2212466253833223,-1.3946032924208653,9.235852675341512,1.1746694251384415,9.512745698796095,1.1767499923979963,-0.05230425333333332,-0.04010397333333335,0.3719272133333331,0.4643354399999998,0.3777220083762355,0.6885537086701159,0.7070002322085098,0.7070002322085098
LBP07_S04,LBP07,79,80,4,79,79,1716274286.16,2024-05-21 06:51:26.160000+00:00,2024-05-21 15:51:26.160000+09:00,2024,5,21,6,51,26,160,,,,,,,,,-0.022705,0.739258,1.400879,133.605957,-83.618164,26.611328,,,,,,,,,,,1.0,1.0,1.0,4.0,0.0,0.0,0.0,4.0,0.0,0.06609374666666666,0.1766178,1.0141341066666667,-4.311523413333333,7.176920626666665,0.08382161333333361,-12.529451755701192,-9.964951792939582,12.506820013872119,-9.043989462026325,2.822648553665739,-0.8943304918659806,9.51634999752719,1.2084817801062004,9.718430467835287,1.1722506251132494,-0.08879874666666666,0.5626401999999999,0.3867448933333333,1.0381838399999999,0.6884917026261261,0.6970191204273959,0.7065698012879892,0.7065698012879892
LBP07_S04,LBP07,80,81,4,80,80,1716274286.2,2024-05-21 06:51:26.200000+00:00,2024-05-21 15:51:26.200000+09:00,2024,5,21,6,51,26,200,,,,,,,,,0.037109,0.669922,1.455566,-24.597168,-17.51709,-27.34375,,,,,,,,,,,1.0,1.0,1.0,4.0,0.0,0.0,0.0,4.0,0.0,0.07065104,0.17107092000000002,1.0138509066666668,-7.312011693333332,6.411132866666666,0.38655598666666696,-7.44026479406402,0.7363405994549497,4.381976983958981,-9.341600053788886,2.8521021776439373,-0.7190514125076213,9.793723159784486,1.1750251408589396,10.328963823668037,1.1636837520227965,-0.033542039999999995,0.49885108,0.44171509333333314,0.9741082133333332,0.6671504269225969,0.7010009936374779,0.7056739064160485,0.7056739064160485
LBP07_S04,LBP07,81,82,4,81,81,1716274286.24,2024-05-21 06:51:26.240000+00:00,2024-05-21 15:51:26.240000+09:00,2024,5,21,6,51,26,240,,,,,,,,,0.172119,0.268555,0.934326,-45.654297,107.23877,-33.26416,,,,,,,,,,,1.0,1.0,1.0,4.0,0.0,0.0,0.0,4.0,0.0,0.07677734666666668,0.17573238666666666,1.0088997333333334,-10.339355439999999,7.749023493333333,0.7080078133333337,-10.639874417569684,11.233060001783327,-1.903464303823942,-9.767195030491674,3.30142457771527,-0.795189984660579,10.340688087245848,1.1544488096545618,11.26699642380278,1.162037872543467,0.09534165333333332,0.09282261333333333,-0.07457373333333339,0.262738,0.15253625834415285,0.6765791135116772,0.6933819586811175,0.6933819586811175
LBP07_S04,LBP07,82,83,4,82,82,1716274286.28,2024-05-21 06:51:26.280000+00:00,2024-05-21 15:51:26.280000+09:00,2024,5,21,6,51,26,280,,,,,,,,,-0.632324,-0.072998,0.212158,-169.555664,89.355469,18.310547,,,,,,,,,,,1.0,1.0,1.0,4.0,0.0,0.0,0.0,4.0,0.0,0.07955404,0.16554357333333336,1.0087923066666666,-7.644856733333334,8.177083399999999,-0.14811197333333292,-20.213557389729843,18.965587534810584,-5.731077217712556,-10.575737326080867,4.060048079107694,-1.0244330733690812,11.374518605933991,1.1188297540323995,12.452593226873072,1.1621008487739535,-0.71187804,-0.23854157333333337,-0.7966343066666666,1.74705392,1.0946682806224286,0.6851516037465697,0.7021055743754938,0.7021055743754938
LBP07_S04,LBP07,83,84,4,83,83,1716274286.32,2024-05-21 06:51:26.320000+00:00,2024-05-21 15:51:26.320000+09:00,2024,5,21,6,51,26,320,,,,,,,,,0.42627,0.441406,0.438965,-39.123535,-59.020996,45.043945,,,,,,,,,,,1.0,1.0,1.0,4.0,0.0,0.0,0.0,4.0,0.0,0.07535808,0.17615554666666666,1.01496744,-6.944173146666667,7.542317773333332,-0.9261067733333328,-33.33919655299179,22.10391711988874,-6.850089034474566,-11.90930518820054,4.944204763903244,-1.2984366347480638,12.960040451617413,1.1621723173891203,13.863990044282502,1.1608042755138355,0.35091192,0.26525045333333336,-0.5760024399999999,1.1921648133333331,0.7247591251426772,0.6813013307641804,0.7025875648173487,0.7025875648173487
LBP07_S04,LBP07,84,85,4,84,84,1716274286.36,2024-05-21 06:51:26.360000+00:00,2024-05-21 15:51:26.360000+09:00,2024,5,21,6,51,26,360,,,,,,,,,0.330322,-0.661377,1.225342,-221.130371,52.55127,19.104004,,,,,,,,,,,1.0,1.0,1.0,4.0,0.0,0.0,0.0,4.0,0.0,0.08169272000000001,0.16897130666666668,1.0272395733333333,-6.475423146666667,7.415364653333333,-1.1189778666666663,-47.2734762133758,19.87707751419849,-5.320808597424454,-13.80024423673557,5.7392878644711836,-1.511268978645042,15.022320064178981,1.116450791477147,15.524374673947932,1.160316738846543,0.24862928,-0.8303483066666667,0.19810242666666666,1.2770800133333333,0.8891228265592676,0.6996581614314138,0.7064737161036388,0.7064737161036388
LBP07_S04,LBP07,85,86,4,85,85,1716274286.4,2024-05-21 06:51:26.400000+00:00,2024-05-21 15:51:26.400000+09:00,2024,5,21,6,51,26,400,,,,,,,,,0.251221,0.754883,0.974609,200.744629,-13.73291,-32.714844,,,,,,,,,,,1.0,1.0,1.0,4.0,0.0,0.0,0.0,4.0,0.0,0.07381512,0.17359045333333334,1.0355436133333333,-5.780436173333334,8.949381586666666,-1.0432942666666662,-59.96064869291372,12.628749522667889,-1.4823140003057151,-16.19867018445212,6.244437845377899,-1.5705615386572707,17.431482532938936,1.1646412013759613,17.46245603821479,1.156018734060202,0.17740588000000002,0.5812925466666666,-0.06093461333333339,0.81963304,0.6108083972661772,0.6862009393865303,0.7045213626579763,0.7045213626579763
LBP07_S04,LBP07,86,87,4,86,86,1716274286.44,2024-05-21 06:51:26.440000+00:00,2024-05-21 15:51:26.440000+09:00,2024,5,21,6,51,26,440,,,,,,,,,-0.151367,0.191895,1.352783,-133.605957,-23.498535,3.173828,,,,,,,,,,,1.0,1.0,1.0,4.0,0.0,0.0,0.0,4.0,0.0,0.07170574666666667,0.17047522666666665,1.0333626266666667,-6.513671853333333,8.224283933333334,-1.577148426666666,-70.17974672184648,1.6599152067580778,4.020309565352678,-19.00586005332598,6.310834453648222,-1.4097491560431636,20.075774967630267,1.1686840222224046,19.683318331670545,1.1519126398815227,-0.22307274666666665,0.021419773333333364,0.3194203733333334,0.5639128933333334,0.3901917886058961,0.6766956473051691,0.6982347711769347,0.6982347711769347
LBP07_S04,LBP07,87,88,4,87,87,1716274286.48,2024-05-21 06:51:26.480000+00:00,2024-05-21 15:51:26.480000+09:00,2024,5,21,6,51,26,480,,,,,,,,,-0.013184,0.283447,1.189941,-53.344727,-13.61084,-47.485352,,,,,,,,,,,1.0,1.0,1.0,4.0,0.0,0.0,0.0,4.0,0.0,0.07261069333333332,0.17069333333333336,1.0357096266666668,-7.272949200000001,8.018392013333333,-0.6486002533333327,-77.38521420938835,-11.05003860315165,10.194916992534212,-22.101268621701514,5.868832909522156,-1.001952476341795,22.889149900626403,1.1646395128831772,22.15492735727146,1.1485128200700543,-0.08579469333333332,0.11275366666666664,0.15423137333333314,0.3527797333333331,0.20943121847333188,0.65527837712915,0.6952761386804547,0.6886503877905895
LBP07_S04,LBP07,88,89,4,88,88,1716274286.52,2024-05-21 06:51:26.520000+00:00,2024-05-21 15:51:26.520000+09:00,2024,5,21,6,51,26,520,,,,,,,,,-0.153076,0.081543,0.482422,-49.194336,63.171387,-23.864746,,,,,,,,,,,1.0,1.0,1.0,4.0,0.0,0.0,0.0,4.0,0.0,0.07338869333333334,0.17510738666666667,1.0374674400000001,-6.403808573333334,8.270670653333333,-0.5745442666666662,-81.47005291307703,-23.183502587969365,15.74478173938529,-25.360070738224596,4.941492806003381,-0.3721612067663834,25.83969897199579,1.1697940584655175,24.810882714811928,1.1517763439201032,-0.22646469333333333,-0.09356438666666667,-0.5550454400000001,0.8750745200000001,0.6067256317674934,0.6466490336425471,0.6949252035753074,0.6870749117132223
LBP07_S04,LBP07,89,90,4,89,89,1716274286.56,2024-05-21 06:51:26.560000+00:00,2024-05-21 15:51:26.560000+09:00,2024,5,21,6,51,26,560,,,,,,,,,-0.162598,0.396484,-0.272217,-73.120117,-31.188965,39.794922,,,,,,,,,,,1.0,1.0,1.0,4.0,0.0,0.0,0.0,4.0,0.0,0.07232098666666667,0.1704133866666667,1.0355794133333331,-6.98893228,8.37646492,-0.9041341066666663,-82.59538917950827,-32.471492137481924,19.26998059043592,-28.663886305404926,3.6426331205041036,0.3986380168510534,28.89716364019577,1.1655017322427907,27.56459810044077,1.1521894911042754,-0.23491898666666666,0.2260706133333333,-1.307796413333333,1.768786013333333,1.3478228040944156,0.6609563063434534,0.704600736360761,0.6995418530789052
LBP07_S04,LBP07,90,91,4,90,90,1716274286.6,2024-05-21 06:51:26.600000+00:00,2024-05-21 15:51:26.600000+09:00,2024,5,21,6,51,26,600,,,,,,,,,-0.01123,0.026367,-0.016846,-220.703125,-58.837891,84.533691,,,,,,,,,,,1.0,1.0,1.0,4.0,0.0,0.0,0.0,4.0,0.0,0.07518881333333333,0.1625618266666667,1.0406803199999999,-6.369628893333333,6.986490960000001,-0.23763019999999954,-81.09282332387244,-37.12458863565735,19.612490813822365,-31.907599238359822,2.1576495750778095,1.183137649403948,32.002346094342066,1.1339641990721459,30.32284740882879,1.1572148979001589,-0.08641881333333333,-0.13619482666666669,-1.0575263199999998,1.2801399599999999,1.0697565889497698,0.6660101777304479,0.7128959097312025,0.7063976815209583
LBP07_S04,LBP07,91,92,4,91,91,1716274286.64,2024-05-21 06:51:26.640000+00:00,2024-05-21 15:51:26.640000+09:00,2024,5,21,6,51,26,640,,,,,,,,,0.25708,-0.575439,0.46167,-165.771484,-99.060059,73.364258,,,,,,,,,,,1.0,1.0,1.0,4.0,0.0,0.0,0.0,4.0,0.0,0.08050132,0.168138,1.0477994533333332,-5.042317706666668,6.9132487733333345,-0.5493163999999995,-77.35334774358176,-36.25838807032777,16.22065311021526,-35.00173314810309,0.7073140522646988,1.8319637738125585,35.05677834325498,1.1204506115398793,32.990332884519475,1.1541920016155764,0.17657868,-0.743577,-0.5861294533333332,1.5062851333333334,0.9631378516206154,0.6683652939340756,0.7145101704696256,0.7110656846136792
LBP07_S04,LBP07,92,93,4,92,92,1716274286.68,2024-05-21 06:51:26.680000+00:00,2024-05-21 15:51:26.680000+09:00,2024,5,21,6,51,26,680,,,,,,,,,0.300781,-0.187012,0.600342,59.204102,-76.293945,23.803711,,,,,,,,,,,1.0,1.0,1.0,4.0,0.0,0.0,0.0,4.0,0.0,0.07319662666666667,0.16584633333333335,1.0465201466666665,-2.4422200533333336,7.192382893333334,-1.2207031199999994,-71.62065370764644,-30.189565464225282,9.355521690679458,-37.86655929640895,-0.5002685663043125,2.206184641439737,37.934072181338664,1.151464992532888,35.46717453179865,1.1515550483141763,0.22758437333333337,-0.3528583333333334,-0.44617814666666644,1.0266208533333332,0.6126814743006395,0.6766734720515417,0.7195280884217216,0.7093088237152322
LBP07_S04,LBP07,93,94,4,93,93,1716274286.72,2024-05-21 06:51:26.720000+00:00,2024-05-21 15:51:26.720000+09:00,2024,5,21,6,51,26,720,,,,,,,,,0.380615,0.465332,0.691162,70.739746,-9.338379,-22.155762,,,,,,,,,,,1.0,1.0,1.0,4.0,0.0,0.0,0.0,4.0,0.0,0.07263673333333333,0.17158526666666668,1.0298892933333335,2.3885091199999997,5.399576906666667,-2.137044266666666,-63.724044208039956,-20.454219538497977,0.016293635753838007,-40.41552106473055,-1.3184373478442315,2.2068363868698904,40.49719430790585,1.1663037892308425,37.646746330281,1.1456797888053418,0.30797826666666667,0.29374673333333334,-0.3387272933333334,0.9404522933333335,0.5439429522771069,0.679415003653198,0.712319448588145,0.7064076680759669
LBP07_S04,LBP07,94,95,4,94,94,1716274286.76,2024-05-21 06:51:26.760000+00:00,2024-05-21 15:51:26.760000+09:00,2024,5,21,6,51,26,760,,,,,,,,,-0.039551,0.149658,1.342529,-13.793945,-2.197266,-84.533691,,,,,,,,,,,1.0,1.0,1.0,4.0,0.0,0.0,0.0,4.0,0.0,0.07377932,0.17460609333333335,1.0151171600000002,-2.496744786666667,5.180664146666667,-0.7495117066666661,-52.94450147506611,-9.471696364666803,-10.39679641508417,-42.533301123733196,-1.6973052024309037,1.7909645302665236,42.604813148059165,1.1667048594359823,39.42089529230442,1.1338750133751652,-0.11333032,-0.024948093333333338,0.3274118399999999,0.46569025333333325,0.34736822215691615,0.6682843155596215,0.6978268116997179,0.7002173328015004
LBP07_S04,LBP07,95,96,4,95,95,1716274286.8,2024-05-21 06:51:26.800000+00:00,2024-05-21 15:51:26.800000+09:00,2024,5,21,6,51,26,800,,,,,,,,,0.117432,0.685791,1.290527,-5.92041,-10.498047,-46.386719,,,,,,,,,,,1.0,1.0,1.0,4.0,0.0,0.0,0.0,4.0,0.0,0.07637697333333335,0.16549476,1.0057063466666665,-2.735188786666667,4.6573894000000005,-0.5940755066666661,-38.24567034641324,0.08860424391174526,-20.523867827027434,-44.06312793758973,-1.693761032674434,0.9700098171854262,44.10633728984581,1.1344122385301358,40.69513074553606,1.1266203676814839,0.04105502666666665,0.5202962400000001,0.2848206533333335,0.8461719200000002,0.5945725331176721,0.6753018240795657,0.6953197979345009,0.6984267429763508
LBP07_S04,LBP07,96,97,4,96,96,1716274286.84,2024-05-21 06:51:26.840000+00:00,2024-05-21 15:51:26.840000+09:00,2024,5,21,6,51,26,840,,,,,,,,,0.180176,0.291992,1.143799,-92.102051,36.621094,-51.025391,,,,,,,,,,,1.0,1.0,1.0,4.0,0.0,0.0,0.0,4.0,0.0,0.0725456,0.16043617333333335,0.9972167733333334,-3.8435872266666666,4.121907626666668,-0.13834633333333277,-18.927435985573485,6.057479793059951,-29.383569356554794,-44.82022537701267,-1.451461840952036,-0.20533295707676558,44.84419144042194,1.1423144892084014,41.40978179468327,1.122581170839714,0.1076304,0.13155582666666663,0.14658222666666665,0.38576845333333326,0.2244495215157922,0.6544077360549914,0.6824115457705368,0.6905271226186749
LBP07_S04,LBP07,97,98,4,97,97,1716274286.88,2024-05-21 06:51:26.880000+00:00,2024-05-21 15:51:26.880000+09:00,2024,5,21,6,51,26,880,,,,,,,,,0.086182,0.377441,0.48999,-169.433594,149.230957,-16.906738,,,,,,,,,,,1.0,1.0,1.0,4.0,0.0,0.0,0.0,4.0,0.0,0.07969729333333334,0.1604264,0.9965950266666668,-4.4490559733333335,2.5268555466666673,1.0652669466666673,4.532859806956774,7.39212965378973,-36.4691426562504,-44.638910984734395,-1.1557766548004467,-1.6640986633267816,44.68486788544987,1.1058869177948365,41.55783802076506,1.1189051826973635,0.006484706666666659,0.21701460000000003,-0.5066050266666668,0.7301043333333335,0.5511678882859985,0.6695576338803503,0.6808060845133574,0.6882425450066637
LBP07_S04,LBP07,98,99,4,98,98,1716274286.92,2024-05-21 06:51:26.920000+00:00,2024-05-21 15:51:26.920000+09:00,2024,5,21,6,51,26,920,,,,,,,,,-0.608398,-0.912354,-0.045166,-132.080078,50.292969,-17.39502,,,,,,,,,,,1.0,1.0,1.0,4.0,0.0,0.0,0.0,4.0,0.0,0.08719077333333333,0.15380205333333333,1.0113704133333332,-2.1166992,2.5699870666666675,1.4664713733333339,29.899837481186772,4.45156589729215,-41.602832068463584,-43.44291748548692,-0.9777140189087606,-3.328211946065325,43.58118859223011,1.0517463041637476,41.18997230534386,1.1092886585117785,-0.6955887733333334,-1.0661560533333334,-1.0565364133333333,2.81828124,1.6543281610206437,0.6998609240485701,0.7024453883298969,0.7038245710714053
LBP07_S04,LBP07,99,100,4,99,99,1716274286.96,2024-05-21 06:51:26.960000+00:00,2024-05-21 15:51:26.960000+09:00,2024,5,21,6,51,26,960,,,,,,,,,0.22168,-0.188232,-0.059082,71.289062,-121.459961,38.513184,,,,,,,,,,,1.0,1.0,1.0,4.0,0.0,0.0,0.0,4.0,0.0,0.08695965333333333,0.16963538666666667,1.0120572666666667,1.5201823066666664,3.3162435866666673,0.766601573333334,53.288230090951004,-1.2021006911231389,-44.677485160777714,-41.311388281848885,-1.0257980465536862,-5.115311352496434,41.6395181725122,1.0929552753059792,40.40360700012189,1.1010347109777503,0.13472034666666666,-0.3578673866666667,-1.0711392666666668,1.563727,1.137346898198092,0.703763261039382,0.7100486234307517,0.710705877851194
LBP07_S04,LBP07,100,101,4,100,100,1716274287.0,2024-05-21 06:51:27+00:00,2024-05-21 15:51:27+09:00,2024,5,21,6,51,27,0,6.0,51.0,27.0,40.547989,141.547516,3.664,3.0,15.0,0.636719,0.298828,0.625244,212.646484,-100.158691,-22.277832,-243.0,-19.0,404.0,981.0,0.0,1019.400024,24.07,0.063423,-51.047798,3.909375,0.0,1.0,1.0,4.0,0.0,0.0,0.0,5.0,0.0,0.08702150666666666,0.17002274666666667,1.0120019199999999,-0.6762695200000002,4.273274840000001,0.5891927200000006,70.1045469389505,-7.411621867906535,-45.465939288261595,-38.50720640429086,-1.3222629212699477,-6.933948924026898,39.14885658581408,1.093572230654448,39.32262974080926,1.0903563113752575,0.5496974933333334,0.1288052533333333,-0.38675791999999987,1.0652606666666666,0.6843535753877089,0.6961637648115078,0.7051627131270303,0.710294123125202
LBP07_S04,LBP07,101,102,4,101,101,1716274287.04,2024-05-21 06:51:27.040000+00:00,2024-05-21 15:51:27.040000+09:00,2024,5,21,6,51,27,40,,,,,,,,,0.294189,0.156982,1.300781,117.06543,42.114258,-88.195801,,,,,,,,,,,0.0,1.0,1.0,4.0,0.0,0.0,0.0,5.0,0.0,0.09090822666666666,0.17344397333333333,1.00916988,-3.2250976533333335,4.861653746666667,0.8406575733333339,76.54568233462605,-12.189479150921253,-43.62885310422592,-35.44537911090582,-1.809842087306798,-8.679103048195934,36.53734060407284,1.0836907301163745,38.07906307188668,1.08148689862217,0.20328077333333333,-0.016461973333333324,0.29161112,0.5113538666666666,0.35585265866743193,0.6747760639835217,0.6948124628767487,0.7048411775181593
LBP07_S04,LBP07,102,103,4,102,102,1716274287.08,2024-05-21 06:51:27.080000+00:00,2024-05-21 15:51:27.080000+09:00,2024,5,21,6,51,27,80,,,,,,,,,-0.441406,-0.053955,1.306152,270.141602,-24.108887,-119.32373,,,,,,,,,,,0.0,1.0,1.0,4.0,0.0,0.0,0.0,5.0,0.0,0.08842124000000001,0.15733721333333336,1.0098958,-3.771972653333333,5.0781251066666675,0.8520508000000007,71.05097392816133,-14.330209440372888,-38.92369867871778,-32.603340153779364,-2.3830504649217135,-10.236050995344645,34.25541502712675,1.0552997506770367,36.802270879557724,1.0720289688325269,-0.52982724,-0.21129221333333337,0.29625619999999997,1.0373756533333334,0.6427511491236375,0.6856455977369129,0.6946202649317924,0.7039004195121819
LBP07_S04,LBP07,103,104,4,103,103,1716274287.12,2024-05-21 06:51:27.120000+00:00,2024-05-21 15:51:27.120000+09:00,2024,5,21,6,51,27,120,,,,,,,,,0.1604,-0.087158,1.554443,201.965332,-123.840332,1.098633,,,,,,,,,,,0.0,1.0,1.0,4.0,0.0,0.0,0.0,5.0,0.0,0.09106771999999999,0.1738053066666667,1.0041145466666668,-3.0574544266666672,4.447428493333334,0.7975260533333338,55.059293229826096,-13.664758674807665,-31.486027427045915,-30.40096842458632,-2.92964081191402,-11.495492092426481,32.6335412556861,1.0837643138905584,35.61245105884494,1.0712689417240544,0.06933228,-0.2609633066666667,0.5503284533333332,0.8806240399999999,0.6130009943096812,0.6950567571742507,0.6918052329221832,0.7025437116733385
LBP07_S04,LBP07,104,105,4,104,104,1716274287.16,2024-05-21 06:51:27.160000+00:00,2024-05-21 15:51:27.160000+09:00,2024,5,21,6,51,27,160,,,,,,,,,0.371582,1.436279,1.036621,-41.320801,13.183594,-55.847168,,,,,,,,,,,0.0,1.0,1.0,4.0,0.0,0.0,0.0,5.0,0.0,0.09469728,0.17059892000000001,1.0084049066666667,-3.21940104,3.9355469866666666,0.5110677200000007,32.68586078189822,-10.918925606236833,-22.00549947878407,-29.09353399331039,-3.366397836163493,-12.375712071577844,31.795040554932953,1.0599208634110577,34.61304273760666,1.078151397150567,0.27688472000000003,1.26568008,0.028216093333333303,1.5707808933333334,1.2959195040592917,0.7193538692315775,0.7081864948294866,0.7112698262672495
LBP07_S04,LBP07,105,106,4,105,105,1716274287.2,2024-05-21 06:51:27.200000+00:00,2024-05-21 15:51:27.200000+09:00,2024,5,21,6,51,27,200,,,,,,,,,-0.085693,0.293457,0.518555,-207.519531,152.22168,-44.494629,,,,,,,,,,,0.0,1.0,1.0,4.0,0.0,0.0,0.0,5.0,0.0,0.09587892,0.16698564000000002,1.0139680533333333,-3.091634106666667,4.03401704,0.07893881333333397,9.392561029226558,-7.280205984797684,-11.679079796154543,-28.71783155214133,-3.6576060755554005,-12.842875263424025,31.67067060061995,1.0457181109992575,33.88025991850455,1.0787830789943889,-0.18157192,0.12647136,-0.4954130533333333,0.8034563333333333,0.5425840584147236,0.7143712144912624,0.70768610406437,0.7088251049940246
LBP07_S04,LBP07,106,107,4,106,106,1716274287.24,2024-05-21 06:51:27.240000+00:00,2024-05-21 15:51:27.240000+09:00,2024,5,21,6,51,27,240,,,,,,,,,-0.291016,-0.413086,0.048096,-159.606934,19.165039,42.785645,,,,,,,,,,,0.0,1.0,1.0,4.0,0.0,0.0,0.0,5.0,0.0,0.09332033333333334,0.16320633333333334,1.0226399333333334,-5.3181966,4.921061306666667,-0.30273435999999937,-9.81270945411643,-3.8784424376858313,-1.9394961152523857,-29.110339930305987,-3.812743773062834,-12.92045510803412,32.07626951713247,1.0477351913119726,33.451832278317944,1.078350398314962,-0.38433633333333334,-0.5762923333333334,-0.9745439333333333,1.9351726,1.195643403601464,0.7560955003015549,0.7163373069066161,0.715779652116988
LBP07_S04,LBP07,107,108,4,107,107,1716274287.28,2024-05-21 06:51:27.280000+00:00,2024-05-21 15:51:27.280000+09:00,2024,5,21,6,51,27,280,,,,,,,,,0.01709,0.311035,0.293701,-109.436035,-22.033691,58.044434,,,,,,,,,,,0.0,1.0,1.0,4.0,0.0,0.0,0.0,5.0,0.0,0.08720054666666667,0.17239904,1.0189094666666665,-3.5758463466666663,5.843912866666668,-1.5926106533333326,-21.881294425088537,-1.4163224304254665,5.937088332064184,-29.985591707309528,-3.8693966702798526,-12.682971574751553,32.78666967832199,1.0982866467101102,33.31944199520505,1.079427520670126,-0.07011054666666666,0.13863596,-0.7252084666666665,0.9339549733333332,0.7416621456458715,0.7419752549024925,0.7135634293245312,0.7161441942793666
LBP07_S04,LBP07,108,109,4,108,108,1716274287.32,2024-05-21 06:51:27.320000+00:00,2024-05-21 15:51:27.320000+09:00,2024,5,21,6,51,27,320,,,,,,,,,0.365479,-0.826172,0.933594,-72.20459,-61.401367,67.810059,,,,,,,,,,,0.0,1.0,1.0,4.0,0.0,0.0,0.0,5.0,0.0,0.07843426666666665,0.1639192266666667,1.0063964533333332,-5.3686523333333325,5.57128916,-1.3053385199999994,-26.318365954676167,-0.09253337156077521,11.179028178394374,-31.038326345496575,-3.8730980051422836,-12.235810447615778,33.587105379847294,1.1205708584288747,33.429938418804184,1.0831059473945541,0.28704473333333336,-0.9900912266666667,-0.07280245333333313,1.3499384133333332,1.033429007367251,0.7543220501914756,0.717811690477828,0.7205509277944762
LBP07_S04,LBP07,109,110,4,109,109,1716274287.36,2024-05-21 06:51:27.360000+00:00,2024-05-21 15:51:27.360000+09:00,2024,5,21,6,51,27,360,,,,,,,,,0.466797,0.260498,0.800293,255.67627,-25.939941,-2.441406,,,,,,,,,,,0.0,1.0,1.0,4.0,0.0,0.0,0.0,5.0,0.0,0.08459637333333334,0.16763993333333335,0.9968228800000001,-5.013834626666667,3.355306080000001,-0.9724934666666661,-24.71447844315601,0.22098221064699025,13.665793215155542,-32.02690548322281,-3.864258716716404,-11.689178719009556,34.31168998149103,1.0992720937441989,33.697541830961804,1.0807535623046103,0.38220062666666665,0.09285806666666666,-0.19652988000000005,0.6715885733333333,0.4396861759281024,0.7363445841662289,0.7180013727988215,0.7167034654401423
LBP07_S04,LBP07,110,111,4,110,110,1716274287.4,2024-05-21 06:51:27.400000+00:00,2024-05-21 15:51:27.400000+09:00,2024,5,21,6,51,27,400,,,,,,,,,-0.095215,0.213867,1.318848,54.80957,5.187988,-28.991699,,,,,,,,,,,0.0,1.0,1.0,4.0,0.0,0.0,0.0,5.0,0.0,0.08599286666666667,0.16616533333333333,1.0096451466666667,-1.9417317600000001,1.5738933200000005,-1.0872395599999995,-19.575470303508766,-0.2767669866352055,13.807978585311684,-32.80992429536316,-3.875329396181812,-11.13685957559709,34.86458018394803,1.0892454238601788,34.02296411989187,1.08773947106982,-0.18120786666666666,0.04770166666666667,0.3092028533333333,0.5381123866666666,0.3615496431392749,0.7263742340011529,0.7062875866938417,0.7119040894631036
LBP07_S04,LBP07,111,112,4,111,111,1716274287.44,2024-05-21 06:51:27.440000+00:00,2024-05-21 15:51:27.440000+09:00,2024,5,21,6,51,27,440,,,,,,,,,-0.109131,0.896729,1.332275,124.450684,-46.875,-35.583496,,,,,,,,,,,0.0,1.0,1.0,4.0,0.0,0.0,0.0,5.0,0.0,0.08477216,0.16584306666666665,1.0340266533333333,2.103678386666667,0.813802173333334,-1.318359346666666,-13.095820882623512,-1.4702771684977165,12.233851149462211,-33.333757130668104,-3.9341404829217206,-10.6475055296186,35.213437772943855,1.0944619536680167,34.31136472036091,1.1011759707395827,-0.19390316000000002,0.7308859333333333,0.2982483466666668,1.2230374400000001,0.8128620788866483,0.743281045612383,0.709988346458776,0.7132501959887508
LBP07_S04,LBP07,112,113,4,112,112,1716274287.48,2024-05-21 06:51:27.480000+00:00,2024-05-21 15:51:27.480000+09:00,2024,5,21,6,51,27,480,,,,,,,,,0.200195,0.018066,1.461426,-243.103027,-9.82666,-5.615234,,,,,,,,,,,0.0,1.0,1.0,4.0,0.0,0.0,0.0,5.0,0.0,0.08819013333333334,0.17155596,1.0579589466666668,8.125813813333334,0.7991537333333342,-2.7970377333333327,-6.435015967452446,-3.2986776971572356,9.456415644506396,-33.591157769366205,-4.06608759080801,-10.269248903838344,35.3603792631182,1.0920840179213178,34.4844706530531,1.1116176912880724,0.11200486666666667,-0.15348996,0.4034670533333331,0.6689618799999998,0.4459707626104003,0.7527426273778657,0.7040105022535079,0.714431634912925
LBP07_S04,LBP07,113,114,4,113,113,1716274287.52,2024-05-21 06:51:27.520000+00:00,2024-05-21 15:51:27.520000+09:00,2024,5,21,6,51,27,520,,,,,,,,,0.163818,0.040771,1.315186,33.26416,88.867188,-8.178711,,,,,,,,,,,0.0,1.0,1.0,4.0,0.0,0.0,0.0,5.0,0.0,0.09470705333333333,0.17050778666666666,1.08965492,11.12304688,2.354329506666667,-3.9282226266666656,0.30894477666092257,-5.582817857698036,5.694185534725392,-33.57879997829977,-4.289400305115931,-10.041481482449328,35.30957537726227,1.060240462991117,34.487747073395404,1.114919725648297,0.06911094666666666,-0.12973678666666666,0.22553107999999988,0.4243788133333332,0.26920665818237366,0.7392418684344609,0.6929454510385039,0.7096974251950252
LBP07_S04,LBP07,114,115,4,114,114,1716274287.56,2024-05-21 06:51:27.560000+00:00,2024-05-21 15:51:27.560000+09:00,2024,5,21,6,51,27,560,,,,,,,,,-0.272217,0.121826,0.248535,16.906738,75.195312,13.793945,,,,,,,,,,,0.0,1.0,1.0,4.0,0.0,0.0,0.0,5.0,0.0,0.08469402666666666,0.18132484000000001,1.0964127333333333,12.927246106666665,5.511881586666667,-5.761718719999999,7.6148269164731275,-7.838783255377782,0.923488731567127,-33.274206901640845,-4.602951635331043,-10.004541933186642,35.0492634442336,1.1297799510631552,34.294029237320395,1.1152785760898758,-0.35691102666666663,-0.05949884000000001,-0.8478777333333334,1.2642876,0.9218580387457013,0.7222032778205123,0.6915797920819828,0.7104682501806782
LBP07_S04,LBP07,115,116,4,115,115,1716274287.6,2024-05-21 06:51:27.600000+00:00,2024-05-21 15:51:27.600000+09:00,2024,5,21,6,51,27,600,,,,,,,,,0.182129,0.206787,0.178467,-5.554199,-83.80127,52.79541,,,,,,,,,,,0.0,1.0,1.0,4.0,0.0,0.0,0.0,5.0,0.0,0.08035157333333333,0.19771156,1.0933170266666667,9.860026053333332,6.042480546666667,-4.613443986666666,15.896485280881476,-9.23186847174695,-4.8875708796649295,-32.638347490405586,-4.972226374200921,-10.200044768373239,34.55467660531035,1.1800831076968858,33.902989201036995,1.1182396785992033,0.10177742666666668,0.00907543999999999,-0.9148500266666668,1.0257028933333334,0.9205387441504477,0.7162345640285395,0.6911223708794937,0.7140087944969815
LBP07_S04,LBP07,116,117,4,116,116,1716274287.64,2024-05-21 06:51:27.640000+00:00,2024-05-21 15:51:27.640000+09:00,2024,5,21,6,51,27,640,,,,,,,,,0.335693,0.177246,0.647705,-32.165527,-57.678223,21.911621,,,,,,,,,,,0.0,1.0,1.0,4.0,0.0,0.0,0.0,5.0,0.0,0.08463868000000001,0.19256833333333334,1.0946028266666668,10.275065106666668,6.57958992,-3.523762999999999,25.007358691142688,-8.75228881642793,-11.506395683985152,-31.63805314275988,-5.322317926858038,-10.660300595732645,33.80732884405437,1.1521523967968674,33.33602701042719,1.1206302155236791,0.25105432,-0.015322333333333354,-0.4468978266666668,0.7132744800000002,0.5128164515387843,0.6982217080252663,0.6832935009796708,0.7090806829881725
LBP07_S04,LBP07,117,118,4,117,117,1716274287.68,2024-05-21 06:51:27.680000+00:00,2024-05-21 15:51:27.680000+09:00,2024,5,21,6,51,27,680,,,,,,,,,0.364502,-0.394287,1.259766,-25.695801,15.136719,-12.390137,,,,,,,,,,,0.0,1.0,1.0,4.0,0.0,0.0,0.0,5.0,0.0,0.08777018666666667,0.18881833333333334,1.0986099866666665,6.6422526133333335,8.221842520000001,-2.8190103999999994,34.065502975373235,-5.558238816858657,-18.284382672568796,-30.27543302374495,-5.544647479532385,-11.391675902635397,32.81943388174505,1.1313069903123574,32.62809647414345,1.1228751821631022,0.2767318133333333,-0.5831053333333334,0.1611560133333334,1.0209931600000002,0.6652545279109539,0.7003246301696788,0.6884990511106102,0.7131269356710406
LBP07_S04,LBP07,118,119,4,118,118,1716274287.72,2024-05-21 06:51:27.720000+00:00,2024-05-21 15:51:27.720000+09:00,2024,5,21,6,51,27,720,,,,,,,,,-0.076172,0.286133,1.222656,29.663086,15.258789,-52.062988,,,,,,,,,,,0.0,1.0,1.0,4.0,0.0,0.0,0.0,5.0,0.0,0.08917318666666667,0.18829749333333332,1.0978515333333334,8.458658866666667,8.723144600000001,-2.250162746666666,41.655518589734854,0.6662213809409384,-24.22119297949933,-28.609212280155553,-5.517998624294747,-12.36052362181537,31.64992701909718,1.1241593628446638,31.818978104563165,1.1250465236143838,-0.16534518666666667,0.09783550666666671,0.12480446666666656,0.38798515999999994,0.22910035359752134,0.6877309262224953,0.6835729649378466,0.7041232744662618
LBP07_S04,LBP07,119,120,4,119,119,1716274287.76,2024-05-21 06:51:27.760000+00:00,2024-05-21 15:51:27.760000+09:00,2024,5,21,6,51,27,760,,,,,,,,,0.304443,0.384521,1.356689,193.17627,-63.415527,-37.658691,,,,,,,,,,,0.0,1.0,1.0,4.0,0.0,0.0,0.0,5.0,0.0,0.08591798666666665,0.18355790666666666,1.0979654666666667,5.402832039999999,9.0356446,-1.8709309733333324,46.33834867697304,9.488335108049661,-28.225940593445067,-26.75567833307663,-5.13846521997276,-13.489561245553173,30.401289618657067,1.1288831188374726,30.94591039679699,1.129361906353984,0.21852501333333335,0.20096309333333334,0.2587235333333333,0.67821164,0.39379844214384596,0.6895881350219726,0.6789362252907971,0.6950805861404694
LBP07_S04,LBP07,120,121,4,120,120,1716274287.8,2024-05-21 06:51:27.800000+00:00,2024-05-21 15:51:27.800000+09:00,2024,5,21,6,51,27,800,,,,,,,,,0.185547,1.140869,1.943115,117.30957,-8.972168,-82.763672,,,,,,,,,,,0.0,1.0,1.0,4.0,0.0,0.0,0.0,5.0,0.0,0.08831706666666667,0.18115881333333334,1.0971484133333333,4.846191413333333,8.059895893333334,-1.2158202933333324,47.26102885077502,19.721308954199824,-29.457741436642962,-24.86523717904563,-4.349612861804767,-14.66787090301889,29.194958277849942,1.1131507931049383,30.038320990619514,1.1279302669559204,0.09722993333333332,0.9597101866666666,0.8459665866666666,1.9029067066666665,1.2830264097376263,0.7171262900867706,0.6962140570831682,0.7025886286519242
LBP07_S04,LBP07,121,122,4,121,121,1716274287.84,2024-05-21 06:51:27.840000+00:00,2024-05-21 15:51:27.840000+09:00,2024,5,21,6,51,27,840,,,,,,,,,-0.154785,-0.590576,1.382812,-34.729004,131.103516,-25.817871,,,,,,,,,,,0.0,1.0,1.0,4.0,0.0,0.0,0.0,5.0,0.0,0.08462890666666668,0.17514970666666665,1.09646156,3.9363606799999995,8.074544333333334,-1.362304666666666,44.583726552939275,29.643866047302943,-27.595194587905386,-23.081888116928056,-3.1638582199126493,-15.771678686535106,28.134132410106396,1.1169116200622458,29.114703142694033,1.1184564450822951,-0.23941390666666668,-0.7657257066666666,0.2863504399999999,1.291490053333333,0.8518517776255179,0.7422223803311597,0.6983150581930755,0.7023484906240777
LBP07_S04,LBP07,122,123,4,122,122,1716274287.88,2024-05-21 06:51:27.880000+00:00,2024-05-21 15:51:27.880000+09:00,2024,5,21,6,51,27,880,,,,,,,,,0.086182,0.479004,1.454834,148.925781,38.513184,-9.033203,,,,,,,,,,,0.0,1.0,1.0,4.0,0.0,0.0,0.0,5.0,0.0,0.08701497333333333,0.17875322666666668,1.09109372,5.608723960000001,7.006836,-0.9716796666666657,39.511478502531126,37.380772056187716,-22.92594775861355,-21.501428976826812,-1.6686273376651406,-16.688716596879647,27.269195567315464,1.1137974324341349,28.181592333143062,1.1105353919119534,-0.0008329733333333339,0.3002507733333333,0.36374028,0.6648240266666666,0.47165475935934026,0.7390418551740935,0.7042997445272218,0.7002180080669361
LBP07_S04,LBP07,123,124,4,123,123,1716274287.92,2024-05-21 06:51:27.920000+00:00,2024-05-21 15:51:27.920000+09:00,2024,5,21,6,51,27,920,,,,,,,,,-0.000732,-0.007812,1.348633,-58.288574,21.911621,-30.578613,,,,,,,,,,,0.0,1.0,1.0,4.0,0.0,0.0,0.0,5.0,0.0,0.08648112,0.17293942666666667,1.0939029733333332,4.0657552133333335,7.35026048,-0.9309895599999991,33.90577462204214,41.324715974491646,-16.233775088656927,-20.145197991945125,-0.015638698685474628,-17.338067600425923,26.578898299600485,1.1033942903871183,27.234641193280083,1.1019107015958147,-0.08721311999999999,-0.1807514266666667,0.2547300266666668,0.5226945733333335,0.32429090802514116,0.6858403650542734,0.6928506445514218,0.6969103805713557
LBP07_S04,LBP07,124,125,4,124,124,1716274287.96,2024-05-21 06:51:27.960000+00:00,2024-05-21 15:51:27.960000+09:00,2024,5,21,6,51,27,960,,,,,,,,,0.086182,0.549805,1.785156,-72.32666,41.381836,49.133301,,,,,,,,,,,0.0,1.0,1.0,4.0,0.0,0.0,0.0,5.0,0.0,0.08586262666666668,0.17708330666666666,1.0971549333333335,6.49576824,7.615559960000001,-1.7179361733333325,29.640724350604838,40.47979763225354,-8.546101871512576,-18.95956901792093,1.6035532066046672,-17.679911675286426,25.97336938245881,1.1154635570825193,26.26161424645653,1.096567499474628,0.0003193733333333171,0.3727216933333333,0.6880010666666665,1.061042133333333,0.7824749391610343,0.671645486692791,0.6877043738660865,0.6972475778514315
LBP07_S04,LBP07,125,126,4,125,125,1716274288.0,2024-05-21 06:51:28+00:00,2024-05-21 15:51:28+09:00,2024,5,21,6,51,28,0,6.0,51.0,28.0,40.547943,141.547775,2.107,3.0,15.0,0.04834,1.026855,1.834229,97.900391,16.418457,7.019043,-247.0,-40.0,390.0,990.0,0.0,1019.099976,24.139999,0.06045,-48.563061,3.909375,0.0,1.0,1.0,4.0,0.0,0.0,0.0,5.0,0.0,0.08883789333333333,0.16980792,1.1108691333333334,7.878417986666666,7.6293946,-1.608072879999999,27.965367773109342,34.665429885485,-0.8520541023436222,-17.840954306996558,2.9901704020240674,-17.713993839380173,25.31849812605555,1.085344888960632,25.246704822612237,1.0976612278790792,-0.04049789333333333,0.8570470800000001,0.7233598666666667,1.6209048400000001,1.1222385100347352,0.689160884078672,0.69266232444509,0.6998287701109109
LBP07_S04,LBP07,126,127,4,126,126,1716274288.04,2024-05-21 06:51:28.040000+00:00,2024-05-21 15:51:28.040000+09:00,2024,5,21,6,51,28,40,,,,,,,,,0.173828,-0.243896,1.649658,25.512695,12.573242,-26.550293,,,,,,,,,,,0.0,1.0,1.0,4.0,0.0,0.0,0.0,5.0,0.0,0.09126302666666668,0.16923500000000002,1.1290201733333334,10.958658866666667,6.8920899066666665,-1.5128580399999991,29.112530187344056,24.579319063850452,6.104898784144507,-16.676453099502794,3.9733431645780852,-17.469797888014394,24.476220748544655,1.0729418650934508,24.175097950699357,1.1018409428301124,0.08256497333333333,-0.413131,0.5206378266666667,1.0163338,0.6697446860847229,0.7017165651753636,0.6882463145794426,0.6971138303096204
LBP07_S04,LBP07,127,128,4,127,127,1716274288.08,2024-05-21 06:51:28.080000+00:00,2024-05-21 15:51:28.080000+09:00,2024,5,21,6,51,28,80,,,,,,,,,0.080566,-0.175049,1.893066,-122.98584,63.476562,34.667969,,,,,,,,,,,0.0,1.0,1.0,4.0,0.0,0.0,0.0,5.0,0.0,0.09755209333333334,0.16932614666666665,1.1561555866666666,11.935221359999998,8.672688866666666,-1.8090819999999992,32.28552579928826,11.732130075577997,11.904740890451892,-15.385032067531263,4.4426283676012055,-16.993608252396317,23.349922483115282,1.0450600871509719,23.036591785071803,1.1025932125766214,-0.01698609333333334,-0.3443751466666667,0.7369104133333333,1.0982716533333332,0.8135844924084535,0.7085498989067563,0.6970977483218346,0.6992634762567803
LBP07_S04,LBP07,128,129,4,128,128,1716274288.12,2024-05-21 06:51:28.120000+00:00,2024-05-21 15:51:28.120000+09:00,2024,5,21,6,51,28,120,,,,,,,,,-0.090576,0.707031,0.968994,80.26123,51.452637,-1.403809,,,,,,,,,,,0.0,1.0,1.0,4.0,0.0,0.0,0.0,5.0,0.0,0.09325521333333334,0.1719531066666667,1.1743717333333334,15.298665373333334,11.416829493333333,-3.312988239999999,36.018333420729405,-1.7543360507018815,16.406033232547593,-13.944298730702087,4.37245492557313,-16.337366923094415,21.919657550861693,1.0707273416327965,21.827900257590255,1.1105762204106164,-0.18383121333333335,0.5350778933333333,-0.20537773333333342,0.92428684,0.6018988953958807,0.7081058149502043,0.7015812860622276,0.697238760264857
LBP07_S04,LBP07,129,130,4,129,129,1716274288.16,2024-05-21 06:51:28.160000+00:00,2024-05-21 15:51:28.160000+09:00,2024,5,21,6,51,28,160,,,,,,,,,-0.059082,-0.218506,0.863281,152.038574,-20.874023,46.447754,,,,,,,,,,,0.0,1.0,1.0,4.0,0.0,0.0,0.0,5.0,0.0,0.08065755999999999,0.1769889066666667,1.1716829333333334,20.1529948,12.52115892,-3.6442056933333324,38.77865936741002,-13.502407634973173,19.626524774910074,-12.393152356005686,3.8323586201742037,-15.552305932098012,20.252195380214065,1.1398204028819856,20.554863076934947,1.1223631407129626,-0.13973955999999998,-0.3954949066666667,-0.30840193333333343,0.8436364000000001,0.5206295403758865,0.677094216402868,0.6982240428172227,0.6978224020206137
LBP07_S04,LBP07,130,131,4,130,130,1716274288.2,2024-05-21 06:51:28.200000+00:00,2024-05-21 15:51:28.200000+09:00,2024,5,21,6,51,28,200,,,,,,,,,0.070801,0.541992,0.256348,314.39209,-101.745605,-45.532227,,,,,,,,,,,0.0,1.0,1.0,4.0,0.0,0.0,0.0,5.0,0.0,0.08709636,0.19950518666666667,1.1745703066666668,19.750976559999998,12.669270893333334,-2.268880173333333,39.56819705477754,-21.3615784999141,21.608604417101763,-10.810424473814585,2.9778954801776396,-14.68796175541394,18.47888955872117,1.1549479426152682,19.23656940150864,1.1315909145726264,-0.016295359999999995,0.34248681333333336,-0.9182223066666668,1.2770044800000002,0.9801504785108281,0.6945968732067124,0.7044840438489873,0.7033230271118175
LBP07_S04,LBP07,131,132,4,131,131,1716274288.24,2024-05-21 06:51:28.240000+00:00,2024-05-21 15:51:28.240000+09:00,2024,5,21,6,51,28,240,,,,,,,,,0.308594,0.420166,0.575195,-163.574219,-58.959961,58.837891,,,,,,,,,,,0.0,1.0,1.0,4.0,0.0,0.0,0.0,5.0,0.0,0.08552734666666667,0.18027666666666667,1.1936556,16.352539066666665,13.70930996,-1.4607747066666656,38.22954166681068,-23.90823945475081,22.323002408464045,-9.281242807142158,2.021565901987607,-13.795041659075379,16.749070753830857,1.124434317527335,17.911443748583913,1.1478535212890635,0.2230666533333333,0.23988933333333332,-0.6184606,1.0814165866666667,0.6998565123143491,0.6747653975552277,0.7154304489283914,0.7024800037894866
LBP07_S04,LBP07,132,133,4,132,132,1716274288.28,2024-05-21 06:51:28.280000+00:00,2024-05-21 15:51:28.280000+09:00,2024,5,21,6,51,28,280,,,,,,,,,0.192871,-0.306885,1.085205,-80.26123,-31.860352,7.080078,,,,,,,,,,,0.0,1.0,1.0,4.0,0.0,0.0,0.0,5.0,0.0,0.07340821333333333,0.18720701333333337,1.1988151066666668,20.146484373333333,14.241536533333331,-0.43375647999999906,35.302678783131974,-20.79085699697725,21.647792358429918,-7.869135655816879,1.1899316221085172,-12.929129964738182,15.182280292499973,1.1936275107740852,16.641215882648048,1.159787377155705,0.11946278666666665,-0.4940920133333334,-0.11361010666666682,0.7271649066666669,0.5208699754974977,0.6659337107492926,0.7039544828258927,0.6976868564661184
LBP07_S04,LBP07,133,134,4,133,133,1716274288.32,2024-05-21 06:51:28.320000+00:00,2024-05-21 15:51:28.320000+09:00,2024,5,21,6,51,28,320,,,,,,,,,0.103516,-0.005859,1.0271,3.540039,0.305176,22.521973,,,,,,,,,,,0.0,1.0,1.0,4.0,0.0,0.0,0.0,5.0,0.0,0.06573893333333333,0.18211261333333334,1.2114583466666666,24.411621093333334,12.48453784,0.5826823200000009,31.5551303959056,-12.782598343044095,19.429774950907156,-6.606930439980655,0.6786276883867535,-12.151938966701897,13.848526493047412,1.2212634934105822,15.506232573725779,1.1787602556111825,0.037777066666666664,-0.18797161333333334,-0.18435834666666673,0.41010702666666676,0.2659857781362395,0.6352359815800522,0.6947790158857639,0.6902864541785694
LBP07_S04,LBP07,134,135,4,134,134,1716274288.36,2024-05-21 06:51:28.360000+00:00,2024-05-21 15:51:28.360000+09:00,2024,5,21,6,51,28,360,,,,,,,,,0.300781,0.45166,1.023193,20.385742,19.40918,28.259277,,,,,,,,,,,0.0,1.0,1.0,4.0,0.0,0.0,0.0,5.0,0.0,0.07053385333333334,0.18754556,1.2164290533333333,25.19856770666667,13.3276368,1.196289093333334,27.513922883582833,-1.5223003516531328,15.59995311363676,-5.5063735246373415,0.6177356743206281,-11.527940842156426,12.790432628195717,1.2077412956791578,14.589597532322628,1.1986903424235285,0.23024714666666668,0.26411444,-0.19323605333333327,0.6875976399999999,0.4001379240618139,0.6336540515054007,0.6849993178358149,0.689885599034348
LBP07_S04,LBP07,135,136,4,135,135,1716274288.4,2024-05-21 06:51:28.400000+00:00,2024-05-21 15:51:28.400000+09:00,2024,5,21,6,51,28,400,,,,,,,,,0.174316,-0.200928,1.246338,69.580078,41.992188,24.658203,,,,,,,,,,,0.0,1.0,1.0,4.0,0.0,0.0,0.0,5.0,0.0,0.059280599999999996,0.17888996,1.22020836,24.75179036,14.698893306666669,1.1433919600000009,23.277813149786112,10.948037334269461,10.292405505969825,-4.575260998645897,1.0556571676914066,-11.116244621917632,12.067241596808326,1.247970956125002,13.956846149114579,1.2144762823679018,0.11503540000000001,-0.37981796,0.026129639999999954,0.520983,0.3977154561721875,0.6351006840267172,0.6807374590139351,0.6825586191381335
LBP07_S04,LBP07,136,137,4,136,136,1716274288.44,2024-05-21 06:51:28.440000+00:00,2024-05-21 15:51:28.440000+09:00,2024,5,21,6,51,28,440,,,,,,,,,0.337402,0.818359,1.19043,136.657715,24.841309,-15.50293,,,,,,,,,,,0.0,1.0,1.0,4.0,0.0,0.0,0.0,5.0,0.0,0.07005208,0.17764973333333334,1.2448470266666667,23.680826813333333,15.165201893333332,2.834472693333334,18.66108733031053,22.67637006949396,3.9152049430447526,-3.8288175054334754,1.9627119704711649,-10.959636424195843,11.773942089185969,1.1922804237598663,13.641399772789239,1.2286057590879538,0.26734991999999996,0.6407092666666666,-0.05441702666666659,0.9624762133333331,0.6963803248999678,0.6304414138672501,0.6868612297398164,0.6834727022616007
LBP07_S04,LBP07,137,138,4,137,137,1716274288.48,2024-05-21 06:51:28.480000+00:00,2024-05-21 15:51:28.480000+09:00,2024,5,21,6,51,28,480,,,,,,,,,0.169434,-0.298096,1.50415,-164.855957,84.594727,24.047852,,,,,,,,,,,0.0,1.0,1.0,4.0,0.0,0.0,0.0,5.0,0.0,0.07021484000000001,0.20332356000000001,1.2615983333333332,28.53271484,17.067871160000003,3.7589518533333344,13.529325860840043,32.166119294785034,-2.861058025487474,-3.2876444709998736,3.249356742262566,-11.074078745215342,12.00008939389259,1.2347888717057454,13.640564755465613,1.2482033582151426,0.09921915999999999,-0.50141956,0.24255166666666694,0.8431903866666669,0.565771444900215,0.6352334411588426,0.6939880342683541,0.6810848152219529
LBP07_S04,LBP07,138,139,4,138,138,1716274288.52,2024-05-21 06:51:28.520000+00:00,2024-05-21 15:51:28.520000+09:00,2024,5,21,6,51,28,520,,,,,,,,,0.189697,-0.002441,1.429443,5.249023,31.555176,-2.075195,,,,,,,,,,,0.0,1.0,1.0,4.0,0.0,0.0,0.0,5.0,0.0,0.059127599999999995,0.19256509333333333,1.27978844,23.689778653333335,18.76871750666667,4.685872426666667,8.146423139230237,38.526477454759075,-9.205907438421754,-2.961787545430664,4.79041584045293,-11.442315042752211,12.753307136830198,1.2700282097562572,13.921361582659895,1.2606428450525333,0.1305694,-0.19500609333333332,0.1496545600000001,0.47523005333333346,0.2783383408412904,0.6355987084651993,0.6874202884498302,0.6738298701807358
LBP07_S04,LBP07,139,140,4,139,139,1716274288.56,2024-05-21 06:51:28.560000+00:00,2024-05-21 15:51:28.560000+09:00,2024,5,21,6,51,28,560,,,,,,,,,-0.008301,-0.351318,1.712891,183.654785,-14.038086,-26.611328,,,,,,,,,,,0.0,1.0,1.0,4.0,0.0,0.0,0.0,5.0,0.0,0.05514648,0.19905598666666668,1.2787207333333332,24.07877604,18.01595057333333,5.770670600000001,3.403170983519712,41.41559249675284,-14.304487332161134,-2.8256607060898755,6.447039540323043,-12.014494536038656,13.92468154813358,1.2976798023257181,14.433612849042884,1.2671743588283182,-0.06344748,-0.5503739866666667,0.4341702666666667,1.0479917333333333,0.7038756483748497,0.6268794128503652,0.6745413453354387,0.670012999004777
LBP07_S04,LBP07,140,141,4,140,140,1716274288.6,2024-05-21 06:51:28.600000+00:00,2024-05-21 15:51:28.600000+09:00,2024,5,21,6,51,28,600,,,,,,,,,0.291992,1.871582,1.342041,39.855957,-21.606445,-32.714844,,,,,,,,,,,0.0,1.0,1.0,4.0,0.0,0.0,0.0,5.0,0.0,0.057451159999999994,0.20646809333333332,1.26157556,19.725748693333333,19.985351613333336,7.093098973333334,0.8302721051901807,40.87546030785477,-17.56116239108729,-2.7924498218822684,8.082057952637234,-12.716941031682147,15.324425795467771,1.2962427098157874,15.127012445660199,1.271684618105963,0.23454083999999997,1.6651139066666667,0.08046544,1.9801201866666667,1.6834751007475661,0.6573968671142499,0.6868157155713948,0.6798805362910791
LBP07_S04,LBP07,141,142,4,141,141,1716274288.64,2024-05-21 06:51:28.640000+00:00,2024-05-21 15:51:28.640000+09:00,2024,5,21,6,51,28,640,,,,,,,,,0.3125,-0.394043,2.142578,-42.663574,19.042969,-48.706055,,,,,,,,,,,0.0,1.0,1.0,4.0,0.0,0.0,0.0,5.0,0.0,0.05369465333333334,0.21286457333333333,1.23013676,13.247070306666668,21.748860733333334,8.790690119999999,2.307796727028639,37.20230339755833,-18.763650861041715,-2.7001379528011227,9.570150088539567,-13.467487066123816,16.740720580594587,1.3204103087992263,15.967625917168851,1.270298407048464,0.25880534666666666,-0.6069075733333333,0.9124412399999999,1.77815416,1.1259955712547658,0.6819240319028893,0.6900728699640777,0.6828370112874103
LBP07_S04,LBP07,142,143,4,142,142,1716274288.68,2024-05-21 06:51:28.680000+00:00,2024-05-21 15:51:28.680000+09:00,2024,5,21,6,51,28,680,,,,,,,,,0.075684,0.183838,1.668945,-31.311035,66.223145,-23.010254,,,,,,,,,,,0.0,1.0,1.0,4.0,0.0,0.0,0.0,5.0,0.0,0.048893226666666664,0.19148437333333335,1.2112012133333334,7.5992838533333344,21.386718799999997,11.346842466666667,9.463575464471466,30.954907780138797,-18.135744388994823,-2.321594934222264,10.808346399745119,-14.192916841683608,17.990248564442794,1.3180223791479915,16.946525423307378,1.2796808229474506,0.026790773333333337,-0.007646373333333345,0.4577437866666665,0.4921809333333332,0.4585908708128515,0.6736574856189652,0.6869910578943219,0.6835518626133953
LBP07_S04,LBP07,143,144,4,143,143,1716274288.72,2024-05-21 06:51:28.720000+00:00,2024-05-21 15:51:28.720000+09:00,2024,5,21,6,51,28,720,,,,,,,,,0.044922,-0.287598,2.033936,-62.194824,82.763672,-12.573242,,,,,,,,,,,0.0,1.0,1.0,4.0,0.0,0.0,0.0,5.0,0.0,0.0510026,0.17628254666666665,1.20817712,5.369466146666668,19.13492842666667,13.042806013333333,22.922360736767914,23.082107037511356,-16.236360561420074,-1.4047005047515477,11.731630681245573,-14.84237126414041,18.971039156877325,1.2865786311684286,18.072552651180487,1.288586792378529,-0.0060806000000000054,-0.46388054666666667,0.8257588800000002,1.2957200266666669,0.9471535583900745,0.7023796138106673,0.6950552700165812,0.6898418478954534
LBP07_S04,LBP07,144,145,4,144,144,1716274288.76,2024-05-21 06:51:28.760000+00:00,2024-05-21 15:51:28.760000+09:00,2024,5,21,6,51,28,760,,,,,,,,,-0.310791,0.868896,1.320801,69.274902,117.1875,-29.052734,,,,,,,,,,,0.0,1.0,1.0,4.0,0.0,0.0,0.0,5.0,0.0,0.05811524,0.17827147999999998,1.2127474266666667,5.866699226666667,18.370768266666666,13.329264346666667,41.70210851394194,15.024009751965323,-13.722239032620857,0.2633838358061298,12.332591071324186,-15.391260825445245,19.724428594368824,1.2528438884556043,19.35114778772549,1.2919790340518265,-0.36890624,0.6906245200000001,0.10805357333333321,1.1675843333333333,0.7903983908424094,0.7182436117586098,0.7039158733902912,0.6920386874467347
LBP07_S04,LBP07,145,146,4,145,145,1716274288.8,2024-05-21 06:51:28.800000+00:00,2024-05-21 15:51:28.800000+09:00,2024,5,21,6,51,28,800,,,,,,,,,-0.528076,-0.147949,0.315674,-21.484375,2.441406,51.879883,,,,,,,,,,,0.0,1.0,1.0,4.0,0.0,0.0,0.0,5.0,0.0,0.06215494666666667,0.17926106666666666,1.21690108,6.8701171866666675,18.887532586666666,12.653808613333334,63.04149928877408,8.606267344878788,-11.056476104396351,2.785043807357093,12.676841765119338,-15.8335198696211,20.473376311894874,1.2341088455500153,20.764729230265004,1.2899716093980498,-0.5902309466666666,-0.32721006666666663,-0.90122708,1.8186680933333332,1.125899306268709,0.7119585276198532,0.7145424088533119,0.7014622139287299
LBP07_S04,LBP07,146,147,4,146,146,1716274288.84,2024-05-21 06:51:28.840000+00:00,2024-05-21 15:51:28.840000+09:00,2024,5,21,6,51,28,840,,,,,,,,,0.602539,0.369629,1.009521,-20.996094,-93.688965,48.76709,,,,,,,,,,,0.0,1.0,1.0,4.0,0.0,0.0,0.0,5.0,0.0,0.057132159999999994,0.19756185333333334,1.21852868,4.698079426666668,20.220540400000004,12.212727880000001,82.79898456327899,5.646892501664828,-8.286591625766961,6.0970031898882535,12.902717465185932,-16.16498353465178,21.562937150571226,1.2861045827497313,22.26739611375323,1.2930592619986587,0.5454068400000001,0.17206714666666664,-0.20900768000000003,0.9264816666666668,0.6089005948262625,0.7022404803078828,0.7222314303195212,0.6996235322313447
LBP07_S04,LBP07,147,148,4,147,147,1716274288.88,2024-05-21 06:51:28.880000+00:00,2024-05-21 15:51:28.880000+09:00,2024,5,21,6,51,28,880,,,,,,,,,0.237549,-0.094238,1.994141,261.230469,-45.043945,-21.728516,,,,,,,,,,,0.0,1.0,1.0,4.0,0.0,0.0,0.0,5.0,0.0,0.04874348,0.19565430666666667,1.22407556,-0.6835937599999988,20.12776696,12.099609386666668,96.36539532471683,7.380052295847175,-5.009118178149716,9.951619002876926,13.19791955701982,-16.36534826177777,23.260361672623667,1.3238485660165307,23.79382541175358,1.2946265339279064,0.18880552,-0.28989230666666665,0.77006544,1.2487632666666666,0.8442072350610274,0.7171425793359504,0.7280922172550218,0.7085806894634646
LBP07_S04,LBP07,148,149,4,148,148,1716274288.92,2024-05-21 06:51:28.920000+00:00,2024-05-21 15:51:28.920000+09:00,2024,5,21,6,51,28,920,,,,,,,,,-0.374268,0.510498,2.07959,248.22998,6.896973,-38.391113,,,,,,,,,,,0.0,1.0,1.0,4.0,0.0,0.0,0.0,5.0,0.0,0.052617173333333336,0.19470378666666666,1.2283789466666666,-1.8986002666666657,19.754231813333334,12.089029960000001,99.83437456230395,13.947075450192198,-0.5679860862901378,13.944993985369084,13.755802575027507,-16.388067705229375,25.539258502280276,1.3039506264892315,25.275201023647867,1.2916131841769014,-0.4268851733333333,0.31579421333333335,0.8512110533333335,1.59389044,1.0032533048555046,0.7443010752091649,0.715070720131719,0.7100007881040028
LBP07_S04,LBP07,149,150,4,149,149,1716274288.96,2024-05-21 06:51:28.960000+00:00,2024-05-21 15:51:28.960000+09:00,2024,5,21,6,51,28,960,,,,,,,,,0.12085,0.37085,1.797852,125.671387,-31.25,-11.657715,,,,,,,,,,,0.0,1.0,1.0,4.0,0.0,0.0,0.0,5.0,0.0,0.056110013333333326,0.18783854666666666,1.2245833733333333,-4.015299493333333,21.30371098666667,12.091471360000002,91.04076416567743,24.20646473197468,5.579113781424553,17.58662455199618,14.724061164306494,-16.164903153972393,28.060495973528695,1.2776055557879522,26.65399259623468,1.2889805442031737,0.06473998666666667,0.18301145333333335,0.5732686266666667,0.8210200666666667,0.6052448894828152,0.7372118732220362,0.7044286799574137,0.704206873651403
LBP07_S04,LBP07,150,151,4,150,150,1716274289.0,2024-05-21 06:51:29+00:00,2024-05-21 15:51:29+09:00,2024,5,21,6,51,29,0,6.0,51.0,29.0,40.547909,141.548035,0.954,3.0,15.0,0.481689,-0.212646,2.563721,-2.563477,64.208984,-17.089844,-249.0,-54.0,367.0,1200.0,0.0,1019.599976,24.209999,0.065405,-52.703289,3.909375,0.0,1.0,1.0,4.0,0.0,0.0,0.0,5.0,0.0,0.04553710666666666,0.18517253333333333,1.20698572,-1.0636393466666656,22.39746098666667,12.561848960000003,70.10811055992741,35.97354173400996,13.485691363767922,20.39094897439328,16.163002833666894,-15.625475499421675,30.351094630350012,1.327119235821875,27.890746486251192,1.294843940311454,0.4361518933333333,-0.39781853333333334,1.35673528,2.190705706666667,1.4796008514185217,0.7515063668773876,0.7203336254780298,0.7122770052558558
LBP07_S04,LBP07,151,152,4,151,151,1716274289.04,2024-05-21 06:51:29.040000+00:00,2024-05-21 15:51:29.040000+09:00,2024,5,21,6,51,29,40,,,,,,,,,-0.624268,0.161377,1.174561,-63.476562,177.79541,-40.344238,,,,,,,,,,,0.0,1.0,1.0,4.0,0.0,0.0,0.0,5.0,0.0,0.044593106666666674,0.18868490666666665,1.1900781599999999,-0.570475279999999,19.611816453333333,13.645833333333336,39.37484533675192,46.60923774910268,22.50639360593402,21.965942787863355,18.027372343631,-14.725219755184314,32.0050135605981,1.3360830280917035,28.959736025130248,1.3063960365889162,-0.6688611066666668,-0.02730790666666666,-0.015517159999999919,0.7116861733333333,0.6695981511566017,0.7515005054802627,0.7266085353278133,0.7093310448797161
LBP07_S04,LBP07,152,153,4,152,152,1716274289.08,2024-05-21 06:51:29.080000+00:00,2024-05-21 15:51:29.080000+09:00,2024,5,21,6,51,29,80,,,,,,,,,0.026123,1.212402,0.939941,-101.318359,28.259277,99.67041,,,,,,,,,,,0.0,1.0,1.0,4.0,0.0,0.0,0.0,5.0,0.0,0.05333334666666667,0.18547201333333332,1.1956380533333333,-1.4632161599999989,18.216145893333337,13.883463546666668,2.8528142892280486,53.736857386928264,31.354661264372652,22.080055359432478,20.17684663910813,-13.471033304609408,32.80400468338566,1.2878888816379421,29.837679352815417,1.3104829841930319,-0.02721034666666667,1.0269299866666666,-0.25569705333333326,1.3098373866666666,1.0586343011466564,0.7613024978297909,0.7349261983682736,0.7184993314911533
LBP07_S04,LBP07,153,154,4,153,153,1716274289.12,2024-05-21 06:51:29.120000+00:00,2024-05-21 15:51:29.120000+09:00,2024,5,21,6,51,29,120,,,,,,,,,0.338135,-0.259277,1.485107,174.377441,41.320801,59.509277,,,,,,,,,,,0.0,1.0,1.0,4.0,0.0,0.0,0.0,5.0,0.0,0.05912110666666666,0.18617187999999998,1.2079069333333332,0.09684242666666762,19.68750006666667,12.985839853333333,-34.498572976148914,55.837132702107596,38.4141687095075,20.700112440386523,22.410331947192436,-11.934466556229108,32.75895488274542,1.2602522314311497,30.497609603225506,1.3148550385067554,0.2790138933333334,-0.44544887999999994,0.27720006666666674,1.00166284,0.5942334005475319,0.7609958780358569,0.7345508464930306,0.7213861500534373
LBP07_S04,LBP07,154,155,4,154,154,1716274289.16,2024-05-21 06:51:29.160000+00:00,2024-05-21 15:51:29.160000+09:00,2024,5,21,6,51,29,160,,,,,,,,,0.212158,0.458008,1.701416,-138.85498,39.550781,79.467773,,,,,,,,,,,0.0,1.0,1.0,4.0,0.0,0.0,0.0,5.0,0.0,0.04969402666666666,0.18941081333333332,1.21839196,0.27425128000000093,21.028645906666668,11.30615236,-67.4909856591528,52.55987586315021,42.183546107922055,18.00047301402041,24.512726981718444,-10.247124711912225,32.091967494533996,1.3114778495384085,30.91685986298088,1.3210357367140575,0.16246397333333334,0.2685971866666667,0.4830240400000001,0.9140852000000002,0.5760652866945065,0.7632133078886016,0.7201537621457349,0.719887131174349
LBP07_S04,LBP07,155,156,4,155,155,1716274289.2,2024-05-21 06:51:29.200000+00:00,2024-05-21 15:51:29.200000+09:00,2024,5,21,6,51,29,200,,,,,,,,,0.142334,0.630859,1.398682,111.633301,20.080566,15.319824,,,,,,,,,,,0.0,1.0,1.0,4.0,0.0,0.0,0.0,5.0,0.0,0.04533205333333333,0.2042806,1.2200683866666666,0.7739257600000009,19.304199293333333,10.872395853333334,-91.40267980082925,44.72540671669602,41.69185039575535,14.34436582198724,26.301743250386284,-8.579450696082011,31.163271700685378,1.3496298083246367,31.093780581838104,1.325847600937188,0.09700194666666666,0.4265783999999999,0.17861361333333337,0.7021939599999999,0.472526540917727,0.7429083503848777,0.718752611795795,0.7172921460276175
LBP07_S04,LBP07,156,157,4,156,156,1716274289.24,2024-05-21 06:51:29.240000+00:00,2024-05-21 15:51:29.240000+09:00,2024,5,21,6,51,29,240,,,,,,,,,-0.072021,-0.086914,0.942871,-274.841309,130.67627,-4.821777,,,,,,,,,,,0.0,1.0,1.0,4.0,0.0,0.0,0.0,5.0,0.0,0.05032229333333334,0.20494140000000002,1.2203743733333332,-1.0327148666666657,18.95833341333333,10.769856786666667,-102.70123953928287,34.07628830200396,36.76386689854566,10.236316240415926,27.664794782466444,-7.108896020140184,30.342370427422942,1.3269740587908878,31.061979298185424,1.3235645556204916,-0.12234329333333334,-0.29185540000000004,-0.2775033733333332,0.6917020666666666,0.42089853663820853,0.731750031357832,0.7032577144565298,0.720870309738205
LBP07_S04,LBP07,157,158,4,157,157,1716274289.28,2024-05-21 06:51:29.280000+00:00,2024-05-21 15:51:29.280000+09:00,2024,5,21,6,51,29,280,,,,,,,,,-0.452393,-0.25293,0.150879,-211.303711,16.174316,67.443848,,,,,,,,,,,0.0,1.0,1.0,4.0,0.0,0.0,0.0,5.0,0.0,0.04081384,0.20066731999999998,1.2052799733333335,-4.484049506666666,21.51692716,10.696614600000002,-99.73888542179914,22.85403687177924,28.096234673904434,6.24676082354396,28.578956257337612,-5.985046633184007,29.859664176724554,1.3675691091537674,30.895634681317205,1.3231243337323448,-0.49320684,-0.45359731999999997,-1.0544009733333335,2.0012051333333334,1.249305778542727,0.7608874634796412,0.713410587114467,0.7229321430438089
LBP07_S04,LBP07,158,159,4,158,158,1716274289.32,2024-05-21 06:51:29.320000+00:00,2024-05-21 15:51:29.320000+09:00,2024,5,21,6,51,29,320,,,,,,,,,0.149658,-0.009277,0.387451,-107.36084,-57.922363,34.057617,,,,,,,,,,,0.0,1.0,1.0,4.0,0.0,0.0,0.0,5.0,0.0,0.03980797333333333,0.19388671999999998,1.1775748933333334,-6.311035173333332,20.66894538666667,12.079264346666667,-83.20471251592186,13.272467198276637,17.15942764841733,2.918572322907086,29.109854945268676,-5.298669527247314,29.731761099833992,1.3657576085622503,30.702644922750114,1.3284682096636142,0.10985002666666668,-0.20316372,-0.7901238933333334,1.1031376400000001,0.8231878839603572,0.783175547712606,0.7092057646463291,0.7242445264947113
LBP07_S04,LBP07,159,160,4,159,159,1716274289.36,2024-05-21 06:51:29.360000+00:00,2024-05-21 15:51:29.360000+09:00,2024,5,21,6,51,29,360,,,,,,,,,0.509277,-0.391113,0.822754,-95.703125,-27.526855,48.400879,,,,,,,,,,,0.0,1.0,1.0,4.0,0.0,0.0,0.0,5.0,0.0,0.04692710666666667,0.18993163999999998,1.1714811466666666,-8.29101564,19.08284512,13.767089866666668,-56.07795506802988,6.991173199245793,5.94566258137719,0.6754541201858908,29.38950187323851,-5.060843023992226,29.829703162100973,1.3257241980192587,30.60480660132678,1.3348423977560295,0.4623498933333333,-0.58104464,-0.3487271466666666,1.3921216799999998,0.8203602381639111,0.7999844402766898,0.7168192458910453,0.7233276919827731
LBP07_S04,LBP07,160,161,4,160,160,1716274289.4,2024-05-21 06:51:29.400000+00:00,2024-05-21 15:51:29.400000+09:00,2024,5,21,6,51,29,400,,,,,,,,,0.211182,0.318848,1.185303,85.021973,12.023926,-29.663086,,,,,,,,,,,0.0,1.0,1.0,4.0,0.0,0.0,0.0,5.0,0.0,0.05156902666666666,0.19123046666666665,1.1666243733333332,-6.3118489733333325,18.685709693333333,13.816731786666667,-22.982084008825236,4.734944838886009,-3.4194007678615193,-0.2438292401671187,29.578899666793948,-5.197619054706687,30.033081793823182,1.3042887826549108,30.710243156923383,1.3408889380721076,0.15961297333333335,0.12761753333333337,0.018678626666666753,0.30590913333333347,0.20521068969365253,0.7922842496175484,0.7136924668221327,0.7179197225484728
LBP07_S04,LBP07,161,162,4,161,161,1716274289.44,2024-05-21 06:51:29.440000+00:00,2024-05-21 15:51:29.440000+09:00,2024,5,21,6,51,29,440,,,,,,,,,-0.197754,0.502686,1.59668,48.64502,-3.601074,-55.847168,,,,,,,,,,,0.0,1.0,1.0,4.0,0.0,0.0,0.0,5.0,0.0,0.04565756,0.18958657333333334,1.1706315333333333,-6.578776053333334,19.139811253333335,13.098144546666669,10.901948253139604,6.190350317380206,-9.147701523716279,0.19224868995846545,29.826513679489157,-5.563527115655338,30.34156739191594,1.3316808092102352,31.090142730973543,1.344651216612538,-0.24341156000000003,0.3130994266666666,0.42604846666666685,0.9825594533333335,0.582063342317352,0.7877115703142437,0.7090764920907469,0.7204780099312923
LBP07_S04,LBP07,162,163,4,162,162,1716274289.48,2024-05-21 06:51:29.480000+00:00,2024-05-21 15:51:29.480000+09:00,2024,5,21,6,51,29,480,,,,,,,,,0.209961,-0.262207,2.218506,50.354004,-12.573242,-39.245605,,,,,,,,,,,0.0,1.0,1.0,4.0,0.0,0.0,0.0,5.0,0.0,0.04238281333333333,0.18354816,1.1692025066666667,-2.5716145999999998,17.232259173333336,11.508789080000001,41.01444423096318,10.222072319029696,-10.226988724360174,1.8328264591969927,30.235396572250345,-5.972606664629745,30.874107097714745,1.3413276409506363,31.77243298712856,1.3455622077583334,0.16757818666666668,-0.44575516000000004,1.0493034933333334,1.6626368400000002,1.1523098248451458,0.811173105512041,0.7232032733354419,0.7330497246829164
LBP07_S04,LBP07,163,164,4,163,163,1716274289.52,2024-05-21 06:51:29.520000+00:00,2024-05-21 15:51:29.520000+09:00,2024,5,21,6,51,29,520,,,,,,,,,0.028809,0.038574,1.84375,181.82373,7.873535,-16.723633,,,,,,,,,,,0.0,1.0,1.0,4.0,0.0,0.0,0.0,5.0,0.0,0.043278,0.17356118666666667,1.1633659066666666,-3.72639976,16.800130266666667,10.913085960000002,64.31751864425334,15.340192567612906,-6.679626701904541,4.405527204967127,30.84900427495486,-6.2397917327059265,31.780571668512103,1.3239941123553032,32.75593607840047,1.339421869761896,-0.014468999999999996,-0.13498718666666668,0.6803840933333334,0.82984028,0.6937963728546032,0.8277914267925734,0.7316950676288863,0.7342106678974112
LBP07_S04,LBP07,164,165,4,164,164,1716274289.56,2024-05-21 06:51:29.560000+00:00,2024-05-21 15:51:29.560000+09:00,2024,5,21,6,51,29,560,,,,,,,,,0.309082,0.40332,1.762939,0.12207,102.355957,17.578125,,,,,,,,,,,0.0,1.0,1.0,4.0,0.0,0.0,0.0,5.0,0.0,0.035019533333333325,0.17573892000000002,1.143255226666667,-2.4381510533333324,17.452799546666668,11.070149760000001,79.67642714892982,20.26392155911512,0.4629495681109074,7.59258429092432,31.659561137319468,-6.22127374998149,33.1463330505,1.37194325269919,34.034269890014876,1.3393330138968533,0.27406246666666667,0.22758108,0.6196837733333331,1.1213273199999998,0.7147806394566252,0.8282276264358446,0.7275535196431049,0.7257701057022408
LBP07_S04,LBP07,165,166,4,165,165,1716274289.6,2024-05-21 06:51:29.600000+00:00,2024-05-21 15:51:29.600000+09:00,2024,5,21,6,51,29,600,,,,,,,,,-0.333496,0.223389,1.349365,31.555176,146.972656,-28.259277,,,,,,,,,,,0.0,1.0,1.0,4.0,0.0,0.0,0.0,5.0,0.0,0.03486329333333333,0.19042642666666665,1.11659508,1.540527333333334,15.070800853333333,9.95442710666667,87.67697986067009,24.379556613509667,9.477191658675062,11.099663485351122,32.63474340185986,-5.842186083634488,34.962267441187,1.3872525937289415,35.61106819443522,1.3453025423335,-0.36835929333333334,0.032962573333333356,0.23276991999999996,0.6340917866666667,0.4369861964440004,0.7783680702637019,0.717882468688976,0.7173331671354972
LBP07_S04,LBP07,166,167,4,166,166,1716274289.64,2024-05-21 06:51:29.640000+00:00,2024-05-21 15:51:29.640000+09:00,2024,5,21,6,51,29,640,,,,,,,,,-0.687744,-0.197754,0.26001,198.303223,-16.235352,48.522949,,,,,,,,,,,0.0,1.0,1.0,4.0,0.0,0.0,0.0,5.0,0.0,0.0429004,0.18163737333333335,1.1157552400000001,-2.8141276133333326,14.291178453333336,10.703938826666667,90.01307361850168,27.900458135133334,18.461259592387705,14.70018643009119,33.75076172726519,-5.103735699938979,37.16527298897316,1.3360839702488392,37.495875301852074,1.3544242139749694,-0.7306444,-0.3793913733333334,-0.8557452400000001,1.9657810133333333,1.1874674602673416,0.7808269458242049,0.7313754888635471,0.7203242285841202
LBP07_S04,LBP07,167,168,4,167,167,1716274289.68,2024-05-21 06:51:29.680000+00:00,2024-05-21 15:51:29.680000+09:00,2024,5,21,6,51,29,680,,,,,,,,,0.783691,1.501709,0.816895,29.052734,-65.185547,126.953125,,,,,,,,,,,0.0,1.0,1.0,4.0,0.0,0.0,0.0,5.0,0.0,0.048977879999999994,0.18294922666666666,1.1227702133333335,-2.6806640666666657,15.27506516,9.004720080000002,88.68055533747977,31.641285940047748,25.883925433462302,18.24740864359038,35.0164131648671,-4.068378682600487,39.69469508944354,1.306165729189396,39.68533919912188,1.3633560767101234,0.73471312,1.3187597733333334,-0.30587521333333345,2.359348106666667,1.5402890490404817,0.8240948729533101,0.7488761792861376,0.7326923295806512
LBP07_S04,LBP07,168,169,4,168,168,1716274289.72,2024-05-21 06:51:29.720000+00:00,2024-05-21 15:51:29.720000+09:00,2024,5,21,6,51,29,720,,,,,,,,,0.262939,-0.976807,2.122559,-184.143066,68.664551,38.452148,,,,,,,,,,,0.0,1.0,1.0,4.0,0.0,0.0,0.0,5.0,0.0,0.03714845333333333,0.17994793333333334,1.1392513333333334,-6.420084639999999,16.691894586666667,8.632812533333334,85.2292279540965,36.49827936507239,30.987278971504434,21.65657776175424,36.476344339469996,-2.8288875237403097,42.51509921597816,1.3648690499118221,42.14293941214832,1.373197432884387,0.22579054666666665,-1.1567549333333333,0.9833076666666665,2.365853146666667,1.5349128034127804,0.8476052427542183,0.774992428282443,0.745905260929127
LBP07_S04,LBP07,169,170,4,169,169,1716274289.76,2024-05-21 06:51:29.760000+00:00,2024-05-21 15:51:29.760000+09:00,2024,5,21,6,51,29,760,,,,,,,,,-0.948486,0.669434,1.729492,270.751953,37.719727,-7.507324,,,,,,,,,,,0.0,1.0,1.0,4.0,0.0,0.0,0.0,5.0,0.0,0.033382173333333334,0.18010093333333332,1.15078128,-5.03255208,15.909016986666666,8.0371094,80.27663332239939,42.87557096176641,33.90517974977574,24.867643094650216,38.191367177940656,-1.47268033374928,45.59768620630436,1.3854194823857275,44.789050802285495,1.3805187438990372,-0.9818681733333334,0.48933306666666665,0.5787107200000001,2.04991196,1.2403298179844182,0.8656024998398988,0.7919230557992543,0.7578114155401604
LBP07_S04,LBP07,170,171,4,170,170,1716274289.8,2024-05-21 06:51:29.800000+00:00,2024-05-21 15:51:29.800000+09:00,2024,5,21,6,51,29,800,,,,,,,,,-0.457764,0.303711,2.23877,313.964844,-142.272949,29.846191,,,,,,,,,,,0.0,1.0,1.0,4.0,0.0,0.0,0.0,5.0,0.0,0.03395509333333334,0.19437828,1.1446452133333334,-1.3533528666666665,17.089843813333335,7.69042972,73.3747190922729,50.32087332646969,35.470700559104166,27.802631858341133,40.20420211099945,-0.05385231138511326,48.88115286799176,1.3955054990696034,47.505845781002556,1.3824428988982318,-0.49171909333333336,0.10933272000000002,1.0941247866666668,1.6951766000000001,1.2045124985692481,0.8687470275319202,0.7903527775758867,0.765943948412848
LBP07_S04,LBP07,171,172,4,171,171,1716274289.84,2024-05-21 06:51:29.840000+00:00,2024-05-21 15:51:29.840000+09:00,2024,5,21,6,51,29,840,,,,,,,,,0.539795,0.699463,1.516602,-33.081055,99.853516,-5.004883,,,,,,,,,,,0.0,1.0,1.0,4.0,0.0,0.0,0.0,5.0,0.0,0.028193373333333327,0.18935549333333335,1.12797528,-1.0262044266666663,17.468261773333335,7.000325546666668,63.16707314979911,57.53927036027419,36.8180226855067,30.329314784333096,42.50577292541041,1.4188685960351546,52.236206364613935,1.4209994365617744,50.154305516610734,1.3908172571817405,0.5116016266666668,0.5101075066666666,0.38862672,1.4103358533333332,0.8203515223753907,0.8772050646338855,0.7897227724708842,0.7738893084243093
LBP07_S04,LBP07,172,173,4,172,172,1716274289.88,2024-05-21 06:51:29.880000+00:00,2024-05-21 15:51:29.880000+09:00,2024,5,21,6,51,29,880,,,,,,,,,-0.757812,-0.271729,0.773438,-202.941895,252.075195,-20.874023,,,,,,,,,,,0.0,1.0,1.0,4.0,0.0,0.0,0.0,5.0,0.0,0.02501629333333333,0.19255535999999998,1.1140169466666667,-0.7454427066666665,15.556640680000001,6.3834635733333345,47.711908873698746,62.79335538571201,38.95730615038836,32.23779113928104,45.017507140838894,2.977160842050689,55.45010922797924,1.439741202693274,52.59842658326495,1.4042969819929503,-0.7828282933333334,-0.46428435999999995,-0.34057894666666677,1.5876915999999999,0.971789134893144,0.8823083406271702,0.7997254599815604,0.7794975917124046
LBP07_S04,LBP07,173,174,4,173,173,1716274289.92,2024-05-21 06:51:29.920000+00:00,2024-05-21 15:51:29.920000+09:00,2024,5,21,6,51,29,920,,,,,,,,,0.199463,-1.005371,1.802734,-212.402344,85.266113,109.436035,,,,,,,,,,,0.0,1.0,1.0,4.0,0.0,0.0,0.0,5.0,0.0,0.03464846666666666,0.20073570666666668,1.1034179866666667,-5.773111973333333,14.752604213333335,6.056315133333334,24.957883223198895,64.51726960406592,42.47563868120411,33.236106468209,47.59819792500153,4.676186389298854,58.24168556988378,1.3972072225018026,54.73303135116754,1.4177813462541735,0.16481453333333335,-1.2061067066666666,0.6993160133333334,2.0702372533333335,1.4038874971907913,0.8983337083205817,0.8213173917648733,0.77615838286134
LBP07_S04,LBP07,174,175,4,174,174,1716274289.96,2024-05-21 06:51:29.960000+00:00,2024-05-21 15:51:29.960000+09:00,2024,5,21,6,51,29,960,,,,,,,,,0.233887,1.737305,1.197266,435.180664,21.240234,107.849121,,,,,,,,,,,0.0,1.0,1.0,4.0,0.0,0.0,0.0,5.0,0.0,0.032672559999999996,0.18228518666666665,1.1082389466666667,-8.009440106666666,15.757649786666667,5.2604167066666685,-6.531919721596932,61.86088155121491,47.42109820704695,32.97482967934513,50.07263318705012,6.5730303175807325,60.314282837670625,1.3911848026911369,56.509959611626435,1.4284311952766138,0.20121444000000002,1.5550198133333335,0.08902705333333327,1.8452613066666668,1.570509371811886,0.9369442876137444,0.8370780804178902,0.7819338825095239
LBP07_S04,LBP07,175,176,4,175,175,1716274290.0,2024-05-21 06:51:30+00:00,2024-05-21 15:51:30+09:00,2024,5,21,6,51,30,0,6.0,51.0,30.0,40.547909,141.548279,0.291,3.0,15.0,-0.194824,-0.508057,1.989502,-150.57373,27.404785,47.241211,-236.0,-52.0,359.0,2318.0,0.0,1019.5,24.27,0.064414,-51.875576,3.909375,0.0,1.0,1.0,4.0,0.0,0.0,0.0,5.0,0.0,0.01947268,0.19751305333333335,1.1062760666666667,-7.513020839999999,15.118815146666666,3.9420573200000004,-46.652245516833474,54.93740928059567,53.328000614875734,31.10873985867179,52.27012955827395,8.706150342175762,61.44686479726876,1.47099617656403,57.951448996035765,1.4395211416798592,-0.21429668,-0.7055700533333333,0.8832259333333334,1.8030926666666667,1.1505825552876956,0.9237835557685113,0.8376449613229494,0.7881502689081903
LBP07_S04,LBP07,176,177,4,176,176,1716274290.04,2024-05-21 06:51:30.040000+00:00,2024-05-21 15:51:30.040000+09:00,2024,5,21,6,51,30,40,,,,,,,,,-0.004395,0.643799,1.220703,146.240234,-14.343262,-6.835938,,,,,,,,,,,0.0,1.0,1.0,4.0,0.0,0.0,0.0,5.0,0.0,0.019104839999999998,0.19340172,1.11291344,-8.289388026666666,13.248697960000003,3.9420573200000004,-92.97947738228163,44.73595798904986,59.30958564481483,27.389560763380523,54.059567877835946,11.078533767968356,61.60648365551536,1.470881218360936,59.13804574092306,1.4470728246368687,-0.023499839999999998,0.45039728,0.10778956000000006,0.58168668,0.46371170090522584,0.9155480977584564,0.8335243016193595,0.789588389471361
LBP07_S04,LBP07,177,178,4,177,177,1716274290.08,2024-05-21 06:51:30.080000+00:00,2024-05-21 15:51:30.080000+09:00,2024,5,21,6,51,30,80,,,,,,,,,-0.268555,0.501953,0.020264,-56.335449,123.596191,-20.141602,,,,,,,,,,,0.0,1.0,1.0,4.0,0.0,0.0,0.0,5.0,0.0,0.026468119999999998,0.2062012,1.1097265866666666,-10.24820964,13.669433640000001,3.927408880000001,-140.642212433949,32.81652227056169,64.19499780093999,21.763872266022563,55.37222876865842,13.646333680005956,61.040742768469435,1.4410093718016272,60.17254210081376,1.4498795914488427,-0.29502311999999997,0.2957518,-1.0894625866666665,1.6802375066666664,1.1668061091219046,0.9198749700774662,0.8405887339536287,0.7965757889380045
LBP07_S04,LBP07,178,179,4,178,178,1716274290.12,2024-05-21 06:51:30.120000+00:00,2024-05-21 15:51:30.120000+09:00,2024,5,21,6,51,30,120,,,,,,,,,-0.121338,0.392578,-0.803467,-283.935547,8.422852,128.417969,,,,,,,,,,,0.0,1.0,1.0,4.0,0.0,0.0,0.0,5.0,0.0,0.018046893333333328,0.18337242666666667,1.1014681199999998,-11.26546224,16.35172530666667,4.2073568,-183.11601121968494,20.92921545315945,66.74707092557654,14.439231817235164,56.209397386784794,16.316216517029016,60.284381820567056,1.4713675401362267,61.14242426393971,1.4501582468592986,-0.13938489333333332,0.2092055733333333,-1.9049351199999998,2.253525586666666,1.92145073624402,0.9729636635053258,0.8669797707705914,0.814021785497129
LBP07_S04,LBP07,179,180,4,179,179,1716274290.16,2024-05-21 06:51:30.160000+00:00,2024-05-21 15:51:30.160000+09:00,2024,5,21,6,51,30,160,,,,,,,,,0.011475,-0.167236,-0.383545,-464.904785,-13.977051,135.864258,,,,,,,,,,,0.0,1.0,1.0,4.0,0.0,0.0,0.0,5.0,0.0,0.013873719999999997,0.18876956000000003,1.07425132,-10.159505213333333,15.219726600000001,6.021321653333334,-213.77751663716978,10.643661784083937,65.974949093579,5.888131151748373,56.635143858148155,18.955214480772177,60.01258005039778,1.4963189464181803,62.10372294892311,1.4512881175938424,-0.0023987199999999965,-0.35600556000000005,-1.45779632,1.8162006,1.500638471855928,1.0099465909117826,0.8865799494001922,0.8167513717344176
LBP07_S04,LBP07,180,181,4,180,180,1716274290.2,2024-05-21 06:51:30.200000+00:00,2024-05-21 15:51:30.200000+09:00,2024,5,21,6,51,30,200,,,,,,,,,0.07251,-0.84668,0.291748,-374.755859,-16.662598,82.702637,,,,,,,,,,,0.0,1.0,1.0,4.0,0.0,0.0,0.0,5.0,0.0,0.018733746666666662,0.19007814666666667,1.0628060133333335,-12.038574226666666,15.120442733333336,7.001139360000001,-227.6586524898349,3.037795628645085,61.45700531852819,-3.2182149478450235,56.75665568329396,21.413494693513304,60.74712031686473,1.4710223286396982,63.087588597109345,1.4548714613420284,0.05377625333333334,-1.0367581466666667,-0.7710580133333335,1.8615924133333333,1.2931704450797734,1.0427723470782646,0.8928403487315711,0.8267591902232848
LBP07_S04,LBP07,181,182,4,181,181,1716274290.24,2024-05-21 06:51:30.240000+00:00,2024-05-21 15:51:30.240000+09:00,2024,5,21,6,51,30,240,,,,,,,,,0.242432,-0.263916,0.390869,-122.314453,-38.146973,64.27002,,,,,,,,,,,0.0,1.0,1.0,4.0,0.0,0.0,0.0,5.0,0.0,0.02313153333333333,0.19215822666666668,1.0535156399999999,-9.205729173333333,14.387207053333334,6.678059933333334,-222.7296009263308,-1.4973783616144825,53.5208345733258,-12.127398984898255,56.696760548829374,23.554328076446335,62.58116996352077,1.4490671046815156,64.11427495648573,1.4571594880369374,0.2193004666666667,-0.45607422666666664,-0.6626466399999998,1.3380213333333333,0.8337847230629171,1.0592877945352528,0.8955189129465424,0.8219344078161042
LBP07_S04,LBP07,182,183,4,182,182,1716274290.28,2024-05-21 06:51:30.280000+00:00,2024-05-21 15:51:30.280000+09:00,2024,5,21,6,51,30,280,,,,,,,,,0.320068,0.385254,0.605225,-34.179688,16.723633,7.385254,,,,,,,,,,,0.0,1.0,1.0,4.0,0.0,0.0,0.0,5.0,0.0,0.023531919999999998,0.18518557333333333,1.0567024800000002,-11.34440104,13.321940120000002,6.481933626666668,-200.28932790553483,-3.27881878068051,43.170777497646455,-20.13897210111965,56.565607797602155,25.281159176352194,65.14893085923883,1.4425277567978325,65.1990801971148,1.4566310206637811,0.29653608000000004,0.20006842666666666,-0.4514774800000002,0.9480819866666669,0.5760147021021186,1.0323561514776285,0.8966218074786348,0.8197257752355208
LBP07_S04,LBP07,183,184,4,183,183,1716274290.32,2024-05-21 06:51:30.320000+00:00,2024-05-21 15:51:30.320000+09:00,2024,5,21,6,51,30,320,,,,,,,,,-0.01123,0.546387,1.055664,-235.107422,38.574219,34.729004,,,,,,,,,,,0.0,1.0,1.0,4.0,0.0,0.0,0.0,5.0,0.0,0.03120443999999999,0.19358726666666667,1.07158204,-9.53125,12.413737000000001,5.279134146666667,-164.48102549347817,-3.1636551428678845,31.779155259411933,-26.718213120858778,56.43906159188744,26.552325386728672,67.85467241971779,1.40850592984724,66.34397687105714,1.4560375644562182,-0.04243443999999999,0.35279973333333325,-0.015918040000000078,0.4111522133333333,0.3556989141614383,1.0136565926856718,0.8984160701991388,0.8106893739927766
LBP07_S04,LBP07,184,185,4,184,184,1716274290.36,2024-05-21 06:51:30.360000+00:00,2024-05-21 15:51:30.360000+09:00,2024,5,21,6,51,30,360,,,,,,,,,-0.162354,0.117432,1.216309,-147.949219,-32.897949,-10.925293,,,,,,,,,,,0.0,1.0,1.0,4.0,0.0,0.0,0.0,5.0,0.0,0.027649759999999995,0.19402672,1.0708203333333335,-8.083496093333332,14.221191426666667,4.204915400000001,-121.26311544272285,-2.246508455293864,20.670321364344616,-31.56873773856769,56.34920125367568,27.379138241302456,70.15293931953289,1.4270182401729974,67.52031828166812,1.4542712384905019,-0.19000376,-0.07659472000000002,0.1454886666666666,0.4120871466666666,0.25126705330078675,0.9908928652911467,0.8954386527839182,0.8081771190244124
