file_name,test_id,_program_index,program_index,session_id,index,_index,unixtime,datetime_utc,datetime_jst,rtc_year,rtc_month,rtc_day,rtc_hour,rtc_min,rtc_sec,rtc_msec,gps_hour,gps_min,gps_sec,latitude,longitude,altitude,fix_type,SIV,acc_x,acc_y,acc_z,gyro_x,gyro_y,gyro_z,mag_x,mag_y,mag_z,illuminance,atmopress,water_pressure,water_temp,depth,alt_wps,battery_level,behavior_class,camera_command,camera_recording,camera_count,play_audio,speaker_on,audio_file,prev_sd_write_time_ms,delay_occurred_counter,acc_x_ma,acc_y_ma,acc_z_ma,gyro_x_ma,gyro_y_ma,gyro_z_ma,gyro_x_lowpass,gyro_y_lowpass,gyro_z_lowpass,angle_x,angle_y,angle_z,combined_angle_change,gravity_adjusted_angle,smoothed_angle_change,smoothed_gravity_angle,acc_x_dy,acc_y_dy,acc_z_dy,ODBA,VeDBA,smoothed_VeDBA_1s,smoothed_VeDBA_2s,smoothed_VeDBA_3s
LBP07_S01,LBP07,-1650,1,1,0,-1650,1716271371.0,2024-05-21 06:02:51+00:00,2024-05-21 15:02:51+09:00,2024,5,21,6,2,51,0,6.0,2.0,51.0,40.536221,141.543457,9.88,3.0,9.0,-0.734619,1.115723,2.073975,425.415039,-58.837891,-7.385254,-240.0,-8.0,402.0,1120.0,0.0,1020.299988,26.360001,0.072341,-58.496948,3.986719,0.0,1.0,1.0,1.0,0.0,0.0,0.0,6.0,0.0,,,,,,,424.2997902512,-60.476213753649965,-7.254880563925237,16.971991610048,-2.4190485501459986,-0.29019522255700947,17.145976448330323,,26.056755416982348,,,,,,,,,
LBP07_S01,LBP07,-1649,2,1,1,-1649,1716271371.04,2024-05-21 06:02:51.040000+00:00,2024-05-21 15:02:51.040000+09:00,2024,5,21,6,2,51,40,,,,,,,,,0.102051,3.183838,-0.218994,-755.065918,-2.319336,-8.422852,,,,,,,,,,,0.0,1.0,1.0,1.0,0.0,0.0,0.0,6.0,0.0,,,,,,,246.81690170076743,-39.907693110087145,4.4740173114071595,26.8446676780787,-4.015356274549484,-0.1112345301007231,27.143537755398317,,25.052181906465734,,,,,,,,,
LBP07_S01,LBP07,-1648,3,1,2,-1648,1716271371.08,2024-05-21 06:02:51.080000+00:00,2024-05-21 15:02:51.080000+09:00,2024,5,21,6,2,51,80,,,,,,,,,-0.861328,-0.658447,-0.051758,-121.887207,10.742188,-14.282227,,,,,,,,,,,0.0,1.0,1.0,1.0,0.0,0.0,0.0,6.0,0.0,,,,,,,90.18273436343685,-19.44806565693861,14.159468472634861,30.451977052616176,-4.793278900827029,0.4551442088046714,30.830270600255588,,23.593363352127984,,,,,,,,,
LBP07_S01,LBP07,-1647,4,1,3,-1647,1716271371.12,2024-05-21 06:02:51.120000+00:00,2024-05-21 15:02:51.120000+09:00,2024,5,21,6,2,51,120,,,,,,,,,0.296631,-1.394775,0.586182,-34.179688,-80.688477,67.504883,,,,,,,,,,,0.0,1.0,1.0,1.0,0.0,0.0,0.0,6.0,0.0,,,,,,,-29.650956601586728,0.5314654601352837,20.24539632848246,29.265938788552706,-4.772020282421617,1.2649600619439698,29.679411630109357,,22.027327158475387,,,,,,,,,
LBP07_S01,LBP07,-1646,5,1,4,-1646,1716271371.16,2024-05-21 06:02:51.160000+00:00,2024-05-21 15:02:51.160000+09:00,2024,5,21,6,2,51,160,,,,,,,,,0.670166,1.650879,0.218506,165.039062,-111.206055,17.51709,,,,,,,,,,,0.0,1.0,1.0,1.0,0.0,0.0,0.0,6.0,0.0,,,,,,,-104.72601379495177,19.206639157102856,21.895702442750864,25.076898236754637,-4.003754716137503,2.1407881596540044,25.48458065081817,,20.61461145959248,,,,,,,,,
LBP07_S01,LBP07,-1645,6,1,5,-1645,1716271371.2,2024-05-21 06:02:51.200000+00:00,2024-05-21 15:02:51.200000+09:00,2024,5,21,6,2,51,200,,,,,,,,,0.581543,-0.377197,1.621582,-447.998047,186.706543,115.966797,,,,,,,,,,,0.0,1.0,1.0,1.0,0.0,0.0,0.0,6.0,0.0,,,,,,,-135.74994227975023,35.26847312350784,19.148211667590076,19.646900545564627,-2.5930157911971894,2.9067166263576074,20.029314353882647,,19.484659062847257,,,,,,,,,
LBP07_S01,LBP07,-1644,7,1,6,-1644,1716271371.24,2024-05-21 06:02:51.240000+00:00,2024-05-21 15:02:51.240000+09:00,2024,5,21,6,2,51,240,,,,,,,,,0.260742,0.904541,1.582764,217.895508,-20.019531,4.333496,,,,,,,,,,,0.0,1.0,1.0,1.0,0.0,0.0,0.0,6.0,0.0,,,,,,,-130.58219043336132,47.15334372689553,12.840578853802727,14.423612928230174,-0.7068820421213682,3.4203397805097167,14.840452026101481,,18.79156205875014,,,,,,,,,
LBP07_S01,LBP07,-1643,8,1,7,-1643,1716271371.28,2024-05-21 06:02:51.280000+00:00,2024-05-21 15:02:51.280000+09:00,2024,5,21,6,2,51,280,,,,,,,,,-0.166992,0.614746,2.230957,-232.116699,83.618164,-92.895508,,,,,,,,,,,0.0,1.0,1.0,1.0,0.0,0.0,0.0,6.0,0.0,,,,,,,-101.41123060039418,53.4728764358144,4.307485541134544,10.367163704214406,1.4320330153112077,3.5926392021550986,11.065073802907213,,17.210266020394947,,,,,,,,,
LBP07_S01,LBP07,-1642,9,1,8,-1642,1716271371.32,2024-05-21 06:02:51.320000+00:00,2024-05-21 15:02:51.320000+09:00,2024,5,21,6,2,51,320,,,,,,,,,-0.47583,-0.003418,1.534668,285.03418,110.229492,-90.820312,,,,,,,,,,,0.0,1.0,1.0,1.0,0.0,0.0,0.0,6.0,0.0,,,,,,,-61.56984142627968,53.47534227354004,-5.042742902044665,7.904370047163218,3.57104670625281,3.390929486073312,9.312885868529236,,15.354827762220054,,,,,,,,,
LBP07_S01,LBP07,-1641,10,1,9,-1641,1716271371.36,2024-05-21 06:02:51.360000+00:00,2024-05-21 15:02:51.360000+09:00,2024,5,21,6,2,51,360,,,,,,,,,-0.843018,-0.813232,0.131592,-214.416504,142.089844,53.771973,,,,,,,,,,,0.0,1.0,1.0,1.0,0.0,0.0,0.0,6.0,0.0,,,,,,,-22.76864455828666,47.350115653618126,-14.092225898614732,6.993624264831752,5.465051332397535,2.827240450128723,9.315087492140242,,13.672953288983326,,,,,,,,,
LBP07_S01,LBP07,-1640,11,1,10,-1640,1716271371.4,2024-05-21 06:02:51.400000+00:00,2024-05-21 15:02:51.400000+09:00,2024,5,21,6,2,51,400,,,,,,,,,0.538574,0.481445,1.108887,-9.277344,-88.378906,45.227051,,,,,,,,,,,0.0,1.0,1.0,1.0,0.0,0.0,0.0,6.0,0.0,,,,,,,6.756283754206298,36.251302800061794,-22.179649768177775,7.2638756150000034,6.915103444400007,1.9400544594016118,10.215006407359155,,12.433612564506182,,,,,,,,,
LBP07_S01,LBP07,-1639,12,1,11,-1639,1716271371.44,2024-05-21 06:02:51.440000+00:00,2024-05-21 15:02:51.440000+09:00,2024,5,21,6,2,51,440,,,,,,,,,0.421631,0.474609,1.432861,237.487793,10.253906,-60.119629,,,,,,,,,,,0.0,1.0,1.0,1.0,0.0,0.0,0.0,6.0,0.0,,,,,,,23.02409945261481,22.035382179654196,-29.061066950065594,8.184839593104595,7.796518731586175,0.777611781398988,11.330577371846378,,11.749326576058117,,,,,,,,,
LBP07_S01,LBP07,-1638,13,1,12,-1638,1716271371.48,2024-05-21 06:02:51.480000+00:00,2024-05-21 15:02:51.480000+09:00,2024,5,21,6,2,51,480,,,,,,,,,-0.80835,-0.615723,1.88623,-278.137207,43.640137,-53.710938,,,,,,,,,,,0.0,1.0,1.0,1.0,0.0,0.0,0.0,6.0,0.0,,,,,,,26.138232818791458,6.832723036843041,-34.7618103425664,9.230368905856253,8.069827653059896,-0.612860632303668,12.275888018506677,,11.616565711754578,,,,,,,,,
LBP07_S01,LBP07,-1637,14,1,13,-1637,1716271371.52,2024-05-21 06:02:51.520000+00:00,2024-05-21 15:02:51.520000+09:00,2024,5,21,6,2,51,520,,,,,,,,,0.003174,0.890625,2.040039,222.290039,-132.202148,-29.418945,,,,,,,,,,,0.0,1.0,1.0,1.0,0.0,0.0,0.0,6.0,0.0,,,,,,,19.429011672818735,-7.3680613112919175,-39.41562895786357,10.007529372769001,7.77510520060822,-2.189485790618211,12.860666897742059,,11.95171060784053,,,,,,,,,
LBP07_S01,LBP07,-1636,15,1,14,-1636,1716271371.56,2024-05-21 06:02:51.560000+00:00,2024-05-21 15:02:51.560000+09:00,2024,5,21,6,2,51,560,,,,,,,,,0.490234,0.325439,1.171143,-167.419434,25.268555,-60.791016,,,,,,,,,,,0.0,1.0,1.0,1.0,0.0,0.0,0.0,6.0,0.0,,,,,,,8.214577482839507,-18.986260376858368,-43.128158208390204,10.336112472082581,7.015654785533885,-3.914612118953819,13.091173406046751,,12.628909648307225,,,,,,,,,
LBP07_S01,LBP07,-1635,16,1,15,-1635,1716271371.6,2024-05-21 06:02:51.600000+00:00,2024-05-21 15:02:51.600000+09:00,2024,5,21,6,2,51,600,,,,,,,,,-0.875488,-0.487549,-0.259033,23.376465,94.055176,-47.485352,,,,,,,,,,,0.0,1.0,1.0,1.0,0.0,0.0,0.0,6.0,0.0,,,,,,,-1.5406709828365097,-26.935312508349014,-45.867967830742295,10.274485632769121,5.938242285199924,-5.749330832183511,13.18645446940198,,13.557025611575071,,,,,,,,,
LBP07_S01,LBP07,-1634,17,1,16,-1634,1716271371.64,2024-05-21 06:02:51.640000+00:00,2024-05-21 15:02:51.640000+09:00,2024,5,21,6,2,51,640,,,,,,,,,-0.01123,-0.297363,-0.0354,83.496094,-5.737305,0.12207,,,,,,,,,,,0.0,1.0,1.0,1.0,0.0,0.0,0.0,6.0,0.0,,,,,,,-4.470105263840073,-30.60295013802169,-47.40016621021476,10.095681422215518,4.714124279679057,-7.645337480592102,13.512843383066109,,14.739499239462242,,,,,,,,,
LBP07_S01,LBP07,-1633,18,1,17,-1633,1716271371.68,2024-05-21 06:02:51.680000+00:00,2024-05-21 15:02:51.680000+09:00,2024,5,21,6,2,51,680,,,,,,,,,0.262451,1.191162,0.045166,163.513184,-176.208496,-6.164551,,,,,,,,,,,0.0,1.0,1.0,1.0,0.0,0.0,0.0,6.0,0.0,,,,,,,3.1461184088497434,-29.836645177432967,-47.30090340636243,10.221526158569509,3.5206584725817383,-9.5373736168466,14.416522763766716,,16.254173348146747,,,,,,,,,
LBP07_S01,LBP07,-1632,19,1,18,-1632,1716271371.72,2024-05-21 06:02:51.720000+00:00,2024-05-21 15:02:51.720000+09:00,2024,5,21,6,2,51,720,,,,,,,,,0.986328,-0.058594,1.638184,-243.530273,14.587402,-42.96875,,,,,,,,,,,0.0,1.0,1.0,1.0,0.0,0.0,0.0,6.0,0.0,,,,,,,22.57016686355485,-24.984198839106828,-45.08765813108052,11.124332833111703,2.521290519017465,-11.34087994208982,16.084876273196187,,18.204578244706553,,,,,,,,,
LBP07_S01,LBP07,-1631,20,1,19,-1631,1716271371.76,2024-05-21 06:02:51.760000+00:00,2024-05-21 15:02:51.760000+09:00,2024,5,21,6,2,51,760,,,,,,,,,-0.643555,0.775635,1.603027,95.214844,39.672852,-143.859863,,,,,,,,,,,0.0,1.0,1.0,1.0,0.0,0.0,0.0,6.0,0.0,,,,,,,52.12785941278062,-16.937287716836583,-40.4487917523814,13.209447209622928,1.8437990103440018,-12.958831612185076,18.5962471248187,,20.672552234344295,,,,,,,,,
LBP07_S01,LBP07,-1630,21,1,20,-1630,1716271371.8,2024-05-21 06:02:51.800000+00:00,2024-05-21 15:02:51.800000+09:00,2024,5,21,6,2,51,800,,,,,,,,,-0.410156,0.470703,1.713623,-132.93457,-112.548828,-80.932617,,,,,,,,,,,0.0,1.0,1.0,1.0,0.0,0.0,0.0,6.0,0.0,,,,,,,87.26224024549863,-7.087022508527024,-33.47481333447936,16.699936819442872,1.5603181100029209,-14.29782414556425,22.039742686230863,,23.67854165601233,,,,,,,,,
LBP07_S01,LBP07,-1629,22,1,21,-1629,1716271371.84,2024-05-21 06:02:51.840000+00:00,2024-05-21 15:02:51.840000+09:00,2024,5,21,6,2,51,840,,,,,,,,,-0.020996,-0.422119,2.055176,82.458496,-14.038086,-12.084961,,,,,,,,,,,0.0,1.0,1.0,1.0,0.0,0.0,0.0,6.0,0.0,,,,,,,121.32227920865877,2.85605692886762,-24.75186332127699,21.55282798778922,1.6745603871576256,-15.287898678415331,26.477318458691414,,27.157653923990114,,,,,,,,,
LBP07_S01,LBP07,-1628,23,1,22,-1628,1716271371.88,2024-05-21 06:02:51.880000+00:00,2024-05-21 15:02:51.880000+09:00,2024,5,21,6,2,51,880,,,,,,,,,-0.208252,-0.97876,0.382324,322.32666,170.043945,51.940918,,,,,,,,,,,0.0,1.0,1.0,1.0,0.0,0.0,0.0,6.0,0.0,,,,,,,147.0809191762568,11.159447340481876,-15.238350413833997,27.436064754839492,2.1209382807769006,-15.89743269496869,31.77993698410477,,30.95952781395864,,,,,,,,,
LBP07_S01,LBP07,-1627,24,1,23,-1627,1716271371.92,2024-05-21 06:02:51.920000+00:00,2024-05-21 15:02:51.920000+09:00,2024,5,21,6,2,51,920,,,,,,,,,-0.217529,1.030029,-0.285645,460.754395,-80.322266,51.269531,,,,,,,,,,,0.0,1.0,1.0,1.0,0.0,0.0,0.0,6.0,0.0,,,,,,,158.62950715392932,16.41253954978905,-5.983515916848886,33.781245040996666,2.7774398627684627,-16.136773331642647,37.540406794119455,,34.87633265864497,,,,,,,,,
LBP07_S01,LBP07,-1626,25,1,24,-1626,1716271371.96,2024-05-21 06:02:51.960000+00:00,2024-05-21 15:02:51.960000+09:00,2024,5,21,6,2,51,960,,,,,,,,,0.313477,-0.447021,1.361328,-20.996094,39.916992,9.643555,,,,,,,,,,,0.0,1.0,1.0,1.0,0.0,0.0,0.0,6.0,0.0,,,,,,,153.02919696452582,17.81747992796549,2.1471302298699158,39.9024129195777,3.490139059887082,-16.05088812244785,43.15106762272711,,38.68812677821178,,,,,,,,,
LBP07_S01,LBP07,-1625,26,1,25,-1625,1716271372.0,2024-05-21 06:02:52+00:00,2024-05-21 15:02:52+09:00,2024,5,21,6,2,52,0,6.0,2.0,52.0,40.536236,141.543411,10.005,3.0,9.0,0.476074,1.351562,0.901855,344.055176,-12.939453,-12.939453,-234.0,8.0,399.0,1080.0,0.0,1020.200012,26.360001,0.07135,-57.669693,3.986719,1.0,1.0,1.0,1.0,0.0,0.0,0.0,5.0,0.0,,,,,,,131.12409653730188,15.346616662046605,8.589576513708812,45.147376781069774,4.104003726368946,-15.707305061899499,47.97757714917982,,42.1993249074402,,,,,,,,,
LBP07_S01,LBP07,-1624,27,1,26,-1624,1716271372.04,2024-05-21 06:02:52.040000+00:00,2024-05-21 15:02:52.040000+09:00,2024,5,21,6,2,52,40,,,,,,,,,-0.094727,0.089844,1.590088,-88.195801,87.82959,-36.865234,,,,,,,,,,,1.0,1.0,1.0,1.0,0.0,0.0,0.0,5.0,0.0,,,,,,,97.25274854774668,9.738406852202143,13.014213058602603,49.037486722979644,4.493540000457032,-15.186736539555394,51.53158228275141,,45.253932514945504,,,,,,,,,
LBP07_S01,LBP07,-1623,28,1,27,-1623,1716271372.08,2024-05-21 06:02:52.080000+00:00,2024-05-21 15:02:52.080000+09:00,2024,5,21,6,2,52,80,,,,,,,,,-0.277344,0.588867,1.397217,35.461426,-44.250488,-20.446777,,,,,,,,,,,1.0,1.0,1.0,1.0,0.0,0.0,0.0,5.0,0.0,,,,,,,58.026416212328506,2.339351358956715,15.178462293607224,51.358543371472784,4.5871140548153,-14.579598047811105,53.58457121062995,,47.742845009339995,,,,,,,,,
LBP07_S01,LBP07,-1622,29,1,28,-1622,1716271372.12,2024-05-21 06:02:52.120000+00:00,2024-05-21 15:02:52.120000+09:00,2024,5,21,6,2,52,120,,,,,,,,,0.123779,-0.037109,1.104736,-38.757324,31.433105,-36.132812,,,,,,,,,,,1.0,1.0,1.0,1.0,0.0,0.0,0.0,5.0,0.0,,,,,,,20.63737587189084,-5.189060116712051,14.85524493791926,52.18403840634842,4.379551650146818,-13.985388250294335,54.20281746886431,,49.61624165897645,,,,,,,,,
LBP07_S01,LBP07,-1621,30,1,29,-1621,1716271372.16,2024-05-21 06:02:52.160000+00:00,2024-05-21 15:02:52.160000+09:00,2024,5,21,6,2,52,160,,,,,,,,,-0.256592,0.226562,-0.203125,-15.380859,-7.202148,49.499512,,,,,,,,,,,1.0,1.0,1.0,1.0,0.0,0.0,0.0,5.0,0.0,,,,,,,-8.773785192817646,-11.257336180002033,11.93493031897547,51.833086998635714,3.929258202946737,-13.507991037535316,53.70822841710288,,50.896270304252624,,,,,,,,,
LBP07_S01,LBP07,-1620,31,1,30,-1620,1716271372.2,2024-05-21 06:02:52.200000+00:00,2024-05-21 15:02:52.200000+09:00,2024,5,21,6,2,52,200,,,,,,,,,0.078613,-0.431152,0.219238,-126.953125,-54.443359,110.412598,,,,,,,,,,,1.0,1.0,1.0,1.0,0.0,0.0,0.0,5.0,0.0,,,,,,,-26.284084736636757,-14.74449380955349,6.666577306188183,50.78172360917024,3.3394784505645974,-13.241327945287788,52.58581876128395,,51.678013806340616,,,,,,,,,
LBP07_S01,LBP07,-1619,32,1,31,-1619,1716271372.24,2024-05-21 06:02:52.240000+00:00,2024-05-21 15:02:52.240000+09:00,2024,5,21,6,2,52,240,,,,,,,,,0.446045,0.501221,0.201904,154.541016,-157.165527,26.611328,,,,,,,,,,,1.0,1.0,1.0,1.0,0.0,0.0,0.0,5.0,0.0,,,,,,,-30.691483343870807,-15.279928467566524,-0.12263959542251604,49.55406427541541,2.7282813118619362,-13.246233529104689,51.366443402636264,,52.11400380710836,,,,,,,,,
LBP07_S01,LBP07,-1618,33,1,32,-1618,1716271372.28,2024-05-21 06:02:52.280000+00:00,2024-05-21 15:02:52.280000+09:00,2024,5,21,6,2,52,280,,,,,,,,,0.124023,-1.295898,0.974609,-247.314453,71.838379,26.672363,,,,,,,,,,,1.0,1.0,1.0,1.0,0.0,0.0,0.0,5.0,0.0,,,,,,,-23.367899746090995,-13.28643515823908,-7.026233525646016,48.619348285571775,2.196823905532373,-13.527282870130529,50.513903480469374,,52.38615345329352,,,,,,,,,
LBP07_S01,LBP07,-1617,34,1,33,-1617,1716271372.32,2024-05-21 06:02:52.320000+00:00,2024-05-21 15:02:52.320000+09:00,2024,5,21,6,2,52,320,,,,,,,,,0.343262,1.48999,1.254639,192.749023,9.155273,-31.555176,,,,,,,,,,,1.0,1.0,1.0,1.0,0.0,0.0,0.0,5.0,0.0,,,,,,,-7.620219231381429,-9.733254087915517,-12.374302346760263,48.314539516316515,1.8074937420157522,-14.02225496400094,50.340693246881145,,52.67267052282965,1.494777475419157,,,,,,,,
LBP07_S01,LBP07,-1616,35,1,34,-1616,1716271372.36,2024-05-21 06:02:52.360000+00:00,2024-05-21 15:02:52.360000+09:00,2024,5,21,6,2,52,360,,,,,,,,,0.075195,0.92749,1.351318,62.133789,0.0,-137.207031,,,,,,,,,,,1.0,1.0,1.0,1.0,0.0,0.0,0.0,5.0,0.0,,,,,,,12.212686540299725,-5.684500626769409,-14.780891350522886,48.8030469779285,1.580113716944976,-14.613490618021855,50.968502643607124,,53.11768292763403,1.4629277359504693,,,,,,,,
LBP07_S01,LBP07,-1615,36,1,35,-1615,1716271372.4,2024-05-21 06:02:52.400000+00:00,2024-05-21 15:02:52.400000+09:00,2024,5,21,6,2,52,400,,,,,,,,,-0.033691,-0.807861,1.481934,-132.507324,100.280762,-121.948242,,,,,,,,,,,1.0,1.0,1.0,1.0,0.0,0.0,0.0,5.0,0.0,,,,,,,31.697976654534997,-1.8483061008319044,-13.675672920953868,50.0709660441099,1.5061814729116998,-15.16051753486001,52.337477156857176,,53.80974766595443,1.4156696388959464,,,,,,,,
LBP07_S01,LBP07,-1614,37,1,36,-1614,1716271372.44,2024-05-21 06:02:52.440000+00:00,2024-05-21 15:02:52.440000+09:00,2024,5,21,6,2,52,440,,,,,,,,,-0.5271,-0.395264,0.097168,75.622559,84.533691,38.452148,,,,,,,,,,,1.0,1.0,1.0,1.0,0.0,0.0,0.0,5.0,0.0,,,,,,,47.1114772000637,1.650768986181313,-9.540871693759724,51.95542513211245,1.5722122323589522,-15.542152402610398,54.25307874460296,,54.77262380203952,1.3779731127131525,,,,,,,,
LBP07_S01,LBP07,-1613,38,1,37,-1613,1716271372.48,2024-05-21 06:02:52.480000+00:00,2024-05-21 15:02:52.480000+09:00,2024,5,21,6,2,52,480,,,,,,,,,-0.091309,0.294434,0.350586,96.923828,-116.455078,60.546875,,,,,,,,,,,1.0,1.0,1.0,1.0,0.0,0.0,0.0,5.0,0.0,0.015660773333333336,0.20957686666666667,1.0593620000000001,-0.8878580800000009,9.959309880000001,2.285156266666667,56.01622945528431,5.157788056432315,-3.711839604349858,54.19607431032382,1.778523754616245,-15.690625986784392,56.44974190599129,1.494777475419157,55.968351715997734,1.364737607011269,-0.10696977333333334,0.0848571333333333,-0.7087760000000001,0.9006029066666668,0.7218079271250322,0.7218079271250322,0.7218079271250322,0.7218079271250322
LBP07_S01,LBP07,-1612,39,1,38,-1612,1716271372.52,2024-05-21 06:02:52.520000+00:00,2024-05-21 15:02:52.520000+09:00,2024,5,21,6,2,52,520,,,,,,,,,0.885498,0.07666,1.133301,142.578125,-116.210938,83.496094,,,,,,,,,,,1.0,1.0,1.0,1.0,0.0,0.0,0.0,5.0,0.0,0.026907519999999997,0.19464195999999997,1.0311230666666666,-8.728841146666667,9.89420572,2.7164713733333343,57.56301300345815,9.095130313821207,2.164094490103626,56.498594830462146,2.1423289671690933,-15.604062207180247,58.65294151690814,1.4310779964817817,57.31011289865984,1.357789977458195,0.85859048,-0.11798195999999997,0.10217793333333325,1.0787503733333332,0.8726612660662459,0.7972345965956391,0.7972345965956391,0.7972345965956391
LBP07_S01,LBP07,-1611,40,1,39,-1611,1716271372.56,2024-05-21 06:02:52.560000+00:00,2024-05-21 15:02:52.560000+09:00,2024,5,21,6,2,52,560,,,,,,,,,0.138428,1.87915,0.820312,285.15625,72.387695,30.578613,,,,,,,,,,,1.0,1.0,1.0,1.0,0.0,0.0,0.0,5.0,0.0,0.03756832,0.14874677333333333,1.0417382933333335,-2.8198242133333347,9.016113266666668,4.152018253333334,52.43926551863438,13.521731909047935,6.736175931399738,58.59616545120752,2.6831982435310104,-15.334615169924257,60.62887580030694,1.3211534447869013,58.681300007545325,1.3675442015814618,0.10085968,1.7304032266666667,-0.2214262933333334,2.0526892,1.7474259942233472,1.1139650624715418,1.1139650624715418,1.1139650624715418
LBP07_S01,LBP07,-1610,41,1,40,-1610,1716271372.6,2024-05-21 06:02:52.600000+00:00,2024-05-21 15:02:52.600000+09:00,2024,5,21,6,2,52,600,,,,,,,,,-0.18042,0.359863,2.221436,-276.550293,-51.330566,-15.563965,,,,,,,,,,,1.0,1.0,1.0,1.0,0.0,0.0,0.0,5.0,0.0,0.044583293333333336,0.14230797333333334,1.0583398533333332,1.8733723999999992,8.358561173333333,4.113769560000001,42.42664970394016,17.91154694627016,9.347888487508051,60.29323143936512,3.399660121381817,-14.960699630423935,62.21458012213478,1.2648835341647695,59.95718744699781,1.3762697867806482,-0.22500329333333333,0.21755502666666665,1.163096146666667,1.605654466666667,1.204470555069583,1.136591435621052,1.136591435621052,1.136591435621052
LBP07_S01,LBP07,-1609,42,1,41,-1609,1716271372.64,2024-05-21 06:02:52.640000+00:00,2024-05-21 15:02:52.640000+09:00,2024,5,21,6,2,52,640,,,,,,,,,0.215088,-0.516113,2.591553,-232.299805,-0.183105,-28.625488,,,,,,,,,,,1.0,1.0,1.0,1.0,0.0,0.0,0.0,5.0,0.0,0.04255204,0.16229819999999998,1.0742513066666668,5.797526053333333,9.632161439999999,2.4422200800000002,29.6960917110618,21.288731802225616,10.099180142649205,61.4810751078076,4.251209393470842,-14.556732424717968,63.32372254221833,1.3117955842037345,61.02587308917019,1.3761179784940736,0.17253596,-0.6784112,1.5173016933333334,2.3682488533333332,1.6709921730429387,1.2434715831054295,1.2434715831054295,1.2434715831054295
LBP07_S01,LBP07,-1608,43,1,42,-1608,1716271372.68,2024-05-21 06:02:52.680000+00:00,2024-05-21 15:02:52.680000+09:00,2024,5,21,6,2,52,680,,,,,,,,,-0.097412,0.890625,1.004639,270.446777,226.745605,-70.43457,,,,,,,,,,,1.0,1.0,1.0,1.0,0.0,0.0,0.0,5.0,0.0,0.035797480000000007,0.14264650666666664,1.0941536533333331,3.3577474133333327,11.916503893333333,2.200520853333334,16.15866048513436,22.648384347841446,9.635583046295928,62.127421527212974,5.1571447673845,-14.17130910286613,63.93151530709047,1.3230518296928255,61.805855139575684,1.3672144718783397,-0.13320948,0.7479784933333333,-0.08951465333333308,0.9707026266666664,0.7650029184339499,1.1637268056601828,1.1637268056601828,1.1637268056601828
LBP07_S01,LBP07,-1607,44,1,43,-1607,1716271372.72,2024-05-21 06:02:52.720000+00:00,2024-05-21 15:02:52.720000+09:00,2024,5,21,6,2,52,720,,,,,,,,,-0.362793,-0.061035,0.342285,75.561523,20.141602,107.727051,,,,,,,,,,,1.0,1.0,1.0,1.0,0.0,0.0,0.0,5.0,0.0,0.022187453333333333,0.15375328000000002,1.0739681066666666,10.3841146,11.027832013333333,0.16764325333333394,3.1749513534416844,21.433322879316737,8.826237204583263,62.25441958135064,6.014477682557169,-13.8182596146828,64.05256433573605,1.4260695463210638,62.258643224600505,1.3456323242148835,-0.3849804533333333,-0.21478828000000003,-0.7316831066666667,1.3314518400000002,0.8542272082154033,1.1195125774537857,1.1195125774537857,1.1195125774537857
LBP07_S01,LBP07,-1606,45,1,44,-1606,1716271372.76,2024-05-21 06:02:52.760000+00:00,2024-05-21 15:02:52.760000+09:00,2024,5,21,6,2,52,760,,,,,,,,,0.201904,0.644043,0.619629,-68.54248,4.943848,-9.521484,,,,,,,,,,,1.0,1.0,1.0,1.0,0.0,0.0,0.0,5.0,0.0,0.02040034666666667,0.15355797333333332,1.04760092,7.406412773333333,10.795084613333334,0.16682945333333393,-8.331095165029208,17.809815171742567,8.470037614488882,61.92117577474947,6.726870289426872,-13.479458110103245,63.72737703813191,1.4373488831749512,62.39535291133082,1.3340045991577891,0.18150365333333332,0.4904850266666667,-0.42797192000000006,1.0999606000000002,0.6757803651083938,1.0640460509106118,1.0640460509106118,1.0640460509106118
LBP07_S01,LBP07,-1605,46,1,45,-1605,1716271372.8,2024-05-21 06:02:52.800000+00:00,2024-05-21 15:02:52.800000+09:00,2024,5,21,6,2,52,800,,,,,,,,,0.354248,-0.369873,0.769775,-114.990234,-40.161133,15.74707,,,,,,,,,,,1.0,1.0,1.0,1.0,0.0,0.0,0.0,5.0,0.0,0.028678333333333333,0.14592450666666668,1.0236263066666664,7.16796876,8.704427066666668,2.101237013333334,-17.558784017225157,12.605691280851781,9.082710248340772,61.218824414060464,7.231097940660943,-13.116149700169615,63.02433357858103,1.3749035122014774,62.276039885720635,1.338693164116735,0.32556966666666665,-0.5157975066666667,-0.25385130666666644,1.0952184799999998,0.6606687230627528,1.0192263478164052,1.0192263478164052,1.0192263478164052
LBP07_S01,LBP07,-1604,47,1,46,-1604,1716271372.84,2024-05-21 06:02:52.840000+00:00,2024-05-21 15:02:52.840000+09:00,2024,5,21,6,2,52,840,,,,,,,,,0.036865,-0.196533,0.845459,87.524414,-33.081055,10.314941,,,,,,,,,,,1.0,1.0,1.0,1.0,0.0,0.0,0.0,5.0,0.0,0.039033146666666664,0.13493817333333333,1.0188151066666666,2.9085286533333337,7.608235666666666,2.870279973333334,-23.563247298164356,6.9744119890349925,10.758856403479419,60.27629452213389,7.510074420222343,-12.685795444030438,62.05289924865791,1.2870829123367356,62.00062107766608,1.3477992467396647,-0.002168146666666662,-0.3314711733333333,-0.17335610666666668,0.5069954266666666,0.3740724252461942,0.954710955559384,0.954710955559384,0.954710955559384
LBP07_S01,LBP07,-1603,48,1,47,-1603,1716271372.88,2024-05-21 06:02:52.880000+00:00,2024-05-21 15:02:52.880000+09:00,2024,5,21,6,2,52,880,,,,,,,,,0.101074,0.471436,1.085938,130.249023,-66.772461,-17.883301,,,,,,,,,,,1.0,1.0,1.0,1.0,0.0,0.0,0.0,5.0,0.0,0.04811844,0.16195965333333334,1.0309635466666667,5.196940106666666,6.040852853333334,1.4884440266666672,-25.192784291078564,1.9932577149779096,13.109122873407248,59.26858315049075,7.589804728821459,-12.161430529094147,60.97762275623952,1.2789559987845949,61.691622680308,1.3514845755818272,0.05295556,0.3094763466666667,0.054974453333333395,0.4174063600000001,0.31875082901909335,0.8968963986011759,0.8968963986011759,0.8968963986011759
LBP07_S01,LBP07,-1602,49,1,48,-1602,1716271372.92,2024-05-21 06:02:52.920000+00:00,2024-05-21 15:02:52.920000+09:00,2024,5,21,6,2,52,920,,,,,,,,,0.189453,0.468262,1.201416,-8.850098,20.690918,-11.352539,,,,,,,,,,,1.0,1.0,1.0,1.0,0.0,0.0,0.0,5.0,0.0,0.039016880000000004,0.15051109333333335,1.0415625066666667,4.068196626666667,6.031087226666668,-0.06184894666666613,-21.324485273677663,-1.5981536509853265,15.306436105885016,58.41560373954364,7.525878582782046,-11.549173084858747,60.020038384211226,1.3148007459108384,61.471398393541335,1.3510297570738214,0.15043612,0.31775090666666667,0.15985349333333332,0.62804052,0.38619917687511085,0.8543382967906704,0.8543382967906704,0.8543382967906704
LBP07_S01,LBP07,-1601,50,1,49,-1601,1716271372.96,2024-05-21 06:02:52.960000+00:00,2024-05-21 15:02:52.960000+09:00,2024,5,21,6,2,52,960,,,,,,,,,-0.147461,-0.306885,0.824463,-99.67041,102.539062,-22.827148,,,,,,,,,,,1.0,1.0,1.0,1.0,0.0,0.0,0.0,5.0,0.0,0.03224604,0.158571,1.0454231866666668,-1.3745117066666663,6.788736973333334,-1.6682942533333327,-11.412490656772288,-3.4397962429887277,16.282866862347845,57.95910411327275,7.388286733062497,-10.897858410364833,59.435745544205105,1.3680390943763583,61.43857326085889,1.3347735721662157,-0.17970704,-0.465456,-0.22096018666666684,0.8661232266666669,0.5456805954524403,0.8305953966877296,0.8305953966877296,0.8305953966877296
LBP07_S01,LBP07,-1600,51,1,50,-1600,1716271373.0,2024-05-21 06:02:53+00:00,2024-05-21 15:02:53+09:00,2024,5,21,6,2,53,0,6.0,2.0,53.0,40.53627,141.543381,9.474,3.0,9.0,0.056885,0.075684,0.367676,-154.602051,40.893555,62.683105,-239.0,0.0,402.0,994.0,0.0,1019.700012,26.379999,0.066396,-53.531441,3.986719,0.0,1.0,1.0,1.0,0.0,0.0,0.0,5.0,0.0,0.034130813333333336,0.15819990666666667,1.0162760533333333,-4.83235676,6.571451813333334,-0.27018226666666606,3.8191571097723798,-3.4503968203449045,15.077181452303202,58.111870397663644,7.2502708602487,-10.294771152272705,59.46039204158928,1.3559443603940662,61.64914519202004,1.3239917780253843,0.022754186666666662,-0.08251590666666667,-0.6486000533333333,0.7538701466666666,0.6542237056602935,0.8179974187571986,0.8179974187571986,0.8179974187571986
LBP07_S01,LBP07,-1599,52,1,51,-1599,1716271373.04,2024-05-21 06:02:53.040000+00:00,2024-05-21 15:02:53.040000+09:00,2024,5,21,6,2,53,40,,,,,,,,,0.208252,0.042725,0.204102,-79.162598,-37.04834,48.64502,,,,,,,,,,,0.0,1.0,1.0,1.0,0.0,0.0,0.0,5.0,0.0,0.03124994666666667,0.13963870666666667,0.9944726666666666,-10.145670560000001,9.228515613333334,-0.16113278666666606,21.911535207599783,-1.7381115948085963,11.253383985612427,58.98833180596763,7.180746396456357,-9.844635792848209,60.233738568637605,1.3486488726253623,62.10658070496446,1.3185286659294166,0.17700205333333333,-0.09691370666666667,-0.7903706666666666,1.0642864266666665,0.8157253117019232,0.8178459449535135,0.8178459449535135,0.8178459449535135
LBP07_S01,LBP07,-1598,53,1,52,-1598,1716271373.08,2024-05-21 06:02:53.080000+00:00,2024-05-21 15:02:53.080000+09:00,2024,5,21,6,2,53,80,,,,,,,,,0.378418,-0.684326,0.513184,-46.508789,-79.406738,78.308105,,,,,,,,,,,0.0,1.0,1.0,1.0,0.0,0.0,0.0,5.0,0.0,0.03350256000000001,0.13100916,0.9955826933333333,-7.37955728,7.63264972,0.5900065466666673,38.83597907813765,1.3790149278196429,5.233799950486037,60.541770969093136,7.2359069935691425,-9.635283794828768,61.72927243942375,1.3185036446127658,62.76273771028701,1.3427776924350194,0.34491543999999996,-0.8153351600000001,-0.4823986933333333,1.6426492933333332,1.0081897555581125,0.8297424331163009,0.8297424331163009,0.8297424331163009
LBP07_S01,LBP07,-1597,54,1,53,-1597,1716271373.12,2024-05-21 06:02:53.120000+00:00,2024-05-21 15:02:53.120000+09:00,2024,5,21,6,2,53,120,,,,,,,,,0.084961,0.048584,1.110596,78.857422,39.916992,-6.652832,,,,,,,,,,,0.0,1.0,1.0,1.0,0.0,0.0,0.0,5.0,0.0,0.042067013333333333,0.13357752,1.02097332,-5.4069010266666675,6.89941404,0.8732096800000005,49.951875892954696,5.28149471150261,-1.6249115652579522,62.539846004811324,7.447166782029247,-9.700280257439086,63.72431300891158,1.263507697245007,63.52852221873165,1.3598792291323976,0.04289398666666666,-0.08499352,0.08962267999999995,0.2175101866666666,0.130751739202708,0.7886253334743248,0.7886253334743248,0.7886253334743248
LBP07_S01,LBP07,-1596,55,1,54,-1596,1716271373.16,2024-05-21 06:02:53.160000+00:00,2024-05-21 15:02:53.160000+09:00,2024,5,21,6,2,53,160,,,,,,,,,0.064697,-0.883057,2.097656,417.541504,-56.152344,-40.527344,,,,,,,,,,,0.0,1.0,1.0,1.0,0.0,0.0,0.0,5.0,0.0,0.03576166666666667,0.14668298666666665,1.0427083466666667,-3.0102538933333345,6.530761706666667,0.375162813333334,51.50827514239969,9.019723053288015,-7.304838919159159,64.60017701050731,7.807955704160768,-9.992473814205452,65.83309634974339,1.3295309417666372,64.29123179758992,1.3634619193846413,0.028935333333333334,-1.0297399866666666,1.0549476533333335,2.1136229733333334,1.4744884689033295,0.8267288409981585,0.8267288409981585,0.8267288409981585
LBP07_S01,LBP07,-1595,56,1,55,-1595,1716271373.2,2024-05-21 06:02:53.200000+00:00,2024-05-21 15:02:53.200000+09:00,2024,5,21,6,2,53,200,,,,,,,,,-0.030029,2.24707,1.817383,264.404297,2.13623,6.591797,,,,,,,,,,,0.0,1.0,1.0,1.0,0.0,0.0,0.0,5.0,0.0,0.03292964,0.12955082666666665,1.0756836133333334,-5.411783840000001,9.3017578,0.2449544800000006,42.08195768131116,11.463346522001617,-9.696603994434494,66.28345531775976,8.266489565040832,-10.380337973982831,67.5986887080252,1.3202723912418002,64.93526724495253,1.3586103855163516,-0.06295864000000001,2.117519173333333,0.7416993866666666,2.9221772,2.244542095833055,0.9013505912526266,0.9013505912526266,0.9013505912526266
LBP07_S01,LBP07,-1594,57,1,56,-1594,1716271373.24,2024-05-21 06:02:53.240000+00:00,2024-05-21 15:02:53.240000+09:00,2024,5,21,6,2,53,240,,,,,,,,,0.072998,0.5896,2.368652,-243.041992,21.911621,-80.871582,,,,,,,,,,,0.0,1.0,1.0,1.0,0.0,0.0,0.0,5.0,0.0,0.006123000000000003,0.14992844,1.0583886800000002,1.6015625066666663,11.45833332,-1.2784830133333327,23.280694300897352,11.640513671156715,-7.280357236433404,67.21468308979566,8.732110111887101,-10.671552263440168,68.61446930188353,1.529573177392764,65.36346809140925,1.3596486096731515,0.06687499999999999,0.43967156,1.3102633199999998,1.8168098799999997,1.3836810738155145,0.9254671153807712,0.9254671153807712,0.9254671153807712
LBP07_S01,LBP07,-1593,58,1,57,-1593,1716271373.28,2024-05-21 06:02:53.280000+00:00,2024-05-21 15:02:53.280000+09:00,2024,5,21,6,2,53,280,,,,,,,,,0.255371,0.517334,2.225098,-55.297852,96.069336,-52.79541,,,,,,,,,,,0.0,1.0,1.0,1.0,0.0,0.0,0.0,5.0,0.0,0.017639933333333337,0.14668950666666666,1.0444856933333333,0.9505208399999996,9.376627586666665,1.6243490133333338,-0.6272340919950886,9.158553501437675,0.32573779362784516,67.18959372611586,9.098452251944607,-10.658522751695054,68.63546784068586,1.449971365758377,65.5162407633594,1.3578297426919321,0.23773106666666668,0.37064449333333327,1.1806123066666667,1.7889878666666665,1.2600550857599766,0.941399875875019,0.941399875875019,0.941399875875019
LBP07_S01,LBP07,-1592,59,1,58,-1592,1716271373.32,2024-05-21 06:02:53.320000+00:00,2024-05-21 15:02:53.320000+09:00,2024,5,21,6,2,53,320,,,,,,,,,-0.329834,-0.531982,1.45459,-153.076172,116.149902,-30.822754,,,,,,,,,,,0.0,1.0,1.0,1.0,0.0,0.0,0.0,5.0,0.0,0.031669880000000004,0.14279953333333334,1.0293750133333333,-1.0603841066666666,10.686035133333332,3.2633464133333336,-23.961466288941935,4.5116819381673094,12.158673316689542,66.23113507455818,9.278919529471299,-10.172175819027473,67.64713417279391,1.3506276484332769,65.38457063517446,1.3666797867839544,-0.36150388,-0.6747815333333333,0.4252149866666668,1.4615004,0.8756842797884821,0.9384128033256309,0.9384128033256309,0.9384128033256309
LBP07_S01,LBP07,-1591,60,1,59,-1591,1716271373.36,2024-05-21 06:02:53.360000+00:00,2024-05-21 15:02:53.360000+09:00,2024,5,21,6,2,53,360,,,,,,,,,0.077148,0.135498,0.052979,91.247559,-27.587891,78.918457,,,,,,,,,,,0.0,1.0,1.0,1.0,0.0,0.0,0.0,5.0,0.0,0.03390621333333334,0.13313481333333335,1.01907228,1.7057291733333333,10.66406248,3.371582093333334,-41.20619233160672,-0.9212927703192203,26.138620366708324,64.58288738129392,9.24206781865853,-9.12663100435914,65.87610001783125,1.3195237556934587,65.01252084316373,1.3847680458955822,0.04324178666666666,0.0023631866666666557,-0.96609328,1.0116982533333334,0.9670634221324399,0.9396584824041878,0.9396584824041878,0.9396584824041878
LBP07_S01,LBP07,-1590,61,1,60,-1590,1716271373.4,2024-05-21 06:02:53.400000+00:00,2024-05-21 15:02:53.400000+09:00,2024,5,21,6,2,53,400,,,,,,,,,-0.022705,0.155273,0.179443,-58.166504,-60.668945,104.980469,,,,,,,,,,,0.0,1.0,1.0,1.0,0.0,0.0,0.0,5.0,0.0,0.03113929333333334,0.15171229333333333,1.0310807466666665,0.80891928,8.374023426666668,1.7163086533333338,-48.39214571600781,-5.267450718322041,39.65828250913489,62.647201552653605,9.031369789925648,-7.540299703993744,63.742400506156294,1.3663266019620675,64.48680207530533,1.3875915424189853,-0.053844293333333335,0.003560706666666663,-0.8516377466666665,0.9090427466666665,0.8533456146861067,0.9360621129159344,0.9360621129159344,0.9360621129159344
LBP07_S01,LBP07,-1589,62,1,61,-1589,1716271373.44,2024-05-21 06:02:53.440000+00:00,2024-05-21 15:02:53.440000+09:00,2024,5,21,6,2,53,440,,,,,,,,,0.49292,0.086914,0.365967,-67.138672,-136.413574,112.854004,,,,,,,,,,,0.0,1.0,1.0,1.0,0.0,0.0,0.0,5.0,0.0,0.03388668,0.13941412,1.0493424666666666,-3.638509106666666,8.881022133333333,1.0253906933333334,-44.01008477462642,-6.811811519473318,50.30899013025838,60.88679816166855,8.758897329146716,-5.527940098783409,61.7614652881393,1.3304602028131653,63.91504373306795,1.3806223326591804,0.45903332,-0.05250012,-0.6833754666666667,1.1949089066666667,0.8249059824683789,0.9316158676980322,0.9316158676980322,0.9316158676980322
LBP07_S01,LBP07,-1588,63,1,62,-1588,1716271373.48,2024-05-21 06:02:53.480000+00:00,2024-05-21 15:02:53.480000+09:00,2024,5,21,6,2,53,480,,,,,,,,,0.299316,0.043457,0.839355,-59.814453,-10.070801,52.612305,,,,,,,,,,,0.0,1.0,1.0,1.0,0.0,0.0,0.0,5.0,0.0,0.025390586666666673,0.1553158,1.0306445466666665,-4.70784504,8.821614586666666,0.08300788000000021,-29.37990126316387,-4.61921557086944,56.46859623407324,59.711602111142,8.574128706311939,-3.2691962494204794,60.412571157574185,1.4070040855329917,63.398031193611565,1.3585462969448285,0.27392541333333337,-0.11185880000000001,-0.19128954666666653,0.5770737599999999,0.35233395219765057,0.916836908700937,0.9093357940249406,0.9093357940249406
LBP07_S01,LBP07,-1587,64,1,63,-1587,1716271373.52,2024-05-21 06:02:53.520000+00:00,2024-05-21 15:02:53.520000+09:00,2024,5,21,6,2,53,520,,,,,,,,,0.118164,0.513916,1.182617,-70.251465,-12.939453,20.812988,,,,,,,,,,,0.0,1.0,1.0,1.0,0.0,0.0,0.0,5.0,0.0,0.016663373333333342,0.13219732,1.02144208,-8.50179036,8.636881506666665,0.09684252000000032,-8.454228332327432,1.1676384977085137,57.56254012554898,59.3734329778489,8.62083424622028,-0.9666946443985203,60.00381508880438,1.4443902883612851,63.00279371421326,1.339916446368914,0.10150062666666666,0.38171868000000003,0.1611749200000001,0.6443942266666668,0.4266015502921607,0.8989945200699736,0.8914567479607636,0.8914567479607636
LBP07_S01,LBP07,-1586,65,1,64,-1586,1716271373.56,2024-05-21 06:02:53.560000+00:00,2024-05-21 15:02:53.560000+09:00,2024,5,21,6,2,53,560,,,,,,,,,0.219727,0.131348,1.832764,-128.845215,51.513672,41.625977,,,,,,,,,,,0.0,1.0,1.0,1.0,0.0,0.0,0.0,5.0,0.0,0.028564426666666667,0.13315109333333333,1.0053092666666668,-6.952311186666668,4.680989573333334,2.4723308000000004,12.957605926401055,9.477288623053282,53.97781385203322,59.89173721490494,8.999925791142411,1.1924179096828085,60.5759086711593,1.3577659070006662,62.74307389321255,1.333976442743213,0.19116257333333334,-0.0018030933333333388,0.8274547333333333,1.0204204,0.8492512680618902,0.8630675310235152,0.8899494093929466,0.8899494093929466
LBP07_S01,LBP07,-1585,66,1,65,-1585,1716271373.6,2024-05-21 06:02:53.600000+00:00,2024-05-21 15:02:53.600000+09:00,2024,5,21,6,2,53,600,,,,,,,,,0.220947,-0.727051,2.320068,129.821777,78.186035,19.226074,,,,,,,,,,,0.0,1.0,1.0,1.0,0.0,0.0,0.0,5.0,0.0,0.03774737333333334,0.11447270666666666,1.0101269733333333,-9.336751293333334,7.816569000000001,2.297363346666667,28.483638653057458,18.797733599676633,46.75586292953235,61.03108276102724,9.751835135129477,3.062652426864102,61.881105285651444,1.2505802936437538,62.57183087696429,1.3335083063846704,0.18319962666666667,-0.8415237066666666,1.3099410266666667,2.3346643599999997,1.5676956801105668,0.8775965360251545,0.913319970452175,0.913319970452175
LBP07_S01,LBP07,-1584,67,1,66,-1584,1716271373.64,2024-05-21 06:02:53.640000+00:00,2024-05-21 15:02:53.640000+09:00,2024,5,21,6,2,53,640,,,,,,,,,-0.098389,0.791016,1.448242,233.154297,136.047363,-4.211426,,,,,,,,,,,0.0,1.0,1.0,1.0,0.0,0.0,0.0,5.0,0.0,0.03671222666666667,0.13809574666666669,1.0091178666666667,-3.4326171866666666,7.103678386666667,2.3111979733333334,32.76615353104386,27.738607667028994,37.24287153499777,62.341728902269,10.861379441810637,4.552367288264013,63.44434390731962,1.308812820249241,62.38782402677733,1.326972151883183,-0.13510122666666669,0.6529202533333334,0.43912413333333333,1.2271456133333334,0.7983653318722284,0.8426914623783263,0.9094881491661767,0.9094881491661767
LBP07_S01,LBP07,-1583,68,1,67,-1583,1716271373.68,2024-05-21 06:02:53.680000+00:00,2024-05-21 15:02:53.680000+09:00,2024,5,21,6,2,53,680,,,,,,,,,-0.231445,0.26709,0.139648,151.977539,44.311523,24.719238,,,,,,,,,,,0.0,1.0,1.0,1.0,0.0,0.0,0.0,5.0,0.0,0.04470050666666667,0.14211918666666667,1.0399870133333333,-4.253743493333334,6.088053386666667,1.4819336533333336,22.8974161872171,35.392697390646205,26.833233168410036,63.257625549757684,12.277087337436486,5.625696615000415,64.68309304670291,1.2636728599992337,62.05586163444271,1.3180617019918046,-0.2761455066666667,0.12497081333333332,-0.9003390133333333,1.3014553333333334,0.9499917809999332,0.8500910168809657,0.9107947179350077,0.9107947179350077
LBP07_S01,LBP07,-1582,69,1,68,-1582,1716271373.72,2024-05-21 06:02:53.720000+00:00,2024-05-21 15:02:53.720000+09:00,2024,5,21,6,2,53,720,,,,,,,,,0.262695,0.592529,0.13916,-95.52002,-72.143555,104.919434,,,,,,,,,,,0.0,1.0,1.0,1.0,0.0,0.0,0.0,5.0,0.0,0.04058593333333334,0.14255537333333335,1.0528841466666667,-3.0517578133333334,8.06396484,-0.3409830133333331,-0.7514468740707255,41.35863327310026,16.845755805485574,63.227567674794855,13.931432668360497,6.299526847219838,65.04993596278685,1.2912276121762671,61.43775362160127,1.3062321219878403,0.2221090666666667,0.4499736266666666,-0.9137241466666668,1.58580684,1.0424492881636107,0.8576199000788938,0.9149089232546515,0.9149089232546515
LBP07_S01,LBP07,-1581,70,1,69,-1581,1716271373.76,2024-05-21 06:02:53.760000+00:00,2024-05-21 15:02:53.760000+09:00,2024,5,21,6,2,53,760,,,,,,,,,0.50293,-0.172363,0.763916,-177.185059,-80.993652,51.208496,,,,,,,,,,,0.0,1.0,1.0,1.0,0.0,0.0,0.0,5.0,0.0,0.03510416,0.13517256,1.05053064,-7.774251306666667,10.847981760000001,1.0107422533333337,-34.56465750841354,45.49857029835276,8.473003830893935,61.844981374458314,15.751375480294607,6.638447000455595,64.16366985534867,1.3148423921080339,60.42736644498605,1.2941132327480307,0.46782584,-0.30753556,-0.28661464000000003,1.06197604,0.6289571440873765,0.8557469712380532,0.9062437178253401,0.9062437178253401
LBP07_S01,LBP07,-1580,71,1,70,-1580,1716271373.8,2024-05-21 06:02:53.800000+00:00,2024-05-21 15:02:53.800000+09:00,2024,5,21,6,2,53,800,,,,,,,,,-0.045654,-0.540527,1.559326,-127.868652,114.868164,-34.057617,,,,,,,,,,,0.0,1.0,1.0,1.0,0.0,0.0,0.0,5.0,0.0,0.039912106666666676,0.14559898666666668,1.04356776,-6.914062506666667,8.985188786666667,2.106119866666667,-72.48428654114088,47.662243173835726,2.6982004657018708,58.94560991281268,17.657865207248037,6.746375019083669,61.90233200428669,1.3009650569471916,58.979255069054716,1.2888594576412151,-0.08556610666666667,-0.6861259866666667,0.51575824,1.2874503333333334,0.8626105670099896,0.8638246449959426,0.9049603898601828,0.9049603898601828
LBP07_S01,LBP07,-1579,72,1,71,-1579,1716271373.84,2024-05-21 06:02:53.840000+00:00,2024-05-21 15:02:53.840000+09:00,2024,5,21,6,2,53,840,,,,,,,,,-0.407715,0.42627,2.008057,-76.782227,87.341309,-10.192871,,,,,,,,,,,0.0,1.0,1.0,1.0,0.0,0.0,0.0,5.0,0.0,0.03900389333333334,0.11468428,1.0455534266666666,-8.0460612,9.156901026666668,3.0769857600000003,-107.256096341418,47.596583711858834,0.12036071686336788,54.65536605915596,19.56172855572239,6.751189447758204,58.44184136479294,1.241355703899382,57.12069124687488,1.2997452030507166,-0.4467188933333333,0.31158571999999995,0.9625035733333334,1.7208081866666667,1.1059188755276363,0.8930985030072003,0.9107020608792529,0.9107020608792529
LBP07_S01,LBP07,-1578,73,1,72,-1578,1716271373.88,2024-05-21 06:02:53.880000+00:00,2024-05-21 15:02:53.880000+09:00,2024,5,21,6,2,53,880,,,,,,,,,-0.294434,0.720947,2.687744,300.109863,-11.59668,-55.786133,,,,,,,,,,,0.0,1.0,1.0,1.0,0.0,0.0,0.0,5.0,0.0,0.031884760000000005,0.11057621333333333,1.0484017333333333,-1.7171223999999998,9.321289053333333,3.2657878399999998,-131.83131096050548,45.09319133996999,0.739353000627363,49.38211362073574,21.365456209321188,6.780763567783298,54.23149102915991,1.288708285493347,54.94500965195247,1.308374431870689,-0.32631876,0.6103707866666667,1.6393422666666666,2.5760318133333335,1.7794604512671326,0.9515268878971219,0.9348342383900273,0.9348342383900273
LBP07_S01,LBP07,-1577,74,1,73,-1577,1716271373.92,2024-05-21 06:02:53.920000+00:00,2024-05-21 15:02:53.920000+09:00,2024,5,21,6,2,53,920,,,,,,,,,-0.30957,-0.024658,1.930176,-291.19873,155.883789,-105.957031,,,,,,,,,,,0.0,1.0,1.0,1.0,0.0,0.0,0.0,5.0,0.0,0.033444,0.1332878,1.0554752933333333,1.7659505199999996,6.840820293333334,4.71923836,-140.8052777814566,40.24658474376247,3.8393965647337907,43.74990250947747,22.975319599071685,6.93433943037265,49.8999433226521,1.3232013959631919,52.59306199669908,1.3170082765137765,-0.34301400000000004,-0.15794580000000003,0.8747007066666665,1.3756605066666667,0.9527364830722113,0.9741883801450058,0.935318082840897,0.935318082840897
LBP07_S01,LBP07,-1576,75,1,74,-1576,1716271373.96,2024-05-21 06:02:53.960000+00:00,2024-05-21 15:02:53.960000+09:00,2024,5,21,6,2,53,960,,,,,,,,,-0.741455,-0.500488,0.093994,-478.57666,126.098633,132.446289,,,,,,,,,,,0.0,1.0,1.0,1.0,0.0,0.0,0.0,5.0,0.0,0.04134114666666667,0.15340825333333333,1.07950524,1.1840820266666665,6.109212226666667,2.807617266666667,-131.79349860350038,33.625871827880324,8.096539501406786,38.478162565337456,24.3203544721869,7.258201010428921,46.09479491184606,1.305228155932508,50.22830306826156,1.3222666868491773,-0.7827961466666666,-0.6538962533333333,-0.98551124,2.42220364,1.4183026903753266,1.0090932639419214,0.9480282040918031,0.9480282040918031
LBP07_S01,LBP07,-1575,76,1,75,-1575,1716271374.0,2024-05-21 06:02:54+00:00,2024-05-21 15:02:54+09:00,2024,5,21,6,2,54,0,6.0,2.0,54.0,40.536297,141.54335,8.838,3.0,8.0,0.108887,-0.004395,-0.043945,-162.658691,-63.720703,24.963379,-249.0,8.0,401.0,1179.0,0.0,1020.799988,26.43,0.077296,-62.633232,3.986719,0.0,1.0,1.0,1.0,0.0,0.0,0.0,6.0,0.0,0.034694013333333336,0.16347986666666667,1.0719987333333332,1.9531249999999996,8.9119466,1.6658529466666667,-106.42723900594117,26.215696472112008,11.920202829963202,34.22107300509981,25.36898233107138,7.735009123627449,43.29546706385303,1.3594377477387694,48.00547231559634,1.3306897033564993,0.07419298666666665,-0.16787486666666668,-1.115943733333333,1.3580115866666664,1.1309363315831749,1.0281617689788367,0.9527181560787614,0.9527181560787614
LBP07_S01,LBP07,-1574,77,1,76,-1574,1716271374.04,2024-05-21 06:02:54.040000+00:00,2024-05-21 15:02:54.040000+09:00,2024,5,21,6,2,54,40,,,,,,,,,0.901611,-0.258301,0.577148,-311.889648,-68.17627,99.243164,,,,,,,,,,,0.0,1.0,1.0,1.0,0.0,0.0,0.0,6.0,0.0,0.030169280000000007,0.17208338666666667,1.0647396133333333,-1.7252604133333338,10.186360666666667,0.81136076,-70.45576854314636,19.119666546547435,13.895131679235707,31.402842263373955,26.133768992933277,8.290814390796879,41.68752795809546,1.395105108448965,46.0360556572845,1.336529251998448,0.8714417200000001,-0.4303843866666667,-0.48759161333333334,1.78941772,1.0873761874512446,1.0390278040088095,0.9560846068630735,0.9560846068630735
LBP07_S01,LBP07,-1573,78,1,77,-1573,1716271374.08,2024-05-21 06:02:54.080000+00:00,2024-05-21 15:02:54.080000+09:00,2024,5,21,6,2,54,80,,,,,,,,,-0.335205,-1.141357,1.193359,230.102539,-38.574219,-17.150879,,,,,,,,,,,0.0,1.0,1.0,1.0,0.0,0.0,0.0,6.0,0.0,0.029375000000000005,0.13181646666666666,1.0713379333333335,-10.342610680000002,10.900065093333332,-0.0992837733333332,-32.60725276131368,13.177254264154131,13.125689764978247,30.098552152921407,26.660859163499442,8.815841981396009,41.16361649416905,1.3500113064301091,44.36117600408094,1.3480301158884314,-0.36457999999999996,-1.2731734666666665,0.12202106666666657,1.759774533333333,1.3299542824227035,1.0518983850833932,0.9652033794376986,0.9652033794376986
LBP07_S01,LBP07,-1572,79,1,78,-1572,1716271374.12,2024-05-21 06:02:54.120000+00:00,2024-05-21 15:02:54.120000+09:00,2024,5,21,6,2,54,120,,,,,,,,,0.144287,0.104492,1.779541,260.131836,14.831543,-57.861328,,,,,,,,,,,0.0,1.0,1.0,1.0,0.0,0.0,0.0,6.0,0.0,0.02959310666666667,0.12901373333333335,1.0658040666666666,-6.043294266666667,12.30550128,-0.2693683999999999,-2.3883879377255406,8.718027142534595,9.353648528747275,30.003016635412386,27.009580249200827,9.1899879225459,41.40234667841174,1.3438117155302758,42.943381214651616,1.3578990755359839,0.11469389333333332,-0.02452173333333335,0.7137369333333334,0.8529525600000001,0.7233093491568462,1.0756006894815586,0.9594439977643449,0.9594439977643449
LBP07_S01,LBP07,-1571,80,1,79,-1571,1716271374.16,2024-05-21 06:02:54.160000+00:00,2024-05-21 15:02:54.160000+09:00,2024,5,21,6,2,54,160,,,,,,,,,0.163574,0.177002,1.711182,-17.944336,60.119629,-0.610352,,,,,,,,,,,0.0,1.0,1.0,1.0,0.0,0.0,0.0,6.0,0.0,0.025143240000000004,0.14631190666666666,1.0584765866666668,0.9114583466666666,11.298014293333333,0.4166667466666668,12.464967088284205,5.591561614135602,2.8666274964400125,30.501615318943756,27.233242713766252,9.3046530224035,41.93536232869641,1.3990725571812523,41.683800951728564,1.3649940012087411,0.13843075999999999,0.030690093333333335,0.6527054133333332,0.8218262666666665,0.6679291232890086,1.0433383156569858,0.9526645820788721,0.9526645820788721
LBP07_S01,LBP07,-1570,81,1,80,-1570,1716271374.2,2024-05-21 06:02:54.200000+00:00,2024-05-21 15:02:54.200000+09:00,2024,5,21,6,2,54,200,,,,,,,,,-0.439209,0.455811,0.107666,78.979492,120.056152,-36.499023,,,,,,,,,,,0.0,1.0,1.0,1.0,0.0,0.0,0.0,6.0,0.0,0.02637370666666667,0.12366542666666665,1.0610547066666665,-9.701334613333334,9.91455076,1.7626953866666668,8.010712756932302,3.4250954407065874,-5.6795953617706525,30.822043829221048,27.370246531394514,9.077469207932673,42.20816542116824,1.3593605433666778,40.46488026690061,1.3690436295570587,-0.4655827066666667,0.3321455733333334,-0.9533887066666664,1.7511169866666665,1.111772442827905,0.9980275295367798,0.9562806698231683,0.9562806698231683
LBP07_S01,LBP07,-1569,82,1,81,-1569,1716271374.24,2024-05-21 06:02:54.240000+00:00,2024-05-21 15:02:54.240000+09:00,2024,5,21,6,2,54,240,,,,,,,,,0.126709,0.889893,-0.394775,-5.432129,-37.475586,4.272461,,,,,,,,,,,0.0,1.0,1.0,1.0,0.0,0.0,0.0,6.0,0.0,0.024996760000000003,0.115433,1.0545019733333334,-7.771809866666666,10.232747373333332,0.24007168000000007,-14.998985185776561,1.9209979543226854,-15.405045133039932,30.222084421789987,27.447086449567422,8.461267402611075,41.69304483275738,1.3563643427992162,39.20772292355369,1.3711088764966313,0.10171223999999998,0.77446,-1.4492769733333333,2.325449213333333,1.646370983952294,1.008535125942251,0.9716160101371487,0.9716160101371487
LBP07_S01,LBP07,-1568,83,1,82,-1568,1716271374.28,2024-05-21 06:02:54.280000+00:00,2024-05-21 15:02:54.280000+09:00,2024,5,21,6,2,54,280,,,,,,,,,0.453857,0.042236,0.432861,-250.0,-73.181152,52.185059,,,,,,,,,,,0.0,1.0,1.0,1.0,0.0,0.0,0.0,6.0,0.0,0.02255210666666667,0.1224024,1.0362077066666666,-3.79069008,8.013509093333333,0.6388346933333334,-51.45029300434224,1.0134735948118505,-25.28289857759598,28.1640727016163,27.487625393359895,7.449951459507235,40.053543134866686,1.387397881968874,37.91064232265644,1.3760723408350226,0.43130489333333333,-0.0801664,-0.6033467066666667,1.114818,0.7459744038154063,0.9879718986644681,0.9667107578258066,0.9667107578258066
LBP07_S01,LBP07,-1567,84,1,83,-1567,1716271374.32,2024-05-21 06:02:54.320000+00:00,2024-05-21 15:02:54.320000+09:00,2024,5,21,6,2,54,320,,,,,,,,,0.300781,-0.827393,1.173828,-34.423828,28.015137,-33.14209,,,,,,,,,,,0.0,1.0,1.0,1.0,0.0,0.0,0.0,6.0,0.0,0.023769560000000006,0.13425461333333333,1.02725264,-5.315755186666667,7.011718733333334,1.6243490266666667,-93.15401586434241,0.8320425281200627,-34.2063594836767,24.437912067042603,27.5209070944847,6.0816970801601675,37.3041406934216,1.394150652690764,36.62611513617331,1.3810500595600899,0.27701144,-0.9616476133333334,0.14657536000000015,1.3852344133333336,1.0114276080272377,0.9934016317940184,0.967662180170518,0.967662180170518
LBP07_S01,LBP07,-1566,85,1,84,-1566,1716271374.36,2024-05-21 06:02:54.360000+00:00,2024-05-21 15:02:54.360000+09:00,2024,5,21,6,2,54,360,,,,,,,,,-0.161621,1.213379,1.042725,-42.785645,24.536133,-49.865723,,,,,,,,,,,0.0,1.0,1.0,1.0,0.0,0.0,0.0,6.0,0.0,0.031175160000000007,0.13731775999999998,1.0251855866666666,-10.464680973333332,9.33512368,2.04671232,-130.6549377192463,1.5486145074440318,-41.12235681080266,19.211714558272753,27.58285167478246,4.4368028077280615,33.90558806356649,1.3457244394156838,35.39464809301074,1.3882616050778256,-0.19279616,1.07606124,0.01753941333333331,1.2863968133333332,1.093336994051313,0.9984525746707733,0.9702804054597012,0.9702804054597012
LBP07_S01,LBP07,-1565,86,1,85,-1565,1716271374.4,2024-05-21 06:02:54.400000+00:00,2024-05-21 15:02:54.400000+09:00,2024,5,21,6,2,54,400,,,,,,,,,-0.144043,-0.377197,1.903809,-93.933105,-89.111328,-71.044922,,,,,,,,,,,0.0,1.0,1.0,1.0,0.0,0.0,0.0,6.0,0.0,0.02590498666666667,0.13530277333333332,1.0270801066666666,-13.940429666666665,11.52425128,2.3258464400000003,-155.18177072937144,3.2226582277763445,-45.24781843536355,13.004443729097895,27.711758003893515,2.6268900703135194,30.723893630383856,1.3800902171344942,34.21828229990826,1.3939272176881297,-0.16994798666666666,-0.5124997733333333,0.8767288933333335,1.5591766533333336,1.0296561990510538,1.0055049980453712,0.9714921563493205,0.9714921563493205
LBP07_S01,LBP07,-1564,87,1,86,-1564,1716271374.44,2024-05-21 06:02:54.440000+00:00,2024-05-21 15:02:54.440000+09:00,2024,5,21,6,2,54,440,,,,,,,,,-0.086182,1.079102,1.722412,-170.715332,67.077637,-180.603027,,,,,,,,,,,0.0,1.0,1.0,1.0,0.0,0.0,0.0,6.0,0.0,0.01765954666666667,0.14061526666666666,1.0324707333333334,-15.485839813333332,10.278320293333334,2.6969401866666667,-160.45213358170034,5.717355326850823,-46.2890659386786,6.5863583858298815,27.940452216967547,0.7753274327663755,28.716721949122928,1.4447397518328802,33.09604656752543,1.4055919202308798,-0.10384154666666667,0.9384867333333333,0.6899412666666667,1.7322695466666667,1.1694269395333772,1.019285836327971,0.9754508520130016,0.9754508520130016
LBP07_S01,LBP07,-1563,88,1,87,-1563,1716271374.48,2024-05-21 06:02:54.480000+00:00,2024-05-21 15:02:54.480000+09:00,2024,5,21,6,2,54,480,,,,,,,,,-0.666992,-0.643555,-0.299805,-537.475586,27.34375,51.147461,,,,,,,,,,,0.0,1.0,1.0,1.0,0.0,0.0,0.0,6.0,0.0,0.023802120000000003,0.13898766666666668,1.05305992,-12.661132786666665,6.800943999999999,3.5986328933333334,-144.04777791640979,8.700017346277598,-44.53722573685992,0.8244472691734899,28.288452910818652,-1.0061615967080213,28.318344629337744,1.39978849368078,32.072558231468285,1.413988320932325,-0.6907941200000001,-0.7825426666666666,-1.35286492,2.8262017066666667,1.7087460411503397,1.0735423198860787,0.9951896142935078,0.9898291890549104
LBP07_S01,LBP07,-1562,89,1,88,-1562,1716271374.52,2024-05-21 06:02:54.520000+00:00,2024-05-21 15:02:54.520000+09:00,2024,5,21,6,2,54,520,,,,,,,,,-0.212891,-0.501465,0.404785,-176.208496,67.077637,-21.240234,,,,,,,,,,,0.0,1.0,1.0,1.0,0.0,0.0,0.0,6.0,0.0,0.02185550666666667,0.14121422666666666,1.0534082266666667,-8.553873666666666,7.902832013333334,2.1020508666666666,-108.00058701688994,11.694852452725923,-40.76311618068128,-3.495576211502108,28.756247008927687,-2.6366862439352725,29.087676246786017,1.4159271707076322,31.25686535615618,1.419127996930414,-0.23474650666666666,-0.6426792266666668,-0.6486232266666667,1.5260489600000002,0.942790857482478,1.0941898921736912,0.9965922061218325,0.9889246057554405
LBP07_S01,LBP07,-1561,90,1,89,-1561,1716271374.56,2024-05-21 06:02:54.560000+00:00,2024-05-21 15:02:54.560000+09:00,2024,5,21,6,2,54,560,,,,,,,,,0.65918,-0.321777,1.254395,40.039062,-94.421387,-4.455566,,,,,,,,,,,0.0,1.0,1.0,1.0,0.0,0.0,0.0,6.0,0.0,0.016731813333333338,0.14616538666666667,1.04172528,-5.99690752,7.5398762800000005,1.870117266666667,-58.28208216350391,14.141904929261456,-35.9537000941467,-5.826859498042264,29.321923206098145,-4.0748342477011406,30.17170439767168,1.4557286832842937,30.796141454206627,1.4249918012520724,0.6424481866666667,-0.46794238666666665,0.21266971999999984,1.3230602933333333,0.822762517130832,1.093130342136449,0.9780989365799821,0.9857894720078063
LBP07_S01,LBP07,-1560,91,1,90,-1560,1716271374.6,2024-05-21 06:02:54.600000+00:00,2024-05-21 15:02:54.600000+09:00,2024,5,21,6,2,54,600,,,,,,,,,-0.233154,-0.294922,1.645264,171.325684,39.0625,-26.245117,,,,,,,,,,,0.0,1.0,1.0,1.0,0.0,0.0,0.0,6.0,0.0,0.015149786666666672,0.16126304,1.0323242266666668,-4.666341119999999,5.88541664,0.8235678000000003,-3.2204084962076243,15.447368148705879,-31.023676602878407,-5.955675837890569,29.93981793204638,-5.315781311816277,30.9858080973399,1.4760075687941783,30.812333418364158,1.4356086904078995,-0.24830378666666666,-0.45618504000000004,0.6129397733333333,1.3174286,0.8034019709502368,1.062558593770036,0.9700775648975953,0.9824119256919254
LBP07_S01,LBP07,-1559,92,1,91,-1559,1716271374.64,2024-05-21 06:02:54.640000+00:00,2024-05-21 15:02:54.640000+09:00,2024,5,21,6,2,54,640,,,,,,,,,-0.484131,0.685547,1.594727,263.244629,-33.38623,-37.231445,,,,,,,,,,,0.0,1.0,1.0,1.0,0.0,0.0,0.0,6.0,0.0,0.02332686666666667,0.18050782666666665,1.01726888,-7.8279622133333335,5.9488932,-0.9960936533333332,48.65727511048214,15.058995238138746,-26.62845784678394,-4.009384833471283,30.54217774157193,-6.380919625687635,31.458161472185992,1.4403283498136699,31.332489768915092,1.447654456975127,-0.5074578666666667,0.5050391733333334,0.57745812,1.58995516,0.9198021164343098,1.067416065152519,0.9550537637654227,0.9812735655236051
LBP07_S01,LBP07,-1558,93,1,92,-1558,1716271374.68,2024-05-21 06:02:54.680000+00:00,2024-05-21 15:02:54.680000+09:00,2024,5,21,6,2,54,680,,,,,,,,,0.050049,-0.09375,2.518311,-16.601562,31.616211,-15.930176,,,,,,,,,,,0.0,1.0,1.0,1.0,0.0,0.0,0.0,6.0,0.0,0.023623093333333338,0.1807454666666667,1.0012272133333335,-15.881347626666665,8.234863253333334,-1.5885415733333332,90.58496195770769,12.602907460533146,-23.11847838539569,-0.3859863551629754,31.046294039993256,-7.305658761103462,31.896614381745604,1.4387946419497646,32.25946665310072,1.4484408819911239,0.026425906666666665,-0.2744954666666667,1.5170837866666667,1.81800516,1.5419433535414258,1.0910941280541788,0.9705925724675722,0.9912855260239234
LBP07_S01,LBP07,-1557,94,1,93,-1557,1716271374.72,2024-05-21 06:02:54.720000+00:00,2024-05-21 15:02:54.720000+09:00,2024,5,21,6,2,54,720,,,,,,,,,-1.02417,1.469727,0.341064,282.470703,176.330566,-157.226562,,,,,,,,,,,0.0,1.0,1.0,1.0,0.0,0.0,0.0,6.0,0.0,0.018346400000000006,0.15664065333333332,0.99079752,-17.13623044,7.903645813333334,-2.55045564,118.68286822162548,8.055941137315138,-20.584719288226744,4.361328373702044,31.368531685485863,-8.129047532632532,32.69690167392605,1.4527886959073462,33.41985939634785,1.4483201277254623,-1.0425164,1.3130863466666667,-0.6497335200000001,3.0053362666666663,1.7981072952087602,1.1213204483359849,0.9894701742074393,1.0054402939043592
LBP07_S01,LBP07,-1556,95,1,94,-1556,1716271374.76,2024-05-21 06:02:54.760000+00:00,2024-05-21 15:02:54.760000+09:00,2024,5,21,6,2,54,760,,,,,,,,,0.220215,0.532715,0.560303,46.386719,-116.455078,73.852539,,,,,,,,,,,0.0,1.0,1.0,1.0,0.0,0.0,0.0,6.0,0.0,0.016809946666666676,0.14215172,0.9828483066666667,-13.241373666666668,7.918294253333333,-0.6730142399999999,132.04222013529915,1.8593409508596432,-18.909757868262762,9.643017179114011,31.442905323520247,-8.885437847363042,34.06750770514182,1.4518933309739557,34.65822571999884,1.4475617633581142,0.2034050533333333,0.39056328000000007,-0.4225453066666667,1.01651364,0.6102932308259056,1.120573891805526,0.9881604315217895,0.9986274135064547
LBP07_S01,LBP07,-1555,96,1,95,-1555,1716271374.8,2024-05-21 06:02:54.800000+00:00,2024-05-21 15:02:54.800000+09:00,2024,5,21,6,2,54,800,,,,,,,,,0.64209,0.178955,0.580322,-283.752441,-14.343262,41.992188,,,,,,,,,,,0.0,1.0,1.0,1.0,0.0,0.0,0.0,6.0,0.0,0.010524146666666671,0.15143557333333335,0.95260416,-17.40641272,9.182942693333334,0.9057618000000001,132.01960565716763,-5.117107874630241,-17.7757175811758,14.923801405400717,31.23822100853504,-9.596466550610074,35.92545713589318,1.500547882806769,35.8896287108557,1.453503918439211,0.6315658533333334,0.027519426666666652,-0.37228216000000003,1.03136744,0.7336393886610706,1.1154150446715692,0.989619844833756,0.9941360910514482
LBP07_S01,LBP07,-1554,97,1,96,-1554,1716271374.84,2024-05-21 06:02:54.840000+00:00,2024-05-21 15:02:54.840000+09:00,2024,5,21,6,2,54,840,,,,,,,,,0.146729,-1.146973,1.282471,289.916992,-15.686035,-3.967285,,,,,,,,,,,0.0,1.0,1.0,1.0,0.0,0.0,0.0,6.0,0.0,0.017913466666666673,0.1527994933333333,0.9420507733333333,-17.777506466666665,3.691406240000001,2.5903321200000002,121.25016959758159,-11.766443125195046,-16.66074548298902,19.77380818930398,30.767563283527238,-10.262896369929635,37.986490790979275,1.4526040019928503,37.084850466629725,1.4596558791777399,0.12881553333333332,-1.2997724933333332,0.3404202266666666,1.7690082533333333,1.349773279768749,1.1251692208412138,1.009133861924207,1.0000633775300698
LBP07_S01,LBP07,-1553,98,1,97,-1553,1716271374.88,2024-05-21 06:02:54.880000+00:00,2024-05-21 15:02:54.880000+09:00,2024,5,21,6,2,54,880,,,,,,,,,-0.415771,0.414551,1.282959,255.065918,-1.708984,-72.20459,,,,,,,,,,,0.0,1.0,1.0,1.0,0.0,0.0,0.0,6.0,0.0,0.02267909333333334,0.13155274666666666,0.9661327999999999,-17.57324214666667,4.694824213333335,-0.6225585066666666,102.85170549993411,-17.009156187585713,-14.902430454399282,23.887876409301345,30.08719703602381,-10.858993588105607,39.92227206180899,1.398580951024162,38.22999493579884,1.4762915667714167,-0.43845009333333335,0.28299825333333334,0.31682620000000006,1.0382745466666667,0.6104959760229106,1.078410641831445,1.0149687648642833,0.9936770266856902
LBP07_S01,LBP07,-1552,99,1,98,-1552,1716271374.92,2024-05-21 06:02:54.920000+00:00,2024-05-21 15:02:54.920000+09:00,2024,5,21,6,2,54,920,,,,,,,,,-0.011475,0.107666,1.083984,127.197266,-42.297363,-0.549316,,,,,,,,,,,0.0,1.0,1.0,1.0,0.0,0.0,0.0,6.0,0.0,0.026904346666666672,0.16645509333333333,0.9772298133333334,-11.356608026666667,5.420735666666667,-4.044596266666666,80.00405543962636,-20.034062405882594,-11.864684097006775,27.088038626886398,29.285834539788507,-11.333580951985878,41.471339483295885,1.4083435270341502,39.29738349672557,1.4958336846087226,-0.038379346666666675,-0.058789093333333334,0.1067541866666667,0.20392262666666672,0.12777162484830923,1.0454120475024888,1.0098002138237474,0.9797108105270228
LBP07_S01,LBP07,-1551,100,1,99,-1551,1716271374.96,2024-05-21 06:02:54.960000+00:00,2024-05-21 15:02:54.960000+09:00,2024,5,21,6,2,54,960,,,,,,,,,-0.32373,0.745605,-0.041016,-101.196289,35.461426,-61.035156,,,,,,,,,,,0.0,1.0,1.0,1.0,0.0,0.0,0.0,6.0,0.0,0.008789106666666673,0.15976889333333333,1.0024055866666666,-16.179199173333334,6.5787760266666675,-6.73746736,55.78547142034007,-20.463134757762123,-7.155035303872186,29.3194574837,28.467309149478023,-11.619782364140766,42.485734306240296,1.5151502340952607,40.24313590504668,1.512600240600786,-0.3325191066666667,0.5858361066666666,-1.0434215866666665,1.9617767999999998,1.2419748418123209,1.0383589335599686,1.023726098750945,0.9838737316585354
LBP07_S01,LBP07,-1550,101,1,100,-1550,1716271375.0,2024-05-21 06:02:55+00:00,2024-05-21 15:02:55+09:00,2024,5,21,6,2,55,0,6.0,2.0,55.0,40.536285,141.543304,9.047,3.0,8.0,-0.178467,-0.382324,0.21167,59.509277,-26.794434,-11.901855,-244.0,15.0,397.0,1295.0,0.0,1020.200012,26.5,0.07135,-57.669693,3.986719,0.0,1.0,1.0,1.0,0.0,0.0,0.0,5.0,0.0,0.005654346666666671,0.17229168,1.0215559866666666,-10.718587199999998,4.583333320000001,-7.36002596,33.0709888767673,-18.42704863012354,-0.7937200799417211,30.642297038770693,27.73022720427308,-11.651531167338435,42.93802565508015,1.5375271761794715,41.029264617168415,1.5236487367862146,-0.18412134666666666,-0.5546156799999999,-0.8098859866666666,1.5486230133333332,0.9987064304385194,1.0330697375141822,1.0306157532465094,0.9841054925769727
LBP07_S01,LBP07,-1549,102,1,101,-1549,1716271375.04,2024-05-21 06:02:55.040000+00:00,2024-05-21 15:02:55.040000+09:00,2024,5,21,6,2,55,40,,,,,,,,,0.797852,0.161377,0.380127,28.015137,-208.862305,141.296387,,,,,,,,,,,0.0,1.0,1.0,1.0,0.0,0.0,0.0,5.0,0.0,-0.005211533333333329,0.14666342666666665,1.0125455733333333,-9.007161413333332,6.654459626666667,-6.593424399999999,14.418924599312447,-14.54058748524617,6.729098233819394,31.21905402274319,27.148603704863234,-11.38236723798566,42.909606163877115,1.6066852257504374,41.65251201937782,1.5258126754840096,0.8030635333333334,0.01471357333333334,-0.6324185733333333,1.45019568,1.0222919248957325,1.0304663670119618,1.0347470855103855,0.9846929761511074
LBP07_S01,LBP07,-1548,103,1,102,-1548,1716271375.08,2024-05-21 06:02:55.080000+00:00,2024-05-21 15:02:55.080000+09:00,2024,5,21,6,2,55,80,,,,,,,,,0.411377,-0.812012,1.758545,-143.371582,190.917969,-33.569336,,,,,,,,,,,0.0,1.0,1.0,1.0,0.0,0.0,0.0,5.0,0.0,-0.009202426666666663,0.14651042666666667,0.9809342400000001,-8.356119746666666,6.373697906666668,-5.362955653333334,1.9670126999896862,-9.756858256561847,14.500053386383252,31.297734530742776,26.75832937460076,-10.802365102530329,42.57049999101298,1.6342158203228232,42.15980452611447,1.5353561407266492,0.42057942666666664,-0.9585224266666666,0.77761076,2.156712613333333,1.3039673272846966,1.0294268888064415,1.0406626369449172,0.9895304663197981
LBP07_S01,LBP07,-1547,104,1,103,-1547,1716271375.12,2024-05-21 06:02:55.120000+00:00,2024-05-21 15:02:55.120000+09:00,2024,5,21,6,2,55,120,,,,,,,,,0.046143,1.734619,1.029053,404.052734,-22.033691,-35.095215,,,,,,,,,,,0.0,1.0,1.0,1.0,0.0,0.0,0.0,5.0,0.0,-0.007747346666666661,0.15803386666666666,0.94756836,-11.849772079999997,4.641113280000001,-5.023600186666666,-2.678933820692315,-5.1031637286162725,21.28988392690915,31.190577177915085,26.55420282545611,-9.950769745453963,42.15442575713706,1.620454255827979,42.643103405655324,1.5547072037283818,0.053890346666666665,1.5765851333333332,0.08148464,1.7119601199999999,1.5796090018316138,1.0636788749134323,1.0696397821974954,0.9983376086408701
LBP07_S01,LBP07,-1546,105,1,104,-1546,1716271375.16,2024-05-21 06:02:55.160000+00:00,2024-05-21 15:02:55.160000+09:00,2024,5,21,6,2,55,160,,,,,,,,,0.342529,0.52832,2.112061,-76.965332,-83.374023,-12.695312,,,,,,,,,,,0.0,1.0,1.0,1.0,0.0,0.0,0.0,5.0,0.0,0.0012142400000000034,0.1459700533333333,0.93941732,-15.83089188,2.5773112000000014,-5.7812499200000005,1.3366076938903486,-1.366340203362531,25.711517767900748,31.2440414856707,26.499549217321608,-8.922309034737932,41.92879482635923,1.5623782928282428,43.218326039225715,1.5701950636829798,0.34131476,0.3823499466666667,1.1726436800000002,1.896308386666667,1.2797579643642791,1.0881520285564432,1.0657451721067144,1.0024761432838614
LBP07_S01,LBP07,-1545,106,1,105,-1545,1716271375.2,2024-05-21 06:02:55.200000+00:00,2024-05-21 15:02:55.200000+09:00,2024,5,21,6,2,55,200,,,,,,,,,-0.22998,-0.398438,1.186523,-36.804199,93.75,-26.306152,,,,,,,,,,,0.0,1.0,1.0,1.0,0.0,0.0,0.0,5.0,0.0,0.007249386666666671,0.15089518666666665,0.9468326933333333,-15.791015573333334,2.1915690133333348,-7.12565096,13.715428391298675,1.1580222018077533,26.469962933566563,31.792658621322648,26.545870105393917,-7.8635105173952695,42.15793115798727,1.5221872697847176,43.99670593053217,1.5759106168885544,-0.23722938666666665,-0.5493331866666666,0.23969030666666669,1.02625288,0.6445899277692433,1.0694647279540965,1.0337461287454381,0.9972893865372727
LBP07_S01,LBP07,-1544,107,1,106,-1544,1716271375.24,2024-05-21 06:02:55.240000+00:00,2024-05-21 15:02:55.240000+09:00,2024,5,21,6,2,55,240,,,,,,,,,0.034912,-0.05249,0.025391,-199.645996,51.635742,127.990723,,,,,,,,,,,0.0,1.0,1.0,1.0,0.0,0.0,0.0,5.0,0.0,0.0036296000000000032,0.16169271999999998,0.9629622533333334,-12.598469999999997,0.3051757866666677,-10.067545493333334,32.52918119135317,2.755083527266542,22.72407381424755,33.09382586897677,26.656073446484577,-6.954547564825368,43.059415858345716,1.5480386544192466,45.057368458773,1.5774929125591495,0.031282399999999995,-0.21418272,-0.9375712533333334,1.1830363733333333,0.9622331740141762,1.0420992155565718,1.0253171707494113,0.9967885835012285
LBP07_S01,LBP07,-1543,108,1,107,-1543,1716271375.28,2024-05-21 06:02:55.280000+00:00,2024-05-21 15:02:55.280000+09:00,2024,5,21,6,2,55,280,,,,,,,,,0.484619,-0.513916,0.452393,-182.800293,-67.871094,108.825684,,,,,,,,,,,0.0,1.0,1.0,1.0,0.0,0.0,0.0,5.0,0.0,-0.00414709333333333,0.19880534666666666,0.9644173333333333,-14.221191346666664,-0.12776691999999892,-12.150065026666667,54.02526589604474,4.1767357299428785,14.472496439637423,35.25483650481856,26.82314287568229,-6.375647707239871,44.755260857217515,1.5920915810414888,46.42875142841923,1.5702000242936343,0.4887660933333334,-0.7127213466666666,-0.5120243333333334,1.7135117733333334,1.0045063115342383,1.0524404918653252,1.0202061952648966,0.9968972838960596
LBP07_S01,LBP07,-1542,109,1,108,-1542,1716271375.32,2024-05-21 06:02:55.320000+00:00,2024-05-21 15:02:55.320000+09:00,2024,5,21,6,2,55,320,,,,,,,,,0.275146,-0.828613,1.403564,107.849121,22.033691,41.259766,,,,,,,,,,,0.0,1.0,1.0,1.0,0.0,0.0,0.0,5.0,0.0,0.0015495200000000028,0.20941732,0.9567968933333333,-23.983561146666663,0.09684245333333441,-10.90413404,73.11128093233636,6.345285006252347,2.775214677688878,38.17928774211202,27.076954275932383,-6.2646391201323155,47.22356581899984,1.5632221265801305,48.08256822441043,1.5561244110355141,0.27359648,-1.03803032,0.44676710666666675,1.7583939066666667,1.1627393631880696,1.0584929620717585,1.0259472969328884,0.9992006461084486
LBP07_S01,LBP07,-1541,110,1,109,-1541,1716271375.36,2024-05-21 06:02:55.360000+00:00,2024-05-21 15:02:55.360000+09:00,2024,5,21,6,2,55,360,,,,,,,,,-0.45874,0.619385,1.564941,536.804199,12.329102,-123.046875,,,,,,,,,,,0.0,1.0,1.0,1.0,0.0,0.0,0.0,5.0,0.0,-0.00031245333333332977,0.21201497333333333,0.9573307466666667,-26.73583978666667,1.5087890666666677,-11.085611906666667,84.60107593576711,9.96544707971113,-10.357895563139119,41.5633307795427,27.47557215912083,-6.67895494265788,50.26953321930483,1.5723057661510078,49.93894129502035,1.5443010939715935,-0.45842754666666663,0.40737002666666666,0.6076102533333332,1.4734078266666666,0.8633054929311043,1.04929170202695,1.0238721383488616,0.9973390686676631
LBP07_S01,LBP07,-1540,111,1,110,-1540,1716271375.4,2024-05-21 06:02:55.400000+00:00,2024-05-21 15:02:55.400000+09:00,2024,5,21,6,2,55,400,,,,,,,,,0.083252,0.895508,2.012451,128.723145,-85.754395,-12.939453,,,,,,,,,,,0.0,1.0,1.0,1.0,0.0,0.0,0.0,5.0,0.0,0.0029525200000000027,0.17203125333333333,0.9394954666666666,-35.493164,3.972981773333334,-8.822428306666668,84.79938605630687,15.186232903239391,-22.42318182041788,44.95530622179498,28.083021475250405,-7.575882215474595,53.544650937488406,1.5533501328854196,51.87830051840791,1.543776269610162,0.08029948,0.7234767466666666,1.0729555333333334,1.87673176,1.2965724761717998,1.0599683531117798,1.0327366755785756,1.001382763363665
LBP07_S01,LBP07,-1539,112,1,111,-1539,1716271375.44,2024-05-21 06:02:55.440000+00:00,2024-05-21 15:02:55.440000+09:00,2024,5,21,6,2,55,440,,,,,,,,,0.065186,1.11377,1.899414,31.982422,29.663086,-104.919434,,,,,,,,,,,0.0,1.0,1.0,1.0,0.0,0.0,0.0,5.0,0.0,0.0066634533333333355,0.18342448,0.91047528,-19.256998640000003,-1.2719726533333326,-8.439941333333334,72.69423877363185,21.449749889655934,-31.05322422256673,47.86307577274025,28.941011470836642,-8.818011184377264,56.62343586033945,1.5337563430952867,53.75586423296683,1.545977560016111,0.05852254666666666,0.9303455199999999,0.9889387199999999,1.9778067866666666,1.3590318123457084,1.0675525480242731,1.0434191921761222,1.0061514173500923
LBP07_S01,LBP07,-1538,113,1,112,-1538,1716271375.48,2024-05-21 06:02:55.480000+00:00,2024-05-21 15:02:55.480000+09:00,2024,5,21,6,2,55,480,,,,,,,,,-0.589844,1.049805,-0.212402,154.602051,93.75,-25.085449,,,,,,,,,,,0.0,1.0,1.0,1.0,0.0,0.0,0.0,5.0,0.0,0.01592126666666667,0.21065104,0.9283463733333334,-8.598632760000001,-2.6472981733333327,-10.279134039999999,50.18720622419544,27.598381875943033,-34.577471487143434,49.87056402170807,30.044946745874363,-10.201110043863002,59.10866795092504,1.4934596877416217,55.41681496743788,1.5447220895937994,-0.6057652666666667,0.8391539600000001,-1.1407483733333335,2.5856676000000003,1.540271981874002,1.0608135856532197,1.067177952769649,1.0170642714134117
LBP07_S01,LBP07,-1537,114,1,113,-1537,1716271375.52,2024-05-21 06:02:55.520000+00:00,2024-05-21 15:02:55.520000+09:00,2024,5,21,6,2,55,520,,,,,,,,,0.546143,0.721924,0.588867,-133.300781,-20.629883,19.40918,,,,,,,,,,,0.0,1.0,1.0,1.0,0.0,0.0,0.0,5.0,0.0,0.013727253333333333,0.20434570666666665,0.9573112133333335,-7.649739533333333,-0.7893880133333326,-11.981608,21.30268534114747,32.209139270740714,-32.34033387791199,50.722671435353966,31.333312316703992,-11.494723398979481,60.71815646323621,1.5022210851887743,56.71260994090318,1.5399808188285284,0.5324157466666667,0.5175782933333334,-0.36844421333333344,1.4184382533333335,0.828917942481214,1.056258669053169,1.0752242806134304,1.0164810270989446
LBP07_S01,LBP07,-1536,115,1,114,-1536,1716271375.56,2024-05-21 06:02:55.560000+00:00,2024-05-21 15:02:55.560000+09:00,2024,5,21,6,2,55,560,,,,,,,,,0.078857,-1.140869,1.315186,-361.14502,125.915527,-37.719727,,,,,,,,,,,0.0,1.0,1.0,1.0,0.0,0.0,0.0,5.0,0.0,0.0028125466666666685,0.21058269333333332,0.96991864,-4.195149693333332,0.18961589333333384,-13.548177013333332,-9.185897182394502,34.02877247849725,-24.739150896314086,50.35523554805819,32.69446321584388,-12.484289434832045,61.32238706023478,1.5571300492139275,57.519445099489374,1.5308763389969082,0.07604445333333333,-1.3514516933333331,0.3452673599999999,1.7727635066666663,1.3969302016126892,1.0792253764324433,1.0861778592844464,1.011807749864136
LBP07_S01,LBP07,-1535,116,1,115,-1535,1716271375.6,2024-05-21 06:02:55.600000+00:00,2024-05-21 15:02:55.600000+09:00,2024,5,21,6,2,55,600,,,,,,,,,-0.164062,0.149658,1.806396,45.898438,54.077148,-28.320312,,,,,,,,,,,0.0,1.0,1.0,1.0,0.0,0.0,0.0,5.0,0.0,0.006022186666666669,0.23303059999999998,0.9538411733333334,-6.047363239999999,1.0148112133333338,-13.537597586666667,-37.0654413982818,32.34591518088093,-13.048920569123963,48.87261789212692,33.98829982307912,-13.006246257597002,60.93356830357648,1.5442001738442062,57.757609049166206,1.5213669316805951,-0.1700841866666667,-0.08337259999999996,0.8525548266666665,1.106011613333333,0.8733437773623004,1.082023048688926,1.0722908212294808,1.0073927261613722
LBP07_S01,LBP07,-1534,117,1,116,-1534,1716271375.64,2024-05-21 06:02:55.640000+00:00,2024-05-21 15:02:55.640000+09:00,2024,5,21,6,2,55,640,,,,,,,,,-0.118652,0.78125,2.041992,289.306641,-75.744629,22.827148,,,,,,,,,,,0.0,1.0,1.0,1.0,0.0,0.0,0.0,5.0,0.0,0.007627000000000002,0.22193034666666667,0.93165368,-8.605956986666667,1.1783854266666671,-12.239583266666665,-59.42391029387947,27.173988798557012,0.8684374600432242,46.49566148037174,35.075259375021396,-12.971508759195274,59.668923203056295,1.5354839501961302,57.40659714352644,1.5207484119255033,-0.126279,0.5593196533333333,1.1103383199999999,1.7959369733333332,1.2496543703385918,1.0952171388450973,1.0813166019988083,1.0017748887919808
LBP07_S01,LBP07,-1533,118,1,117,-1533,1716271375.68,2024-05-21 06:02:55.680000+00:00,2024-05-21 15:02:55.680000+09:00,2024,5,21,6,2,55,680,,,,,,,,,-0.005127,-0.807861,1.197998,-525.512695,122.98584,30.517578,,,,,,,,,,,0.0,1.0,1.0,1.0,0.0,0.0,0.0,5.0,0.0,0.005572960000000002,0.21950521333333337,0.9056087466666668,-6.481933546666666,0.014648440000000514,-11.930338466666667,-74.7027909500666,19.202933816855378,14.89301931227563,43.50754984236907,35.84337672769561,-12.375787986704248,57.71321059187051,1.544678873388779,56.50958935606216,1.5241260035009276,-0.010699960000000001,-1.0273662133333334,0.2923892533333331,1.3304554266666666,1.0682168791531512,1.0762680798695663,1.0836811039618726,1.0058177416015703
LBP07_S01,LBP07,-1532,119,1,118,-1532,1716271375.72,2024-05-21 06:02:55.720000+00:00,2024-05-21 15:02:55.720000+09:00,2024,5,21,6,2,55,720,,,,,,,,,-0.466064,-0.678467,-0.14917,220.275879,44.006348,-6.469727,,,,,,,,,,,0.0,1.0,1.0,1.0,0.0,0.0,0.0,5.0,0.0,0.021595093333333336,0.22469401333333333,0.9144759333333333,-5.50292964,-2.8328450399999996,-11.63818352,-82.31080729512414,9.562638233544522,26.965609673739323,40.21511755056411,36.22588225703739,-11.297163599754676,55.2919174048617,1.4721773282639299,55.16464790689106,1.5315526407260904,-0.4876590933333333,-0.9031610133333334,-1.0636459333333332,2.45446604,1.4781251228541243,1.0634687929753808,1.0923946206556827,1.0141363804634198
LBP07_S01,LBP07,-1531,120,1,119,-1531,1716271375.76,2024-05-21 06:02:55.760000+00:00,2024-05-21 15:02:55.760000+09:00,2024,5,21,6,2,55,760,,,,,,,,,0.018555,1.166748,-0.752441,230.041504,-161.499023,20.385742,,,,,,,,,,,0.0,1.0,1.0,1.0,0.0,0.0,0.0,5.0,0.0,0.01890954666666667,0.20616861333333333,0.9447005333333333,-6.305338493333333,-1.8473307199999995,-12.65299472,-82.19568219337391,-0.502748290711396,35.36726506032508,36.92729026282915,36.20577232540894,-9.882472997341672,52.651172716073205,1.4772116929878771,53.50570861568328,1.5363221496376205,-0.0003545466666666705,0.9605793866666665,-1.6971415333333333,2.6580754666666664,1.9501287824031688,1.1170622150384715,1.1188180534219987,1.031127692694017
LBP07_S01,LBP07,-1530,121,1,120,-1530,1716271375.8,2024-05-21 06:02:55.800000+00:00,2024-05-21 15:02:55.800000+09:00,2024,5,21,6,2,55,800,,,,,,,,,0.445557,0.519043,0.098145,-229.370117,-115.29541,89.660645,,,,,,,,,,,0.0,1.0,1.0,1.0,0.0,0.0,0.0,5.0,0.0,0.00473962666666667,0.20502929333333333,0.9619466266666667,-3.041992133333333,-0.15787759999999973,-14.237467386666667,-74.70199404287735,-9.919982794268394,38.94253397658385,33.93921050111406,35.8089730136382,-8.324771638278317,50.034531881090714,1.547164935334502,51.67934311440776,1.5339055432059476,0.4408173733333333,0.3140137066666667,-0.8638016266666667,1.6186327066666668,1.0193516639702995,1.1284907060508405,1.121952875361205,1.0359101319061175
LBP07_S01,LBP07,-1529,122,1,121,-1529,1716271375.84,2024-05-21 06:02:55.840000+00:00,2024-05-21 15:02:55.840000+09:00,2024,5,21,6,2,55,840,,,,,,,,,0.592285,0.033203,0.69043,-298.64502,141.174316,41.992188,,,,,,,,,,,0.0,1.0,1.0,1.0,0.0,0.0,0.0,5.0,0.0,0.0006608533333333362,0.20709310666666667,0.9627799600000001,-2.948404893333333,0.24983724000000032,-14.097493426666666,-60.82526544967881,-17.910641676857054,37.24832910528404,31.50619988312691,35.09254734656392,-6.834838474066956,47.65335798569669,1.5675322588495275,49.82256661461859,1.5273323654813555,0.5916241466666666,-0.17389010666666666,-0.2723499600000001,1.0378642133333333,0.6741152726556547,1.1014643857663167,1.113316803303765,1.0399107032049104
LBP07_S01,LBP07,-1528,123,1,122,-1528,1716271375.88,2024-05-21 06:02:55.880000+00:00,2024-05-21 15:02:55.880000+09:00,2024,5,21,6,2,55,880,,,,,,,,,-0.294189,0.320312,1.228027,-130.432129,97.412109,3.051758,,,,,,,,,,,0.0,1.0,1.0,1.0,0.0,0.0,0.0,5.0,0.0,0.0006055200000000027,0.20147461333333333,0.9647623733333334,-0.48177077333333274,0.7250976533333336,-13.644205666666666,-42.648010524231644,-23.926821785073436,30.603020072186798,29.800279462157643,34.13547447516098,-5.610717671179484,45.65925345921402,1.5677260599932503,48.04552179113894,1.5209582158358497,-0.29479452,0.11883738666666666,0.2632646266666666,0.6768965333333332,0.41271587944460364,1.0935531819031845,1.0859819118673146,1.0411635705439173
LBP07_S01,LBP07,-1527,124,1,123,-1527,1716271375.92,2024-05-21 06:02:55.920000+00:00,2024-05-21 15:02:55.920000+09:00,2024,5,21,6,2,55,920,,,,,,,,,-0.428955,0.866699,1.605713,-124.755859,-72.753906,16.479492,,,,,,,,,,,0.0,1.0,1.0,1.0,0.0,0.0,0.0,5.0,0.0,0.004313200000000003,0.21173502666666666,0.9378841066666667,0.20589198666666722,1.2101236933333337,-12.07031244,-23.499298277209856,-27.518197066100193,20.018359310482612,28.86030753106925,33.034746592516974,-4.809983298760179,44.128763551158514,1.5499161743040764,46.42208857237129,1.5196394250331209,-0.4332682,0.6549639733333333,0.6678288933333333,1.7560610666666667,1.030870782526429,1.1296771482103092,1.0875445978563991,1.0497591919526013
LBP07_S01,LBP07,-1526,125,1,124,-1526,1716271375.96,2024-05-21 06:02:55.960000+00:00,2024-05-21 15:02:55.960000+09:00,2024,5,21,6,2,55,960,,,,,,,,,0.313232,-0.428955,2.368652,112.182617,-158.26416,44.799805,,,,,,,,,,,0.0,1.0,1.0,1.0,0.0,0.0,0.0,5.0,0.0,0.0069466666666666696,0.18727213333333334,0.9219563733333332,4.703776106666667,-0.38411458666666637,-9.545084586666666,-7.466140300078598,-28.30450477753758,7.023782182383627,28.561661919066104,31.90256640141547,-4.529032011464834,43.058732047479374,1.5329639848971974,44.98981231605609,1.5248903781929715,0.30628533333333335,-0.6162271333333333,1.4466956266666666,2.3692080933333335,1.602022103932336,1.1440790386951099,1.0912189861275392,1.063843745399
LBP07_S01,LBP07,-1525,126,1,125,-1525,1716271376.0,2024-05-21 06:02:56+00:00,2024-05-21 15:02:56+09:00,2024,5,21,6,2,56,0,6.0,2.0,56.0,40.536282,141.543274,8.723,3.0,8.0,-0.089111,0.242676,0.393799,153.442383,123.535156,-49.560547,-242.0,19.0,397.0,1226.0,0.0,1020.0,26.559999,0.069368,-56.014488,3.986719,0.0,1.0,1.0,1.0,0.0,0.0,0.0,4.0,0.0,0.018857466666666673,0.20858723999999998,0.9388899733333335,13.53841152,-0.42480469333333304,-10.494791613333334,1.713852310926558,-26.1190330916576,-6.586257365882498,28.630216011503165,30.857805077749166,-4.792482306100134,42.36580330568485,1.478468396598286,43.75739439365054,1.5292543951319466,-0.10796846666666667,0.034088760000000023,-0.5450909733333335,0.6871482000000002,0.556725607963357,1.1263998057961033,1.0797347716551429,1.0625437707630407
LBP07_S01,LBP07,-1524,127,1,126,-1524,1716271376.04,2024-05-21 06:02:56.040000+00:00,2024-05-21 15:02:56.040000+09:00,2024,5,21,6,2,56,40,,,,,,,,,-0.176025,0.414062,-0.672119,112.609863,-64.27002,31.25,,,,,,,,,,,0.0,1.0,1.0,1.0,0.0,0.0,0.0,4.0,0.0,0.022353560000000005,0.23139649333333334,0.95357096,16.6935222,-1.5372721466666663,-11.467285106666667,1.9337905430483175,-21.23417308424684,-19.048044573832964,28.707567633225096,30.00843815437929,-5.5544040890534525,41.898474968259805,1.4717424537410717,42.715329944529536,1.5288631494750713,-0.19837855999999998,0.18266550666666664,-1.6256899599999999,2.0067340266666664,1.647904301359234,1.1514243008546434,1.0909453339333026,1.0736394906251383
LBP07_S01,LBP07,-1523,128,1,127,-1523,1716271376.08,2024-05-21 06:02:56.080000+00:00,2024-05-21 15:02:56.080000+09:00,2024,5,21,6,2,56,80,,,,,,,,,0.259766,0.447998,-0.191895,53.283691,-203.491211,-0.183105,,,,,,,,,,,0.0,1.0,1.0,1.0,0.0,0.0,0.0,4.0,0.0,0.008968133333333335,0.23466146666666668,0.9666471200000001,11.613769600000001,-0.410970053333333,-11.67480464,-6.417265236373051,-14.514782575900657,-28.932142719056692,28.450877023770175,29.427846851343265,-6.71168979781572,41.47887840419399,1.5314909653614908,41.84501996567436,1.5162245548609168,0.25079786666666665,0.21333653333333333,-1.1585421200000001,1.6226765200000002,1.204421807421856,1.1474424800601297,1.0884346844332855,1.0762559179833215
LBP07_S01,LBP07,-1522,129,1,128,-1522,1716271376.12,2024-05-21 06:02:56.120000+00:00,2024-05-21 15:02:56.120000+09:00,2024,5,21,6,2,56,120,,,,,,,,,0.698242,1.491943,-0.018555,-158.26416,44.677734,-143.127441,,,,,,,,,,,0.0,1.0,1.0,1.0,0.0,0.0,0.0,4.0,0.0,0.010247426666666669,0.2280892,0.9731868266666667,6.4013672533333335,-0.722656253333333,-11.020507773333334,-20.404004841191117,-7.370601725846025,-35.402639538034,27.63471683012253,29.133022782309425,-8.12779537933708,40.969154841709766,1.5246868598624344,41.12402237759839,1.5044431605826198,0.6879945733333334,1.2638538000000001,-0.9917418266666667,2.9435902,1.7476312000736005,1.1541633679898091,1.1089211214516208,1.0978143107949334
LBP07_S01,LBP07,-1521,130,1,129,-1521,1716271376.16,2024-05-21 06:02:56.160000+00:00,2024-05-21 15:02:56.160000+09:00,2024,5,21,6,2,56,160,,,,,,,,,0.086914,-0.865234,0.894531,-186.462402,115.29541,-84.960938,,,,,,,,,,,0.0,1.0,1.0,1.0,0.0,0.0,0.0,4.0,0.0,0.012151720000000001,0.25125326666666664,0.9610221066666665,3.391927146666667,0.26611326666666696,-10.951334600000001,-35.32753070873646,-1.4565296239077956,-38.351588005785956,26.221615601773074,29.074761597353113,-9.661858899568518,40.32699349201772,1.5208518623776295,40.52877121853355,1.4962847392603336,0.07476228,-1.1164872666666665,-0.06649110666666658,1.2577406533333333,1.1209613206553386,1.1478115022414517,1.1179817653989472,1.0931006154849603
LBP07_S01,LBP07,-1520,131,1,130,-1520,1716271376.2,2024-05-21 06:02:56.200000+00:00,2024-05-21 15:02:56.200000+09:00,2024,5,21,6,2,56,200,,,,,,,,,-0.425781,0.439209,1.035156,170.288086,-22.705078,-65.551758,,,,,,,,,,,0.0,1.0,1.0,1.0,0.0,0.0,0.0,4.0,0.0,0.007265653333333336,0.2751237066666667,0.9251594666666667,5.675455786666668,-0.3979492399999997,-11.075846319999998,-46.03440593150733,1.803371960744692,-38.32227855447272,24.380239364512782,29.1468964757829,-11.194750041747426,39.61388738988069,1.5432524787657478,40.03807620356159,1.490670469035096,-0.43304665333333336,0.16408529333333333,0.10999653333333326,0.70712848,0.4759754455818465,1.1410669229539558,1.105265825454026,1.0695197268149441
LBP07_S01,LBP07,-1519,132,1,131,-1519,1716271376.24,2024-05-21 06:02:56.240000+00:00,2024-05-21 15:02:56.240000+09:00,2024,5,21,6,2,56,240,,,,,,,,,-0.042236,-0.49707,1.772461,49.072266,23.010254,59.936523,,,,,,,,,,,0.0,1.0,1.0,1.0,0.0,0.0,0.0,4.0,0.0,0.030416693333333338,0.24092448,0.9261523066666666,-0.32796218666666654,-3.1038411599999995,-7.728678360000001,-48.34432549542078,1.6690623666346918,-36.20174328771372,22.44646634469595,29.213658970448286,-12.642819773255974,38.950258197144905,1.4411463127079824,39.63800115264432,1.4879528412240741,-0.07265269333333334,-0.73799448,0.8463086933333335,1.6569558666666668,1.125234495903246,1.1475869758295185,1.0948430956930453,1.0660737724427805
LBP07_S01,LBP07,-1518,133,1,132,-1518,1716271376.28,2024-05-21 06:02:56.280000+00:00,2024-05-21 15:02:56.280000+09:00,2024,5,21,6,2,56,280,,,,,,,,,-0.216064,1.213623,-0.043213,-367.675781,190.917969,65.612793,,,,,,,,,,,0.0,1.0,1.0,1.0,0.0,0.0,0.0,4.0,0.0,0.02831708,0.24083984,0.9205240533333333,1.0034180133333332,-3.0346679866666664,-7.756347626666666,-40.26097071604916,-1.7004691326023433,-32.8014025444084,20.83602751605398,29.145640205144193,-13.954875875032311,38.449277578454385,1.4499121172102825,39.32320573838493,1.484799023948295,-0.24438108,0.9727831599999999,-0.9637370533333334,2.180901293333333,1.390977460855915,1.1630458218023856,1.1077431568338554,1.0678194041107263
LBP07_S01,LBP07,-1517,134,1,133,-1517,1716271376.32,2024-05-21 06:02:56.320000+00:00,2024-05-21 15:02:56.320000+09:00,2024,5,21,6,2,56,320,,,,,,,,,0.224365,-0.429688,0.663086,-180.908203,-295.715332,95.52002,,,,,,,,,,,0.0,1.0,1.0,1.0,0.0,0.0,0.0,4.0,0.0,0.023655613333333332,0.23747395999999998,0.9229166399999998,4.79899092,-2.9313151199999994,-8.029785133333334,-22.69721575306135,-7.370915104324975,-28.559078497139478,19.928138885931528,28.850803600971194,-15.09723901491789,38.17625196051005,1.4683319610812136,39.08864561324562,1.4721579112916718,0.20070938666666668,-0.66716196,-0.2598306399999999,1.1277019866666667,0.7435733321266711,1.1462791805599297,1.102386071315844,1.0660579248085686
LBP07_S01,LBP07,-1516,135,1,134,-1516,1716271376.36,2024-05-21 06:02:56.360000+00:00,2024-05-21 15:02:56.360000+09:00,2024,5,21,6,2,56,360,,,,,,,,,0.43457,-1.458008,1.859131,106.567383,47.668457,-162.04834,,,,,,,,,,,0.0,1.0,1.0,1.0,0.0,0.0,0.0,4.0,0.0,0.022408866666666666,0.24596029333333333,0.9239810933333333,1.6471354533333329,-2.750651053333333,-7.564290346666667,0.5264804829334587,-14.024350772566567,-23.56271209937233,19.949198105248865,28.28982957006853,-16.039747498892783,38.15178189775971,1.4768212826448202,38.912545140115206,1.461800929198819,0.4121611333333334,-1.7039682933333333,0.9351499066666668,3.0512793333333335,1.9869298156841388,1.1912241534700512,1.1202579277485005,1.0796561433892584
LBP07_S01,LBP07,-1515,136,1,135,-1515,1716271376.4,2024-05-21 06:02:56.400000+00:00,2024-05-21 15:02:56.400000+09:00,2024,5,21,6,2,56,400,,,,,,,,,0.294189,2.772949,1.011719,408.081055,-6.225586,-151.672363,,,,,,,,,,,0.0,1.0,1.0,1.0,0.0,0.0,0.0,4.0,0.0,0.02851562666666666,0.24559245333333332,0.9248697600000001,3.2055664399999992,-3.4505208533333325,-7.324218733333334,23.502945798091016,-20.419029685315152,-17.891939368463888,20.889315937172505,27.473068382655924,-16.75542507363134,38.36505279651224,1.451292118488068,38.741013806747915,1.4538213927016128,0.2656733733333333,2.5273565466666668,0.08684923999999994,2.8798791599999998,2.5427654720335005,1.2410718733045192,1.1505201132081495,1.1021817414872233
LBP07_S01,LBP07,-1514,137,1,136,-1514,1716271376.44,2024-05-21 06:02:56.440000+00:00,2024-05-21 15:02:56.440000+09:00,2024,5,21,6,2,56,440,,,,,,,,,-0.865723,-0.414551,2.25415,-428.833008,-49.560547,-89.111328,,,,,,,,,,,0.0,1.0,1.0,1.0,0.0,0.0,0.0,4.0,0.0,0.03203777333333334,0.25278646666666665,0.9216796666666667,1.5275065333333326,-3.0078125199999994,-7.491861973333333,39.667998635630816,-25.705140550296424,-12.029031789001857,22.47603588259774,26.444862760644067,-17.236586345191416,38.75052082566581,1.4402042809832838,38.48799541224721,1.4440147849670784,-0.8977607733333334,-0.6673374666666667,1.3324703333333334,2.8975685733333334,1.739767481523492,1.2563013000716305,1.1619269240479517,1.114379894807958
LBP07_S01,LBP07,-1513,138,1,137,-1513,1716271376.48,2024-05-21 06:02:56.480000+00:00,2024-05-21 15:02:56.480000+09:00,2024,5,21,6,2,56,480,,,,,,,,,0.064209,0.982666,2.275635,349.731445,-159.729004,5.92041,,,,,,,,,,,0.0,1.0,1.0,1.0,0.0,0.0,0.0,4.0,0.0,0.0386556,0.2382226666666667,0.9404589733333334,0.837402359999999,-2.6481119999999994,-6.9498697866666665,43.40496401521998,-29.485402909706057,-7.005346801711337,24.212234443206537,25.265446644255825,-17.51680021725987,39.13327715280092,1.4050798387952552,38.05966842575348,1.4424481817461732,0.025553400000000004,0.7444433333333333,1.3351760266666663,2.1051727599999994,1.5289028337279615,1.2558465341457887,1.1583300598995043,1.1300674798950292
LBP07_S01,LBP07,-1512,139,1,138,-1512,1716271376.52,2024-05-21 06:02:56.520000+00:00,2024-05-21 15:02:56.520000+09:00,2024,5,21,6,2,56,520,,,,,,,,,-0.696777,-1.408203,0.506836,58.105469,142.39502,78.308105,,,,,,,,,,,0.0,1.0,1.0,1.0,0.0,0.0,0.0,4.0,0.0,0.03693034666666666,0.2534765733333333,0.9377408666666668,0.6844075733333325,-1.8448893333333332,-7.172851560000001,31.414284042235522,-31.64216234110735,-4.11398553081922,25.468805804895958,23.99976015061153,-17.68135963849264,39.20815011040561,1.4211170389339056,37.40221531445462,1.4398016361862915,-0.7337073466666666,-1.6616795733333334,-0.43090486666666683,2.826291786666667,1.866864879712216,1.297364411635029,1.176811540344099,1.1492709909539631
LBP07_S01,LBP07,-1511,140,1,139,-1511,1716271376.56,2024-05-21 06:02:56.560000+00:00,2024-05-21 15:02:56.560000+09:00,2024,5,21,6,2,56,560,,,,,,,,,-0.07959,0.119873,-0.538086,-80.01709,30.456543,133.911133,,,,,,,,,,,0.0,1.0,1.0,1.0,0.0,0.0,0.0,4.0,0.0,0.032529293333333334,0.25863608,0.9293033600000001,1.4379882933333326,-0.07812499999999963,-9.738769533333334,3.5967423111195638,-32.0582433598519,-4.320026188416576,25.61267549734074,22.717430416217454,-17.854160686029303,38.61168015834477,1.441056497405569,36.553455806722965,1.432719062965647,-0.11211929333333333,-0.13876307999999998,-1.46738936,1.7182717333333333,1.4781939866437903,1.300614963036273,1.189920169734358,1.1576568938683887
LBP07_S01,LBP07,-1510,141,1,140,-1510,1716271376.6,2024-05-21 06:02:56.600000+00:00,2024-05-21 15:02:56.600000+09:00,2024,5,21,6,2,56,600,,,,,,,,,0.330078,0.137207,-0.182373,-132.202148,-51.757812,44.677734,,,,,,,,,,,0.0,1.0,1.0,1.0,0.0,0.0,0.0,4.0,0.0,0.032200519999999996,0.26560222666666666,0.9045019333333335,0.10742189333333234,-3.8142903733333333,-7.566731773333334,-36.664159979745214,-30.419325613376913,-7.7166053389181215,24.14610909815093,21.500657391682378,-18.162824899586028,37.08370344487367,1.4451864014204017,35.64970524163546,1.4240998891513512,0.29787748,-0.12839522666666667,-1.0868749333333336,1.5131476400000001,1.1342457617422572,1.3110510424114714,1.1965370455501985,1.1518775616234775
LBP07_S01,LBP07,-1509,142,1,141,-1509,1716271376.64,2024-05-21 06:02:56.640000+00:00,2024-05-21 15:02:56.640000+09:00,2024,5,21,6,2,56,640,,,,,,,,,0.57373,-0.11377,0.836914,-65.429688,-18.737793,-61.035156,,,,,,,,,,,0.0,1.0,1.0,1.0,0.0,0.0,0.0,4.0,0.0,0.033538399999999996,0.23684572000000004,0.89772784,-5.935058573333335,-4.036458346666667,-7.2070312533333345,-82.83934722762915,-26.257599712884243,-13.361593501920076,20.832535209045766,20.450353403167007,-18.69728863966283,34.66698833220764,1.4254802804989308,34.84728219420067,1.4216433696077753,0.5401916,-0.35061572,-0.06081384000000001,0.95162116,0.646866810832975,1.2869395400312464,1.1910783394381719,1.1498575813429543
LBP07_S01,LBP07,-1508,143,1,142,-1508,1716271376.68,2024-05-21 06:02:56.680000+00:00,2024-05-21 15:02:56.680000+09:00,2024,5,21,6,2,56,680,,,,,,,,,0.221191,0.636475,0.695801,154.968262,15.380859,-76.11084,,,,,,,,,,,0.0,1.0,1.0,1.0,0.0,0.0,0.0,4.0,0.0,0.03438476,0.23993492,0.8801139066666667,-5.743815080000002,-3.6214192933333327,-6.88883464,-126.1888896294321,-19.256798922786334,-19.604919900376228,15.78497962386848,19.680081446255553,-19.48148543567788,31.874746465465797,1.4234466616114667,34.22489025154003,1.422051190077355,0.18680624,0.39654008,-0.18431290666666666,0.7676592266666666,0.4755122016449834,1.26323135293092,1.1697497164002428,1.143531186951555
LBP07_S01,LBP07,-1507,144,1,143,-1507,1716271376.72,2024-05-21 06:02:56.720000+00:00,2024-05-21 15:02:56.720000+09:00,2024,5,21,6,2,56,720,,,,,,,,,-0.008789,1.402344,1.348877,143.920898,-213.623047,-115.722656,,,,,,,,,,,0.0,1.0,1.0,1.0,0.0,0.0,0.0,4.0,0.0,0.0444108,0.26466149333333333,0.8774153466666667,-7.5545247200000025,-5.284016946666666,-6.765950533333334,-157.29987175046557,-9.661400639179055,-24.73405695045246,9.492984753849857,19.29362542068839,-20.470847713695978,29.688656883193467,1.3975062288747682,33.77053494699357,1.4233386028120207,-0.0531998,1.1376825066666667,0.47146165333333345,1.6623439600000003,1.2326507190843603,1.253412376780129,1.158440584877755,1.1460672060304984
LBP07_S01,LBP07,-1506,145,1,144,-1506,1716271376.76,2024-05-21 06:02:56.760000+00:00,2024-05-21 15:02:56.760000+09:00,2024,5,21,6,2,56,760,,,,,,,,,-0.080322,2.611084,0.873047,-298.88916,-113.464355,-104.980469,,,,,,,,,,,0.0,1.0,1.0,1.0,0.0,0.0,0.0,4.0,0.0,0.04427408,0.2519922133333334,0.9064583066666665,-11.385091133333335,-4.904785173333333,-8.500976573333334,-168.18603013847277,1.4703085956448212,-27.601129186245434,2.765543548310946,19.352437764514182,-21.574892881145797,29.1142762468847,1.3906295445018635,33.44171164238778,1.4221122944416136,-0.12459608,2.3590917866666667,-0.033411306666666474,2.517099173333333,2.3626160408501984,1.2699118671180103,1.193487041078241,1.169182657987336
LBP07_S01,LBP07,-1505,146,1,145,-1505,1716271376.8,2024-05-21 06:02:56.800000+00:00,2024-05-21 15:02:56.800000+09:00,2024,5,21,6,2,56,800,,,,,,,,,0.381592,0.255371,0.987793,-860.046387,131.713867,59.387207,,,,,,,,,,,0.0,1.0,1.0,1.0,0.0,0.0,0.0,4.0,0.0,0.03658853333333334,0.2620345333333333,0.9197004933333333,-9.01936848,-2.94840496,-10.312500013333333,-154.59661017856084,12.387539936622712,-27.934850483755902,-3.4183208588314873,19.84793936197909,-22.692286900496033,30.34082232216433,1.4267269230523076,33.23230996560039,1.4165290363238334,0.34500346666666665,-0.006663533333333305,0.06809250666666677,0.4197595066666667,0.3517220268232461,1.2432066816321283,1.1858486938414843,1.162370810784846
LBP07_S01,LBP07,-1504,147,1,146,-1504,1716271376.84,2024-05-21 06:02:56.840000+00:00,2024-05-21 15:02:56.840000+09:00,2024,5,21,6,2,56,840,,,,,,,,,-0.547363,0.621094,2.048096,-283.203125,193.237305,-23.803711,,,,,,,,,,,0.0,1.0,1.0,1.0,0.0,0.0,0.0,4.0,0.0,0.03339844,0.27403647999999997,0.9102896933333335,-9.553222640000001,-2.548014333333333,-10.9318034,-117.71465389604492,21.160882675437204,-26.239391587323155,-8.126907014673284,20.694374668996577,-23.74186256398896,32.52660139905941,1.4442824856790804,33.20282045306901,1.403001040102396,-0.5807614400000001,0.34705752000000006,1.1378063066666666,2.065625266666667,1.3237582724462442,1.269192401623752,1.1853283936950343,1.1652753360770942
LBP07_S01,LBP07,-1503,148,1,147,-1503,1716271376.88,2024-05-21 06:02:56.880000+00:00,2024-05-21 15:02:56.880000+09:00,2024,5,21,6,2,56,880,,,,,,,,,-0.049561,-2.277832,1.350098,-356.689453,173.217773,113.952637,,,,,,,,,,,0.0,1.0,1.0,1.0,0.0,0.0,0.0,4.0,0.0,0.038417973333333334,0.25957033333333335,0.8888802,-12.120768213333333,-2.69856772,-9.068196626666666,-64.27795859918481,26.34618382186053,-23.409727978028705,-10.698025358640677,21.748222021870998,-24.67825168311011,34.58972410733628,1.4179539661419138,33.45816550429346,1.3935210384989485,-0.08797897333333334,-2.5374023333333335,0.4612178,3.0865991066666667,2.580479172555181,1.355902933348175,1.2247280576256798,1.175955585694268
LBP07_S01,LBP07,-1502,149,1,148,-1502,1716271376.92,2024-05-21 06:02:56.920000+00:00,2024-05-21 15:02:56.920000+09:00,2024,5,21,6,2,56,920,,,,,,,,,-0.03125,0.829834,-0.246338,926.513672,-237.487793,-77.270508,,,,,,,,,,,0.0,1.0,1.0,1.0,0.0,0.0,0.0,4.0,0.0,0.03989584,0.25447268,0.8566080666666667,-9.900716133333335,-2.5032552133333326,-8.3520508,-4.720896093687988,27.441619259959687,-20.314329275711305,-10.886861202388197,22.845886792269386,-25.49082485413856,35.91991706434777,1.4088539552298347,34.081486182250565,1.3867055466037648,-0.07114584,0.57536132,-1.1029460666666666,1.7494532266666667,1.2460306597660102,1.3645093284377583,1.2470932383240336,1.179866174716852
LBP07_S01,LBP07,-1501,150,1,149,-1501,1716271376.96,2024-05-21 06:02:56.960000+00:00,2024-05-21 15:02:56.960000+09:00,2024,5,21,6,2,56,960,,,,,,,,,-0.047119,1.541504,1.434326,320.800781,22.949219,-5.493164,,,,,,,,,,,0.0,1.0,1.0,1.0,0.0,0.0,0.0,4.0,0.0,0.043278,0.23952476,0.8341145733333334,-8.222656240000001,-4.580891933333333,-6.704915373333333,50.012049291581334,24.934465752257577,-17.553161080780093,-8.886379230724943,23.84326542235969,-26.192951297369763,36.51766339047088,1.3852239162277666,35.05955606979314,1.3804071277019152,-0.090397,1.30197924,0.6002114266666666,1.9925876666666666,1.4365149897238154,1.3578890438694173,1.2509840412822637,1.1801090053748318
LBP07_S01,LBP07,-1500,151,1,150,-1500,1716271377.0,2024-05-21 06:02:57+00:00,2024-05-21 15:02:57+09:00,2024,5,21,6,2,57,0,6.0,2.0,57.0,40.536285,141.543228,8.528,3.0,8.0,-0.055664,-0.477295,2.128418,-91.491699,75.622559,-102.722168,-237.0,31.0,384.0,1394.0,0.0,1020.599976,26.610001,0.075314,-60.978813,3.986719,0.0,1.0,1.0,1.0,0.0,0.0,0.0,4.0,0.0,0.05830404,0.22523113333333336,0.8603320133333333,-10.008951813333333,-5.928548186666666,-6.219889333333334,91.56758424038304,20.01283892068964,-15.443788062952047,-5.223675861109621,24.643778979187275,-26.810702819887844,36.78880831955982,1.309906439206028,36.262699737800595,1.374317975407426,-0.11396803999999999,-0.7025261333333334,1.2680859866666667,2.08458016,1.4541574026693602,1.3937863156576575,1.2600930607268805,1.184418619655981
LBP07_S01,LBP07,-1499,152,1,151,-1499,1716271377.04,2024-05-21 06:02:57.040000+00:00,2024-05-21 15:02:57.040000+09:00,2024,5,21,6,2,57,40,,,,,,,,,0.083008,0.209473,1.522705,-52.79541,5.249023,-18.249512,,,,,,,,,,,0.0,1.0,1.0,1.0,0.0,0.0,0.0,4.0,0.0,0.05457682666666667,0.23013021333333333,0.86953124,-6.040039053333334,-5.5777994799999995,-6.89941408,115.93485779999179,14.16270387400352,-14.138542646080394,-0.5862815491099491,25.210287134147414,-27.37624452573106,37.22043884445218,1.3306802644644544,37.52362089522377,1.3701228284582858,0.02843117333333333,-0.02065721333333334,0.6531737599999999,0.7022621466666666,0.6541185006039398,1.3540348836274458,1.2527295922410446,1.178641850498017
LBP07_S01,LBP07,-1498,153,1,152,-1498,1716271377.08,2024-05-21 06:02:57.080000+00:00,2024-05-21 15:02:57.080000+09:00,2024,5,21,6,2,57,80,,,,,,,,,-0.094482,0.542236,-0.012451,91.186523,23.31543,-16.357422,,,,,,,,,,,0.0,1.0,1.0,1.0,0.0,0.0,0.0,4.0,0.0,0.052649746666666664,0.24971679999999996,0.8725650933333334,-4.647623680000001,-6.9856770799999985,-6.941731786666668,123.470598596414,8.808640654312146,-13.726790388020486,4.352542394746611,25.5626327603199,-27.92531614125188,38.10795324503678,1.3552917426596318,38.74580121885134,1.3605953993789417,-0.14713174666666667,0.2925192000000001,-0.8850160933333334,1.3246670400000002,0.943646500923317,1.343603871367504,1.245523175713817,1.1734910800780252
LBP07_S01,LBP07,-1497,154,1,153,-1497,1716271377.12,2024-05-21 06:02:57.120000+00:00,2024-05-21 15:02:57.120000+09:00,2024,5,21,6,2,57,120,,,,,,,,,0.264648,-0.728027,0.115479,68.237305,27.099609,39.489746,,,,,,,,,,,0.0,1.0,1.0,1.0,0.0,0.0,0.0,4.0,0.0,0.05728841333333333,0.24676108,0.8713606666666668,-8.313802066666668,-6.926269519999999,-6.656087266666668,117.68341166228205,5.036648072105158,-14.239829866686861,9.059878861237895,25.764098683204107,-28.494909335919356,39.46935575861923,1.3345220398562723,39.93294016284743,1.3504110648221905,0.20735958666666665,-0.97478808,-0.7558816666666668,1.9380293333333334,1.250826484007848,1.3237316827248742,1.2389475253573417,1.1805246418760384
LBP07_S01,LBP07,-1496,155,1,154,-1496,1716271377.16,2024-05-21 06:02:57.160000+00:00,2024-05-21 15:02:57.160000+09:00,2024,5,21,6,2,57,160,,,,,,,,,0.009521,-0.004883,-0.242188,141.357422,-27.160645,22.583008,,,,,,,,,,,0.0,1.0,1.0,1.0,0.0,0.0,0.0,4.0,0.0,0.05792968,0.24431316,0.8649641866666667,-14.617513013333333,-4.379068999999999,-7.284342466666667,103.54976915193399,3.395028150010449,-15.584820517542644,13.201869627315254,25.899899809204527,-29.118302156621063,41.145712926959284,1.3297380215569696,41.143664978572126,1.3415376893217075,-0.048408679999999996,-0.24919616,-1.1071521866666667,1.4047570266666667,1.1358820761412118,1.324328512944309,1.2360700075928803,1.1867640145807348
LBP07_S01,LBP07,-1495,156,1,155,-1495,1716271377.2,2024-05-21 06:02:57.200000+00:00,2024-05-21 15:02:57.200000+09:00,2024,5,21,6,2,57,200,,,,,,,,,0.762451,0.844971,0.772705,152.404785,-93.505859,-14.587402,,,,,,,,,,,0.0,1.0,1.0,1.0,0.0,0.0,0.0,4.0,0.0,0.04682942666666667,0.25978516,0.8506152266666667,-10.649414053333333,-5.592447906666665,-7.3502604400000005,85.94259186591151,3.7986768046739328,-17.50005977684573,16.639573301951714,26.051846881391484,-29.818304547694893,42.95003389639609,1.3847754535609083,42.42925128159372,1.3368333819418416,0.7156215733333333,0.5851858400000001,-0.0779102266666667,1.37871764,0.9276996857689629,1.3423974825517937,1.2417322027528748,1.1843097111532819
LBP07_S01,LBP07,-1494,157,1,156,-1494,1716271377.24,2024-05-21 06:02:57.240000+00:00,2024-05-21 15:02:57.240000+09:00,2024,5,21,6,2,57,240,,,,,,,,,-0.074707,-0.499512,1.87207,-65.612793,36.437988,-71.838379,,,,,,,,,,,0.0,1.0,1.0,1.0,0.0,0.0,0.0,4.0,0.0,0.05589517333333333,0.2582194133333333,0.8618131466666668,-10.103352853333334,-8.09326172,-6.595865906666666,68.46907142009354,5.589019833762104,-19.600699710951638,19.378336158755456,26.275407674741967,-30.60233253613296,44.7484046353351,1.3490081948856372,43.79131128567574,1.3383570458988245,-0.13060217333333332,-0.7577314133333333,1.0102568533333331,1.8985904399999998,1.2695797462697995,1.348171292566456,1.2478791341979873,1.179285827984182
LBP07_S01,LBP07,-1493,158,1,157,-1493,1716271377.28,2024-05-21 06:02:57.280000+00:00,2024-05-21 15:02:57.280000+09:00,2024,5,21,6,2,57,280,,,,,,,,,-0.608887,-0.043213,1.726318,-5.249023,53.527832,-66.650391,,,,,,,,,,,0.0,1.0,1.0,1.0,0.0,0.0,0.0,4.0,0.0,0.06393553333333334,0.25503256,0.8793424400000002,-11.807454413333334,-6.727701826666666,-6.826171893333334,52.856865534907165,7.7717458204864425,-21.497708996971156,21.492610780151743,26.586277507561423,-31.462240896011807,46.46111354729715,1.3161106205744038,45.17394711155391,1.334272282885881,-0.6728225333333333,-0.29824556,0.8469755599999998,1.818043653333333,1.1220553349358984,1.3374144075296552,1.2502301146660204,1.184300240399122
LBP07_S01,LBP07,-1492,159,1,158,-1492,1716271377.32,2024-05-21 06:02:57.320000+00:00,2024-05-21 15:02:57.320000+09:00,2024,5,21,6,2,57,320,,,,,,,,,-0.005127,-0.672607,1.236328,-27.404785,58.59375,-22.644043,,,,,,,,,,,0.0,1.0,1.0,1.0,0.0,0.0,0.0,4.0,0.0,0.06149411999999999,0.24867187999999998,0.8945833200000001,-7.001139306666667,-5.249837239999999,-8.4269206,38.96881519430196,9.366040507496834,-22.900618254859914,23.05136338792382,26.960919127861295,-32.3782656262062,48.02716522159473,1.320120200225002,46.4866246525204,1.3303816636804688,-0.06662111999999999,-0.9212788799999999,0.34174468,1.32964468,0.9848769337701088,1.3470665515953928,1.2466728660776611,1.183946231409027
LBP07_S01,LBP07,-1491,160,1,159,-1491,1716271377.36,2024-05-21 06:02:57.360000+00:00,2024-05-21 15:02:57.360000+09:00,2024,5,21,6,2,57,360,,,,,,,,,-0.165771,0.791992,1.191406,142.211914,60.180664,-15.869141,,,,,,,,,,,0.0,1.0,1.0,1.0,0.0,0.0,0.0,4.0,0.0,0.05623045333333334,0.24532226666666668,0.9122721199999999,-3.1518554400000007,-6.243489573333331,-9.26920576,25.439608071014625,9.716970717726408,-23.62137149493665,24.068947710764405,27.349597956570353,-33.32312048600367,49.37352642068688,1.3381808424291086,47.63833909438169,1.325930287517981,-0.22200145333333335,0.5466697333333334,0.27913388000000006,1.0478050666666667,0.6527236517766951,1.2936983050390949,1.242461229254573,1.1780713868453654
LBP07_S01,LBP07,-1490,161,1,160,-1490,1716271377.4,2024-05-21 06:02:57.400000+00:00,2024-05-21 15:02:57.400000+09:00,2024,5,21,6,2,57,400,,,,,,,,,0.134033,0.392334,-0.112061,-42.358398,-52.734375,46.99707,,,,,,,,,,,0.0,1.0,1.0,1.0,0.0,0.0,0.0,4.0,0.0,0.06360674666666666,0.2636002666666667,0.9046126133333333,0.3312174799999991,-6.902669253333333,-9.81445316,10.752833007120133,8.628877710524733,-23.479455459940237,24.49906103104921,27.694753064991342,-34.262298704401275,50.4094083603799,1.3251430787758571,48.56189695288937,1.3178271119522171,0.07042625333333336,0.12873373333333332,-1.0166736133333334,1.2158336,1.0272085802332285,1.2330760293670842,1.2370739513358016,1.1780387519277944
LBP07_S01,LBP07,-1489,162,1,161,-1489,1716271377.44,2024-05-21 06:02:57.440000+00:00,2024-05-21 15:02:57.440000+09:00,2024,5,21,6,2,57,440,,,,,,,,,0.111328,-0.755615,0.527832,166.625977,-52.490234,8.789062,,,,,,,,,,,0.0,1.0,1.0,1.0,0.0,0.0,0.0,4.0,0.0,0.06802081333333332,0.24368165333333333,0.8886686000000001,-1.2329101333333339,-4.580078106666666,-9.623209666666666,-5.615062052957464,6.283476957595272,-22.19949913810684,24.27445854893091,27.946092143295154,-35.15027866992555,51.04679710323392,1.2898326343350217,49.2208765242779,1.3068490633526373,0.04330718666666668,-0.9992966533333334,-0.3608366000000002,1.4034404400000002,1.0633307884566034,1.2060185616444086,1.2311599308580194,1.1766241365801042
LBP07_S01,LBP07,-1488,163,1,162,-1488,1716271377.48,2024-05-21 06:02:57.480000+00:00,2024-05-21 15:02:57.480000+09:00,2024,5,21,6,2,57,480,,,,,,,,,0.226318,0.955078,0.970215,125.12207,24.291992,-20.080566,,,,,,,,,,,0.0,1.0,1.0,1.0,0.0,0.0,0.0,4.0,0.0,0.060341786666666654,0.24031250666666665,0.8615266799999999,-3.94775388,-2.3689778533333326,-9.97151696,-22.442525858860968,3.033320269126981,-19.416278258704736,23.37675751457647,28.067424954060233,-35.92692980027374,51.23472865470167,1.316385550605508,49.60582487031148,1.302401850442012,0.16597621333333334,0.7147654933333334,0.10868832000000017,0.9894300266666669,0.7417890298170621,1.1745340094879726,1.2151902718168808,1.1637313764289938
LBP07_S01,LBP07,-1487,164,1,163,-1487,1716271377.52,2024-05-21 06:02:57.520000+00:00,2024-05-21 15:02:57.520000+09:00,2024,5,21,6,2,57,520,,,,,,,,,0.049316,1.209229,1.505859,60.424805,-16.357422,-94.177246,,,,,,,,,,,0.0,1.0,1.0,1.0,0.0,0.0,0.0,4.0,0.0,0.06661782666666666,0.23894206666666667,0.8642187333333332,-5.026855440000001,-5.283203106666667,-9.42789716,-36.767494475223586,-0.7859836863709501,-14.833924281511154,21.90605773556753,28.035985606605394,-36.52028677153419,50.98650017723219,1.2900082782313935,49.730207056560644,1.3033383318340976,-0.01730182666666666,0.9702869333333335,0.6416402666666668,1.6292290266666671,1.163382275097691,1.1463947053033916,1.2218795584692101,1.16667259533053
LBP07_S01,LBP07,-1486,165,1,164,-1486,1716271377.56,2024-05-21 06:02:57.560000+00:00,2024-05-21 15:02:57.560000+09:00,2024,5,21,6,2,57,560,,,,,,,,,-0.344727,-0.076904,2.235107,-340.942383,-9.94873,-20.019531,,,,,,,,,,,0.0,1.0,1.0,1.0,0.0,0.0,0.0,4.0,0.0,0.07642576,0.23598634666666668,0.8950097466666667,-9.5418294,-3.365885386666666,-10.056966173333334,-44.737754361912856,-4.92898782361743,-8.47221544104417,20.116547561091014,27.838826093660696,-36.85917538917595,50.381291512036036,1.2487062658993309,49.63181006829973,1.3040179848759488,-0.42115276,-0.3128903466666667,1.3400972533333335,2.0741403600000003,1.4391423364922418,1.1448326392973296,1.2227238011668013,1.1748909929220153
LBP07_S01,LBP07,-1485,166,1,165,-1485,1716271377.6,2024-05-21 06:02:57.600000+00:00,2024-05-21 15:02:57.600000+09:00,2024,5,21,6,2,57,600,,,,,,,,,-0.137207,-0.787842,2.135742,-219.604492,15.686035,22.827148,,,,,,,,,,,0.0,1.0,1.0,1.0,0.0,0.0,0.0,4.0,0.0,0.07199216,0.24361004,0.9217057200000002,-10.111490853333333,-0.34830726666666606,-11.234537800000002,-43.014455458360224,-9.196918385432442,-0.8579895244932433,18.395969342756604,27.4709493582434,-36.89349497015568,49.53982961028143,1.27499496756511,49.37648212976037,1.3046160560348494,-0.20919916,-1.03145204,1.2140362799999997,2.4546874799999996,1.6067176754243742,1.1637315158446142,1.2373912791280428,1.1856018689816705
LBP07_S01,LBP07,-1484,167,1,166,-1484,1716271377.64,2024-05-21 06:02:57.640000+00:00,2024-05-21 15:02:57.640000+09:00,2024,5,21,6,2,57,640,,,,,,,,,-0.341309,2.422852,0.682373,37.536621,40.771484,-32.043457,,,,,,,,,,,0.0,1.0,1.0,1.0,0.0,0.0,0.0,4.0,0.0,0.05861325333333333,0.22010093333333336,0.95751952,-10.002441373333333,-1.3452148133333326,-9.4335938,-30.14982584729366,-13.34763158364349,6.963442024024869,17.189976308864857,26.937044094897658,-36.614957289194685,48.597888095670854,1.3045360657793847,49.05436670072668,1.298687980691033,-0.3999222533333333,2.2027510666666665,-0.27514651999999995,2.87781984,2.255605390550497,1.2280810590333153,1.2575102995322809,1.2034125793032195
LBP07_S01,LBP07,-1483,168,1,167,-1483,1716271377.68,2024-05-21 06:02:57.680000+00:00,2024-05-21 15:02:57.680000+09:00,2024,5,21,6,2,57,680,,,,,,,,,-0.316406,1.696533,-0.171387,154.663086,-18.188477,-25.268555,,,,,,,,,,,0.0,1.0,1.0,1.0,0.0,0.0,0.0,4.0,0.0,0.05487628,0.22460288,0.9721223866666666,-7.644042946666667,-1.4005533466666662,-8.504231813333334,-7.383686963983287,-17.050664037349943,13.637262845796982,16.894628830305525,26.25501753340366,-36.069466775362805,47.704935409788845,1.3254754344952584,48.76095165705917,1.2980516356176022,-0.37128228,1.4719301200000001,-1.1435093866666666,2.9867217866666667,1.9005374310967909,1.2850820682113875,1.2741567105711535,1.2081938336706246
LBP07_S01,LBP07,-1482,169,1,168,-1482,1716271377.72,2024-05-21 06:02:57.720000+00:00,2024-05-21 15:02:57.720000+09:00,2024,5,21,6,2,57,720,,,,,,,,,0.712158,-1.095215,0.415527,-167.785645,-26.611328,93.811035,,,,,,,,,,,0.0,1.0,1.0,1.0,0.0,0.0,0.0,4.0,0.0,0.050524066666666666,0.20741864,0.9626594933333333,-8.19742836,0.46956384000000073,-7.159830773333333,21.380807018734004,-19.946288181005478,17.875340761596217,17.749861111054884,25.45716600616344,-35.354453144898955,47.04319533898561,1.326916730643514,48.56710020885648,1.3029867596054943,0.6616339333333333,-1.30263364,-0.5471324933333334,2.5114000666666665,1.5601178888337053,1.2981807550013613,1.2757965658907453,1.205020641585624
LBP07_S01,LBP07,-1481,170,1,169,-1481,1716271377.76,2024-05-21 06:02:57.760000+00:00,2024-05-21 15:02:57.760000+09:00,2024,5,21,6,2,57,760,,,,,,,,,0.062744,0.526367,0.138184,146.240234,-111.26709,71.777344,,,,,,,,,,,0.0,1.0,1.0,1.0,0.0,0.0,0.0,4.0,0.0,0.05275713333333333,0.23562826666666667,0.9305175600000001,-5.990397120000001,-1.180826786666666,-7.3014323333333335,50.322485351881184,-21.79208550199355,18.874740980206525,19.76276052513013,24.5854825860837,-34.59946350569069,46.82024703529328,1.3441615540181173,48.49312283023632,1.3077130106280408,0.009986866666666663,0.29073873333333333,-0.7923335600000001,1.0930591600000001,0.8440504836017587,1.2374381327114237,1.253674999914717,1.2081374049559686
LBP07_S01,LBP07,-1480,171,1,170,-1480,1716271377.8,2024-05-21 06:02:57.800000+00:00,2024-05-21 15:02:57.800000+09:00,2024,5,21,6,2,57,800,,,,,,,,,0.29248,-0.073486,0.759766,0.915527,-6.591797,21.484375,,,,,,,,,,,0.0,1.0,1.0,1.0,0.0,0.0,0.0,4.0,0.0,0.06357418666666667,0.20623698666666668,0.94877928,-4.7680664,-4.360351533333333,-7.3836263466666665,72.91683898455881,-22.60523186517242,16.61613269189723,22.679434084512483,23.681273311476804,-33.9348181980148,47.188254070042966,1.2658623253376926,48.50100436551772,1.3097072510787737,0.22890581333333335,-0.2797229866666667,-0.18901327999999995,0.6976420799999999,0.40788336649570966,1.2396845862983223,1.2414456339652251,1.2037939913270972
LBP07_S01,LBP07,-1479,172,1,171,-1479,1716271377.84,2024-05-21 06:02:57.840000+00:00,2024-05-21 15:02:57.840000+09:00,2024,5,21,6,2,57,840,,,,,,,,,0.053223,-0.510498,1.362305,53.527832,-2.13623,30.944824,,,,,,,,,,,0.0,1.0,1.0,1.0,0.0,0.0,0.0,4.0,0.0,0.06437822666666666,0.22317383999999998,0.9593847466666667,1.927083333333333,-0.5900064799999997,-9.213867239999999,83.35709719209977,-22.692405726580812,11.90563448737014,26.013717972196474,22.77357708241357,-33.458592818519996,48.11264666655877,1.2834691836007124,48.50883562180029,1.3127234720137098,-0.011155226666666664,-0.73367184,0.40292025333333337,1.1477473200000001,0.8371042578061395,1.220218425712718,1.244705413668235,1.1969584043675956
LBP07_S01,LBP07,-1478,173,1,172,-1478,1716271377.88,2024-05-21 06:02:57.880000+00:00,2024-05-21 15:02:57.880000+09:00,2024,5,21,6,2,57,880,,,,,,,,,0.042236,0.386963,1.349609,371.948242,-54.199219,-54.199219,,,,,,,,,,,0.0,1.0,1.0,1.0,0.0,0.0,0.0,4.0,0.0,0.05331052,0.26572592,0.9508202933333333,-3.509928386666667,-0.03417965333333295,-7.319335986666666,77.9079735449375,-22.520620242197843,6.125887720941441,29.130036913993976,21.872752272725656,-33.213557309682336,49.29621417267486,1.365736790484429,48.42107395983372,1.3084446089964585,-0.011074519999999997,0.12123708,0.39878870666666677,0.5311003066666667,0.4169574404241152,1.1336775564274755,1.2447902448878252,1.1943778905596116
LBP07_S01,LBP07,-1477,174,1,173,-1477,1716271377.92,2024-05-21 06:02:57.920000+00:00,2024-05-21 15:02:57.920000+09:00,2024,5,21,6,2,57,920,,,,,,,,,0.252686,0.647217,0.844727,1.342773,-9.094238,-13.122559,,,,,,,,,,,0.0,1.0,1.0,1.0,0.0,0.0,0.0,4.0,0.0,0.050823546666666664,0.21877930666666667,0.9654849999999999,-13.365071626666667,0.6624349333333337,-5.264485733333334,55.88914518338777,-22.476305689356888,0.7922246844165628,31.365602721329488,20.97370004515138,-33.181868322305675,50.24672639103057,1.337270788456857,48.16149568548942,1.2989779555609338,0.20186245333333336,0.42843769333333337,-0.12075799999999992,0.7510581466666666,0.4887635437494695,1.1033868717868136,1.233948100112286,1.1991911161449602
LBP07_S01,LBP07,-1476,175,1,174,-1476,1716271377.96,2024-05-21 06:02:57.960000+00:00,2024-05-21 15:02:57.960000+09:00,2024,5,21,6,2,57,960,,,,,,,,,0.172607,-0.34668,1.367432,-152.954102,62.438965,-20.385742,,,,,,,,,,,0.0,1.0,1.0,1.0,0.0,0.0,0.0,4.0,0.0,0.06760089333333333,0.22200196,0.9653450266666668,-9.845377613333333,2.8271484800000004,-4.032389386666667,20.02995294758514,-22.627490614982833,-2.908465563372097,32.16680083923289,20.068600420552066,-33.29820694484056,50.46010686485002,1.2686486704066615,47.69368385349353,1.2919622951214254,0.10500610666666668,-0.5686819599999999,0.4020869733333332,1.07577504,0.7043432318061228,1.074100001470106,1.2159945226697617,1.192022694678211
LBP07_S01,LBP07,-1475,176,1,175,-1475,1716271378.0,2024-05-21 06:02:58+00:00,2024-05-21 15:02:58+09:00,2024,5,21,6,2,58,0,6.0,2.0,58.0,40.53632,141.543198,7.165,3.0,8.0,-0.307861,0.761719,0.007812,48.034668,33.447266,-28.625488,-233.0,9.0,399.0,1213.0,0.0,1020.200012,26.67,0.07135,-57.669693,3.986719,0.0,1.0,1.0,1.0,0.0,0.0,0.0,5.0,0.0,0.05728187999999999,0.21564780000000003,0.9365754933333333,-12.660319013333334,5.835774786666668,-3.8012695866666673,-23.896201779924137,-22.62067895289126,-4.423795513724011,31.210952768035927,19.163773262436415,-33.475158765389516,49.618142173107174,1.3051571769144708,47.01855154277207,1.286220220111239,-0.36514288,0.5460712,-0.9287634933333333,1.8399775733333332,1.1375960200496795,1.0614375461653187,1.2276119309114881,1.1938745558730266
LBP07_S01,LBP07,-1474,177,1,176,-1474,1716271378.04,2024-05-21 06:02:58.040000+00:00,2024-05-21 15:02:58.040000+09:00,2024,5,21,6,2,58,40,,,,,,,,,0.467773,0.54834,-0.252686,84.533691,-76.35498,-51.147461,,,,,,,,,,,0.0,1.0,1.0,1.0,0.0,0.0,0.0,5.0,0.0,0.07111325333333333,0.22859701333333335,0.93772132,-11.547851573333334,2.9321289466666673,-3.8663737466666666,-68.05466538419138,-21.80275534267207,-3.89060979055853,28.488766152668273,18.291663048729532,-33.630783157011855,47.72027147600511,1.2617474356068716,46.15289434304851,1.2891508586344276,0.39665974666666665,0.3197429866666667,-1.19040732,1.9068100533333334,1.2948529336020238,1.0870669234852421,1.220550903556344,1.1975087026557771
LBP07_S01,LBP07,-1473,178,1,177,-1473,1716271378.08,2024-05-21 06:02:58.080000+00:00,2024-05-21 15:02:58.080000+09:00,2024,5,21,6,2,58,80,,,,,,,,,0.386719,-0.289551,-0.101562,-243.164062,-89.294434,129.333496,,,,,,,,,,,0.0,1.0,1.0,1.0,0.0,0.0,0.0,5.0,0.0,0.0815462,0.23656901333333333,0.9610286133333333,-7.001953133333333,1.3590495200000006,-5.164388066666667,-103.95689979178204,-19.552398704824174,-1.9484799299223021,24.33049016099699,17.509567100536565,-33.708722354208746,45.10915266634584,1.2308089001400098,45.11235604660709,1.29010366707086,0.30517279999999997,-0.5261200133333334,-1.0625906133333334,1.8938834266666666,1.2243494263623504,1.0982950405028036,1.220949455935154,1.1964471306434792
LBP07_S01,LBP07,-1472,179,1,178,-1472,1716271378.12,2024-05-21 06:02:58.120000+00:00,2024-05-21 15:02:58.120000+09:00,2024,5,21,6,2,58,120,,,,,,,,,0.146484,-0.422119,0.520996,-49.133301,-38.696289,-8.117676,,,,,,,,,,,0.0,1.0,1.0,1.0,0.0,0.0,0.0,5.0,0.0,0.07748370666666667,0.24514649333333333,0.9807323866666665,-4.967447933333334,2.9248047200000014,-6.565755253333333,-124.0993688439121,-15.672727383578456,0.5802693245890804,19.366515407240506,16.882658005193427,-33.685511581225185,42.36507701902667,1.2567601262484303,43.92211073871451,1.2787768827033001,0.06900029333333334,-0.6672654933333333,-0.4597363866666665,1.196002173333333,0.8132415534752176,1.0807916432814983,1.2022616630031862,1.1862288979987272
LBP07_S01,LBP07,-1471,180,1,179,-1471,1716271378.16,2024-05-21 06:02:58.160000+00:00,2024-05-21 15:02:58.160000+09:00,2024,5,21,6,2,58,160,,,,,,,,,0.406006,0.76001,0.791016,-62.62207,-52.246094,11.169434,,,,,,,,,,,0.0,1.0,1.0,1.0,0.0,0.0,0.0,5.0,0.0,0.06819334666666667,0.23972006666666668,0.9933170266666668,-4.265950533333335,3.397623733333334,-6.455891973333333,-123.61349475961815,-10.62896543857849,2.9879228625591385,14.421975616855779,16.457499387650287,-33.56599466672282,40.068923928078696,1.286740803916254,42.64780355508775,1.2717230626465876,0.3378126533333333,0.5202899333333333,-0.20230102666666672,1.0604036133333334,0.6524911561626706,1.0614560064823566,1.192892259713333,1.177865340556039
LBP07_S01,LBP07,-1470,181,1,180,-1470,1716271378.2,2024-05-21 06:02:58.200000+00:00,2024-05-21 15:02:58.200000+09:00,2024,5,21,6,2,58,200,,,,,,,,,0.521973,1.456055,0.984131,-172.607422,-30.944824,-17.089844,,,,,,,,,,,0.0,1.0,1.0,1.0,0.0,0.0,0.0,5.0,0.0,0.06583658666666667,0.2387109466666667,1.0079817333333334,-8.665364600000002,4.230143266666667,-5.51595056,-101.62230437045669,-5.474041301848652,4.834564255053156,10.35708344203751,16.23853773557634,-33.3726120965207,38.53168207280736,1.2951687105695788,41.412102181625905,1.2649086222814547,0.4561364133333333,1.2173440533333335,-0.02385073333333343,1.6973312000000003,1.300213762900226,1.0763565695676072,1.2093770260597005,1.1866069916911188
LBP07_S01,LBP07,-1469,182,1,181,-1469,1716271378.24,2024-05-21 06:02:58.240000+00:00,2024-05-21 15:02:58.240000+09:00,2024,5,21,6,2,58,240,,,,,,,,,0.024658,-1.002686,2.203613,-486.938477,80.078125,-2.13623,,,,,,,,,,,0.0,1.0,1.0,1.0,0.0,0.0,0.0,5.0,0.0,0.062291666666666655,0.22338868,0.9996874666666665,-8.361816413333335,7.947591186666668,-3.9070638400000006,-61.91837625506266,-1.4608478533719194,5.935073648113035,7.880348391835003,16.180103821441463,-33.135209150596175,37.70726370214463,1.292997267965037,40.37029234473063,1.256596292161531,-0.037633666666666656,-1.22607468,1.2039255333333334,2.46763388,1.718753066503688,1.0943235023769626,1.2212473974717093,1.196693923590979
LBP07_S01,LBP07,-1468,183,1,182,-1468,1716271378.28,2024-05-21 06:02:58.280000+00:00,2024-05-21 15:02:58.280000+09:00,2024,5,21,6,2,58,280,,,,,,,,,-0.091797,0.239258,1.445557,-5.371094,78.857422,-27.038574,,,,,,,,,,,0.0,1.0,1.0,1.0,0.0,0.0,0.0,5.0,0.0,0.06110350666666667,0.18839193333333334,0.9901562133333333,-3.6083984400000007,9.274088573333335,-1.75292972,-12.574641298014892,0.49344328629969975,6.251505038637654,7.377362739914408,16.199841552893453,-32.88514894905067,37.393761093749035,1.2524689468088308,39.65352712105465,1.2530350962985912,-0.15290050666666666,0.050866066666666654,0.4554007866666667,0.6591673600000001,0.4830691442989089,1.0687640547514832,1.2030892311405692,1.1897414280278413
LBP07_S01,LBP07,-1467,184,1,183,-1467,1716271378.32,2024-05-21 06:02:58.320000+00:00,2024-05-21 15:02:58.320000+09:00,2024,5,21,6,2,58,320,,,,,,,,,0.035889,0.071533,0.697754,67.810059,52.062988,-5.187988,,,,,,,,,,,0.0,1.0,1.0,1.0,0.0,0.0,0.0,5.0,0.0,0.05671547999999999,0.18357097333333336,0.9810969733333333,8.649902346666664,6.120605506666668,-1.6943359733333336,35.7129796054334,0.23118069885577508,5.793165654464463,8.805881924131743,16.209088780847683,-32.65342232287209,37.503654554762974,1.2667325878897335,39.3159677112524,1.2494397656371148,-0.020826479999999994,-0.11203797333333336,-0.28334297333333336,0.4162074266666667,0.30540054072513556,1.0415849990296842,1.1943257753125385,1.1783102437283355
LBP07_S01,LBP07,-1466,185,1,184,-1466,1716271378.36,2024-05-21 06:02:58.360000+00:00,2024-05-21 15:02:58.360000+09:00,2024,5,21,6,2,58,360,,,,,,,,,-0.082275,-0.465576,-0.040771,344.238281,1.037598,16.723633,,,,,,,,,,,0.0,1.0,1.0,1.0,0.0,0.0,0.0,5.0,0.0,0.07057616000000001,0.18462890666666668,0.9614648133333332,11.737467453333332,2.705891960000001,-0.9106445600000003,72.30852669521404,-1.5595585587007084,4.593158927047945,11.698222991940305,16.146706438499656,-32.46969596579017,38.103093130231535,1.2005042667553305,39.316972197481505,1.2443617364219335,-0.15285116,-0.6502049066666666,-1.0022358133333333,1.80529188,1.204411276638791,1.063652504024168,1.1786754045316317,1.182858320844438
