file_name,test_id,_program_index,program_index,session_id,index,_index,unixtime,datetime_utc,datetime_jst,rtc_year,rtc_month,rtc_day,rtc_hour,rtc_min,rtc_sec,rtc_msec,gps_hour,gps_min,gps_sec,latitude,longitude,altitude,fix_type,SIV,acc_x,acc_y,acc_z,gyro_x,gyro_y,gyro_z,mag_x,mag_y,mag_z,illuminance,atmopress,water_pressure,water_temp,depth,alt_wps,battery_level,behavior_class,camera_command,camera_recording,camera_count,play_audio,speaker_on,audio_file,prev_sd_write_time_ms,delay_occurred_counter,acc_x_ma,acc_y_ma,acc_z_ma,gyro_x_ma,gyro_y_ma,gyro_z_ma,gyro_x_lowpass,gyro_y_lowpass,gyro_z_lowpass,angle_x,angle_y,angle_z,combined_angle_change,gravity_adjusted_angle,smoothed_angle_change,smoothed_gravity_angle,acc_x_dy,acc_y_dy,acc_z_dy,ODBA,VeDBA,smoothed_VeDBA_1s,smoothed_VeDBA_2s,smoothed_VeDBA_3s
LBP07_S06,LBP07,-1650,1,6,0,-1650,1716329607.0,2024-05-21 22:13:27+00:00,2024-05-22 07:13:27+09:00,2024,5,21,22,13,27,0,22.0,13.0,26.0,40.553299,141.584274,7.678,3.0,6.0,0.184082,0.231445,1.450195,1.77002,47.058105,-37.17041,-262.0,0.0,405.0,1054.0,0.0,1022.299988,18.16,0.092161,-75.032249,3.76875,0.0,1.0,1.0,6.0,0.0,0.0,0.0,6.0,0.0,,,,,,,2.1163491110864343,46.37753985783175,-37.097523402910745,0.08465396444345738,1.85510159431327,-1.48390093611643,2.377084392091885,,4.939857246483157,,,,,,,,,
LBP07_S06,LBP07,-1649,2,6,1,-1649,1716329607.04,2024-05-21 22:13:27.040000+00:00,2024-05-22 07:13:27.040000+09:00,2024,5,21,22,13,27,40,,,,,,,,,-0.579102,-0.076416,-0.014404,-42.480469,70.373535,21.789551,,,,,,,,,,,0.0,1.0,1.0,6.0,0.0,0.0,0.0,6.0,0.0,,,,,,,0.11962445917498864,35.65547222326914,-26.21399306783231,0.08943894281045693,3.281320483244036,-2.5324606588297223,4.145891994103102,,5.269823380761967,,,,,,,,,
LBP07_S06,LBP07,-1648,3,6,2,-1648,1716329607.08,2024-05-21 22:13:27.080000+00:00,2024-05-22 07:13:27.080000+09:00,2024,5,21,22,13,27,80,,,,,,,,,-0.028076,0.388672,0.164062,-64.208984,-28.503418,23.986816,,,,,,,,,,,0.0,1.0,1.0,6.0,0.0,0.0,0.0,6.0,0.0,,,,,,,-1.6130541409885528,25.907758887358245,-16.608077997489723,0.02491677717091481,4.317630838738365,-3.196783778729311,5.372335007550813,,5.530873445063274,,,,,,,,,
LBP07_S06,LBP07,-1647,4,6,3,-1647,1716329607.12,2024-05-21 22:13:27.120000+00:00,2024-05-22 07:13:27.120000+09:00,2024,5,21,22,13,27,120,,,,,,,,,0.527588,-0.335693,0.859863,-102.478027,-66.589355,70.983887,,,,,,,,,,,0.0,1.0,1.0,6.0,0.0,0.0,0.0,6.0,0.0,,,,,,,-3.180914456263887,17.840345695268663,-9.040001384432196,-0.10231980107964067,5.031244666549112,-3.558383834106599,6.16327735439539,,5.745788586331453,,,,,,,,,
LBP07_S06,LBP07,-1646,5,6,4,-1646,1716329607.16,2024-05-21 22:13:27.160000+00:00,2024-05-22 07:13:27.160000+09:00,2024,5,21,22,13,27,160,,,,,,,,,0.351562,0.262451,1.358887,124.694824,79.956055,-50.65918,,,,,,,,,,,0.0,1.0,1.0,6.0,0.0,0.0,0.0,6.0,0.0,,,,,,,-4.866823356038661,11.773976243978645,-3.697070991459789,-0.2969927353211871,5.502203716308258,-3.7062666737649907,6.640697484274598,,5.933475150367011,,,,,,,,,
LBP07_S06,LBP07,-1645,6,6,5,-1645,1716329607.2,2024-05-21 22:13:27.200000+00:00,2024-05-22 07:13:27.200000+09:00,2024,5,21,22,13,27,200,,,,,,,,,-0.119385,0.331787,1.547607,39.18457,58.59375,-54.382324,,,,,,,,,,,0.0,1.0,1.0,6.0,0.0,0.0,0.0,6.0,0.0,,,,,,,-6.934390766981015,7.645601845168268,-0.27652949506433666,-0.5743683660004277,5.808027790114989,-3.7173278535675642,6.91965405215602,,6.10852343313568,,,,,,,,,
LBP07_S06,LBP07,-1644,7,6,6,-1644,1716329607.24,2024-05-21 22:13:27.240000+00:00,2024-05-22 07:13:27.240000+09:00,2024,5,21,22,13,27,240,,,,,,,,,-0.187012,0.279053,1.851807,25.024414,-63.903809,-20.629883,,,,,,,,,,,0.0,1.0,1.0,6.0,0.0,0.0,0.0,6.0,0.0,,,,,,,-9.38221183628524,5.143748581327721,1.7516958630434667,-0.9496568394518373,6.013777733368097,-3.6472600190458255,7.097173830871112,,6.671304540364668,,,,,,,,,
LBP07_S06,LBP07,-1643,8,6,7,-1643,1716329607.28,2024-05-21 22:13:27.280000+00:00,2024-05-22 07:13:27.280000+09:00,2024,5,21,22,13,27,280,,,,,,,,,0.186523,0.136719,1.520264,-8.361816,27.160645,-22.583008,,,,,,,,,,,0.0,1.0,1.0,6.0,0.0,0.0,0.0,6.0,0.0,,,,,,,-11.840415958184018,3.890286857311709,2.870081373640329,-1.423273477779198,6.169389207660565,-3.5324567641002123,7.250194575208702,,7.09547674219459,,,,,,,,,
LBP07_S06,LBP07,-1642,9,6,8,-1642,1716329607.32,2024-05-21 22:13:27.320000+00:00,2024-05-22 07:13:27.320000+09:00,2024,5,21,22,13,27,320,,,,,,,,,-0.568604,-0.046143,0.036865,-67.687988,88.317871,5.737305,,,,,,,,,,,0.0,1.0,1.0,6.0,0.0,0.0,0.0,6.0,0.0,,,,,,,-13.701487567327609,3.5808648674087857,3.3725765645790644,-1.9713329804723023,6.312623802356916,-3.3975537015170496,7.434967662651473,,7.439793316831759,,,,,,,,,
LBP07_S06,LBP07,-1641,10,6,9,-1641,1716329607.36,2024-05-21 22:13:27.360000+00:00,2024-05-22 07:13:27.360000+09:00,2024,5,21,22,13,27,360,,,,,,,,,-0.031006,0.164551,0.162354,-71.533203,-37.29248,53.649902,,,,,,,,,,,0.0,1.0,1.0,6.0,0.0,0.0,0.0,6.0,0.0,,,,,,,-14.41309383188613,4.0348246584651,3.3961279166922145,-2.5478567337477473,6.47401678869552,-3.261708584849361,7.683957978053708,,7.750782376694973,,,,,,,,,
LBP07_S06,LBP07,-1640,11,6,10,-1640,1716329607.4,2024-05-21 22:13:27.400000+00:00,2024-05-22 07:13:27.400000+09:00,2024,5,21,22,13,27,400,,,,,,,,,0.430176,-0.213623,0.687256,-94.726562,-88.439941,83.92334,,,,,,,,,,,0.0,1.0,1.0,6.0,0.0,0.0,0.0,6.0,0.0,,,,,,,-13.749084878450608,5.151704342230255,3.047783494794097,-3.097820128885772,6.68008496238473,-3.139797245057597,8.004895464381764,,8.061434657726306,,,,,,,,,
LBP07_S06,LBP07,-1639,12,6,11,-1639,1716329607.44,2024-05-21 22:13:27.440000+00:00,2024-05-22 07:13:27.440000+09:00,2024,5,21,22,13,27,440,,,,,,,,,0.595947,0.19165,1.337891,69.641113,63.110352,-35.15625,,,,,,,,,,,0.0,1.0,1.0,6.0,0.0,0.0,0.0,6.0,0.0,,,,,,,-11.889754954715798,6.819507656583542,2.4995693788589946,-3.573410327074404,6.952865268648072,-3.0398144699032374,8.387614012402318,,8.391875121881373,,,,,,,,,
LBP07_S06,LBP07,-1638,13,6,12,-1638,1716329607.48,2024-05-21 22:13:27.480000+00:00,2024-05-22 07:13:27.480000+09:00,2024,5,21,22,13,27,480,,,,,,,,,-0.269043,0.144775,1.655029,43.273926,43.579102,-54.56543,,,,,,,,,,,0.0,1.0,1.0,6.0,0.0,0.0,0.0,6.0,0.0,,,,,,,-9.272466567686424,8.84499177943636,1.9678010325894566,-3.944308989781861,7.306664939825526,-2.961102428599659,8.81550075392251,,8.751087595495722,,,,,,,,,
LBP07_S06,LBP07,-1637,14,6,13,-1637,1716329607.52,2024-05-21 22:13:27.520000+00:00,2024-05-22 07:13:27.520000+09:00,2024,5,21,22,13,27,520,,,,,,,,,-0.083496,0.334229,1.893311,60.791016,-60.241699,-21.362305,,,,,,,,,,,0.0,1.0,1.0,6.0,0.0,0.0,0.0,6.0,0.0,,,,,,,-6.33177450323371,10.948728041895858,1.6012217575190262,-4.197579969911209,7.744614061501361,-2.8970535582988983,9.273167953027526,,9.138988265927377,,,,,,,,,
LBP07_S06,LBP07,-1636,15,6,14,-1636,1716329607.56,2024-05-21 22:13:27.560000+00:00,2024-05-22 07:13:27.560000+09:00,2024,5,21,22,13,27,560,,,,,,,,,0.178955,0.342773,1.271729,-5.065918,50.842285,-22.705078,,,,,,,,,,,0.0,1.0,1.0,6.0,0.0,0.0,0.0,6.0,0.0,,,,,,,-3.31890581247243,12.815133528493241,1.385771401099285,-4.330336202410106,8.257219402641091,-2.8416227022549267,9.747220294587922,,9.548648899904837,,,,,,,,,
LBP07_S06,LBP07,-1635,16,6,15,-1635,1716329607.6,2024-05-21 22:13:27.600000+00:00,2024-05-22 07:13:27.600000+09:00,2024,5,21,22,13,27,600,,,,,,,,,-0.522461,-0.029785,-0.015625,-73.486328,67.016602,34.301758,,,,,,,,,,,0.0,1.0,1.0,6.0,0.0,0.0,0.0,6.0,0.0,,,,,,,-0.3171779141711097,14.160324275311764,1.1610446356942004,-4.343023318976951,8.823632373653561,-2.795180916827159,10.224058693706697,,9.968746431196902,,,,,,,,,
LBP07_S06,LBP07,-1634,17,6,16,-1634,1716329607.64,2024-05-21 22:13:27.640000+00:00,2024-05-22 07:13:27.640000+09:00,2024,5,21,22,13,27,640,,,,,,,,,0.0625,-0.006104,0.259277,-78.674316,-25.634766,58.898926,,,,,,,,,,,0.0,1.0,1.0,6.0,0.0,0.0,0.0,6.0,0.0,,,,,,,2.5907750206588354,14.783998092707893,0.7484125749993421,-4.239392318150598,9.414992297361877,-2.765244413827185,10.689298567014594,,10.386030332251838,,,,,,,,,
LBP07_S06,LBP07,-1633,18,6,17,-1633,1716329607.68,2024-05-21 22:13:27.680000+00:00,2024-05-22 07:13:27.680000+09:00,2024,5,21,22,13,27,680,,,,,,,,,0.560547,0.037109,0.794434,-14.526367,-61.828613,46.325684,,,,,,,,,,,0.0,1.0,1.0,6.0,0.0,0.0,0.0,6.0,0.0,,,,,,,5.169027515312225,14.589641346312328,0.09558716642327779,-4.032631217538109,9.99857795121437,-2.7614209271702537,11.129201279525269,,10.787217949100688,,,,,,,,,
LBP07_S06,LBP07,-1632,19,6,18,-1632,1716329607.72,2024-05-21 22:13:27.720000+00:00,2024-05-22 07:13:27.720000+09:00,2024,5,21,22,13,27,720,,,,,,,,,0.286133,0.003662,1.460693,78.00293,103.149414,-46.936035,,,,,,,,,,,0.0,1.0,1.0,6.0,0.0,0.0,0.0,6.0,0.0,,,,,,,7.037961683080318,13.582114784038138,-0.6758740329249968,-3.751112750214896,10.541862542575895,-2.7884558884872535,11.531574002426066,,11.159914706917998,,,,,,,,,
LBP07_S06,LBP07,-1631,20,6,19,-1631,1716329607.76,2024-05-21 22:13:27.760000+00:00,2024-05-22 07:13:27.760000+09:00,2024,5,21,22,13,27,760,,,,,,,,,-0.407715,0.331055,1.668457,81.054688,30.090332,-58.59375,,,,,,,,,,,0.0,1.0,1.0,6.0,0.0,0.0,0.0,6.0,0.0,,,,,,,7.859888973093898,11.861152978511708,-1.3588046474372388,-3.43671719129114,11.016308661716364,-2.842808074384743,11.88493329097434,,11.49270295102598,,,,,,,,,
LBP07_S06,LBP07,-1630,21,6,20,-1630,1716329607.8,2024-05-21 22:13:27.800000+00:00,2024-05-22 07:13:27.800000+09:00,2024,5,21,22,13,27,800,,,,,,,,,0.090576,0.360352,1.903809,12.145996,-73.120117,-22.644043,,,,,,,,,,,0.0,1.0,1.0,6.0,0.0,0.0,0.0,6.0,0.0,,,,,,,7.566367220985263,9.609521376668146,-1.8130425906852232,-3.1340625024517297,11.400689516783089,-2.915329778012152,12.177734474931132,,11.7748279967061,,,,,,,,,
LBP07_S06,LBP07,-1629,22,6,21,-1629,1716329607.84,2024-05-21 22:13:27.840000+00:00,2024-05-22 07:13:27.840000+09:00,2024,5,21,22,13,27,840,,,,,,,,,0.086914,0.287842,0.997314,-15.197754,94.665527,-18.920898,,,,,,,,,,,0.0,1.0,1.0,6.0,0.0,0.0,0.0,6.0,0.0,,,,,,,6.457251984499243,7.056674167864102,-2.0576385901301997,-2.87577242307176,11.682956483497653,-2.9976353216173597,12.39949018089082,,11.995887467379323,,,,,,,,,
LBP07_S06,LBP07,-1628,23,6,22,-1628,1716329607.88,2024-05-21 22:13:27.880000+00:00,2024-05-22 07:13:27.880000+09:00,2024,5,21,22,13,27,880,,,,,,,,,-0.258789,0.11377,-0.05835,-0.12207,-6.347656,55.175781,,,,,,,,,,,0.0,1.0,1.0,6.0,0.0,0.0,0.0,6.0,0.0,,,,,,,5.096916363622441,4.412240872446394,-2.227855078636261,-2.6718957685268623,11.859446118395509,-3.0867495247628103,12.54246833209562,,12.145926730537129,,,,,,,,,
LBP07_S06,LBP07,-1627,24,6,23,-1627,1716329607.92,2024-05-21 22:13:27.920000+00:00,2024-05-22 07:13:27.920000+09:00,2024,5,21,22,13,27,920,,,,,,,,,0.092529,0.016846,0.312988,-64.880371,-59.875488,51.452637,,,,,,,,,,,0.0,1.0,1.0,6.0,0.0,0.0,0.0,6.0,0.0,,,,,,,4.072127938629087,1.7930212873844598,-2.4341486245870474,-2.5090106509816987,11.931166969890887,-3.1841154697462923,12.601050394107332,,12.216412100170647,,,,,,,,,
LBP07_S06,LBP07,-1626,25,6,24,-1626,1716329607.96,2024-05-21 22:13:27.960000+00:00,2024-05-22 07:13:27.960000+09:00,2024,5,21,22,13,27,960,,,,,,,,,0.644287,-0.047119,0.763916,-34.667969,-55.725098,30.212402,,,,,,,,,,,0.0,1.0,1.0,6.0,0.0,0.0,0.0,6.0,0.0,,,,,,,3.755753504527587,-0.8112540592196552,-2.643503240882005,-2.358780510800595,11.898716807522101,-3.2898555993815726,12.568470751389127,,12.2023868990816,,,,,,,,,
LBP07_S06,LBP07,-1625,26,6,25,-1625,1716329608.0,2024-05-21 22:13:28+00:00,2024-05-22 07:13:28+09:00,2024,5,21,22,13,28,0,22.0,13.0,27.0,40.553238,141.584183,7.991,3.0,7.0,0.059082,0.175781,1.369873,85.876465,81.420898,-61.645508,-261.0,11.0,404.0,1120.0,0.0,1022.0,18.16,0.089188,-72.553726,3.76875,0.0,1.0,1.0,6.0,0.0,0.0,0.0,5.0,0.0,,,,,,,4.199486838307111,-3.4887711839787987,-2.6911308966087124,-2.1908010372683107,11.75916596016295,-3.3975008352459213,12.434653400438938,,12.10543976494705,,,,,,,,,
LBP07_S06,LBP07,-1624,27,6,26,-1624,1716329608.04,2024-05-21 22:13:28.040000+00:00,2024-05-22 07:13:28.040000+09:00,2024,5,21,22,13,28,40,,,,,,,,,-0.458008,0.322998,1.725342,22.644043,0.183105,-52.062988,,,,,,,,,,,0.0,1.0,1.0,6.0,0.0,0.0,0.0,5.0,0.0,,,,,,,5.1832328978375415,-6.270644133661828,-2.42851016068497,-1.983471721354809,11.508340194816476,-3.49464124167332,12.189691198592636,,11.93619962364134,,,,,,,,,
LBP07_S06,LBP07,-1623,28,6,27,-1623,1716329608.08,2024-05-21 22:13:28.080000+00:00,2024-05-22 07:13:28.080000+09:00,2024,5,21,22,13,28,80,,,,,,,,,0.046631,0.29541,1.827148,27.587891,-31.25,-37.17041,,,,,,,,,,,0.0,1.0,1.0,6.0,0.0,0.0,0.0,5.0,0.0,,,,,,,6.348314803428085,-8.979008171898599,-1.8995132785490851,-1.7295391292176856,11.149179867940532,-3.5706217728152834,11.834054975860475,,11.714772854754974,,,,,,,,,
LBP07_S06,LBP07,-1622,29,6,28,-1622,1716329608.12,2024-05-21 22:13:28.120000+00:00,2024-05-22 07:13:28.120000+09:00,2024,5,21,22,13,28,120,,,,,,,,,-0.202881,0.07959,0.691406,-25.085449,116.638184,-1.831055,,,,,,,,,,,0.0,1.0,1.0,6.0,0.0,0.0,0.0,5.0,0.0,,,,,,,7.310213959348502,-11.16668591031149,-1.4024630270808223,-1.4371305708437454,10.702512431528072,-3.6267202938985164,11.391321991535571,,11.468486453121418,,,,,,,,,
LBP07_S06,LBP07,-1621,30,6,29,-1621,1716329608.16,2024-05-21 22:13:28.160000+00:00,2024-05-22 07:13:28.160000+09:00,2024,5,21,22,13,28,160,,,,,,,,,-0.00415,0.300781,-0.065186,11.413574,-76.23291,52.368164,,,,,,,,,,,0.0,1.0,1.0,6.0,0.0,0.0,0.0,5.0,0.0,,,,,,,7.701112330483545,-12.222173256787643,-1.3725011365449258,-1.1290860776244036,10.213625501256567,-3.6816203393603133,10.91546194962885,,11.227947320378835,,,,,,,,,
LBP07_S06,LBP07,-1620,31,6,30,-1620,1716329608.2,2024-05-21 22:13:28.200000+00:00,2024-05-22 07:13:28.200000+09:00,2024,5,21,22,13,28,200,,,,,,,,,0.106934,-0.148438,0.433594,-79.772949,-94.787598,66.223145,,,,,,,,,,,0.0,1.0,1.0,6.0,0.0,0.0,0.0,5.0,0.0,,,,,,,7.175393775855806,-11.621123232108882,-2.1481464294232917,-0.8420703265901713,9.748780571972212,-3.767546196537245,10.485333061874037,,11.023240370471504,,,,,,,,,
LBP07_S06,LBP07,-1619,32,6,31,-1619,1716329608.24,2024-05-21 22:13:28.240000+00:00,2024-05-22 07:13:28.240000+09:00,2024,5,21,22,13,28,240,,,,,,,,,0.701172,-0.183105,0.871826,41.564941,-70.556641,0.915527,,,,,,,,,,,0.0,1.0,1.0,6.0,0.0,0.0,0.0,5.0,0.0,,,,,,,5.449139986720775,-9.205081585092016,-3.771859643614886,-0.6241047271213404,9.380577308568531,-3.9184205822818403,10.185222492027162,,10.881245383510134,,,,,,,,,
LBP07_S06,LBP07,-1618,33,6,32,-1618,1716329608.28,2024-05-21 22:13:28.280000+00:00,2024-05-22 07:13:28.280000+09:00,2024,5,21,22,13,28,280,,,,,,,,,0.161377,0.415283,1.234375,62.072754,68.359375,-34.729004,,,,,,,,,,,0.0,1.0,1.0,6.0,0.0,0.0,0.0,5.0,0.0,,,,,,,2.4096687832490877,-5.32717008522389,-5.953677021042979,-0.5277179757913768,9.167490505159575,-4.1565676631235595,10.079604315760056,,10.823619553176881,,,,,,,,,
LBP07_S06,LBP07,-1617,34,6,33,-1617,1716329608.32,2024-05-21 22:13:28.320000+00:00,2024-05-22 07:13:28.320000+09:00,2024,5,21,22,13,28,320,,,,,,,,,-0.384277,0.340088,1.569092,-12.023926,31.433105,-70.068359,,,,,,,,,,,0.0,1.0,1.0,6.0,0.0,0.0,0.0,5.0,0.0,,,,,,,-1.7468240552892307,-0.7717313813982571,-8.214364693915929,-0.597590938002946,9.136621249903644,-4.485142250880196,10.195659066681504,,10.864514401112976,1.217173331657169,,,,,,,,
LBP07_S06,LBP07,-1616,35,6,34,-1616,1716329608.36,2024-05-21 22:13:28.360000+00:00,2024-05-22 07:13:28.360000+09:00,2024,5,21,22,13,28,360,,,,,,,,,-0.006592,0.299805,1.750244,39.306641,-52.124023,-31.433105,,,,,,,,,,,0.0,1.0,1.0,6.0,0.0,0.0,0.0,5.0,0.0,,,,,,,-6.447017093826807,3.5096308558616833,-10.103812880621476,-0.8554716217560183,9.277006484138111,-4.889294766105055,10.521401252315812,,11.007780196126694,1.2336816869965688,,,,,,,,
LBP07_S06,LBP07,-1615,36,6,35,-1615,1716329608.4,2024-05-21 22:13:28.400000+00:00,2024-05-22 07:13:28.400000+09:00,2024,5,21,22,13,28,400,,,,,,,,,0.130859,0.086426,1.224854,-38.146973,97.290039,-13.427734,,,,,,,,,,,0.0,1.0,1.0,6.0,0.0,0.0,0.0,5.0,0.0,,,,,,,-10.821785808806036,6.707417251992107,-11.35059514103961,-1.2883430541082599,9.545303174217795,-5.343318571746639,11.014703530825232,,11.244457825740236,1.222980277957382,,,,,,,,
LBP07_S06,LBP07,-1614,37,6,36,-1614,1716329608.44,2024-05-21 22:13:28.440000+00:00,2024-05-22 07:13:28.440000+09:00,2024,5,21,22,13,28,440,,,,,,,,,-0.460449,-0.093262,-0.039307,-23.071289,34.301758,27.893066,,,,,,,,,,,0.0,1.0,1.0,6.0,0.0,0.0,0.0,5.0,0.0,,,,,,,-13.937198869909109,8.370912829476271,-11.863699592107427,-1.8458310089046241,9.880139687396845,-5.817866555430936,11.613432895260123,,11.552015830247734,1.224681272325836,,,,,,,,
LBP07_S06,LBP07,-1613,38,6,37,-1613,1716329608.48,2024-05-21 22:13:28.480000+00:00,2024-05-22 07:13:28.480000+09:00,2024,5,21,22,13,28,480,,,,,,,,,0.090332,0.088379,0.275879,-72.387695,-60.302734,40.344238,,,,,,,,,,,0.0,1.0,1.0,6.0,0.0,0.0,0.0,5.0,0.0,0.05232418666666667,0.14306968,0.9707910266666666,-1.0514322266666662,2.51220704,-1.6682942533333334,-15.08826213421451,8.460066634084175,-11.622496955440688,-2.4493614942732047,10.218542352760212,-6.282766433648564,12.243003455221416,1.217173331657169,11.896615534448344,1.2355713269790258,0.03800781333333333,-0.054690680000000005,-0.6949120266666666,0.78761052,0.6980962606684109,0.6980962606684109,0.6980962606684109,0.6980962606684109
LBP07_S06,LBP07,-1612,39,6,38,-1612,1716329608.52,2024-05-21 22:13:28.520000+00:00,2024-05-22 07:13:28.520000+09:00,2024,5,21,22,13,28,520,,,,,,,,,0.665527,-0.178467,0.888184,-54.443359,-61.462402,22.888184,,,,,,,,,,,0.0,1.0,1.0,6.0,0.0,0.0,0.0,5.0,0.0,0.047161426666666666,0.14338543999999998,0.9751106933333333,-0.6103515066666664,1.0188802266666666,-1.5014648266666666,-14.026648893509048,7.246926146582955,-10.570538095341606,-3.010427450013567,10.50841939862353,-6.705587957462228,12.823979941672746,1.2501900423359684,12.23853577213539,1.2390154794551274,0.6183655733333333,-0.32185243999999996,-0.08692669333333336,1.0271447066666668,0.702510658589379,0.700303459628895,0.700303459628895,0.700303459628895
LBP07_S06,LBP07,-1611,40,6,39,-1611,1716329608.56,2024-05-21 22:13:28.560000+00:00,2024-05-22 07:13:28.560000+09:00,2024,5,21,22,13,28,560,,,,,,,,,0.150146,0.157959,1.358887,62.683105,93.505859,-60.302734,,,,,,,,,,,0.0,1.0,1.0,6.0,0.0,0.0,0.0,5.0,0.0,0.05732745333333333,0.14956382666666665,0.9946061333333334,0.08870448000000022,0.3238932533333334,-2.0646158666666667,-11.02180488547382,5.151254251079764,-8.617438218219014,-3.4512996454325195,10.714469568666722,-7.0502854861909885,13.282238245764272,1.2015774598790085,12.539245153594532,1.232793755767737,0.09281854666666667,0.008395173333333339,0.3642808666666666,0.4654945866666666,0.37601371166491604,0.5922068769742354,0.5922068769742354,0.5922068769742354
LBP07_S06,LBP07,-1610,41,6,40,-1610,1716329608.6,2024-05-21 22:13:28.600000+00:00,2024-05-22 07:13:28.600000+09:00,2024,5,21,22,13,28,600,,,,,,,,,-0.401611,0.357422,1.680176,22.949219,-20.751953,-52.124023,,,,,,,,,,,0.0,1.0,1.0,6.0,0.0,0.0,0.0,5.0,0.0,0.05087888,0.14469729333333334,0.9922103066666667,0.5598958800000002,1.8912760666666668,-2.0760090933333335,-6.7423054118635815,2.6057273877457083,-5.75993462625983,-3.7209918619070628,10.81869866417655,-7.280682871241382,13.56091310694902,1.2297842554311984,12.76769921797685,1.2280100206877167,-0.45248988,0.21272470666666668,0.6879656933333332,1.35318028,0.8504679226945879,0.6567721384043235,0.6567721384043235,0.6567721384043235
LBP07_S06,LBP07,-1609,42,6,41,-1609,1716329608.64,2024-05-21 22:13:28.640000+00:00,2024-05-22 07:13:28.640000+09:00,2024,5,21,22,13,28,640,,,,,,,,,0.0979,0.34375,1.855713,-23.010254,-48.278809,-33.325195,,,,,,,,,,,0.0,1.0,1.0,6.0,0.0,0.0,0.0,5.0,0.0,0.044765599999999996,0.15069013333333334,0.9834603066666667,0.788574266666667,2.13134768,-2.3535156133333333,-2.0371703312003535,-0.007653799334390515,-2.2274759027215856,-3.802478675155077,10.818392512203173,-7.369781907350245,13.631219534033255,1.2791315455917849,12.904130207058168,1.2273844707766473,0.053134400000000005,0.19305986666666666,0.8722526933333332,1.11844696,0.8949414157406981,0.7044059938715984,0.7044059938715984,0.7044059938715984
LBP07_S06,LBP07,-1608,43,6,42,-1608,1716329608.68,2024-05-21 22:13:28.680000+00:00,2024-05-22 07:13:28.680000+09:00,2024,5,21,22,13,28,680,,,,,,,,,0.016357,0.275635,0.649414,7.324219,102.905273,-18.188477,,,,,,,,,,,0.0,1.0,1.0,6.0,0.0,0.0,0.0,5.0,0.0,0.046520160000000005,0.14437502666666668,0.9746744933333334,-1.4811197466666661,-0.21565753333333362,-1.0302734266666669,2.271607318585629,-2.369737718076124,1.4775521931971478,-3.7116143824116516,10.723603003480129,-7.31067981962236,13.498806692630527,1.2562362418356345,12.94117427561564,1.222499099695266,-0.030163160000000005,0.13125997333333334,-0.3252604933333334,0.48668362666666676,0.3520417380710651,0.6456786179048428,0.6456786179048428,0.6456786179048428
LBP07_S06,LBP07,-1607,44,6,43,-1607,1716329608.72,2024-05-21 22:13:28.720000+00:00,2024-05-22 07:13:28.720000+09:00,2024,5,21,22,13,28,720,,,,,,,,,-0.068604,0.309814,-0.055908,40.588379,-38.574219,71.289062,,,,,,,,,,,0.0,1.0,1.0,6.0,0.0,0.0,0.0,5.0,0.0,0.05505206666666666,0.14096032,0.9710091333333334,-1.4656575066666664,-0.009765600000000253,-0.7316080666666668,5.518301049009245,-4.226344661046711,4.708165756179361,-3.490882340451282,10.55454921703826,-7.122353189375185,13.202752881272922,1.1954634136433964,12.883208745122499,1.2220235628857152,-0.12365606666666666,0.16885367999999998,-1.0269171333333333,1.31942688,1.0480272834266122,0.7031569986936671,0.7031569986936671,0.7031569986936671
LBP07_S06,LBP07,-1606,45,6,44,-1606,1716329608.76,2024-05-21 22:13:28.760000+00:00,2024-05-22 07:13:28.760000+09:00,2024,5,21,22,13,28,760,,,,,,,,,0.245361,0.029785,0.417969,-86.791992,-64.147949,78.674316,,,,,,,,,,,0.0,1.0,1.0,6.0,0.0,0.0,0.0,5.0,0.0,0.05555337333333333,0.14187502666666668,0.9682552266666666,-1.0831705199999995,1.3533528933333332,-1.3142903600000002,7.248460690428993,-5.407052519681073,6.911344091110509,-3.200943912834122,10.338267116251018,-6.845899425730765,12.805941896138986,1.194523875127574,12.74472155606902,1.2229742817565277,0.18980762666666667,-0.11209002666666668,-0.5502862266666666,0.8521838799999999,0.5927951083452062,0.6893617624001094,0.6893617624001094,0.6893617624001094
LBP07_S06,LBP07,-1605,46,6,45,-1605,1716329608.8,2024-05-21 22:13:28.800000+00:00,2024-05-22 07:13:28.800000+09:00,2024,5,21,22,13,28,800,,,,,,,,,0.710449,-0.358887,1.179443,-28.381348,4.150391,18.859863,,,,,,,,,,,0.0,1.0,1.0,6.0,0.0,0.0,0.0,5.0,0.0,0.051858720000000004,0.1441243733333333,0.9722591333333332,-1.0034179199999995,0.22298178666666643,-1.43880208,7.24816721439485,-5.856341592669655,7.83248295678051,-2.911017224258328,10.104013452544232,-6.532600107459544,12.37901342163841,1.2223800714880915,12.547899089148823,1.2283902964015376,0.65859028,-0.5030113733333333,0.20718386666666677,1.36878552,0.8542170410499405,0.7076790155834239,0.7076790155834239,0.7076790155834239
LBP07_S06,LBP07,-1604,47,6,46,-1604,1716329608.84,2024-05-21 22:13:28.840000+00:00,2024-05-22 07:13:28.840000+09:00,2024,5,21,22,13,28,840,,,,,,,,,-0.169189,0.539551,1.375,123.596191,69.458008,-58.044434,,,,,,,,,,,0.0,1.0,1.0,6.0,0.0,0.0,0.0,5.0,0.0,0.06029297333333333,0.14706709333333334,0.9894368666666666,-0.2661132399999996,-0.13753253333333362,-1.7985026000000002,5.590785971919894,-5.6494289729331815,7.559620308081565,-2.687385785381532,9.878036293626904,-6.230215295136281,11.983873580834834,1.178530759962836,12.319211012253763,1.2257168571786092,-0.22948197333333334,0.39248390666666666,0.38556313333333336,1.0075290133333334,0.59612458669569,0.6965235726946506,0.6965235726946506,0.6965235726946506
LBP07_S06,LBP07,-1603,48,6,47,-1603,1716329608.88,2024-05-21 22:13:28.880000+00:00,2024-05-22 07:13:28.880000+09:00,2024,5,21,22,13,28,880,,,,,,,,,-0.352783,0.185059,1.743652,3.601074,-75.439453,-29.418945,,,,,,,,,,,0.0,1.0,1.0,6.0,0.0,0.0,0.0,5.0,0.0,0.05350586666666667,0.14415693333333335,0.9869205866666666,0.2596029066666671,1.1002604266666662,-2.1468098933333333,2.690508914781184,-4.9733948388228475,6.395259862474223,-2.5797654287902847,9.67910050007399,-5.974404900637312,11.663348150290002,1.2124179635616592,12.085082002207482,1.2183090701616837,-0.4062888666666667,0.04090206666666665,0.7567314133333334,1.2039223466666669,0.8598756038871862,0.7113737573485174,0.7113737573485174,0.7113737573485174
LBP07_S06,LBP07,-1602,49,6,48,-1602,1716329608.92,2024-05-21 22:13:28.920000+00:00,2024-05-22 07:13:28.920000+09:00,2024,5,21,22,13,28,920,,,,,,,,,0.148193,0.423828,1.643311,31.12793,-26.977539,-21.240234,,,,,,,,,,,0.0,1.0,1.0,6.0,0.0,0.0,0.0,5.0,0.0,0.04732422666666667,0.14868818666666667,0.98095704,0.6046549866666671,1.7692057333333333,-2.7001953066666666,-0.7097379842780738,-4.0810306740547,4.6640119377568965,-2.6081549481614075,9.5158592731118,-5.787844423127036,11.439108051137964,1.2596972310440948,11.867476760422916,1.2165732637789235,0.10086877333333333,0.2751398133333333,0.66235396,1.0383625466666666,0.7242852992036732,0.7124497191697805,0.7124497191697805,0.7124497191697805
LBP07_S06,LBP07,-1601,50,6,49,-1601,1716329608.96,2024-05-21 22:13:28.960000+00:00,2024-05-22 07:13:28.960000+09:00,2024,5,21,22,13,28,960,,,,,,,,,-0.513428,-0.047363,0.137207,-51.147461,102.478027,9.399414,,,,,,,,,,,0.0,1.0,1.0,6.0,0.0,0.0,0.0,5.0,0.0,0.04630534666666667,0.14344730666666666,0.9745442799999999,-0.537109333333333,-0.17171224000000032,-1.59749348,-3.6868949126324235,-3.2361967749108507,2.594291008715629,-2.7556307446667043,9.386411402115366,-5.684072782778411,11.3140135765623,1.2557376063291077,11.680628919462597,1.2162118767843704,-0.5597333466666666,-0.19081030666666665,-0.83733728,1.5878809333333332,1.02510668370599,0.736500254903335,0.736500254903335,0.736500254903335
LBP07_S06,LBP07,-1600,51,6,50,-1600,1716329609.0,2024-05-21 22:13:29+00:00,2024-05-22 07:13:29+09:00,2024,5,21,22,13,29,0,22.0,13.0,28.0,40.553181,141.584091,8.86,3.0,7.0,0.105225,0.300049,0.140625,-12.023926,-50.048828,47.851562,-263.0,13.0,401.0,1116.0,0.0,1022.099976,18.190001,0.090179,-73.379799,3.76875,0.0,1.0,1.0,6.0,0.0,0.0,0.0,5.0,0.0,0.05471029333333334,0.14331710666666667,0.9702702,-0.2571614133333331,0.506184893333333,-1.3834635333333332,-5.409251718894056,-2.6654199150272526,0.33522353323216036,-2.9720008134224667,9.279794605514276,-5.670663841449125,11.274032337998424,1.2030498632019129,11.529869947442448,1.220776265974826,0.05051470666666666,0.15673189333333334,-0.8296452,1.0368918,0.8458296399751611,0.7443094966941797,0.7443094966941797,0.7443094966941797
LBP07_S06,LBP07,-1599,52,6,51,-1599,1716329609.04,2024-05-21 22:13:29.040000+00:00,2024-05-22 07:13:29.040000+09:00,2024,5,21,22,13,29,40,,,,,,,,,0.287842,-0.121094,0.568359,-93.75,-72.692871,58.959961,,,,,,,,,,,0.0,1.0,1.0,6.0,0.0,0.0,0.0,5.0,0.0,0.054173186666666664,0.14276697333333332,0.9657747466666666,-0.09765621333333305,2.069498693333333,-1.9311523333333336,-5.417655821996558,-2.525213925649208,-1.944356625570817,-3.188707046302329,9.178786048488307,-5.748438106471958,11.28992943357046,1.2050536754225283,11.412810627132052,1.2282816455991292,0.23366881333333334,-0.2638609733333333,-0.3974157466666667,0.8949455333333334,0.5311901761814185,0.730101541993329,0.730101541993329,0.730101541993329
LBP07_S06,LBP07,-1598,53,6,52,-1598,1716329609.08,2024-05-21 22:13:29.080000+00:00,2024-05-22 07:13:29.080000+09:00,2024,5,21,22,13,29,80,,,,,,,,,0.70752,-0.204834,1.243408,-6.530762,38.146973,-4.211426,,,,,,,,,,,0.0,1.0,1.0,6.0,0.0,0.0,0.0,5.0,0.0,0.04883464,0.1430274,0.97320964,0.3035482133333337,0.723470053333333,-2.0222981733333336,-3.772078462428539,-2.8823591358347564,-3.990224288369913,-3.3395901847994707,9.063491683054917,-5.908047078006754,11.322754274784858,1.2388781780080353,11.322303468945274,1.2377231040497805,0.65868536,-0.3478614,0.2701983600000001,1.2767451200000002,0.7923894943996792,0.7339945390187259,0.7339945390187259,0.7339945390187259
LBP07_S06,LBP07,-1597,54,6,53,-1597,1716329609.12,2024-05-21 22:13:29.120000+00:00,2024-05-22 07:13:29.120000+09:00,2024,5,21,22,13,29,120,,,,,,,,,-0.186768,0.213867,1.577637,79.956055,60.48584,-72.32666,,,,,,,,,,,0.0,1.0,1.0,6.0,0.0,0.0,0.0,5.0,0.0,0.05740234666666667,0.14545253333333333,0.9931543066666667,1.293945346666667,0.3694661466666663,-2.712402346666667,-0.9832064042705163,-3.6943690456053835,-5.511664688708981,-3.3789184409702915,8.9157169212307,-6.128513665555113,11.334274471669739,1.191849543697865,11.249898558156605,1.2359385981987905,-0.24417034666666665,0.06841446666666667,0.5844826933333332,0.8970675066666666,0.6371182906233284,0.7282959361719378,0.7282959361719378,0.7282959361719378
LBP07_S06,LBP07,-1596,55,6,54,-1596,1716329609.16,2024-05-21 22:13:29.160000+00:00,2024-05-22 07:13:29.160000+09:00,2024,5,21,22,13,29,160,,,,,,,,,-0.23291,0.417725,1.669678,32.043457,-71.838379,-39.001465,,,,,,,,,,,0.0,1.0,1.0,6.0,0.0,0.0,0.0,5.0,0.0,0.04895833333333333,0.14396490666666667,0.9902246266666667,1.8448893466666672,1.7106119866666663,-3.229166666666667,2.2294394290980573,-4.793629574419582,-6.322977322454471,-3.289740863806369,8.723971738253917,-6.3814327584532915,11.298352175937486,1.2401677670321283,11.18831439457869,1.232499889273991,-0.28186833333333333,0.27376009333333334,0.6794533733333333,1.2350818000000001,0.7848893123059025,0.7314400126238247,0.7314400126238247,0.7314400126238247
LBP07_S06,LBP07,-1595,56,6,55,-1595,1716329609.2,2024-05-21 22:13:29.200000+00:00,2024-05-22 07:13:29.200000+09:00,2024,5,21,22,13,29,200,,,,,,,,,0.165039,0.304688,1.464111,19.775391,2.868652,-27.404785,,,,,,,,,,,0.0,1.0,1.0,6.0,0.0,0.0,0.0,5.0,0.0,0.040410159999999994,0.14557949333333334,0.98134116,1.2890625200000003,1.798502613333333,-3.1233724000000005,5.21197044074966,-5.903093782489999,-6.466712172232874,-3.081262046176383,8.487847986954318,-6.640101245342606,11.208420218534455,1.297433867731125,11.132135385301666,1.2304096826738662,0.12462883999999999,0.15910850666666668,0.4827698399999999,0.7665071866666666,0.5233684964411479,0.7204888801931575,0.7204888801931575,0.7204888801931575
LBP07_S06,LBP07,-1594,57,6,56,-1594,1716329609.24,2024-05-21 22:13:29.240000+00:00,2024-05-22 07:13:29.240000+09:00,2024,5,21,22,13,29,240,,,,,,,,,-0.595459,-0.038574,-0.074707,-0.671387,75.256348,8.178711,,,,,,,,,,,0.0,1.0,1.0,6.0,0.0,0.0,0.0,5.0,0.0,0.04373372,0.14387050666666668,0.97164716,-0.26936847999999985,-1.0156249866666667,-1.7480468800000002,7.5385715578635955,-6.705602947168599,-6.208818743267384,-2.779719183861839,8.219623869067574,-6.888453995073301,11.078801998967046,1.2729453444693477,11.077165682171923,1.2309388650703759,-0.6391927199999999,-0.18244450666666667,-1.04635416,1.8679913866666666,1.2396412220732043,0.7464464972871598,0.7464464972871598,0.7464464972871598
LBP07_S06,LBP07,-1593,58,6,57,-1593,1716329609.28,2024-05-21 22:13:29.280000+00:00,2024-05-22 07:13:29.280000+09:00,2024,5,21,22,13,29,280,,,,,,,,,0.047607,0.251709,0.071533,-21.484375,-55.786133,41.625977,,,,,,,,,,,0.0,1.0,1.0,6.0,0.0,0.0,0.0,5.0,0.0,0.05570637333333333,0.14229498666666668,0.9677864800000001,-0.2091471333333332,-0.39876301333333347,-1.4648437600000002,9.010208879392172,-6.95773744724638,-5.88750734762898,-2.4193108286861524,7.941314371177719,-7.12395428897846,10.93929904240333,1.1945729050517608,11.01964161756239,1.235049289421288,-0.008099373333333333,0.10941401333333334,-0.8962534800000002,1.0137668666666668,0.9029437006669964,0.753898745067152,0.753898745067152,0.753898745067152
LBP07_S06,LBP07,-1592,59,6,58,-1592,1716329609.32,2024-05-21 22:13:29.320000+00:00,2024-05-22 07:13:29.320000+09:00,2024,5,21,22,13,29,320,,,,,,,,,0.405273,-0.116699,0.553711,-73.974609,-113.464355,59.814453,,,,,,,,,,,0.0,1.0,1.0,6.0,0.0,0.0,0.0,5.0,0.0,0.050618479999999993,0.14195318666666668,0.9659765733333332,0.2848307333333335,1.1572265733333331,-1.9571940133333336,9.552867213027017,-6.606431121812226,-5.707633520180671,-2.037196140165072,7.67705712630523,-7.352259629785687,10.8232664153588,1.225310141796098,10.956245836097107,1.241385304551294,0.35465452,-0.2586521866666667,-0.41226557333333325,1.02557228,0.6021990411647469,0.747003303980679,0.747003303980679,0.747003303980679
LBP07_S06,LBP07,-1591,60,6,59,-1591,1716329609.36,2024-05-21 22:13:29.360000+00:00,2024-05-22 07:13:29.360000+09:00,2024,5,21,22,13,29,360,,,,,,,,,0.647461,-0.062012,1.091553,31.555176,25.45166,-18.310547,,,,,,,,,,,0.0,1.0,1.0,6.0,0.0,0.0,0.0,5.0,0.0,0.04916014666666666,0.14208013333333333,0.9773144666666667,0.6998698000000002,-0.5883788933333335,-2.067871106666667,9.133080564251458,-5.841769906237371,-5.618875056709527,-1.6718729175950133,7.443386330055735,-7.577014632054068,10.75222348379207,1.2348355403278601,10.884971597699117,1.2453666017805887,0.5983008533333333,-0.20409213333333331,0.11423853333333334,0.9166315199999999,0.6423923664600141,0.7424550023493459,0.7424550023493459,0.7424550023493459
LBP07_S06,LBP07,-1590,61,6,60,-1590,1716329609.4,2024-05-21 22:13:29.400000+00:00,2024-05-22 07:13:29.400000+09:00,2024,5,21,22,13,29,400,,,,,,,,,0.109131,0.169922,1.318115,87.036133,65.673828,-50.720215,,,,,,,,,,,0.0,1.0,1.0,6.0,0.0,0.0,0.0,5.0,0.0,0.054055973333333326,0.14382492000000002,0.9927311333333332,0.5525716133333335,0.6917317866666666,-3.0647786533333337,7.769470671030654,-5.028831441755158,-5.36434576588173,-1.3610940907537872,7.242233072385528,-7.7915884626893375,10.724335306700981,1.2083416871670103,10.80612755050237,1.2395098139226228,0.05507502666666668,0.026097079999999967,0.32538386666666674,0.4065559733333334,0.3310422583807264,0.7253128046839867,0.7253128046839867,0.7253128046839867
LBP07_S06,LBP07,-1589,62,6,61,-1589,1716329609.44,2024-05-21 22:13:29.440000+00:00,2024-05-22 07:13:29.440000+09:00,2024,5,21,22,13,29,440,,,,,,,,,-0.301025,0.405029,1.662842,3.90625,-20.263672,-36.804199,,,,,,,,,,,0.0,1.0,1.0,6.0,0.0,0.0,0.0,5.0,0.0,0.04798175999999999,0.14390629333333332,0.9880143466666668,0.9749348933333334,1.6625976666666666,-3.05582684,5.619199710209315,-4.529655109535907,-4.670397115905891,-1.1363261023454145,7.061046868004092,-7.978404347325573,10.714688787475142,1.2461579189316503,10.722559841545587,1.2316296454133622,-0.34900675999999997,0.26112270666666665,0.6748276533333332,1.2849571199999996,0.8033574224254089,0.7284345893936436,0.7284345893936436,0.7284345893936436
LBP07_S06,LBP07,-1588,63,6,62,-1588,1716329609.48,2024-05-21 22:13:29.480000+00:00,2024-05-22 07:13:29.480000+09:00,2024,5,21,22,13,29,480,,,,,,,,,0.023682,0.456055,1.631592,33.203125,-23.681641,-39.245605,,,,,,,,,,,0.0,1.0,1.0,6.0,0.0,0.0,0.0,5.0,0.0,0.03978514666666666,0.14603845333333332,0.9808007999999999,-0.15787759999999992,1.6357421999999997,-2.63427736,3.0399249938622233,-4.508201069809623,-3.4505906756907327,-1.0147291025909255,6.880718825211707,-8.116427974353202,10.68879646013203,1.3022383293080921,10.638583132394562,1.22511258504238,-0.016103146666666658,0.31001654666666667,0.6507912,0.9769108933333334,0.7210400519646143,0.7293523410454916,0.7281501841079117,0.7281501841079117
LBP07_S06,LBP07,-1587,64,6,63,-1587,1716329609.52,2024-05-21 22:13:29.520000+00:00,2024-05-22 07:13:29.520000+09:00,2024,5,21,22,13,29,520,,,,,,,,,-0.234619,0.297852,0.398682,-20.263672,101.989746,-7.324219,,,,,,,,,,,0.0,1.0,1.0,6.0,0.0,0.0,0.0,5.0,0.0,0.04854817333333333,0.13884118666666667,0.9741764533333332,-1.3850911466666667,-0.5525715999999999,-1.4648437600000002,0.5391478331987561,-4.83049751449853,-1.8878737904451623,-0.9931631892629753,6.6874989246317655,-8.19194292597101,10.621532087689822,1.2316625159908123,10.558012513921673,1.2262701099194107,-0.2831671733333333,0.15901081333333333,-0.5754944533333333,1.01767244,0.6608040198333772,0.7276840754952516,0.7256558817273734,0.7256558817273734
LBP07_S06,LBP07,-1586,65,6,64,-1586,1716329609.56,2024-05-21 22:13:29.560000+00:00,2024-05-22 07:13:29.560000+09:00,2024,5,21,22,13,29,560,,,,,,,,,0.061279,0.130859,0.035156,-65.490723,-48.88916,59.204102,,,,,,,,,,,0.0,1.0,1.0,6.0,0.0,0.0,0.0,5.0,0.0,0.05594076,0.13753910666666666,0.9695963733333334,-0.4378255199999999,0.6347656399999999,-1.4973958533333336,-1.387786283927112,-5.119408742567265,-0.3428925821064829,-1.0486746406200598,6.482722574929075,-8.205658629255268,10.509911703970024,1.181599888452472,10.482508529455648,1.2266177257091235,0.005338240000000001,-0.0066801066666666575,-0.9344403733333334,0.9464587200000001,0.9344794978739315,0.7500227069436122,0.7331138680183218,0.7331138680183218
LBP07_S06,LBP07,-1585,66,6,65,-1585,1716329609.6,2024-05-21 22:13:29.600000+00:00,2024-05-22 07:13:29.600000+09:00,2024,5,21,22,13,29,600,,,,,,,,,0.187256,-0.18042,0.435791,-38.94043,-93.566895,58.837891,,,,,,,,,,,0.0,1.0,1.0,6.0,0.0,0.0,0.0,5.0,0.0,0.05020507999999999,0.13780929333333333,0.9687435200000001,-0.19205729333333324,1.0937500133333333,-1.6512044533333334,-2.4390168138278305,-4.942072019980628,0.8466103911598301,-1.146235313173173,6.28503969412985,-8.171794213608875,10.372743128966635,1.218632182638519,10.411446634054805,1.2317300628804342,0.13705092000000002,-0.31822929333333333,-0.53295252,0.9882327333333334,0.6356817020983296,0.741431258119762,0.7297541381590118,0.7297541381590118
LBP07_S06,LBP07,-1584,67,6,66,-1584,1716329609.64,2024-05-21 22:13:29.640000+00:00,2024-05-22 07:13:29.640000+09:00,2024,5,21,22,13,29,640,,,,,,,,,0.856934,0.047607,0.936279,39.306641,-26.367188,7.93457,,,,,,,,,,,0.0,1.0,1.0,6.0,0.0,0.0,0.0,5.0,0.0,0.05340494666666666,0.14183924,0.9830273733333335,0.5541992133333334,-1.1230468666666664,-1.971842466666667,-2.5936371125667255,-4.03391919005105,1.5390119335027477,-1.2499807976758421,6.123682926527808,-8.110233736268764,10.239034907456784,1.2077747407595256,10.343518841110967,1.2329413103632256,0.8035290533333334,-0.09423224000000001,-0.04674837333333348,0.9445096666666668,0.8103851337577049,0.7380490068404423,0.7324418380123016,0.7324418380123016
LBP07_S06,LBP07,-1583,68,6,67,-1583,1716329609.68,2024-05-21 22:13:29.680000+00:00,2024-05-22 07:13:29.680000+09:00,2024,5,21,22,13,29,680,,,,,,,,,-0.118408,0.17041,1.468018,32.653809,68.725586,-50.78125,,,,,,,,,,,0.0,1.0,1.0,6.0,0.0,0.0,0.0,5.0,0.0,0.05338541333333333,0.14105473333333335,0.99333988,-0.06673177333333329,1.3899739600000003,-2.715657573333334,-2.0563372978035797,-2.4344910824727872,1.8228248077014082,-1.3322342895879853,6.026303283228897,-8.037320743960708,10.133592857674444,1.2061481538220655,10.278970771921951,1.2262175977928313,-0.17179341333333334,0.029355266666666657,0.4746781200000001,0.6758268000000001,0.5056619682678569,0.7441938160483139,0.7251263583431259,0.7251263583431259
LBP07_S06,LBP07,-1582,69,6,68,-1582,1716329609.72,2024-05-21 22:13:29.720000+00:00,2024-05-22 07:13:29.720000+09:00,2024,5,21,22,13,29,720,,,,,,,,,-0.20752,0.309082,1.702881,9.277344,-38.391113,-30.273438,,,,,,,,,,,0.0,1.0,1.0,6.0,0.0,0.0,0.0,5.0,0.0,0.05066730666666666,0.14363286666666666,0.9873861066666668,0.56477864,1.9702148533333335,-2.6570638266666666,-1.1108267588194636,-0.46183292437516926,1.9042010317243594,-1.3766673599407637,6.00782996625389,-7.9611527026917335,10.068226570698554,1.2287862996932288,10.220827665802293,1.2159548583403827,-0.25818730666666667,0.16544913333333336,0.7154948933333333,1.1391313333333333,0.7784388501549858,0.7334102787174488,0.7267923737122466,0.7267923737122466
LBP07_S06,LBP07,-1581,70,6,69,-1581,1716329609.76,2024-05-21 22:13:29.760000+00:00,2024-05-22 07:13:29.760000+09:00,2024,5,21,22,13,29,760,,,,,,,,,0.122559,0.387207,1.52417,32.470703,6.896973,-20.751953,,,,,,,,,,,0.0,1.0,1.0,6.0,0.0,0.0,0.0,5.0,0.0,0.04242186666666666,0.14635421333333334,0.9797852,-0.8284505199999999,1.9816080933333338,-1.9531250133333333,0.008678371682057925,1.4459543592677562,1.945024825416935,-1.3763202250734814,6.0656681406246005,-7.883351709675056,10.041604529783637,1.285958912040966,10.174160753551158,1.213812494868882,0.08013713333333333,0.24085278666666668,0.5443848,0.86537472,0.6006553383222556,0.7337246879165308,0.7229700393064893,0.7229700393064893
LBP07_S06,LBP07,-1580,71,6,70,-1580,1716329609.8,2024-05-21 22:13:29.800000+00:00,2024-05-22 07:13:29.800000+09:00,2024,5,21,22,13,29,800,,,,,,,,,-0.493164,0.073242,0.164795,-22.033691,119.262695,1.220703,,,,,,,,,,,0.0,1.0,1.0,6.0,0.0,0.0,0.0,5.0,0.0,0.050006506666666665,0.1380306533333333,0.9752148933333334,-1.2540690133333332,0.3409830933333336,-1.44694012,1.1456065151775072,2.921025952522895,1.9723847335105553,-1.3304959644663812,6.182509178725517,-7.8044563203346335,10.0450573772626,1.2204541619949243,10.143893435454844,1.2155193230860601,-0.5431705066666667,-0.06478865333333331,-0.8104198933333334,1.4183790533333334,0.9777587496022124,0.7386663562586218,0.7304638249034223,0.7304638249034223
LBP07_S06,LBP07,-1579,72,6,71,-1579,1716329609.84,2024-05-21 22:13:29.840000+00:00,2024-05-22 07:13:29.840000+09:00,2024,5,21,22,13,29,840,,,,,,,,,0.080322,0.179932,0.105957,-47.912598,-49.743652,54.321289,,,,,,,,,,,0.0,1.0,1.0,6.0,0.0,0.0,0.0,5.0,0.0,0.05612303999999999,0.13692062666666668,0.9726042133333332,-0.31331379999999986,0.9651692933333336,-1.1873372666666668,2.151057090659519,3.7853155860553707,1.911832904565941,-1.2444536808400004,6.3339218021677315,-7.727983004151996,10.069208095584978,1.1789207932277066,10.132767135501483,1.2143608918098028,0.024198960000000012,0.043011373333333325,-0.8666472133333333,0.9338575466666666,0.8680512428880758,0.7495434225063171,0.7343948939886982,0.7343948939886982
LBP07_S06,LBP07,-1578,73,6,72,-1578,1716329609.88,2024-05-21 22:13:29.880000+00:00,2024-05-22 07:13:29.880000+09:00,2024,5,21,22,13,29,880,,,,,,,,,0.357178,-0.128906,0.624756,-59.814453,-92.163086,54.748535,,,,,,,,,,,0.0,1.0,1.0,6.0,0.0,0.0,0.0,5.0,0.0,0.05240559999999999,0.13574874666666667,0.9723665866666666,-0.0764973999999999,1.0799153866666669,-1.3492838933333335,2.797147359558118,4.053092732631624,1.6964448592342392,-1.1325677864576758,6.496045511472996,-7.660125209782627,10.107365398935443,1.199610934783607,10.14100389083361,1.217827059573723,0.3047724,-0.26465474666666666,-0.34761058666666667,0.9170377333333334,0.5326926606381035,0.7364561047763537,0.7287920541734038,0.7287920541734038
LBP07_S06,LBP07,-1577,74,6,73,-1577,1716329609.92,2024-05-21 22:13:29.920000+00:00,2024-05-22 07:13:29.920000+09:00,2024,5,21,22,13,29,920,,,,,,,,,0.732422,-0.080078,1.272705,56.640625,31.799316,-11.71875,,,,,,,,,,,0.0,1.0,1.0,6.0,0.0,0.0,0.0,5.0,0.0,0.05287761333333333,0.14149418666666666,0.9794043466666666,0.7145182266666668,-0.34342445333333305,-1.679687546666667,2.7735932130910603,3.8507868797959186,1.3485842214117658,-1.0216240579340334,6.650076986664833,-7.606181840926156,10.154862965178488,1.2102388812758045,10.167924750640452,1.2151420521241891,0.6795443866666667,-0.22157218666666667,0.2933006533333333,1.1944172266666668,0.7725930886308683,0.7383884163534417,0.7299758659154975,0.7299758659154975
LBP07_S06,LBP07,-1576,75,6,74,-1576,1716329609.96,2024-05-21 22:13:29.960000+00:00,2024-05-22 07:13:29.960000+09:00,2024,5,21,22,13,29,960,,,,,,,,,-0.134521,0.325928,1.609863,40.649414,71.105957,-52.91748,,,,,,,,,,,0.0,1.0,1.0,6.0,0.0,0.0,0.0,5.0,0.0,0.056129559999999995,0.14512374666666666,0.9848535733333333,0.99934896,0.5265299733333336,-2.0442708800000005,1.805465660774397,3.3361675203461187,0.961929271066278,-0.9494054315030576,6.783523687478677,-7.567704670083504,10.207238523006872,1.1986681706242521,10.214308238752077,1.2071132992867575,-0.19065056,0.18080425333333333,0.6250094266666667,0.99646424,0.6779930659482686,0.7245038716431327,0.7286078974953072,0.7286078974953072
LBP07_S06,LBP07,-1575,76,6,75,-1575,1716329610.0,2024-05-21 22:13:30+00:00,2024-05-22 07:13:30+09:00,2024,5,21,22,13,30,0,22.0,13.0,29.0,40.553127,141.584,9.515,3.0,7.0,-0.203125,0.255127,1.77417,34.851074,-64.941406,-24.658203,-261.0,12.0,403.0,1054.0,0.0,1022.400024,18.25,0.093152,-75.858627,3.76875,0.0,1.0,1.0,6.0,0.0,0.0,0.0,5.0,0.0,0.056575520000000004,0.1500912,0.98181972,2.1866862,0.5265299733333334,-1.95068364,-0.1724543433256814,2.6717227914535813,0.6025393170559311,-0.9563036052360848,6.8903925991368205,-7.543603097401267,10.261480129433034,1.207047869875947,10.283783539099488,1.1962426611518333,-0.25970052,0.10503579999999998,0.7923502800000001,1.1570866,0.8404140917345383,0.7242872497135078,0.7314747229886208,0.7314747229886208
LBP07_S06,LBP07,-1574,77,6,76,-1574,1716329610.04,2024-05-21 22:13:30.040000+00:00,2024-05-22 07:13:30.040000+09:00,2024,5,21,22,13,30,40,,,,,,,,,0.18335,0.386963,1.447754,9.94873,18.249512,-20.446777,,,,,,,,,,,0.0,1.0,1.0,6.0,0.0,0.0,0.0,5.0,0.0,0.05083007999999999,0.15076177333333335,0.97579432,1.2809244800000001,0.02115888000000022,-1.2809245333333334,-2.909136593284269,2.0403785948180126,0.22235551463726116,-1.0726690689674556,6.972007742929541,-7.534708876815777,10.321402460778062,1.2424364183987286,10.3823650618874,1.191714794763457,0.13251992,0.23620122666666665,0.47195968,0.8406808266666667,0.544149325297153,0.7248056156781373,0.7267915880463341,0.7267915880463341
LBP07_S06,LBP07,-1573,78,6,77,-1573,1716329610.08,2024-05-21 22:13:30.080000+00:00,2024-05-22 07:13:30.080000+09:00,2024,5,21,22,13,30,80,,,,,,,,,-0.511719,0.023682,-0.015625,-28.869629,89.050293,23.132324,,,,,,,,,,,0.0,1.0,1.0,6.0,0.0,0.0,0.0,5.0,0.0,0.05940430666666666,0.14522792,0.9726204933333334,1.2019856800000002,-1.5763346,-0.6184896400000002,-5.886246712557778,1.656280163286859,-0.3284855358145602,-1.3081189374697668,7.038258949461015,-7.5478482982483595,10.402801455742859,1.1792980793267254,10.51658471737956,1.1919903969243963,-0.5711233066666667,-0.12154592,-0.9882454933333334,1.68091472,1.1478607917252672,0.7390244675711607,0.7370615686238691,0.7370615686238691
LBP07_S06,LBP07,-1572,79,6,78,-1572,1716329610.12,2024-05-21 22:13:30.120000+00:00,2024-05-22 07:13:30.120000+09:00,2024,5,21,22,13,30,120,,,,,,,,,0.069092,0.11377,0.203613,-85.327148,-48.583984,50.170898,,,,,,,,,,,0.0,1.0,1.0,6.0,0.0,0.0,0.0,5.0,0.0,0.06483073333333333,0.14557622666666667,0.9690853333333332,1.4567057333333335,-0.52652992,-0.4329427733333335,-8.504108027296564,1.7350570809424994,-1.1863755482959717,-1.6482832585616294,7.107661232698715,-7.595303320180198,10.53206145181479,1.1484987713189139,10.691500010275426,1.1935351037578277,0.004261266666666666,-0.03180622666666667,-0.7654723333333333,0.8015398266666667,0.7661446909997833,0.7441855235862189,0.7377540239185337,0.7377540239185337
LBP07_S06,LBP07,-1571,80,6,79,-1571,1716329610.16,2024-05-21 22:13:30.160000+00:00,2024-05-22 07:13:30.160000+09:00,2024,5,21,22,13,30,160,,,,,,,,,0.483154,-0.211182,0.699951,-45.532227,-96.069336,48.583984,,,,,,,,,,,0.0,1.0,1.0,6.0,0.0,0.0,0.0,5.0,0.0,0.05959310666666666,0.14485357333333332,0.96716476,2.353515626666667,-0.12858069333333333,-0.5468750666666667,-10.291570128655755,2.4234099932311914,-2.3408681067093506,-2.0599460637078595,7.204597632427962,-7.688938044448572,10.736357533257763,1.1772525306917234,10.909686892921599,1.1992510826241403,0.4235608933333333,-0.35603557333333335,-0.26721375999999997,1.0468102266666666,0.6144659090409038,0.7373685874556191,0.7348868584562633,0.7348868584562633
LBP07_S06,LBP07,-1570,81,6,80,-1570,1716329610.2,2024-05-21 22:13:30.200000+00:00,2024-05-22 07:13:30.200000+09:00,2024,5,21,22,13,30,200,,,,,,,,,0.520508,0.075684,1.272705,40.344238,74.035645,-31.982422,,,,,,,,,,,0.0,1.0,1.0,6.0,0.0,0.0,0.0,5.0,0.0,0.061556,0.1487826,0.9810384533333333,2.6912434933333333,-1.8554687066666664,-0.7706706400000002,-11.014422924093267,3.7282897834044575,-3.592472905380122,-2.5005229806715903,7.35372922376414,-7.832636960663777,11.030872605141706,1.1751754981111613,11.171457376377012,1.1965167938735353,0.45895199999999997,-0.07309859999999999,0.2916665466666667,0.8237171466666666,0.548679977828988,0.7383810467111326,0.7306548838965525,0.7306548838965525
LBP07_S06,LBP07,-1569,82,6,81,-1569,1716329610.24,2024-05-21 22:13:30.240000+00:00,2024-05-22 07:13:30.240000+09:00,2024,5,21,22,13,30,240,,,,,,,,,-0.149414,0.347656,1.645264,53.710938,38.330078,-64.331055,,,,,,,,,,,0.0,1.0,1.0,6.0,0.0,0.0,0.0,5.0,0.0,0.06010418666666666,0.14793950666666666,0.9907389733333334,2.4446614666666666,0.29134118666666664,-1.7976888666666666,-10.63928932359001,5.499573929671279,-4.6476178074448935,-2.9260945536151906,7.5737121809509915,-8.018541672961573,11.411404650506585,1.1816768148371006,11.47560747930462,1.190653275388198,-0.20951818666666666,0.19971649333333336,0.6545250266666667,1.0637597066666666,0.7156728014857434,0.7174223098876342,0.7303219487318677,0.7303219487318677
LBP07_S06,LBP07,-1568,83,6,82,-1568,1716329610.28,2024-05-21 22:13:30.280000+00:00,2024-05-22 07:13:30.280000+09:00,2024,5,21,22,13,30,280,,,,,,,,,-0.090576,0.30542,1.820557,-2.380371,-57.617188,-31.921387,,,,,,,,,,,0.0,1.0,1.0,6.0,0.0,0.0,0.0,5.0,0.0,0.05560549333333333,0.15117193333333334,0.9849381866666665,4.075520840000001,0.5900065466666666,-2.2753906800000006,-9.223242489660324,7.482427004670271,-5.290509175783861,-3.2950242532016034,7.873009261137803,-8.230162039992928,11.85651832789411,1.2150580031179201,11.819629206835618,1.1838031944477745,-0.14618149333333333,0.15424806666666668,0.8356188133333334,1.1360483733333333,0.8622182416651692,0.715793291527561,0.7331892594478092,0.7331892594478092
LBP07_S06,LBP07,-1567,84,6,83,-1567,1716329610.32,2024-05-21 22:13:30.320000+00:00,2024-05-22 07:13:30.320000+09:00,2024,5,21,22,13,30,320,,,,,,,,,0.063965,0.174561,1.325195,-12.390137,61.279297,-21.240234,,,,,,,,,,,0.0,1.0,1.0,6.0,0.0,0.0,0.0,5.0,0.0,0.04847333333333333,0.15663092,0.9740690533333333,3.738606786666667,-0.7275390266666667,-1.7504883333333334,-6.847508818344127,9.402350950512256,-5.50707772454553,-3.5689246059353685,8.249103299158293,-8.45044514897475,12.3367317916402,1.2673986699389321,12.198836490642702,1.1801299236369793,0.015491666666666667,0.017930079999999987,0.35112594666666663,0.3845476933333333,0.35192457988535036,0.7057823130763852,0.7250772449890335,0.7250772449890335
LBP07_S06,LBP07,-1566,85,6,84,-1566,1716329610.36,2024-05-21 22:13:30.360000+00:00,2024-05-22 07:13:30.360000+09:00,2024,5,21,22,13,30,360,,,,,,,,,-0.540039,-0.053711,-0.026367,-32.104492,55.541992,27.526855,,,,,,,,,,,0.0,1.0,1.0,6.0,0.0,0.0,0.0,5.0,0.0,0.061435573333333326,0.14689133333333332,0.96887048,1.6748047066666667,-2.31119788,-0.6591797333333335,-3.6565404358596556,11.030586635456867,-5.468518784941954,-3.715186223369755,8.690326764576568,-8.669185900372428,12.824943357561013,1.1713252831182024,12.60497005839685,1.1828560753518675,-0.6014745733333333,-0.20060233333333333,-0.99523748,1.7973143866666668,1.18004686351943,0.7272884929587619,0.7345557787084167,0.7345557787084167
LBP07_S06,LBP07,-1565,86,6,85,-1565,1716329610.4,2024-05-21 22:13:30.400000+00:00,2024-05-22 07:13:30.400000+09:00,2024,5,21,22,13,30,400,,,,,,,,,-0.033447,0.126221,0.23999,-68.847656,-38.269043,42.419434,,,,,,,,,,,0.0,1.0,1.0,6.0,0.0,0.0,0.0,5.0,0.0,0.06564455999999999,0.14741541333333333,0.9645117599999999,2.765299506666667,-0.4069010133333334,-1.054687546666667,0.04368665333752953,12.201609280040197,-5.386336359328347,-3.7134387572362537,9.178391135778176,-8.88463935474556,13.3029811587091,1.1484126850225718,13.025670123232368,1.18524853944206,-0.09909156,-0.02119441333333333,-0.7245217599999999,0.8448077333333333,0.7315737291163996,0.7433097517881887,0.7344949205534775,0.7344949205534775
LBP07_S06,LBP07,-1564,87,6,86,-1564,1716329610.44,2024-05-21 22:13:30.440000+00:00,2024-05-22 07:13:30.440000+09:00,2024,5,21,22,13,30,440,,,,,,,,,0.519531,-0.201416,0.856934,-15.991211,-82.458496,47.546387,,,,,,,,,,,0.0,1.0,1.0,6.0,0.0,0.0,0.0,5.0,0.0,0.06066734666666665,0.14611658666666666,0.9657194399999999,2.8605143466666667,-0.48990882666666674,-1.2312826000000001,3.7400981476626196,12.793449211874067,-5.3464539625820775,-3.563834831329749,9.690129104253138,-9.098497513248844,13.761619736088054,1.173935608994494,13.4458948535043,1.1914577072644899,0.45886365333333334,-0.34753258666666664,-0.1087854399999999,0.9151816799999999,0.5858063016916354,0.7346077069588379,0.7315211481762407,0.7315211481762407
LBP07_S06,LBP07,-1563,88,6,87,-1563,1716329610.48,2024-05-21 22:13:30.480000+00:00,2024-05-22 07:13:30.480000+09:00,2024,5,21,22,13,30,480,,,,,,,,,0.361328,0.13501,1.334473,64.27002,94.421387,-38.513184,,,,,,,,,,,0.0,1.0,1.0,6.0,0.0,0.0,0.0,5.0,0.0,0.06930341333333333,0.15326176000000002,0.9873991333333333,3.686523466666667,-1.9938150666666667,-1.8204753066666668,6.804237801936365,12.714965526215671,-5.246270144497234,-3.2916653192522944,10.198727725301765,-9.308348319028735,14.194874293813676,1.1425653712187744,13.851034368922047,1.1892449318531746,0.29202458666666664,-0.018251760000000034,0.34707386666666673,0.6573502133333334,0.45395126928326374,0.7239241556515839,0.7266382483485379,0.7260786015312803
LBP07_S06,LBP07,-1562,89,6,88,-1562,1716329610.52,2024-05-21 22:13:30.520000+00:00,2024-05-22 07:13:30.520000+09:00,2024,5,21,22,13,30,520,,,,,,,,,-0.123779,0.292969,1.556152,72.753906,57.006836,-62.438965,,,,,,,,,,,0.0,1.0,1.0,6.0,0.0,0.0,0.0,5.0,0.0,0.06272462666666666,0.15189132,0.9899023866666666,3.8077799733333335,0.2661133199999999,-2.4503581066666666,8.70327231113914,11.939221114653659,-4.882769676979514,-2.9435344268067287,10.676296569887912,-9.503659106107914,14.5933971293563,1.1757602884677942,14.23022588716324,1.1820753627612959,-0.18650362666666664,0.14107767999999998,0.5662496133333333,0.89383092,0.6126378531842048,0.7219975089856169,0.7248407922404343,0.723897048678452
LBP07_S06,LBP07,-1561,90,6,89,-1561,1716329610.56,2024-05-21 22:13:30.560000+00:00,2024-05-22 07:13:30.560000+09:00,2024,5,21,22,13,30,560,,,,,,,,,-0.221436,0.362305,1.829346,25.024414,-50.109863,-29.541016,,,,,,,,,,,0.0,1.0,1.0,6.0,0.0,0.0,0.0,5.0,0.0,0.05982097333333332,0.15604822666666668,0.9839356,4.453938826666667,0.6909179999999998,-2.384440133333334,9.209927120641245,10.568804078710867,-4.1259951275045905,-2.575137341981079,11.099048733036346,-9.668698911208098,14.943358181612918,1.2011771715936508,14.578183334338382,1.1725828434933623,-0.2812569733333333,0.2062567733333333,0.8454103999999999,1.3329241466666666,0.9145305276603211,0.7211995501770726,0.7356111285603424,0.7274939067724496
LBP07_S06,LBP07,-1560,91,6,90,-1560,1716329610.6,2024-05-21 22:13:30.600000+00:00,2024-05-22 07:13:30.600000+09:00,2024,5,21,22,13,30,600,,,,,,,,,0.120117,0.1521,1.480225,0.793457,40.466309,-17.456055,,,,,,,,,,,0.0,1.0,1.0,6.0,0.0,0.0,0.0,5.0,0.0,0.05369791999999999,0.15673833333333334,0.9745736266666666,3.1974284133333333,-0.8325195066666669,-1.2198893466666667,8.47318843332463,8.871455267698597,-3.046857189610384,-2.2362098046480936,11.45390694374429,-9.790573198792513,15.233119907861035,1.2372671763354586,14.894747221550116,1.1688618042357075,0.06641908000000002,-0.004638333333333328,0.5056513733333333,0.5767087866666667,0.5100159994333938,0.7161729220704751,0.7288020900951185,0.7234665381180226
LBP07_S06,LBP07,-1559,92,6,91,-1559,1716329610.64,2024-05-21 22:13:30.640000+00:00,2024-05-22 07:13:30.640000+09:00,2024,5,21,22,13,30,640,,,,,,,,,-0.570801,-0.117676,0.039551,-37.353516,74.951172,20.141602,,,,,,,,,,,0.0,1.0,1.0,6.0,0.0,0.0,0.0,5.0,0.0,0.06589518666666666,0.15260096,0.9705273999999999,3.028157573333333,-1.486816386666667,-0.23681642666666672,6.899990093200298,7.234284873713607,-1.9024082975480145,-1.9602102009200817,11.743278338692834,-9.866669530694434,15.46279980468406,1.159549060723947,15.182675703255985,1.1705267529046268,-0.6366961866666667,-0.27027696,-0.9309763999999999,1.8379495466666667,1.1598054692833952,0.7301497354915027,0.7340993711659723,0.7313999732301202
LBP07_S06,LBP07,-1558,93,6,92,-1558,1716329610.68,2024-05-21 22:13:30.680000+00:00,2024-05-22 07:13:30.680000+09:00,2024,5,21,22,13,30,680,,,,,,,,,-0.080566,0.158203,0.128174,-56.213379,-55.236816,54.260254,,,,,,,,,,,0.0,1.0,1.0,6.0,0.0,0.0,0.0,5.0,0.0,0.06789388,0.15046228,0.9697819599999998,3.2967122666666664,0.3474935066666664,-0.2856445466666666,4.92700947239621,6.035310821357467,-0.9872941896528393,-1.7631298220242333,11.984690771547132,-9.906161298280548,15.648433510306058,1.143362312199134,15.445114772182574,1.1729531537415492,-0.14845988,0.0077407200000000065,-0.8416079599999998,0.9978085599999998,0.8546368895917693,0.7441087323444592,0.7441512741963865,0.733600632450864
LBP07_S06,LBP07,-1557,94,6,93,-1557,1716329610.72,2024-05-21 22:13:30.720000+00:00,2024-05-22 07:13:30.720000+09:00,2024,5,21,22,13,30,720,,,,,,,,,0.5354,-0.124512,0.733643,-38.879395,-107.910156,56.213379,,,,,,,,,,,0.0,1.0,1.0,6.0,0.0,0.0,0.0,5.0,0.0,0.06254232,0.15006513333333332,0.97413092,3.5017903866666664,-0.46223956000000027,-0.2351888133333333,2.8349064470760754,5.484188943192284,-0.4574385600528018,-1.6497335641411903,12.204058329274824,-9.924458840682659,15.816306263391601,1.172473477259595,15.68413522812946,1.1803058617520772,0.47285768,-0.27457713333333333,-0.24048791999999997,0.9879227333333332,0.5973453166724084,0.736864991005156,0.7351376348613026,0.7312101883143999
LBP07_S06,LBP07,-1556,95,6,94,-1556,1716329610.76,2024-05-21 22:13:30.760000+00:00,2024-05-22 07:13:30.760000+09:00,2024,5,21,22,13,30,760,,,,,,,,,0.490234,0.212891,1.378906,85.571289,76.35498,-37.353516,,,,,,,,,,,0.0,1.0,1.0,6.0,0.0,0.0,0.0,5.0,0.0,0.07224284,0.15626956,0.9951986266666666,3.6629231999999994,-1.1376952933333337,-0.6762695466666666,0.7222554623198904,5.519402247241621,-0.2520183353821642,-1.6208433456483946,12.424834419164489,-9.934539574097945,15.990582229678362,1.1341148905416556,15.900740256406749,1.1798337179945606,0.41799116000000003,0.056621439999999995,0.3837073733333334,0.8583199733333334,0.5702227158367029,0.7356476861057339,0.7346861870111324,0.7284345422371982
LBP07_S06,LBP07,-1555,96,6,95,-1555,1716329610.8,2024-05-21 22:13:30.800000+00:00,2024-05-22 07:13:30.800000+09:00,2024,5,21,22,13,30,800,,,,,,,,,-0.291016,0.334717,1.768066,49.194336,43.579102,-59.570312,,,,,,,,,,,0.0,1.0,1.0,6.0,0.0,0.0,0.0,5.0,0.0,0.06471679999999999,0.15208336,0.9950684266666667,3.09977216,1.0196940266666665,-0.9179687733333333,-1.3640357636245684,5.835027857824753,-0.16697171496232077,-1.6754047761933772,12.658235533477479,-9.941218442696439,16.18226597576777,1.1650621717117657,16.095564079089964,1.1759638444648173,-0.35573279999999996,0.18263363999999999,0.7729975733333332,1.311364013333333,0.8703023151955368,0.731349428729467,0.7350078924940443,0.7308390807619158
LBP07_S06,LBP07,-1554,97,6,96,-1554,1716329610.84,2024-05-21 22:13:30.840000+00:00,2024-05-22 07:13:30.840000+09:00,2024,5,21,22,13,30,840,,,,,,,,,-0.022461,0.297363,1.847656,15.930176,-36.254883,-27.22168,,,,,,,,,,,0.0,1.0,1.0,6.0,0.0,0.0,0.0,5.0,0.0,0.06006837333333332,0.15527672,0.9905371733333334,3.437500013333333,1.9189453199999995,-1.0888672133333333,-3.2643771968826623,6.031636064622323,-0.01863991536450446,-1.8059798640686837,12.899500976062372,-9.941964039311019,16.386010425353973,1.198199617363716,16.269054054044616,1.1702340571800718,-0.08252937333333332,0.14208627999999998,0.8571188266666666,1.08173448,0.8727269283421214,0.7315364561476287,0.7405399393269729,0.7332038782215858
LBP07_S06,LBP07,-1553,98,6,97,-1553,1716329610.88,2024-05-21 22:13:30.880000+00:00,2024-05-22 07:13:30.880000+09:00,2024,5,21,22,13,30,880,,,,,,,,,0.108398,0.244629,1.0979,-11.169434,89.660645,-19.592285,,,,,,,,,,,0.0,1.0,1.0,6.0,0.0,0.0,0.0,5.0,0.0,0.05663738666666666,0.15453778666666665,0.9848047466666666,2.0450846400000002,0.36946615999999965,-0.08056642666666657,-4.655598137657731,5.800665974469971,0.23107514970552995,-1.992203789574993,13.13152761504117,-9.932721033322798,16.585078853282518,1.2160924513240559,16.420589560358813,1.1691118889985084,0.05176061333333334,0.09009121333333336,0.11309525333333348,0.2549470800000002,0.15357774623637993,0.7163718595715599,0.7264139821739568,0.7237018104841234
LBP07_S06,LBP07,-1552,99,6,98,-1552,1716329610.92,2024-05-21 22:13:30.920000+00:00,2024-05-22 07:13:30.920000+09:00,2024,5,21,22,13,30,920,,,,,,,,,-0.363037,0.022949,-0.040771,-33.203125,12.939453,52.124023,,,,,,,,,,,0.0,1.0,1.0,6.0,0.0,0.0,0.0,5.0,0.0,0.06373699999999999,0.15233075999999998,0.9843783199999999,1.6324869866666665,0.08138022666666633,0.28645832000000016,-5.169874724164827,5.034142983970923,0.4805825544562508,-2.198998778541586,13.332893334400007,-9.913497731144547,16.759447412129184,1.1710388508926262,16.54713038487654,1.1739006523592486,-0.426774,-0.12938175999999998,-1.02514932,1.58130508,1.1179475905395386,0.7301860396479065,0.7342872280006741,0.7300606133882431
LBP07_S06,LBP07,-1551,100,6,99,-1551,1716329610.96,2024-05-21 22:13:30.960000+00:00,2024-05-22 07:13:30.960000+09:00,2024,5,21,22,13,30,960,,,,,,,,,0.029541,0.112793,0.2229,-119.628906,-57.739258,61.828613,,,,,,,,,,,0.0,1.0,1.0,6.0,0.0,0.0,0.0,5.0,0.0,0.06376303999999999,0.14874677333333333,0.9837891200000002,2.09228516,1.4127604399999996,-0.05615235999999991,-4.604956492401498,3.8081349416106582,0.6087070201782117,-2.383197038237646,13.485218732064434,-9.889149450337419,16.89159640844509,1.1624784362962188,16.642638906820785,1.1788071543196987,-0.034222039999999995,-0.03595377333333333,-0.7608891200000002,0.8310649333333335,0.7625064424469088,0.7335665747078522,0.7290352231754924,0.7305756265479044
LBP07_S06,LBP07,-1550,101,6,100,-1550,1716329611.0,2024-05-21 22:13:31+00:00,2024-05-22 07:13:31+09:00,2024,5,21,22,13,31,0,22.0,13.0,30.0,40.553074,141.583893,10.243,3.0,7.0,0.716309,-0.364014,0.873047,-6.164551,-82.702637,26.062012,-262.0,13.0,402.0,1126.0,0.0,1022.400024,18.33,0.093152,-75.858627,3.76875,0.0,1.0,1.0,6.0,0.0,0.0,0.0,6.0,0.0,0.05994468,0.14681968,0.9868750533333333,1.9938151066666663,1.0131836266666665,0.12369789333333339,-3.0700518990401653,2.273501629346175,0.5994954865182271,-2.5059991141992524,13.57615879723828,-9.86516963087669,16.968019657407563,1.179969303488004,16.699155287025526,1.1898847205100878,0.65636432,-0.51083368,-0.11382805333333323,1.281026053333333,0.8394772152459297,0.733529099648308,0.7289081746809078,0.7322772138713111
LBP07_S06,LBP07,-1549,102,6,101,-1549,1716329611.04,2024-05-21 22:13:31.040000+00:00,2024-05-22 07:13:31.040000+09:00,2024,5,21,22,13,31,40,,,,,,,,,0.096436,0.225342,1.381836,93.688965,89.233398,-54.504395,,,,,,,,,,,0.0,1.0,1.0,6.0,0.0,0.0,0.0,6.0,0.0,0.06539389333333333,0.146709,1.0017057733333332,2.2200520933333334,0.16438805333333298,-0.15299481333333328,-0.9504329707759157,0.546808217566481,0.5610685585328035,-2.544016433030289,13.59803112594094,-9.842726888535378,16.97815486782601,1.1483273789083142,16.709278739496362,1.19341030854604,0.031042106666666666,0.07863299999999998,0.38013022666666685,0.4898053333333335,0.38941719312448986,0.7273398143614013,0.7260727150197694,0.7270024443213601
LBP07_S06,LBP07,-1548,103,6,102,-1548,1716329611.08,2024-05-21 22:13:31.080000+00:00,2024-05-22 07:13:31.080000+09:00,2024,5,21,22,13,31,80,,,,,,,,,-0.383545,0.315674,1.763184,46.020508,3.173828,-48.706055,,,,,,,,,,,0.0,1.0,1.0,6.0,0.0,0.0,0.0,6.0,0.0,0.057112653333333326,0.14442710666666667,1.0013021333333334,2.7408854266666665,1.837565133333333,-0.7047526266666665,1.2934695087630408,-1.3184511102945364,0.6200738721036876,-2.492277652679767,13.54529308152916,-9.81792393365123,16.913841755483297,1.1912499458065362,16.668774670324012,1.1932039032491637,-0.44065765333333334,0.17124689333333334,0.7618818666666667,1.3737864133333333,0.8966429861840457,0.7172911021397526,0.7281577848554567,0.7295727555617036
LBP07_S06,LBP07,-1547,104,6,103,-1547,1716329611.12,2024-05-21 22:13:31.120000+00:00,2024-05-22 07:13:31.120000+09:00,2024,5,21,22,13,31,120,,,,,,,,,0.037109,0.381836,1.762695,30.883789,-49.621582,-25.878906,,,,,,,,,,,0.0,1.0,1.0,6.0,0.0,0.0,0.0,6.0,0.0,0.053932306666666666,0.14952476,0.9977474399999999,2.0841471466666666,2.7457682666666665,-0.8455403866666664,3.349449139804889,-3.2776853602541567,0.7829984797267264,-2.3582996870875714,13.414185667118993,-9.78660399446216,16.771391482834115,1.221538496864097,16.577893570954583,1.1935697569578803,-0.016823306666666663,0.23231124,0.76494756,1.0140821066666668,0.7996226018738414,0.7186302185747148,0.7314078710804668,0.7306182756559148
LBP07_S06,LBP07,-1546,105,6,104,-1546,1716329611.16,2024-05-21 22:13:31.160000+00:00,2024-05-22 07:13:31.160000+09:00,2024,5,21,22,13,31,160,,,,,,,,,-0.005615,0.241943,0.708252,-35.15625,112.243652,-3.417969,,,,,,,,,,,0.0,1.0,1.0,6.0,0.0,0.0,0.0,6.0,0.0,0.048085946666666664,0.14358726666666666,0.9963086400000001,0.721842453333333,2.2062174933333334,0.07649737333333348,5.142308446517023,-5.225458774411015,0.8893776037053647,-2.1526073492268907,13.205167316142552,-9.751028890313945,16.555746031725732,1.244890552445545,16.44085454163267,1.1943098461597612,-0.053700946666666666,0.09835573333333333,-0.2880566400000001,0.4401133200000001,0.3090861850690251,0.7064150296158397,0.7218918085357293,0.7244192743237546
LBP07_S06,LBP07,-1545,106,6,105,-1545,1716329611.2,2024-05-21 22:13:31.200000+00:00,2024-05-22 07:13:31.200000+09:00,2024,5,21,22,13,31,200,,,,,,,,,-0.096924,0.044922,-0.012939,-32.409668,-51.269531,70.617676,,,,,,,,,,,0.0,1.0,1.0,6.0,0.0,0.0,0.0,6.0,0.0,0.05598958666666666,0.14545250666666665,0.9945768666666667,1.928710933333333,2.158203173333333,0.2490234133333334,6.742670170335987,-6.98276649604782,0.7102683709970323,-1.8829005424134513,12.925856656300638,-9.722618155474064,16.283500500476126,1.2003180520712846,16.264160357967885,1.1992257910260204,-0.15291358666666666,-0.10053050666666666,-1.0075158666666666,1.2609599599999999,1.024000570968105,0.7254278533414045,0.7319044500262685,0.7287610322461365
LBP07_S06,LBP07,-1544,107,6,106,-1544,1716329611.24,2024-05-21 22:13:31.240000+00:00,2024-05-22 07:13:31.240000+09:00,2024,5,21,22,13,31,240,,,,,,,,,0.082764,0.020996,0.301758,-62.927246,-69.702148,53.710938,,,,,,,,,,,0.0,1.0,1.0,6.0,0.0,0.0,0.0,6.0,0.0,0.05680013333333333,0.14575523999999998,0.9920605866666666,2.3282877466666663,3.6319987466666666,0.12044269333333336,8.190679848165836,-8.363029832059963,0.12668884455833804,-1.5552733484868178,12.59133546301824,-9.71755060169173,15.98096973363048,1.1961355643949563,16.05509839924961,1.2061247746489776,0.025963866666666675,-0.12475923999999998,-0.6903025866666666,0.8410256933333332,0.7019662751844655,0.7248795922893533,0.7211509510884937,0.7283782500023983
LBP07_S06,LBP07,-1543,108,6,107,-1543,1716329611.28,2024-05-21 22:13:31.280000+00:00,2024-05-22 07:13:31.280000+09:00,2024,5,21,22,13,31,280,,,,,,,,,0.730225,-0.208984,0.891602,30.151367,-54.6875,3.234863,,,,,,,,,,,0.0,1.0,1.0,6.0,0.0,0.0,0.0,6.0,0.0,0.05291015999999999,0.14581384,0.99585616,2.5040689999999994,2.6684570799999996,0.10253904000000005,9.386901923960183,-9.271429353994705,-0.7482303985703928,-1.1797972715284104,12.220478288858452,-9.747479817634545,15.676267859588247,1.21975098841122,15.821455667161718,1.219188990539266,0.67731484,-0.35479784000000003,-0.10425415999999998,1.13636684,0.7716902420208492,0.7212584723035804,0.7185258819155708,0.7289882780589962
LBP07_S06,LBP07,-1542,109,6,108,-1542,1716329611.32,2024-05-21 22:13:31.320000+00:00,2024-05-22 07:13:31.320000+09:00,2024,5,21,22,13,31,320,,,,,,,,,0.074463,0.256836,1.373291,58.532715,78.24707,-50.598145,,,,,,,,,,,0.0,1.0,1.0,6.0,0.0,0.0,0.0,6.0,0.0,0.061041666666666654,0.14882165333333333,1.0138802533333333,2.6367187333333324,1.2711589066666664,-0.22460939999999993,10.141480474364736,-9.756213778343053,-1.6055004152552887,-0.774138052553821,11.83022973772473,-9.811699834244756,15.389057118910078,1.1784397429114364,15.572378474934883,1.2202321560423022,0.013421333333333348,0.10801434666666668,0.3594107466666667,0.48084642666666677,0.3755307125838873,0.722202717611522,0.7139925153439536,0.7240791452051752
LBP07_S06,LBP07,-1541,110,6,109,-1541,1716329611.36,2024-05-21 22:13:31.360000+00:00,2024-05-22 07:13:31.360000+09:00,2024,5,21,22,13,31,360,,,,,,,,,-0.2854,0.211914,1.732422,57.067871,-43.518066,-43.579102,,,,,,,,,,,0.0,1.0,1.0,6.0,0.0,0.0,0.0,6.0,0.0,0.05441731999999999,0.14623050666666668,1.01414392,2.7734374933333332,2.96549484,-0.7584635599999998,10.34531050132331,-9.963316027892885,-2.121179551751365,-0.36032563250088856,11.431697096609016,-9.89654701631481,15.124654571797194,1.2116378849588092,15.319281554221245,1.2169052436980952,-0.33981732,0.06568349333333331,0.7182780799999999,1.1237788933333333,0.7973164569209259,0.7068935013475817,0.7170909971531718,0.7250823960505965
LBP07_S06,LBP07,-1540,111,6,110,-1540,1716329611.4,2024-05-21 22:13:31.400000+00:00,2024-05-22 07:13:31.400000+09:00,2024,5,21,22,13,31,400,,,,,,,,,0.16626,0.517334,1.752686,21.179199,-9.460449,-38.208008,,,,,,,,,,,0.0,1.0,1.0,6.0,0.0,0.0,0.0,6.0,0.0,0.050130213333333326,0.15185876,1.00712244,2.8938802000000003,3.37158208,-0.8650716266666666,10.130044674993623,-10.02489677224559,-2.159271655207174,0.0448761544988564,11.030701225719191,-9.982917882523099,14.877400070224802,1.2489591397175772,15.075569484786959,1.2136426716474706,0.11612978666666667,0.36547524,0.7455635599999999,1.2271685866666666,0.8384052125339969,0.7111667606842857,0.7272382562362373,0.7266137854625344
LBP07_S06,LBP07,-1539,112,6,111,-1539,1716329611.44,2024-05-21 22:13:31.440000+00:00,2024-05-22 07:13:31.440000+09:00,2024,5,21,22,13,31,440,,,,,,,,,-0.216553,0.178955,0.369385,-1.708984,99.54834,0.549316,,,,,,,,,,,0.0,1.0,1.0,6.0,0.0,0.0,0.0,6.0,0.0,0.044401039999999996,0.14930341333333333,0.9974967866666666,0.5582682266666664,1.3940430266666661,0.3759765466666669,9.887060532555452,-9.96641665909812,-1.8553458601133574,0.4403585758010745,10.632044559355267,-10.057131716927634,14.64172754694709,1.2789695378111974,14.854788078194384,1.2106350552536327,-0.26095404,0.029651586666666674,-0.6281117866666666,0.9187174133333332,0.680808816139865,0.7149668612622148,0.7247872841105264,0.7260030525382322
LBP07_S06,LBP07,-1538,113,6,112,-1538,1716329611.48,2024-05-21 22:13:31.480000+00:00,2024-05-22 07:13:31.480000+09:00,2024,5,21,22,13,31,480,,,,,,,,,0.123779,0.460938,0.04834,16.662598,-60.302734,47.363281,,,,,,,,,,,0.0,1.0,1.0,6.0,0.0,0.0,0.0,6.0,0.0,0.05579751999999999,0.14555341333333333,0.9913444533333334,0.8919270799999997,0.5688477199999995,0.9163411200000001,10.110799532753923,-9.705036374511156,-1.5229755819352093,0.8447905571112314,10.24384310437482,-10.118050740205042,14.423069833214969,1.2016816008368967,14.668014892754098,1.2130163322737673,0.06798148000000001,0.3153845866666667,-0.9430044533333334,1.3263705200000002,0.9966676066454621,0.7366755147567028,0.7302998352041433,0.7299840038179262
LBP07_S06,LBP07,-1537,114,6,113,-1537,1716329611.52,2024-05-21 22:13:31.520000+00:00,2024-05-22 07:13:31.520000+09:00,2024,5,21,22,13,31,520,,,,,,,,,0.234619,-0.128174,0.436279,-122.375488,-99.365234,73.120117,,,,,,,,,,,0.0,1.0,1.0,6.0,0.0,0.0,0.0,6.0,0.0,0.05851236,0.1467676,0.9876758266666666,0.8813476533333331,2.2387695866666664,0.5786132533333334,11.148362601440143,-9.148385357714982,-1.448263571376834,1.2907250611688372,9.877907690066221,-10.175981283060116,14.240422275697744,1.188269373422029,14.521949628364448,1.217274899804554,0.17610663999999998,-0.2749416,-0.5513968266666667,1.0024450666666667,0.6408158023338061,0.7378026327226869,0.7299000708541519,0.7291614057345185
LBP07_S06,LBP07,-1536,115,6,114,-1536,1716329611.56,2024-05-21 22:13:31.560000+00:00,2024-05-22 07:13:31.560000+09:00,2024,5,21,22,13,31,560,,,,,,,,,0.793213,-0.25708,1.12085,56.762695,-26.306152,-10.620117,,,,,,,,,,,0.0,1.0,1.0,6.0,0.0,0.0,0.0,6.0,0.0,0.05417641333333333,0.14591473333333332,0.9916536933333333,0.7316080799999999,1.6381836399999996,0.44270830666666683,13.000509782806278,-8.323862069616865,-1.7140298868793817,1.8107454524810884,9.544953207281546,-10.24454247853529,14.118625337382857,1.2122648319392997,14.41877654707768,1.2257556578363022,0.7390365866666666,-0.4029947333333333,0.1291963066666666,1.2712276266666664,0.8516287437508373,0.7352865613663075,0.72824305577169,0.735502939495664
LBP07_S06,LBP07,-1535,116,6,115,-1535,1716329611.6,2024-05-21 22:13:31.600000+00:00,2024-05-22 07:13:31.600000+09:00,2024,5,21,22,13,31,600,,,,,,,,,0.005371,0.383545,1.415039,42.053223,57.983398,-38.208008,,,,,,,,,,,0.0,1.0,1.0,6.0,0.0,0.0,0.0,6.0,0.0,0.06330076,0.15084962666666668,1.01066736,1.6398111999999998,1.0058594266666663,-0.2547200799999999,15.291414197032434,-7.431255811735147,-2.170325872729962,2.422402020362386,9.24770297481214,-10.331355513444489,14.075686434550356,1.1702418881329053,14.357621784222056,1.2240938246901696,-0.05792976,0.23269537333333334,0.4043716399999999,0.6949967733333333,0.4701270223042774,0.7336910022811428,0.724931962175809,0.73043172749046
LBP07_S06,LBP07,-1534,117,6,116,-1534,1716329611.64,2024-05-21 22:13:31.640000+00:00,2024-05-22 07:13:31.640000+09:00,2024,5,21,22,13,31,640,,,,,,,,,-0.294922,0.289551,1.71167,44.250488,-18.432617,-41.870117,,,,,,,,,,,0.0,1.0,1.0,6.0,0.0,0.0,0.0,6.0,0.0,0.05414059999999999,0.14932618666666667,1.0088151466666666,1.991373693333333,2.9703776533333333,-0.7413737199999999,17.42120182111051,-6.7609203119961245,-2.559042083336351,3.1192500932068064,8.977266162332295,-10.433717196777943,14.113237879227674,1.2199483345963007,14.336209462748235,1.220123658037036,-0.3490626,0.14022481333333334,0.7028548533333334,1.1921422666666668,0.7971904677348757,0.719186402219202,0.7246680688553524,0.729128381517049
LBP07_S06,LBP07,-1533,118,6,117,-1533,1716329611.68,2024-05-21 22:13:31.680000+00:00,2024-05-22 07:13:31.680000+09:00,2024,5,21,22,13,31,680,,,,,,,,,0.163574,0.570312,1.689941,32.653809,-26.611328,-34.973145,,,,,,,,,,,0.0,1.0,1.0,6.0,0.0,0.0,0.0,6.0,0.0,0.048915999999999994,0.15516277333333334,1.0026074666666667,2.0296223999999996,3.7084961466666666,-0.8113606933333333,18.8068795384734,-6.521723266747723,-2.6900700391416295,3.8715252747457423,8.716397231662386,-10.541319998343608,14.21561521569171,1.262336663719089,14.35121243446105,1.214235427872877,0.11465800000000001,0.4151492266666667,0.6873335333333332,1.21714076,0.8111243575497014,0.7174459009375193,0.7307773166409892,0.7352494831100974
LBP07_S06,LBP07,-1532,119,6,118,-1532,1716329611.72,2024-05-21 22:13:31.720000+00:00,2024-05-22 07:13:31.720000+09:00,2024,5,21,22,13,31,720,,,,,,,,,-0.17749,0.246582,0.671631,22.094727,122.436523,-5.737305,,,,,,,,,,,0.0,1.0,1.0,6.0,0.0,0.0,0.0,6.0,0.0,0.04759113333333333,0.1513834666666667,0.9953385866666665,0.39550782666666656,1.4762370266666667,0.4663085733333334,19.080450494994935,-6.6899728969859416,-2.5376911545350604,4.634743294545539,8.448798315782948,-10.642827644525012,14.357326306042411,1.2632473232289176,14.39703339888074,1.2123049711481044,-0.22508113333333335,0.09519853333333331,-0.32370758666666655,0.6439872533333332,0.40559940704714176,0.7097760645525086,0.7233205277788324,0.7266837780917046
LBP07_S06,LBP07,-1531,120,6,119,-1531,1716329611.76,2024-05-21 22:13:31.760000+00:00,2024-05-22 07:13:31.760000+09:00,2024,5,21,22,13,31,760,,,,,,,,,-0.092041,0.272217,-0.01709,35.522461,-41.748047,42.84668,,,,,,,,,,,0.0,1.0,1.0,6.0,0.0,0.0,0.0,6.0,0.0,0.056845693333333336,0.14538737333333335,0.9920605866666666,0.40445963999999984,1.9685872933333333,1.0172525866666668,18.161325504040004,-6.980459439581062,-2.1943490692518237,5.36119631470714,8.169579938199705,-10.730601607295085,14.51310694324094,1.1950195534974817,14.46428939183593,1.2139034898351668,-0.14888669333333332,0.12682962666666664,-1.0091505866666666,1.2848669066666665,1.0279289412317456,0.7280843135683104,0.7318659998370223,0.7324855625301918
LBP07_S06,LBP07,-1530,121,6,120,-1530,1716329611.8,2024-05-21 22:13:31.800000+00:00,2024-05-22 07:13:31.800000+09:00,2024,5,21,22,13,31,800,,,,,,,,,0.175537,0.050537,0.364258,-53.649902,-94.665527,58.227539,,,,,,,,,,,0.0,1.0,1.0,6.0,0.0,0.0,0.0,6.0,0.0,0.055250640000000004,0.14749024000000002,0.9886784266666668,1.1767578133333332,3.448079493333333,0.5590820133333333,16.204551761029194,-6.970959931962255,-1.729470756203647,6.009378385148308,7.890741540921215,-10.799780437543232,14.663276855486597,1.2092574731862438,14.53972080229048,1.2176384333745107,0.12028636,-0.09695324000000002,-0.6244204266666669,0.841660026666667,0.6432492583650055,0.7190021912950891,0.7251758100122782,0.7296726587610592
LBP07_S06,LBP07,-1529,122,6,121,-1529,1716329611.84,2024-05-21 22:13:31.840000+00:00,2024-05-22 07:13:31.840000+09:00,2024,5,21,22,13,31,840,,,,,,,,,0.802979,-0.190918,0.985107,-31.188965,-49.316406,23.803711,,,,,,,,,,,0.0,1.0,1.0,6.0,0.0,0.0,0.0,6.0,0.0,0.05416665333333333,0.14950521333333333,0.9948893733333334,1.6259765733333331,1.8595378266666667,0.43131507999999996,13.492278337418975,-6.316160938662458,-1.0742932780334289,6.549069518645067,7.638095103374717,-10.84275216866457,14.791757264075251,1.2200872361696078,14.608246052429745,1.2230713644011302,0.7488123466666666,-0.34042321333333336,-0.009782373333333427,1.0990179333333336,0.8226199544897176,0.716997912340993,0.7242671842443109,0.732692596998313
LBP07_S06,LBP07,-1528,123,6,122,-1528,1716329611.88,2024-05-21 22:13:31.880000+00:00,2024-05-22 07:13:31.880000+09:00,2024,5,21,22,13,31,880,,,,,,,,,-0.037109,0.224365,1.416748,85.388184,67.382812,-59.082031,,,,,,,,,,,0.0,1.0,1.0,6.0,0.0,0.0,0.0,6.0,0.0,0.06281899999999999,0.15500652,1.0116406666666669,2.049967453333333,2.0320638666666664,-0.13834637333333327,10.349654154711555,-4.922392671680987,-0.03644051797573483,6.963055684833529,7.441199396507477,-10.8442097893836,14.88127947741184,1.1823770335891717,14.656311747075895,1.2195279743210943,-0.09992799999999999,0.06935848,0.40510733333333304,0.5743938133333331,0.42297536033716504,0.7277738169050244,0.722072838238292,0.7268672604176459
LBP07_S06,LBP07,-1527,124,6,123,-1527,1716329611.92,2024-05-21 22:13:31.920000+00:00,2024-05-22 07:13:31.920000+09:00,2024,5,21,22,13,31,920,,,,,,,,,-0.225098,0.326416,1.733887,38.269043,-33.203125,-34.484863,,,,,,,,,,,0.0,1.0,1.0,6.0,0.0,0.0,0.0,6.0,0.0,0.0579134,0.15232097333333333,1.0079655333333333,2.286783853333333,3.2373047466666667,-0.10660809333333333,7.118790713805006,-2.98025087812013,1.5514476991878445,7.24780731338573,7.321989361382672,-10.782151881416086,14.912982205249664,1.2042545602926518,14.674740469898358,1.2128737934553944,-0.28301139999999997,0.17409502666666665,0.7259214666666667,1.1830278933333334,0.7983523699517099,0.7149900080815113,0.722588023864709,0.7278548213609533
LBP07_S06,LBP07,-1526,125,6,124,-1526,1716329611.96,2024-05-21 22:13:31.960000+00:00,2024-05-22 07:13:31.960000+09:00,2024,5,21,22,13,31,960,,,,,,,,,0.134277,0.488525,1.763184,10.803223,-10.314941,-34.790039,,,,,,,,,,,0.0,1.0,1.0,6.0,0.0,0.0,0.0,6.0,0.0,0.051380199999999994,0.15609701333333334,1.00013024,1.5266927066666665,3.7027995333333337,0.11555986666666665,4.151879523779204,-0.8518542288930285,3.6532444852743904,7.413882494336898,7.287915192226951,-10.63602210200511,14.872939441928374,1.2496142673327377,14.659617374191095,1.207640418264822,0.08289680000000002,0.3324279866666666,0.76305376,1.1783785466666665,0.8364396490002319,0.7179473363436442,0.7257569555257481,0.7253392608982097
LBP07_S06,LBP07,-1525,126,6,125,-1525,1716329612.0,2024-05-21 22:13:32+00:00,2024-05-22 07:13:32+09:00,2024,5,21,22,13,32,0,22.0,13.0,31.0,40.553017,141.583801,10.76,3.0,6.0,-0.388184,0.197266,0.328369,-2.929688,119.445801,0.610352,-260.0,9.0,404.0,1136.0,0.0,1022.299988,18.4,0.092161,-75.032249,3.76875,0.0,1.0,1.0,6.0,0.0,0.0,0.0,4.0,0.0,0.053984373333333335,0.15113933333333332,0.9940071866666667,0.19042968000000002,1.4078776533333335,1.4029947733333334,1.7582521858382618,1.1029536897032473,5.956847820926231,7.484212581770429,7.332033339815081,-10.39774818916806,14.760938935943011,1.2245711983990994,14.611175915242086,1.2056069452830092,-0.4421683733333333,0.04612666666666668,-0.6656381866666666,1.1539332266666666,0.8004465849155157,0.7163861111304276,0.7249576053893678,0.7247341534974144
LBP07_S06,LBP07,-1524,127,6,126,-1524,1716329612.04,2024-05-21 22:13:32.040000+00:00,2024-05-22 07:13:32.040000+09:00,2024,5,21,22,13,32,40,,,,,,,,,0.070068,0.190674,0.12085,-45.288086,-40.83252,63.903809,,,,,,,,,,,0.0,1.0,1.0,6.0,0.0,0.0,0.0,4.0,0.0,0.06019205333333333,0.14939128,0.9914095333333334,0.67138672,1.8009440533333334,1.6471354,0.09275885136203739,2.6581611577710116,7.972004951021952,7.48792293582491,7.438359786125922,-10.078867991127183,14.593894825689135,1.1845144337959421,14.532097770522558,1.2035476438882562,0.009875946666666677,0.04128272000000002,-0.8705595333333334,0.9217182,0.8715937691210925,0.7356731741702918,0.7315064942658465,0.7292728680699434
LBP07_S06,LBP07,-1523,128,6,127,-1523,1716329612.08,2024-05-21 22:13:32.080000+00:00,2024-05-22 07:13:32.080000+09:00,2024,5,21,22,13,32,80,,,,,,,,,0.248291,-0.153076,0.54126,-100.769043,-76.11084,83.129883,,,,,,,,,,,0.0,1.0,1.0,6.0,0.0,0.0,0.0,4.0,0.0,0.05773112,0.14804361333333335,0.9898991066666667,1.2727864666666666,2.8995768666666666,1.1197916533333334,-0.9446507020422157,3.751974216821777,9.242107800220975,7.450136907743222,7.588438754798793,-9.709183679118343,14.399902443916348,1.1957948550620894,14.426915592314483,1.2049905920478206,0.19055988000000001,-0.30111961333333337,-0.44863910666666673,0.9403186000000001,0.572942525416202,0.7227251557395779,0.7200081289396653,0.7263469084834971
LBP07_S06,LBP07,-1522,129,6,128,-1522,1716329612.12,2024-05-21 22:13:32.120000+00:00,2024-05-22 07:13:32.120000+09:00,2024,5,21,22,13,32,120,,,,,,,,,0.728027,-0.096436,1.27417,67.260742,11.413574,1.403809,,,,,,,,,,,0.0,1.0,1.0,6.0,0.0,0.0,0.0,4.0,0.0,0.05686198666666667,0.15263996000000002,0.9948144666666667,1.7830403733333333,1.4591471733333334,1.0579426933333336,-1.6976436346873225,4.432943761212624,9.53327710734634,7.382231162355729,7.765756505247298,-9.32785259482449,14.206095348969777,1.2109135713231938,14.303017394590977,1.2083662106367528,0.6711650133333333,-0.24907596,0.2793555333333333,1.1995965066666665,0.768466539919993,0.7214789132614241,0.7200545659180694,0.7280982184741192
LBP07_S06,LBP07,-1521,130,6,129,-1521,1716329612.16,2024-05-21 22:13:32.160000+00:00,2024-05-22 07:13:32.160000+09:00,2024,5,21,22,13,32,160,,,,,,,,,-0.083008,0.257324,1.61377,52.185059,65.734863,-42.663574,,,,,,,,,,,0.0,1.0,1.0,6.0,0.0,0.0,0.0,4.0,0.0,0.06511394666666666,0.15724607999999998,1.0090950666666667,2.081705746666667,1.558431026666667,0.4109700266666668,-2.5915497738230733,4.7933002840056025,8.884845478508028,7.278569171402806,7.957488516607522,-8.972458775684169,14.028692353750857,1.1746848236793554,14.172125280223351,1.2060675637335658,-0.14812194666666667,0.10007792000000001,0.6046749333333332,0.8528747999999999,0.6305453799351164,0.7343372810560677,0.7203761553359537,0.7260402993758421
LBP07_S06,LBP07,-1520,131,6,130,-1520,1716329612.2,2024-05-21 22:13:32.200000+00:00,2024-05-22 07:13:32.200000+09:00,2024,5,21,22,13,32,200,,,,,,,,,-0.236328,0.274902,1.790283,35.15625,-57.861328,-23.620605,,,,,,,,,,,0.0,1.0,1.0,6.0,0.0,0.0,0.0,4.0,0.0,0.06183594666666667,0.15539386666666669,1.0065722799999999,2.5610351733333334,2.2932943066666667,0.24902341333333344,-3.8971839365038226,4.947671202355058,7.512226030019317,7.122681813942653,8.155395364701723,-8.671969734483396,13.872495408291321,1.188664459238712,14.050471752861005,1.2003608048764107,-0.2981639466666667,0.1195081333333333,0.7837107200000002,1.2013828000000002,0.846986673842971,0.7272567251710622,0.7263422892562333,0.7303552084078664
LBP07_S06,LBP07,-1519,132,6,131,-1519,1716329612.24,2024-05-21 22:13:32.240000+00:00,2024-05-22 07:13:32.240000+09:00,2024,5,21,22,13,32,240,,,,,,,,,0.13208,0.426758,1.505371,11.413574,24.597168,-24.902344,,,,,,,,,,,0.0,1.0,1.0,6.0,0.0,0.0,0.0,4.0,0.0,0.054414080000000004,0.15734700000000001,1.0004557333333333,2.1777344000000003,2.8255208666666674,0.3157551866666668,-5.569629327693034,5.0548435702031105,5.65954182362606,6.899896640834932,8.357589107509847,-8.445588061538354,13.739935481994506,1.2345167177652523,13.956759045246354,1.1989171447858575,0.07766592,0.269411,0.5049152666666668,0.8519921866666668,0.5775410882037032,0.7222797176918319,0.7235796549905926,0.7215272066229397
LBP07_S06,LBP07,-1518,133,6,132,-1518,1716329612.28,2024-05-21 22:13:32.280000+00:00,2024-05-22 07:13:32.280000+09:00,2024,5,21,22,13,32,280,,,,,,,,,-0.516846,-0.062256,0.061768,-63.720703,106.018066,23.498535,,,,,,,,,,,0.0,1.0,1.0,6.0,0.0,0.0,0.0,4.0,0.0,0.05574221333333334,0.15204099999999998,0.9921614666666666,0.7804362266666669,0.6583659200000005,1.249186186666667,-7.270071404461086,5.335792500304971,3.5196116718214396,6.609093784656489,8.571020807522046,-8.304803594665497,13.64229750017679,1.2161332194784948,13.908626586594846,1.1982742801454376,-0.5725882133333333,-0.214297,-0.9303934666666666,1.7172786799999997,1.113289032135535,0.7359436692964192,0.7286010707999998,0.7243318110425202
LBP07_S06,LBP07,-1517,134,6,133,-1517,1716329612.32,2024-05-21 22:13:32.320000+00:00,2024-05-22 07:13:32.320000+09:00,2024,5,21,22,13,32,320,,,,,,,,,0.056641,0.122803,0.213867,-48.64502,-46.020508,46.99707,,,,,,,,,,,0.0,1.0,1.0,6.0,0.0,0.0,0.0,4.0,0.0,0.062083360000000004,0.15273761333333333,0.9862597733333333,1.6601562800000003,1.1206054933333336,1.2915038933333334,-8.552150465085965,6.040711373528028,1.2643533276817898,6.26700776605305,8.812649262463168,-8.254229461558225,13.604061061573402,1.1812680912607798,13.919424568900197,1.200311516801931,-0.005442360000000007,-0.029934613333333332,-0.7723927733333332,0.8077697466666666,0.7729917830451651,0.7518421121148704,0.7370224148631961,0.7266090476009258
LBP07_S06,LBP07,-1516,135,6,134,-1516,1716329612.36,2024-05-21 22:13:32.360000+00:00,2024-05-22 07:13:32.360000+09:00,2024,5,21,22,13,32,360,,,,,,,,,0.390137,-0.117432,0.661621,-72.875977,-90.759277,57.312012,,,,,,,,,,,0.0,1.0,1.0,6.0,0.0,0.0,0.0,4.0,0.0,0.06016278666666666,0.15292968,0.9837304800000001,1.7692057600000002,2.4015299733333335,0.92529296,-9.08335735761872,7.3541952276942935,-0.8728467513555838,5.903673471748301,9.10681707157094,-8.289143331612449,13.656404168304908,1.1925466787611876,13.996737641453663,1.20786970917478,0.3299742133333333,-0.27036168,-0.32210948000000006,0.9224453733333334,0.534539929830546,0.7413310510312552,0.7241122761894185,0.725171015112533
LBP07_S06,LBP07,-1515,136,6,135,-1515,1716329612.4,2024-05-21 22:13:32.400000+00:00,2024-05-22 07:13:32.400000+09:00,2024,5,21,22,13,32,400,,,,,,,,,0.641602,0.004395,1.286133,56.091309,44.067383,-23.193359,,,,,,,,,,,0.0,1.0,1.0,6.0,0.0,0.0,0.0,4.0,0.0,0.05740562666666667,0.15375976,0.9939518400000001,2.21923832,0.6144205866666667,0.8984374933333333,-8.760058442719536,9.283698823731498,-2.5679577543031935,5.5532711340395196,9.4781650245202,-8.391861641784576,13.823811859796484,1.210134597493568,14.142654921807344,1.2145531652985806,0.5841963733333333,-0.14936475999999999,0.29218115999999983,1.025742293333333,0.670048553766533,0.7345967846805567,0.722881772682421,0.7296910990510103
LBP07_S06,LBP07,-1514,137,6,136,-1514,1716329612.44,2024-05-21 22:13:32.440000+00:00,2024-05-22 07:13:32.440000+09:00,2024,5,21,22,13,32,440,,,,,,,,,-0.299072,0.13623,1.618652,38.391113,79.589844,-62.5,,,,,,,,,,,0.0,1.0,1.0,6.0,0.0,0.0,0.0,4.0,0.0,0.06368817333333333,0.15524088000000003,1.0128092533333335,2.5276693066666667,1.3069661599999998,-0.05777994666666648,-7.666647980467323,11.605886006607308,-3.490890420078457,5.246605214820827,9.942400464784493,-8.531497258587715,14.11257023917407,1.1780857873917439,14.35447333078849,1.214299384836375,-0.3627601733333333,-0.019010880000000036,0.6058427466666665,0.9876137999999999,0.706400587912988,0.7356204555514816,0.7252936584068482,0.7283983412575114
LBP07_S06,LBP07,-1513,138,6,137,-1513,1716329612.48,2024-05-21 22:13:32.480000+00:00,2024-05-22 07:13:32.480000+09:00,2024,5,21,22,13,32,480,,,,,,,,,-0.262695,0.311523,1.863037,25.817871,-53.649902,-25.756836,,,,,,,,,,,0.0,1.0,1.0,6.0,0.0,0.0,0.0,4.0,0.0,0.05607098666666667,0.15291992000000001,1.0092057466666666,3.4497070666666674,3.00699872,-0.5362955733333331,-5.951740676213579,13.908760230613428,-3.463360378976179,5.0085355877722835,10.49875087400903,-8.670031673746761,14.507882266969872,1.2161672216270207,14.624423155208223,1.2120145536333247,-0.31876598666666667,0.15860307999999998,0.8538312533333334,1.3312003200000002,0.9250916173060001,0.732757415977903,0.734716465367303,0.7311190287953966
LBP07_S06,LBP07,-1512,139,6,138,-1512,1716329612.52,2024-05-21 22:13:32.520000+00:00,2024-05-22 07:13:32.520000+09:00,2024,5,21,22,13,32,520,,,,,,,,,0.174072,0.289551,1.510986,-3.295898,38.330078,-28.076172,,,,,,,,,,,0.0,1.0,1.0,6.0,0.0,0.0,0.0,4.0,0.0,0.04599937333333333,0.15922526666666667,1.00129884,2.4487305066666667,3.530273466666666,-0.06998698666666636,-3.749854785266513,15.70065910823812,-2.5757591871861107,4.858541396361623,11.126777238338555,-8.773062041234205,14.979226074504416,1.2864954950516865,14.938181271857237,1.2121612835463158,0.1280726266666667,0.13032573333333333,0.5096871599999999,0.76808552,0.5414502706057465,0.7287827947087807,0.7332927137157338,0.7295276454723615
LBP07_S06,LBP07,-1511,140,6,139,-1511,1716329612.56,2024-05-21 22:13:32.560000+00:00,2024-05-22 07:13:32.560000+09:00,2024,5,21,22,13,32,560,,,,,,,,,-0.559814,-0.040283,0.004883,-26.428223,76.599121,17.822266,,,,,,,,,,,0.0,1.0,1.0,6.0,0.0,0.0,0.0,4.0,0.0,0.051904320000000004,0.15348308,0.9941601733333333,0.4777018533333337,1.587727893333333,1.462402346666667,-1.223071461921148,16.528191670758943,-1.16556135224016,4.809618537884777,11.787904905168913,-8.819684495323811,15.487865157287672,1.2415193849173607,15.273467756349707,1.214700314137613,-0.61171832,-0.19376608,-0.9892771733333333,1.7947615733333335,1.179158141413008,0.7418839706152675,0.7385852659907874,0.7327900273862159
LBP07_S06,LBP07,-1510,141,6,140,-1510,1716329612.6,2024-05-21 22:13:32.600000+00:00,2024-05-22 07:13:32.600000+09:00,2024,5,21,22,13,32,600,,,,,,,,,-0.05127,0.201904,0.169189,-88.195801,-25.45166,48.278809,,,,,,,,,,,0.0,1.0,1.0,6.0,0.0,0.0,0.0,4.0,0.0,0.0608008,0.15165365333333333,0.9893880266666667,1.3997396133333337,2.604166693333333,1.4078776133333335,1.31981267773008,16.062822087638157,0.34513982900249157,4.86241104499398,12.43041778867444,-8.80587890216371,15.990679498102804,1.186126654616655,15.600703517051187,1.2189161627925884,-0.1120708,0.05025034666666667,-0.8201990266666667,0.9825201733333333,0.8293439605481597,0.7562526481450227,0.7449718252130828,0.7353721908322135
LBP07_S06,LBP07,-1509,142,6,141,-1509,1716329612.64,2024-05-21 22:13:32.640000+00:00,2024-05-22 07:13:32.640000+09:00,2024,5,21,22,13,32,640,,,,,,,,,0.418457,-0.397705,0.828369,-62.866211,-66.833496,77.087402,,,,,,,,,,,0.0,1.0,1.0,6.0,0.0,0.0,0.0,4.0,0.0,0.056214213333333325,0.15124024,0.9884147199999999,1.5356445600000002,3.267415386666666,1.118977866666667,3.3561146907152937,14.148877216943507,1.6539724378735783,4.996655632622591,12.99637287735218,-8.739720004648767,16.439433726191798,1.2116684057347498,15.886899542888823,1.2268972085100143,0.3622427866666667,-0.54894524,-0.16004571999999984,1.0712337466666666,0.676886508582501,0.7514404897789277,0.735313445999065,0.7335922091632109
LBP07_S06,LBP07,-1508,143,6,142,-1508,1716329612.68,2024-05-21 22:13:32.680000+00:00,2024-05-22 07:13:32.680000+09:00,2024,5,21,22,13,32,680,,,,,,,,,0.474365,0.310303,1.338135,123.168945,65.124512,-37.841797,,,,,,,,,,,0.0,1.0,1.0,6.0,0.0,0.0,0.0,4.0,0.0,0.05622722666666667,0.15406250666666668,1.0044791733333334,2.6163737333333335,0.8422851866666662,0.8854166666666671,4.248946010761154,10.833944248691617,2.691053836321298,5.1666134730530375,13.429730647299845,-8.632077851195914,16.77987866666696,1.217600518608406,16.102089408841984,1.2325384009139282,0.4181377733333333,0.1562404933333333,0.3336558266666667,0.9080340933333333,0.5572939080178593,0.7412872717976542,0.7293665863675867,0.7342806350265442
LBP07_S06,LBP07,-1507,144,6,143,-1507,1716329612.72,2024-05-21 22:13:32.720000+00:00,2024-05-22 07:13:32.720000+09:00,2024,5,21,22,13,32,720,,,,,,,,,-0.146729,0.331787,1.51416,39.245605,72.143555,-39.916992,,,,,,,,,,,0.0,1.0,1.0,6.0,0.0,0.0,0.0,4.0,0.0,0.05911785333333333,0.15667318666666666,1.0177766933333332,2.701822946666667,2.6342773733333327,-0.26529947999999964,3.5096986918057054,6.4038896241612635,3.5674207009564416,5.307001420725266,13.685886232266295,-8.489381023157657,16.95692590649807,1.2066583971737501,16.225976951480668,1.2313996679141521,-0.20584685333333333,0.17511381333333334,0.49638330666666675,0.8773439733333335,0.5651850686144411,0.7476706982603462,0.7287233814064272,0.7314372512726702
LBP07_S06,LBP07,-1506,145,6,144,-1506,1716329612.76,2024-05-21 22:13:32.760000+00:00,2024-05-22 07:13:32.760000+09:00,2024,5,21,22,13,32,760,,,,,,,,,-0.169189,0.391602,1.808838,45.654297,-65.368652,-22.094727,,,,,,,,,,,0.0,1.0,1.0,6.0,0.0,0.0,0.0,4.0,0.0,0.05432293333333334,0.15713217333333332,1.01333008,2.897135440000001,3.6458333599999992,-0.2945963599999995,1.0792818608343764,1.4081525335671106,4.403122219886796,5.350172695158641,13.742212333608979,-8.313256134362184,16.928761775319728,1.2347051653109433,16.25219412144847,1.2258839614587231,-0.22351193333333336,0.2344698266666667,0.7955079199999999,1.25348968,0.8589333703741097,0.7409108754260407,0.7344975944971754,0.734880958366695
LBP07_S06,LBP07,-1505,146,6,145,-1505,1716329612.8,2024-05-21 22:13:32.800000+00:00,2024-05-22 07:13:32.800000+09:00,2024,5,21,22,13,32,800,,,,,,,,,0.116699,0.298828,1.516602,-12.084961,14.465332,-23.31543,,,,,,,,,,,0.0,1.0,1.0,6.0,0.0,0.0,0.0,4.0,0.0,0.04553712,0.1596712266666667,1.0046614533333333,1.2809245066666668,3.5929362266666667,0.3743489600000004,-2.5596064371782004,-3.37366369500011,5.1647658613714595,5.247788437671512,13.607265785808975,-8.106665499907326,16.685772118172835,1.2899450546678264,16.188804124603383,1.2230225724792159,0.07116188,0.1391567733333333,0.5119405466666667,0.7222591999999999,0.5352679180102657,0.7365916218118511,0.7277969065534701,0.7289810806121357
LBP07_S06,LBP07,-1504,147,6,146,-1504,1716329612.84,2024-05-21 22:13:32.840000+00:00,2024-05-22 07:13:32.840000+09:00,2024,5,21,22,13,32,840,,,,,,,,,-0.416504,-0.014404,0.125732,-37.658691,77.331543,14.282227,,,,,,,,,,,0.0,1.0,1.0,6.0,0.0,0.0,0.0,4.0,0.0,0.053138026666666664,0.15358073333333333,0.9971647066666666,0.3100586133333334,1.53238936,1.3907877733333338,-6.531500209638893,-7.0606987176809515,5.6320919926041135,4.986528429285957,13.324837837101738,-7.881381820203162,16.264468898705672,1.234497711430883,16.05557360441951,1.2261445057671012,-0.46964202666666666,-0.16798473333333333,-0.8714327066666665,1.5090594666666663,1.0040804081810568,0.7438500399595046,0.7304239761502488,0.7307948028160421
LBP07_S06,LBP07,-1503,148,6,147,-1503,1716329612.88,2024-05-21 22:13:32.880000+00:00,2024-05-22 07:13:32.880000+09:00,2024,5,21,22,13,32,880,,,,,,,,,0.035645,0.293213,0.098145,-50.78125,-61.706543,46.75293,,,,,,,,,,,0.0,1.0,1.0,6.0,0.0,0.0,0.0,4.0,0.0,0.058577479999999994,0.15440105333333334,0.9917643199999999,0.4101562666666667,3.3951823199999995,1.1954752800000001,-9.910169573417583,-8.8851059865879,5.519282925537823,4.590121646349253,12.969433597638222,-7.6606105031816485,15.746757693356688,1.204779891629262,15.87984554646528,1.2298950131285054,-0.02293247999999999,0.13881194666666666,-0.8936193199999999,1.0553637466666665,0.904627074685255,0.7631161085334283,0.7454449627192264,0.7357539283366709
LBP07_S06,LBP07,-1502,149,6,148,-1502,1716329612.92,2024-05-21 22:13:32.920000+00:00,2024-05-22 07:13:32.920000+09:00,2024,5,21,22,13,32,920,,,,,,,,,0.302734,-0.271729,0.550781,-118.530273,-116.516113,81.359863,,,,,,,,,,,0.0,1.0,1.0,6.0,0.0,0.0,0.0,4.0,0.0,0.05241537333333333,0.14990886666666667,0.9917773333333334,0.97493492,3.6800130399999995,0.9187825733333337,-12.07209681848152,-8.431140030472495,4.668683795962567,4.1072377736099925,12.632187996419322,-7.473863151343146,15.241397774182461,1.231338430497394,15.692799840288302,1.2391471153006335,0.25031862666666665,-0.4216378666666667,-0.44099633333333343,1.1129528266666666,0.6594813655266905,0.7575612683564275,0.7362756382189692,0.7342457720286152
LBP07_S06,LBP07,-1501,150,6,149,-1501,1716329612.96,2024-05-21 22:13:32.960000+00:00,2024-05-22 07:13:32.960000+09:00,2024,5,21,22,13,32,960,,,,,,,,,0.720215,0.044678,1.148438,65.673828,9.216309,-12.390137,,,,,,,,,,,0.0,1.0,1.0,6.0,0.0,0.0,0.0,4.0,0.0,0.056136080000000005,0.15153973333333334,1.0114908666666667,1.1995442933333333,1.7928059999999997,0.6274414266666669,-12.878883220127392,-5.798838676763539,3.1834851479706607,3.592082444804897,12.400234449348781,-7.346523745424319,14.85396518883679,1.2129054951222884,15.526710488563149,1.2426114890226032,0.66407892,-0.10686173333333335,0.13694713333333342,0.9078877866666668,0.6864217066553102,0.7515605506626306,0.7347539435031374,0.7343581539047089
LBP07_S06,LBP07,-1500,151,6,150,-1500,1716329613.0,2024-05-21 22:13:33+00:00,2024-05-22 07:13:33+09:00,2024,5,21,22,13,33,0,22.0,13.0,32.0,40.552956,141.583694,10.995,3.0,6.0,0.000488,0.346191,1.499023,34.057617,60.302734,-49.987793,-260.0,11.0,404.0,1047.0,0.0,1022.5,18.48,0.094143,-76.684441,3.76875,0.0,1.0,1.0,6.0,0.0,0.0,0.0,4.0,0.0,0.05377605333333334,0.14705730666666667,1.0209439866666665,0.7934570533333333,3.8085937599999995,-0.13753253333333293,-12.612832820125467,-1.5955815656230916,1.4067273260684205,3.0875691319998784,12.336411186723858,-7.2902546523815825,14.658374296264075,1.217345987495508,15.412544026090416,1.240037466984639,-0.053288053333333335,0.19913369333333336,0.47807901333333347,0.7305007600000002,0.5206278780841493,0.7403678023893759,0.7283769567599018,0.7300943377227038
LBP07_S06,LBP07,-1499,152,6,151,-1499,1716329613.04,2024-05-21 22:13:33.040000+00:00,2024-05-22 07:13:33.040000+09:00,2024,5,21,22,13,33,40,,,,,,,,,-0.141846,0.322998,1.746094,-1.281738,-26.794434,-30.639648,,,,,,,,,,,0.0,1.0,1.0,6.0,0.0,0.0,0.0,4.0,0.0,0.04967774666666667,0.15055014666666666,1.0141275866666666,2.282714866666667,4.5003255200000005,-0.29378253333333276,-11.738353711178869,3.2636099156961214,-0.2376958015661649,2.6180349835527235,12.466955583351703,-7.299762484444229,14.682153146649489,1.2491734793487923,15.376908698957084,1.235378952544325,-0.19152374666666666,0.17244785333333335,0.7319664133333335,1.0959380133333334,0.776011880002218,0.7365445268246209,0.7361088504974563,0.7331858384521047
LBP07_S06,LBP07,-1498,153,6,152,-1498,1716329613.08,2024-05-21 22:13:33.080000+00:00,2024-05-22 07:13:33.080000+09:00,2024,5,21,22,13,33,80,,,,,,,,,0.172607,0.393799,1.4104,39.245605,41.625977,-29.174805,,,,,,,,,,,0.0,1.0,1.0,6.0,0.0,0.0,0.0,4.0,0.0,0.04036133333333333,0.15293621333333335,1.0029622133333334,0.3865560133333334,3.8256835866666674,0.544433613333334,-10.652566384784244,7.858173789752474,-1.4303483530319157,2.1919323281613536,12.781282534941802,-7.356976418565505,14.909421604897224,1.3101215403296866,15.438156161529742,1.234506027364132,0.13224566666666668,0.24086278666666666,0.40743778666666675,0.7805462400000001,0.4914360063698788,0.7332842660627681,0.728004710901173,0.7244335079806995
LBP07_S06,LBP07,-1497,154,6,153,-1497,1716329613.12,2024-05-21 22:13:33.120000+00:00,2024-05-22 07:13:33.120000+09:00,2024,5,21,22,13,33,120,,,,,,,,,-0.61792,-0.000488,0.064697,-58.959961,98.754883,13.671875,,,,,,,,,,,0.0,1.0,1.0,6.0,0.0,0.0,0.0,4.0,0.0,0.04945964,0.14600588,0.99447588,-0.16764321333333337,2.195638013333333,1.136881533333334,-9.562251270993471,11.524660772012526,-2.0474256676060447,1.8094422773216148,13.242268965822303,-7.438873445269747,15.296032389246525,1.2413021343934476,15.6026780556722,1.2373012055356072,-0.66737964,-0.14649388,-0.92977888,1.7436524,1.1538391597003623,0.7486991708539827,0.7350890420577035,0.7296027675633738
LBP07_S06,LBP07,-1496,155,6,154,-1496,1716329613.16,2024-05-21 22:13:33.160000+00:00,2024-05-22 07:13:33.160000+09:00,2024,5,21,22,13,33,160,,,,,,,,,0.091309,0.226562,0.234375,-42.663574,-40.710449,43.334961,,,,,,,,,,,0.0,1.0,1.0,6.0,0.0,0.0,0.0,4.0,0.0,0.054140626666666664,0.14433921333333335,0.9897004933333335,0.09847006666666668,3.4733072799999998,1.0384114800000006,-8.513203793003614,13.970474501657202,-2.1184002637474486,1.4689141256014702,13.801087945888591,-7.523609455819646,15.787097150592368,1.2089649449312991,15.863117957679151,1.2393159101032694,0.03716837333333334,0.08222278666666666,-0.7553254933333335,0.8747166533333335,0.7606961781833284,0.7539052027839114,0.7441212419199894,0.7315525044852729
LBP07_S06,LBP07,-1495,156,6,155,-1495,1716329613.2,2024-05-21 22:13:33.200000+00:00,2024-05-22 07:13:33.200000+09:00,2024,5,21,22,13,33,200,,,,,,,,,0.421143,-0.207764,0.727539,-82.214355,-93.383789,63.842773,,,,,,,,,,,0.0,1.0,1.0,6.0,0.0,0.0,0.0,4.0,0.0,0.047480466666666665,0.14103518666666667,0.9904101333333334,0.27018230666666665,3.5807291466666666,0.9130859600000006,-7.49011150232455,15.217107807228924,-1.7141007670163113,1.1693096655084882,14.409772258177748,-7.592173486500298,16.32941884683955,1.2433599102646884,16.199715216107712,1.2494141877288811,0.3736625333333333,-0.34879918666666665,-0.26287113333333334,0.9853328533333333,0.5747919572996509,0.7430174141221785,0.7351370696466204,0.7319006642115483
LBP07_S06,LBP07,-1494,157,6,156,-1494,1716329613.24,2024-05-21 22:13:33.240000+00:00,2024-05-22 07:13:33.240000+09:00,2024,5,21,22,13,33,240,,,,,,,,,0.544678,-0.102051,1.399414,54.382324,75.256348,-23.010254,,,,,,,,,,,0.0,1.0,1.0,6.0,0.0,0.0,0.0,4.0,0.0,0.05102864,0.14323245333333331,1.00460284,0.9114583466666666,1.4884440000000003,0.6363932533333341,-6.473946159353008,15.44516366824745,-0.8759540885883524,0.9103518191343679,15.027578804907646,-7.627211650043832,16.876943524432235,1.2257684596289538,16.58457747248469,1.2520107498235107,0.49364936,-0.24528345333333332,0.39481115999999994,1.1337439733333332,0.6780335649273423,0.747037113191124,0.7346584154414778,0.731398807724103
LBP07_S06,LBP07,-1493,158,6,157,-1493,1716329613.28,2024-05-21 22:13:33.280000+00:00,2024-05-22 07:13:33.280000+09:00,2024,5,21,22,13,33,280,,,,,,,,,-0.210205,0.463135,1.566895,55.541992,53.344727,-66.28418,,,,,,,,,,,0.0,1.0,1.0,6.0,0.0,0.0,0.0,4.0,0.0,0.049287106666666664,0.14138674666666667,1.0130175600000002,-0.021972639999999804,3.6059570266666667,-0.08138018666666606,-5.407622215819235,14.852729691622812,0.34832075980877697,0.6940469305015985,15.621687992572559,-7.613278819651481,17.391976634781287,1.232731673344012,16.98732742289487,1.248240741469844,-0.25949210666666667,0.32174825333333334,0.5538774399999997,1.1351177999999997,0.6911138187638189,0.7301501046562554,0.7330468869763374,0.7291174154187516
LBP07_S06,LBP07,-1492,159,6,158,-1492,1716329613.32,2024-05-21 22:13:33.320000+00:00,2024-05-22 07:13:33.320000+09:00,2024,5,21,22,13,33,320,,,,,,,,,-0.017334,0.325684,1.791016,21.30127,-57.861328,-30.822754,,,,,,,,,,,0.0,1.0,1.0,6.0,0.0,0.0,0.0,4.0,0.0,0.04637044,0.14147463999999998,1.00855792,0.07486980000000017,4.352213533333334,-0.11962887999999935,-4.126383116777031,13.594359735173109,1.800711346582275,0.5289916058305173,16.165462381979484,-7.54125036578819,17.84579679425196,1.2514854761740186,17.38017874936858,1.242381331907923,-0.06370444,0.18420936,0.7824580799999998,1.03037188,0.8063696366708071,0.731485218801281,0.7416636654580756,0.7351766828425578
LBP07_S06,LBP07,-1491,160,6,159,-1491,1716329613.36,2024-05-21 22:13:33.360000+00:00,2024-05-22 07:13:33.360000+09:00,2024,5,21,22,13,33,360,,,,,,,,,0.108887,0.358887,1.22998,-0.305176,68.481445,-15.197754,,,,,,,,,,,0.0,1.0,1.0,6.0,0.0,0.0,0.0,4.0,0.0,0.03741536,0.14378258666666668,1.0001074,-0.3906249866666665,3.7361653466666667,0.23356122666666732,-2.3621969090353536,11.791056049583345,3.153117403211744,0.43450372946910315,16.637104623962816,-7.41512566965972,18.219937773122442,1.313888271378404,17.741174649215687,1.2404049707412197,0.07147164,0.21510441333333333,0.22987259999999998,0.5164486533333333,0.3228304759320704,0.723016840645342,0.7321739458382985,0.7237471310080597
LBP07_S06,LBP07,-1490,161,6,160,-1490,1716329613.4,2024-05-21 22:13:33.400000+00:00,2024-05-22 07:13:33.400000+09:00,2024,5,21,22,13,33,400,,,,,,,,,-0.401367,-0.075195,-0.035645,-51.086426,52.124023,44.799805,,,,,,,,,,,0.0,1.0,1.0,6.0,0.0,0.0,0.0,4.0,0.0,0.046695959999999995,0.13863936,0.9913866933333334,-1.7399088399999998,2.0507812400000005,1.5218099200000006,0.12265598417403532,9.563050132288057,3.9805103874609085,0.4394099688360646,17.01962662925434,-7.255905254161284,18.50699686003381,1.2433116084418034,18.05548254270465,1.2430566073464773,-0.44806295999999995,-0.21383436,-1.0270316933333334,1.6889290133333335,1.1407364501723023,0.7418443565015729,0.7382205705910647,0.7292026339554717
LBP07_S06,LBP07,-1489,162,6,161,-1489,1716329613.44,2024-05-21 22:13:33.440000+00:00,2024-05-22 07:13:33.440000+09:00,2024,5,21,22,13,33,440,,,,,,,,,0.029541,0.081787,0.269287,-72.998047,-47.546387,64.208984,,,,,,,,,,,0.0,1.0,1.0,6.0,0.0,0.0,0.0,4.0,0.0,0.051041666666666666,0.1370019866666667,0.9872428133333335,-1.0758463466666666,3.577473946666667,1.308593773333334,3.335761545483902,7.047087448104739,3.9492172446210705,0.5728404306554207,17.30151012717853,-7.097936564376441,18.709652650751345,1.2114733958121253,18.315549209805454,1.2458690252565727,-0.021500666666666664,-0.05521498666666669,-0.7179558133333335,0.7946714666666668,0.7203967818631893,0.7424042042595808,0.7390123299055311,0.7309971736910924
LBP07_S06,LBP07,-1488,163,6,162,-1488,1716329613.48,2024-05-21 22:13:33.480000+00:00,2024-05-22 07:13:33.480000+09:00,2024,5,21,22,13,33,480,,,,,,,,,0.556641,-0.236816,0.875244,-35.949707,-77.697754,58.044434,,,,,,,,,,,0.0,1.0,1.0,6.0,0.0,0.0,0.0,4.0,0.0,0.04408529333333333,0.13445641333333333,0.9867317466666666,-0.5989583333333331,3.69384764,1.304524760000001,6.932558075029267,4.393019435494793,3.000271101344447,0.8501427536565913,17.477230904598322,-6.977925720322664,18.837934869634253,1.2515274447104796,18.52107604183044,1.255986673649427,0.5125557066666667,-0.37127241333333333,-0.11148774666666661,0.9953158666666666,0.6426399263940379,0.7311061366231024,0.7319317763005028,0.7335130224525694
LBP07_S06,LBP07,-1487,164,6,163,-1487,1716329613.52,2024-05-21 22:13:33.520000+00:00,2024-05-22 07:13:33.520000+09:00,2024,5,21,22,13,33,520,,,,,,,,,0.341797,0.161865,1.361328,108.825684,86.486816,-44.128418,,,,,,,,,,,0.0,1.0,1.0,6.0,0.0,0.0,0.0,4.0,0.0,0.04956056,0.13717776,1.0062141733333334,0.008138026666666841,1.5275064933333335,0.9602864666666672,10.286650493806874,1.7665629464758719,1.3941592172623958,1.2616087734088663,17.547893422457356,-6.922159351632168,18.905991387717627,1.2215385227264128,18.679121094062758,1.2564429363980336,0.29223644000000004,0.02468724,0.3551138266666667,0.6720375066666667,0.4605620767850243,0.7278706088702735,0.7283267017895271,0.7314853454339136
LBP07_S06,LBP07,-1486,165,6,164,-1486,1716329613.56,2024-05-21 22:13:33.560000+00:00,2024-05-22 07:13:33.560000+09:00,2024,5,21,22,13,33,560,,,,,,,,,-0.406006,0.26123,1.716064,70.129395,32.287598,-69.091797,,,,,,,,,,,0.0,1.0,1.0,6.0,0.0,0.0,0.0,4.0,0.0,0.04763347999999999,0.13779625333333334,1.0138443733333333,0.5224609466666669,3.3862304533333334,-0.05940754666666611,12.73780962986354,-0.6172583739316434,-0.4252116893897012,1.771121158603408,17.52320308750009,-6.939167819207755,18.93017608548198,1.2354813109838743,18.80374252596588,1.2521283448035732,-0.45363948,0.12343374666666668,0.7022196266666667,1.2792928533333334,0.8450663120174144,0.7145069356944498,0.7281954531548587,0.7305591558920083
LBP07_S06,LBP07,-1485,166,6,165,-1485,1716329613.6,2024-05-21 22:13:33.600000+00:00,2024-05-22 07:13:33.600000+09:00,2024,5,21,22,13,33,600,,,,,,,,,0.054932,0.496826,1.848877,39.0625,-67.565918,-22.094727,,,,,,,,,,,0.0,1.0,1.0,6.0,0.0,0.0,0.0,4.0,0.0,0.043577493333333335,0.14249351999999998,1.0062304400000002,1.660970066666667,3.9973958133333336,-0.4964192666666662,13.869912513612851,-2.4510086808086364,-2.0591696837208557,2.325917659147922,17.425162740267744,-7.02153460655659,18.930085517847594,1.2714840893656423,18.91431617376814,1.24620523277298,0.011354506666666667,0.35433248,0.8426465599999999,1.2083335466666667,0.9141846948425834,0.7179005650662268,0.7370766066056247,0.7359480718307975
LBP07_S06,LBP07,-1484,167,6,166,-1484,1716329613.64,2024-05-21 22:13:33.640000+00:00,2024-05-22 07:13:33.640000+09:00,2024,5,21,22,13,33,640,,,,,,,,,0.048096,0.227783,1.110596,-14.953613,82.397461,-28.381348,,,,,,,,,,,0.0,1.0,1.0,6.0,0.0,0.0,0.0,4.0,0.0,0.03551434666666667,0.14414392,0.9933626,-0.9082031066666665,2.6676432133333337,0.2099609333333337,13.645197883355452,-3.3408502387423398,-3.3206430512489464,2.87172557448214,17.29152873071805,-7.154360328606548,18.93221184468211,1.3269449435574963,19.032314708542735,1.2433729021832458,0.012581653333333331,0.08363908,0.11723339999999993,0.21345413333333327,0.14455955097954118,0.6966074867621083,0.7240239882705182,0.7224114595867461
LBP07_S06,LBP07,-1483,168,6,167,-1483,1716329613.68,2024-05-21 22:13:33.680000+00:00,2024-05-22 07:13:33.680000+09:00,2024,5,21,22,13,33,680,,,,,,,,,-0.326416,0.019287,-0.061035,-20.263672,-0.12207,42.114258,,,,,,,,,,,0.0,1.0,1.0,6.0,0.0,0.0,0.0,4.0,0.0,0.04630210666666667,0.13474938666666667,0.9835709333333333,-1.9099934799999998,0.9570312400000004,1.1197916533333336,12.327155646334969,-2.9032610482812546,-4.233740483237343,3.3648118003355387,17.1753982887868,-7.323709947936042,18.972427157104466,1.23729430083008,19.177358038977363,1.2460385920656922,-0.37271810666666666,-0.11546238666666667,-1.0446059333333333,1.5327864266666666,1.115101746804816,0.7189198003135866,0.7301035360556203,0.7258843243495866
LBP07_S06,LBP07,-1482,169,6,168,-1482,1716329613.72,2024-05-21 22:13:33.720000+00:00,2024-05-22 07:13:33.720000+09:00,2024,5,21,22,13,33,720,,,,,,,,,-0.02124,0.021973,0.274902,-67.626953,-67.993164,61.218262,,,,,,,,,,,0.0,1.0,1.0,6.0,0.0,0.0,0.0,4.0,0.0,0.051207706666666665,0.13615564000000002,0.97710284,-1.0375976399999998,2.7921549333333338,0.629882786666667,10.274417317345133,-0.9361736276178911,-4.888190074690109,3.775788493029344,17.137951343682083,-7.519237550923646,19.092011113283156,1.208339560229414,19.36384228768287,1.2482473059619779,-0.07244770666666667,-0.11418264000000003,-0.70220084,0.8888311866666667,0.7151030451447782,0.7249165193748,0.7362936088175731,0.7274544273958848
LBP07_S06,LBP07,-1481,170,6,169,-1481,1716329613.76,2024-05-21 22:13:33.760000+00:00,2024-05-22 07:13:33.760000+09:00,2024,5,21,22,13,33,760,,,,,,,,,0.589844,-0.185059,0.756836,-19.226074,-86.181641,32.653809,,,,,,,,,,,0.0,1.0,1.0,6.0,0.0,0.0,0.0,4.0,0.0,0.04392254666666666,0.13541019999999998,0.9817838266666666,-0.7283528399999999,2.2696940000000003,0.36051430666666706,7.76645018410629,2.4121838359773493,-5.275307982291533,4.0864465003935955,17.234438697121178,-7.7302498702153075,19.32567425114505,1.2546571510724733,19.599089634366116,1.2565607796006952,0.5459214533333334,-0.3204692,-0.22494782666666668,1.09133848,0.6718126718664033,0.7174316914344918,0.7291712834302662,0.7288089601429476
LBP07_S06,LBP07,-1480,171,6,170,-1480,1716329613.8,2024-05-21 22:13:33.800000+00:00,2024-05-22 07:13:33.800000+09:00,2024,5,21,22,13,33,800,,,,,,,,,0.18457,0.386963,1.325439,115.17334,78.24707,-56.396484,,,,,,,,,,,0.0,1.0,1.0,6.0,0.0,0.0,0.0,4.0,0.0,0.05172528,0.14035161333333332,1.0051334266666667,0.42724612000000006,0.6315104133333337,-0.39713542666666624,4.9774575807639145,6.582045256948463,-5.239898091488765,4.285544803624152,17.497720507399116,-7.939845793874858,19.686982207779785,1.2149883025444603,19.883127342262053,1.2534172474543233,0.13284472000000003,0.24661138666666668,0.3203055733333333,0.69976168,0.4255121102553134,0.7130414591242936,0.7248165404680723,0.7228784240770779
LBP07_S06,LBP07,-1479,172,6,171,-1479,1716329613.84,2024-05-21 22:13:33.840000+00:00,2024-05-22 07:13:33.840000+09:00,2024,5,21,22,13,33,840,,,,,,,,,-0.166504,0.311768,1.657959,24.108887,59.814453,-54.6875,,,,,,,,,,,0.0,1.0,1.0,6.0,0.0,0.0,0.0,4.0,0.0,0.04856121333333334,0.14176437333333333,1.0101855066666667,0.6380208666666667,2.7840169200000005,-1.1865234399999998,2.0858023722237022,10.714240566820777,-4.588241476996642,4.3689768985131,17.926290130071948,-8.123375452954724,20.1600859550976,1.2381302946365886,20.209503068664453,1.2450935412124928,-0.21506521333333334,0.17000362666666666,0.6477734933333332,1.0328423333333332,0.7033951789223476,0.7010140499539455,0.722432044956725,0.7206206674181477
LBP07_S06,LBP07,-1478,173,6,172,-1478,1716329613.88,2024-05-21 22:13:33.880000+00:00,2024-05-22 07:13:33.880000+09:00,2024,5,21,22,13,33,880,,,,,,,,,-0.098389,0.306885,1.864502,22.583008,-44.372559,-21.606445,,,,,,,,,,,0.0,1.0,1.0,6.0,0.0,0.0,0.0,4.0,0.0,0.04423829333333333,0.14583013333333333,1.0022720933333333,1.5722656666666668,3.1062825466666673,-0.9041341199999997,-0.6079357465662585,13.902406099024786,-3.268343096953212,4.34465946865045,18.482386374032938,-8.254109176832852,20.70277735668934,1.273614583673336,20.566363021933533,1.2359973342940864,-0.14262729333333335,0.16105486666666669,0.8622299066666668,1.165912066666667,0.8886628307918698,0.7003754801982098,0.7317457943658191,0.7304218018788875
LBP07_S06,LBP07,-1477,174,6,173,-1477,1716329613.92,2024-05-21 22:13:33.920000+00:00,2024-05-22 07:13:33.920000+09:00,2024,5,21,22,13,33,920,,,,,,,,,0.108154,0.134033,1.373535,-10.070801,64.880371,-19.592285,,,,,,,,,,,0.0,1.0,1.0,6.0,0.0,0.0,0.0,4.0,0.0,0.03901042666666667,0.14451177333333334,0.9913020400000001,-0.82600908,1.5494791600000004,0.4280598800000005,-2.6887575169954196,15.471005022012893,-1.481906174194783,4.237109167970633,19.101226574913454,-8.313385423800643,21.2584648545501,1.3046732591135881,20.937434445581193,1.2315117869854872,0.06914357333333333,-0.01047877333333333,0.38223295999999984,0.4618553066666665,0.3885777581568905,0.6895393359034181,0.7235503021299227,0.7206968707804522
LBP07_S06,LBP07,-1476,175,6,174,-1476,1716329613.96,2024-05-21 22:13:33.960000+00:00,2024-05-22 07:13:33.960000+09:00,2024,5,21,22,13,33,960,,,,,,,,,-0.541748,-0.061279,-0.047363,-50.476074,69.763184,25.939941,,,,,,,,,,,0.0,1.0,1.0,6.0,0.0,0.0,0.0,4.0,0.0,0.05364583999999999,0.14086594666666669,0.9857649333333333,-1.0115559466666666,0.4711914000000004,1.2304687333333337,-3.7913443502457405,15.162124005426545,0.3615268588966646,4.085455393960803,19.707711535130517,-8.298924349444777,21.770553164441353,1.2040459895201538,21.303241138540056,1.233401199913024,-0.59539384,-0.20214494666666669,-1.0331279333333332,1.83066672,1.2094253721525852,0.7104594825233089,0.7310100165929698,0.7266557898431946
LBP07_S06,LBP07,-1475,176,6,175,-1475,1716329614.0,2024-05-21 22:13:34+00:00,2024-05-22 07:13:34+09:00,2024,5,21,22,13,34,0,22.0,13.0,33.0,40.552895,141.583603,10.988,3.0,6.0,-0.039062,0.108887,0.280029,-81.237793,-43.457031,61.035156,-263.0,9.0,400.0,1094.0,0.0,1022.400024,18.540001,0.093152,-75.858627,3.76875,0.0,1.0,1.0,6.0,0.0,0.0,0.0,6.0,0.0,0.05557942666666667,0.13928717333333335,0.9828678000000001,-0.43212886666666656,2.231445306666667,0.9619140400000004,-3.8197926005632206,13.169469181259958,1.8244156769250284,3.9326636899382743,20.234490302380916,-8.225947722367776,22.193842781871595,1.1882470269473382,21.643197972045222,1.2341596511039639,-0.09464142666666667,-0.03040017333333335,-0.7028388000000001,0.8278804000000002,0.7098334656563037,0.718027706026195,0.7291977542077855,0.7249272065153329
LBP07_S06,LBP07,-1474,177,6,176,-1474,1716329614.04,2024-05-21 22:13:34.040000+00:00,2024-05-22 07:13:34.040000+09:00,2024,5,21,22,13,34,40,,,,,,,,,0.539307,-0.205322,0.846436,-54.138184,-56.45752,60.424805,,,,,,,,,,,0.0,1.0,1.0,6.0,0.0,0.0,0.0,6.0,0.0,0.04903972,0.14223638666666666,0.9864843466666667,0.024414093333333445,0.9798177066666669,1.0766601333333339,-3.0607911176292886,10.027441242720196,2.638295737465969,3.8102320452331027,20.635587952089725,-8.120415892869136,22.500811377372894,1.2359828743734318,21.938737522844548,1.2383044593284642,0.49026727999999997,-0.34755838666666666,-0.14004834666666677,0.9778740133333333,0.6170675630633986,0.7116699333486425,0.7241072300866317,0.7279625447811849
LBP07_S06,LBP07,-1473,178,6,177,-1473,1716329614.08,2024-05-21 22:13:34.080000+00:00,2024-05-22 07:13:34.080000+09:00,2024,5,21,22,13,34,80,,,,,,,,,0.283691,0.178467,1.405273,115.17334,79.406738,-52.79541,,,,,,,,,,,0.0,1.0,1.0,6.0,0.0,0.0,0.0,6.0,0.0,0.05879882666666666,0.14928065333333335,1.0068652,0.5411784266666668,0.09521484000000034,0.4793294000000005,-2.0813180626146957,6.421115983133376,2.790535322597774,3.7269793227285146,20.892432591415062,-8.008794479965225,22.683141393581042,1.1924388277440878,22.176633847607768,1.233324991339332,0.22489217333333336,0.02918634666666664,0.3984078,0.65248632,0.45842895584722493,0.7103496513277362,0.7218169586952521,0.7221196910433608
LBP07_S06,LBP07,-1472,179,6,178,-1472,1716329614.12,2024-05-21 22:13:34.120000+00:00,2024-05-22 07:13:34.120000+09:00,2024,5,21,22,13,34,120,,,,,,,,,-0.306885,0.35083,1.689697,41.07666,0.12207,-47.546387,,,,,,,,,,,0.0,1.0,1.0,6.0,0.0,0.0,0.0,6.0,0.0,0.052389333333333336,0.14781581333333332,1.00499672,0.6665039466666669,1.762695306666667,0.11637366666666717,-1.444165902770938,3.0012793133253144,2.4534984426905337,3.6692126866176773,21.012483763948076,-7.910654542257603,22.75007804287182,1.2272336895047833,22.35110518292662,1.2262742131440096,-0.35927433333333336,0.20301418666666665,0.6847002799999999,1.2469888,0.799441855304135,0.6961737591518872,0.7224364650029349,0.722117281089098
LBP07_S06,LBP07,-1471,180,6,179,-1471,1716329614.16,2024-05-21 22:13:34.160000+00:00,2024-05-22 07:13:34.160000+09:00,2024,5,21,22,13,34,160,,,,,,,,,-0.004639,0.453613,1.913086,45.898438,-69.641113,-20.935059,,,,,,,,,,,0.0,1.0,1.0,6.0,0.0,0.0,0.0,6.0,0.0,0.04842774666666667,0.15354824,0.9968782266666667,0.5932617600000003,1.8269856666666668,0.10823565333333382,-1.4110165662478873,0.25632462486818813,1.8246176072721683,3.6127720239677616,21.022736748942805,-7.8376698379667165,22.72524258619669,1.26224166298187,22.463704072026548,1.2179205159806432,-0.053066746666666664,0.30006476,0.9162077733333334,1.26933928,0.9655524966111716,0.7043680118890008,0.729136607336456,0.7308701652429932
LBP07_S06,LBP07,-1470,181,6,180,-1470,1716329614.2,2024-05-21 22:13:34.200000+00:00,2024-05-22 07:13:34.200000+09:00,2024,5,21,22,13,34,200,,,,,,,,,0.119873,0.240723,0.984375,-26.000977,83.129883,-15.686035,,,,,,,,,,,0.0,1.0,1.0,6.0,0.0,0.0,0.0,6.0,0.0,0.047522800000000004,0.14760748,0.9895019199999999,-1.6422525599999998,-0.13183594666666637,1.3427734133333338,-1.824371631329753,-1.553021380816456,1.0063623357168665,3.5397971587145713,20.960615893710145,-7.797415344538042,22.642377715773037,1.2564363847894648,22.52114939537042,1.216233412491476,0.07235019999999999,0.09311551999999998,-0.005126919999999924,0.1705926399999999,0.11803108409904907,0.6860975769609767,0.7145574955415777,0.7187905720847392
LBP07_S06,LBP07,-1469,182,6,181,-1469,1716329614.24,2024-05-21 22:13:34.240000+00:00,2024-05-22 07:13:34.240000+09:00,2024,5,21,22,13,34,240,,,,,,,,,-0.276855,0.05542,-0.031738,-48.278809,6.164551,51.513672,,,,,,,,,,,0.0,1.0,1.0,6.0,0.0,0.0,0.0,6.0,0.0,0.056992213333333326,0.14291346666666668,0.9881640266666667,-1.5828449999999996,-0.09440105333333311,1.5942382533333337,-2.241307709767893,-2.4118195783275276,0.01108462756856293,3.4501448503238556,20.864143110577043,-7.796971959435299,22.539049202729828,1.188335614745267,22.532277505843943,1.2184955507507769,-0.33384721333333334,-0.08749346666666669,-1.0199020266666667,1.4412427066666669,1.076712223650571,0.7020447233099059,0.7245409182505149,0.7237871847309538
LBP07_S06,LBP07,-1468,183,6,182,-1468,1716329614.28,2024-05-21 22:13:34.280000+00:00,2024-05-22 07:13:34.280000+09:00,2024,5,21,22,13,34,280,,,,,,,,,0.071289,-0.018555,0.241455,-91.064453,-58.654785,53.405762,,,,,,,,,,,0.0,1.0,1.0,6.0,0.0,0.0,0.0,6.0,0.0,0.05483074666666667,0.14361984,0.98644528,-1.0034179199999995,1.3655598800000004,1.0213215866666672,-2.2227637009585193,-2.535766584531684,-1.1332738247805147,3.361234302285515,20.762712447195774,-7.84230291242652,22.447490709877854,1.2031068017201096,22.505551189874772,1.2193008775730152,0.016458253333333332,-0.16217484,-0.74499028,0.9236233733333333,0.7626152831711991,0.7049047818862012,0.7175274432712283,0.7236661852796252
