file_name,test_id,_program_index,program_index,session_id,index,_index,unixtime,datetime_utc,datetime_jst,rtc_year,rtc_month,rtc_day,rtc_hour,rtc_min,rtc_sec,rtc_msec,gps_hour,gps_min,gps_sec,latitude,longitude,altitude,fix_type,SIV,acc_x,acc_y,acc_z,gyro_x,gyro_y,gyro_z,mag_x,mag_y,mag_z,illuminance,atmopress,water_pressure,water_temp,depth,alt_wps,battery_level,behavior_class,camera_command,camera_recording,camera_count,play_audio,speaker_on,audio_file,prev_sd_write_time_ms,delay_occurred_counter,acc_x_ma,acc_y_ma,acc_z_ma,gyro_x_ma,gyro_y_ma,gyro_z_ma,gyro_x_lowpass,gyro_y_lowpass,gyro_z_lowpass,angle_x,angle_y,angle_z,combined_angle_change,gravity_adjusted_angle,smoothed_angle_change,smoothed_gravity_angle,acc_x_dy,acc_y_dy,acc_z_dy,ODBA,VeDBA,smoothed_VeDBA_1s,smoothed_VeDBA_2s,smoothed_VeDBA_3s
LBP07_S00,LBP07,-1925,1,0,0,-1925,1716268022.0,2024-05-21 05:07:02+00:00,2024-05-21 14:07:02+09:00,2024,5,21,5,7,2,0,5.0,7.0,2.0,40.529152,141.5439,12.346,3.0,8.0,0.508301,-1.101074,1.370605,70.678711,-50.415039,42.358398,-251.0,16.0,399.0,2579.0,0.0,1016.400024,22.99,0.033693,-26.177778,4.007812,1.0,1.0,1.0,0.0,0.0,0.0,0.0,5.0,0.0,,,,,,,70.14738978870855,-49.91247705978083,41.482834268551336,2.805895591548342,-1.9964990823912332,1.6593133707420535,3.8226142257600118,,6.851828427399101,,,,,,,,,
LBP07_S00,LBP07,-1924,2,0,1,-1924,1716268022.04,2024-05-21 05:07:02.040000+00:00,2024-05-21 14:07:02.040000+09:00,2024,5,21,5,7,2,40,,,,,,,,,0.130127,1.255371,1.127686,345.76416,-4.760742,-31.982422,,,,,,,,,,,1.0,1.0,1.0,0.0,0.0,0.0,0.0,5.0,0.0,,,,,,,47.18651091145182,-29.202134481294813,24.213662128147785,4.693356028006415,-3.1645844616430256,2.627859855867965,6.2408199014696,,7.369619814797804,,,,,,,,,
LBP07_S00,LBP07,-1923,3,0,2,-1923,1716268022.08,2024-05-21 05:07:02.080000+00:00,2024-05-21 14:07:02.080000+09:00,2024,5,21,5,7,2,80,,,,,,,,,-0.50708,0.540283,2.023193,-53.833008,-85.388184,-45.776367,,,,,,,,,,,1.0,1.0,1.0,0.0,0.0,0.0,0.0,5.0,0.0,,,,,,,30.5081846200604,-8.657518675365944,8.836191644668318,5.9136834128088305,-3.5108852086576636,2.981307521654698,7.495742858047916,,8.08420466346297,,,,,,,,,
LBP07_S00,LBP07,-1922,4,0,3,-1922,1716268022.12,2024-05-21 05:07:02.120000+00:00,2024-05-21 14:07:02.120000+09:00,2024,5,21,5,7,2,120,,,,,,,,,0.628906,1.807861,1.768066,-249.511719,-156.494141,-51.818848,,,,,,,,,,,1.0,1.0,1.0,0.0,0.0,0.0,0.0,5.0,0.0,,,,,,,24.433768999525963,11.044108228100898,-3.358073752759788,6.891034172789869,-3.0691208795336276,2.846984571544306,8.06295083045645,,9.030445823991883,,,,,,,,,
LBP07_S00,LBP07,-1921,5,0,4,-1921,1716268022.16,2024-05-21 05:07:02.160000+00:00,2024-05-21 14:07:02.160000+09:00,2024,5,21,5,7,2,160,,,,,,,,,0.148926,-0.80249,2.939697,-514.282227,130.981445,0.244141,,,,,,,,,,,1.0,1.0,1.0,0.0,0.0,0.0,0.0,5.0,0.0,,,,,,,29.71484098707618,28.662964147826774,-11.90177510148736,8.079627812272916,-1.9226023136205566,2.370913567484812,8.637014321261526,,10.174780700025666,,,,,,,,,
LBP07_S00,LBP07,-1920,6,0,5,-1920,1716268022.2,2024-05-21 05:07:02.200000+00:00,2024-05-21 14:07:02.200000+09:00,2024,5,21,5,7,2,200,,,,,,,,,0.49707,0.155029,2.473877,149.841309,150.390625,63.293457,,,,,,,,,,,1.0,1.0,1.0,0.0,0.0,0.0,0.0,5.0,0.0,,,,,,,43.324932721537,42.59302423135414,-17.15893033202073,9.812625121134396,-0.21888134436639084,1.6845563542039828,9.958576751791316,,11.452438008340875,,,,,,,,,
LBP07_S00,LBP07,-1919,7,0,6,-1919,1716268022.24,2024-05-21 05:07:02.240000+00:00,2024-05-21 14:07:02.240000+09:00,2024,5,21,5,7,2,240,,,,,,,,,-0.457764,-0.142822,2.460449,450.98877,57.250977,-47.546387,,,,,,,,,,,1.0,1.0,1.0,0.0,0.0,0.0,0.0,5.0,0.0,,,,,,,59.768031969453666,51.29785731899841,-20.068102837653626,12.203346399912542,1.8330329483935455,0.8818322406978377,12.371713755453968,,13.691909980704034,,,,,,,,,
LBP07_S00,LBP07,-1918,8,0,7,-1918,1716268022.28,2024-05-21 05:07:02.280000+00:00,2024-05-21 14:07:02.280000+09:00,2024,5,21,5,7,2,280,,,,,,,,,-0.12915,-0.788086,0.430664,465.759277,14.709473,-35.766602,,,,,,,,,,,1.0,1.0,1.0,0.0,0.0,0.0,0.0,5.0,0.0,,,,,,,73.38391341561243,53.771680382365,-21.769064480932123,15.138702936537038,3.983900163688145,0.011069661460552771,15.654133947694277,,15.966667513200713,,,,,,,,,
LBP07_S00,LBP07,-1917,9,0,8,-1917,1716268022.32,2024-05-21 05:07:02.320000+00:00,2024-05-21 14:07:02.320000+09:00,2024,5,21,5,7,2,320,,,,,,,,,0.438477,0.678467,0.875732,357.299805,-5.92041,12.756348,,,,,,,,,,,1.0,1.0,1.0,0.0,0.0,0.0,0.0,5.0,0.0,,,,,,,80.50598682557812,49.84267679199302,-23.26393847261397,18.358942409560164,5.977607235367866,-0.919487877444006,19.329459708295925,,18.34224477580333,,,,,,,,,
LBP07_S00,LBP07,-1916,10,0,9,-1916,1716268022.36,2024-05-21 05:07:02.360000+00:00,2024-05-21 14:07:02.360000+09:00,2024,5,21,5,7,2,360,,,,,,,,,-0.139648,0.414307,0.790283,-470.703125,120.788574,68.725586,,,,,,,,,,,1.0,1.0,1.0,0.0,0.0,0.0,0.0,5.0,0.0,,,,,,,80.39352557632499,40.265365673569406,-25.208784687544,21.574683432613163,7.588221862310643,-1.9278392649457659,22.951353783177773,,20.841095610778478,,,,,,,,,
LBP07_S00,LBP07,-1915,11,0,10,-1915,1716268022.4,2024-05-21 05:07:02.400000+00:00,2024-05-21 14:07:02.400000+09:00,2024,5,21,5,7,2,400,,,,,,,,,-0.068848,-0.412842,1.370117,98.632812,-1.098633,-139.953613,,,,,,,,,,,1.0,1.0,1.0,0.0,0.0,0.0,0.0,5.0,0.0,,,,,,,74.6379368845109,26.638880517119574,-27.868435857257175,24.5602009079936,8.653777082995425,-3.0425766992360526,26.217333949391584,,23.420044404407385,,,,,,,,,
LBP07_S00,LBP07,-1914,12,0,11,-1914,1716268022.44,2024-05-21 05:07:02.440000+00:00,2024-05-21 14:07:02.440000+09:00,2024,5,21,5,7,2,440,,,,,,,,,0.303711,0.833496,1.828857,-82.336426,-19.53125,-101.074219,,,,,,,,,,,1.0,1.0,1.0,0.0,0.0,0.0,0.0,5.0,0.0,,,,,,,65.64639558549538,11.190804052239676,-31.201976819497116,27.186056731413416,9.101409245085012,-4.2906557720159375,28.988395226436413,,25.962077764952888,,,,,,,,,
LBP07_S00,LBP07,-1913,13,0,12,-1913,1716268022.48,2024-05-21 05:07:02.480000+00:00,2024-05-21 14:07:02.480000+09:00,2024,5,21,5,7,2,480,,,,,,,,,-0.418213,-1.025146,3.025879,-208.374023,118.591309,4.150391,,,,,,,,,,,1.0,1.0,1.0,0.0,0.0,0.0,0.0,5.0,0.0,,,,,,,55.2023036219606,-3.559300688203724,-34.98532806206771,29.39414887629184,8.959037217556864,-5.690068894498646,31.251515484074034,,28.313765268464266,,,,,,,,,
LBP07_S00,LBP07,-1912,14,0,13,-1912,1716268022.52,2024-05-21 05:07:02.520000+00:00,2024-05-21 14:07:02.520000+09:00,2024,5,21,5,7,2,520,,,,,,,,,0.162842,0.72876,1.400879,213.134766,-33.14209,-6.958008,,,,,,,,,,,1.0,1.0,1.0,0.0,0.0,0.0,0.0,5.0,0.0,,,,,,,43.84530912421245,-15.240231084234852,-38.87412642393914,31.14796124126034,8.349427974187469,-7.245033951456211,33.05145918020798,,30.34335038315258,,,,,,,,,
LBP07_S00,LBP07,-1911,15,0,14,-1911,1716268022.56,2024-05-21 05:07:02.560000+00:00,2024-05-21 14:07:02.560000+09:00,2024,5,21,5,7,2,560,,,,,,,,,0.234131,-0.199463,-0.047607,324.401855,-134.887695,-12.695312,,,,,,,,,,,1.0,1.0,1.0,0.0,0.0,0.0,0.0,5.0,0.0,,,,,,,31.210717936463627,-22.116439375447044,-42.39033941289781,32.396389958718885,7.464770399169587,-8.940647527972123,34.42650225755057,,31.970477933988683,,,,,,,,,
LBP07_S00,LBP07,-1910,16,0,15,-1910,1716268022.6,2024-05-21 05:07:02.600000+00:00,2024-05-21 14:07:02.600000+09:00,2024,5,21,5,7,2,600,,,,,,,,,0.259277,1.275391,1.772217,20.690918,-60.302734,-14.465332,,,,,,,,,,,1.0,1.0,1.0,0.0,0.0,0.0,0.0,5.0,0.0,,,,,,,16.91076788295519,-23.499902314379536,-44.908790818419405,33.07282067403709,6.524774306594406,-10.7369991607089,35.37891035724635,,33.167754351552745,,,,,,,,,
LBP07_S00,LBP07,-1909,17,0,16,-1909,1716268022.64,2024-05-21 05:07:02.640000+00:00,2024-05-21 14:07:02.640000+09:00,2024,5,21,5,7,2,640,,,,,,,,,0.131104,-0.213867,0.592285,83.80127,-38.696289,-96.862793,,,,,,,,,,,1.0,1.0,1.0,0.0,0.0,0.0,0.0,5.0,0.0,,,,,,,1.3061241975883395,-19.923228807695747,-45.733242946254975,33.12506564194062,5.727845154286576,-12.566328878559098,35.88858879056778,,33.94915175197063,,,,,,,,,
LBP07_S00,LBP07,-1908,18,0,17,-1908,1716268022.68,2024-05-21 05:07:02.680000+00:00,2024-05-21 14:07:02.680000+09:00,2024,5,21,5,7,2,680,,,,,,,,,0.362549,1.515137,0.932373,-84.838867,32.165527,-40.649414,,,,,,,,,,,1.0,1.0,1.0,0.0,0.0,0.0,0.0,5.0,0.0,,,,,,,-14.300814138720067,-12.96478068441543,-44.2803531021078,32.55303307639182,5.209253926909959,-14.337543002643411,35.949985094577386,,34.3545655124348,,,,,,,,,
LBP07_S00,LBP07,-1907,19,0,18,-1907,1716268022.72,2024-05-21 05:07:02.720000+00:00,2024-05-21 14:07:02.720000+09:00,2024,5,21,5,7,2,720,,,,,,,,,-0.012451,-0.296387,1.819092,-221.069336,54.382324,-77.575684,,,,,,,,,,,1.0,1.0,1.0,0.0,0.0,0.0,0.0,5.0,0.0,,,,,,,-28.0804963535963,-4.766097350793992,-40.303777618438694,31.42981322224797,5.0186100328781995,-15.949694107380958,35.600735216657,,34.43750299664088,,,,,,,,,
LBP07_S00,LBP07,-1906,20,0,19,-1906,1716268022.76,2024-05-21 05:07:02.760000+00:00,2024-05-21 14:07:02.760000+09:00,2024,5,21,5,7,2,760,,,,,,,,,0.378662,0.287598,1.307373,-203.979492,58.71582,-4.821777,,,,,,,,,,,1.0,1.0,1.0,0.0,0.0,0.0,0.0,5.0,0.0,,,,,,,-38.34871800213934,2.5725683389009344,-34.054805240707346,29.895864502162397,5.121512766434237,-17.311886317009254,34.9241179588183,,34.26018693417161,,,,,,,,,
LBP07_S00,LBP07,-1905,21,0,20,-1905,1716268022.8,2024-05-21 05:07:02.800000+00:00,2024-05-21 14:07:02.800000+09:00,2024,5,21,5,7,2,800,,,,,,,,,-0.072998,0.537354,1.545654,239.379883,-74.768066,-62.805176,,,,,,,,,,,1.0,1.0,1.0,0.0,0.0,0.0,0.0,5.0,0.0,,,,,,,-44.054685193430544,7.494956938417262,-26.302178235999495,28.133677094425174,5.421311043970928,-18.363973446449233,34.0313079535706,,33.895861786249256,,,,,,,,,
LBP07_S00,LBP07,-1904,22,0,21,-1904,1716268022.84,2024-05-21 05:07:02.840000+00:00,2024-05-21 14:07:02.840000+09:00,2024,5,21,5,7,2,840,,,,,,,,,0.101562,0.743408,1.626953,-140.625,39.367676,-21.42334,,,,,,,,,,,1.0,1.0,1.0,0.0,0.0,0.0,0.0,5.0,0.0,,,,,,,-44.84949994944387,9.249467180822933,-18.191387618263498,26.33969709644742,5.791289731203845,-19.09162895117977,33.04253283107809,,33.43384326480904,,,,,,,,,
LBP07_S00,LBP07,-1903,23,0,22,-1903,1716268022.88,2024-05-21 05:07:02.880000+00:00,2024-05-21 14:07:02.880000+09:00,2024,5,21,5,7,2,880,,,,,,,,,0.418457,0.124268,1.656982,31.921387,-15.869141,9.70459,,,,,,,,,,,1.0,1.0,1.0,0.0,0.0,0.0,0.0,5.0,0.0,,,,,,,-40.81833639500619,7.8957892821283755,-10.979527447932172,24.70696364064717,6.10712130248898,-19.53081004909706,32.08089032613476,,32.9811594984365,,,,,,,,,
LBP07_S00,LBP07,-1902,24,0,23,-1902,1716268022.92,2024-05-21 05:07:02.920000+00:00,2024-05-21 14:07:02.920000+09:00,2024,5,21,5,7,2,920,,,,,,,,,-0.065186,-0.656494,1.091553,-162.04834,64.331055,49.133301,,,,,,,,,,,1.0,1.0,1.0,0.0,0.0,0.0,0.0,5.0,0.0,,,,,,,-32.14977651429863,4.12910619298197,-5.723952880752603,23.420972580075226,6.272285550208259,-19.759768164327163,31.2782985555152,,32.65628778287818,,,,,,,,,
LBP07_S00,LBP07,-1901,25,0,24,-1901,1716268022.96,2024-05-21 05:07:02.960000+00:00,2024-05-21 14:07:02.960000+09:00,2024,5,21,5,7,2,960,,,,,,,,,0.015869,-0.328857,0.73877,445.922852,-82.885742,-26.367188,,,,,,,,,,,1.0,1.0,1.0,0.0,0.0,0.0,0.0,5.0,0.0,,,,,,,-19.001068199474922,-0.9913342995860949,-3.025088054299471,22.660929852096228,6.232632178224815,-19.88077168649914,30.783250778327087,,32.574378015311275,,,,,,,,,
LBP07_S00,LBP07,-1900,26,0,25,-1900,1716268023.0,2024-05-21 05:07:03+00:00,2024-05-21 14:07:03+09:00,2024,5,21,5,7,3,0,5.0,7.0,3.0,40.52916,141.543777,14.84,3.0,8.0,-0.157227,1.841553,0.238037,-165.344238,-20.141602,5.432129,-251.0,24.0,396.0,2809.0,0.0,1015.900024,23.01,0.028738,-22.026999,4.007812,0.0,1.0,1.0,0.0,0.0,0.0,0.0,5.0,0.0,,,,,,,-1.6875960429747745,-6.336115408889849,-2.9091962402585176,22.593426010377236,5.979187561869221,-19.997139536109483,30.758725142844188,,32.82759819428523,,,,,,,,,
LBP07_S00,LBP07,-1899,27,0,26,-1899,1716268023.04,2024-05-21 05:07:03.040000+00:00,2024-05-21 14:07:03.040000+09:00,2024,5,21,5,7,3,40,,,,,,,,,-0.011719,-2.299805,1.852539,-601.5625,113.28125,10.437012,,,,,,,,,,,0.0,1.0,1.0,0.0,0.0,0.0,0.0,5.0,0.0,,,,,,,18.86326883879053,-10.96169596478895,-4.881360475895684,23.347956763928856,5.540719723277663,-20.19239395514531,31.361751126842364,,33.46689770662455,,,,,,,,,
LBP07_S00,LBP07,-1898,28,0,27,-1898,1716268023.08,2024-05-21 05:07:03.080000+00:00,2024-05-21 14:07:03.080000+09:00,2024,5,21,5,7,3,80,,,,,,,,,0.348633,1.547852,0.514404,649.414062,-151.000977,-63.964844,,,,,,,,,,,0.0,1.0,1.0,0.0,0.0,0.0,0.0,5.0,0.0,,,,,,,40.67096518936398,-14.286997454240057,-8.110208568180214,24.974795371503415,4.96923982510806,-20.51680229787252,32.701267938994285,,34.49121512719788,,,,,,,,,
LBP07_S00,LBP07,-1897,29,0,28,-1897,1716268023.12,2024-05-21 05:07:03.120000+00:00,2024-05-21 14:07:03.120000+09:00,2024,5,21,5,7,3,120,,,,,,,,,-0.38208,-0.710449,1.356201,-305.175781,40.222168,-27.709961,,,,,,,,,,,0.0,1.0,1.0,0.0,0.0,0.0,0.0,5.0,0.0,,,,,,,60.64071229160151,-16.171585414977987,-11.660813543653552,27.400423863167475,4.322376408508941,-20.98323483961866,34.781637540987894,,35.84757693605323,,,,,,,,,
LBP07_S00,LBP07,-1896,30,0,29,-1896,1716268023.16,2024-05-21 05:07:03.160000+00:00,2024-05-21 14:07:03.160000+09:00,2024,5,21,5,7,3,160,,,,,,,,,0.356445,0.463867,1.327148,176.330566,-74.645996,10.498047,,,,,,,,,,,0.0,1.0,1.0,0.0,0.0,0.0,0.0,5.0,0.0,,,,,,,75.07839255472273,-16.886012792454906,-14.689071516636815,30.403559565356385,3.6469358968107444,-21.570797700284132,37.45631974855784,,37.44239335043526,,,,,,,,,
LBP07_S00,LBP07,-1895,31,0,30,-1895,1716268023.2,2024-05-21 05:07:03.200000+00:00,2024-05-21 14:07:03.200000+09:00,2024,5,21,5,7,3,200,,,,,,,,,0.051758,-0.05957,1.45459,65.612793,15.625,-16.113281,,,,,,,,,,,0.0,1.0,1.0,0.0,0.0,0.0,0.0,5.0,0.0,,,,,,,80.67674830273646,-16.972782727035206,-16.54919900220678,33.63062949746585,2.968024587729336,-22.232765660372404,40.42430307696374,,39.161456577414945,,,,,,,,,
LBP07_S00,LBP07,-1894,32,0,31,-1894,1716268023.24,2024-05-21 05:07:03.240000+00:00,2024-05-21 14:07:03.240000+09:00,2024,5,21,5,7,3,240,,,,,,,,,0.155029,-0.150146,1.248291,151.794434,14.831543,18.432617,,,,,,,,,,,0.0,1.0,1.0,0.0,0.0,0.0,0.0,5.0,0.0,,,,,,,75.66393903185815,-17.029638681235394,-16.824638372726266,36.65718705874017,2.2868390404799204,-22.905751195281454,43.28570703681146,,40.89398337040472,,,,,,,,,
LBP07_S00,LBP07,-1893,33,0,32,-1893,1716268023.28,2024-05-21 05:07:03.280000+00:00,2024-05-21 14:07:03.280000+09:00,2024,5,21,5,7,3,280,,,,,,,,,0.101074,0.340332,0.706543,146.484375,21.911621,-10.253906,,,,,,,,,,,0.0,1.0,1.0,0.0,0.0,0.0,0.0,5.0,0.0,,,,,,,60.733909981608505,-17.493153913595474,-15.331741301516436,39.08654345800451,1.5871128839361015,-23.519020847342112,45.644508414688225,,42.555298481144185,,,,,,,,,
LBP07_S00,LBP07,-1892,34,0,33,-1892,1716268023.32,2024-05-21 05:07:03.320000+00:00,2024-05-21 14:07:03.320000+09:00,2024,5,21,5,7,3,320,,,,,,,,,-0.095703,-0.123779,0.801758,113.708496,-26.245117,-46.203613,,,,,,,,,,,0.0,1.0,1.0,0.0,0.0,0.0,0.0,5.0,0.0,,,,,,,39.38875213519093,-18.51396273310791,-12.137110666375087,40.66209354341215,0.8465543746117851,-24.004505273997115,47.22646269933552,,44.10412638009526,1.0426199375082628,,,,,,,,
LBP07_S00,LBP07,-1891,35,0,34,-1891,1716268023.36,2024-05-21 05:07:03.360000+00:00,2024-05-21 14:07:03.360000+09:00,2024,5,21,5,7,3,360,,,,,,,,,0.364014,1.102539,0.477539,213.134766,-87.524414,-36.193848,,,,,,,,,,,0.0,1.0,1.0,0.0,0.0,0.0,0.0,5.0,0.0,,,,,,,17.438009521893193,-19.96936320563908,-7.58461382180174,41.35961392428788,0.04777984638622179,-24.307889826869186,47.973883048123994,,45.55277168945828,1.076820214807813,,,,,,,,
LBP07_S00,LBP07,-1890,36,0,35,-1890,1716268023.4,2024-05-21 05:07:03.400000+00:00,2024-05-21 14:07:03.400000+09:00,2024,5,21,5,7,3,400,,,,,,,,,0.030273,-0.039551,0.897217,-314.758301,-8.789062,17.089844,,,,,,,,,,,0.0,1.0,1.0,0.0,0.0,0.0,0.0,5.0,0.0,,,,,,,1.6479737371830243,-21.579402359958557,-2.2877669013208917,41.4255328737752,-0.8153962480121205,-24.39940050292202,48.08399307274192,,46.96888370154964,1.0736240581214596,,,,,,,,
LBP07_S00,LBP07,-1889,37,0,36,-1889,1716268023.44,2024-05-21 05:07:03.440000+00:00,2024-05-21 14:07:03.440000+09:00,2024,5,21,5,7,3,440,,,,,,,,,0.109131,0.126709,0.79126,10.620117,-34.240723,-11.71875,,,,,,,,,,,0.0,1.0,1.0,0.0,0.0,0.0,0.0,5.0,0.0,,,,,,,-2.1371445147878676,-23.039363652712535,2.9560371637614975,41.340047093183685,-1.736970794120622,-24.28115901637156,47.974902234236964,,48.46597172862962,1.0555721047486692,,,,,,,,
LBP07_S00,LBP07,-1888,38,0,37,-1888,1716268023.48,2024-05-21 05:07:03.480000+00:00,2024-05-21 14:07:03.480000+09:00,2024,5,21,5,7,3,480,,,,,,,,,0.085938,0.042236,0.810791,-160.766602,5.004883,37.475586,,,,,,,,,,,0.0,1.0,1.0,0.0,0.0,0.0,0.0,5.0,0.0,0.08995116,0.15518234666666664,1.09569008,27.38362628,-2.32177736,-4.17968748,9.186950732882286,-24.095266755371814,7.330842589218405,41.70752512249898,-2.7007814643354946,-23.987925312802826,48.189546928505024,1.0426199375082628,50.18097574689491,1.0335104628930327,-0.004013160000000002,-0.11294634666666664,-0.28489907999999997,0.40185858666666663,0.30649709372745904,0.30649709372745904,0.30649709372745904,0.30649709372745904
LBP07_S00,LBP07,-1887,39,0,38,-1887,1716268023.52,2024-05-21 05:07:03.520000+00:00,2024-05-21 14:07:03.520000+09:00,2024,5,21,5,7,3,520,,,,,,,,,0.110107,0.041748,0.877197,76.049805,-38.391113,9.460449,,,,,,,,,,,0.0,1.0,1.0,0.0,0.0,0.0,0.0,5.0,0.0,0.0858854,0.17513352,1.08825844,23.17220049333333,-1.7887369999999998,-4.99674476,34.85801189840399,-24.54847331905701,10.199812600661149,43.10184559843514,-3.682720397097775,-23.57993280877638,49.268090634618176,1.1110204921073634,52.24266200415184,1.0287916543717117,0.024221599999999996,-0.13338551999999998,-0.21106143999999993,0.3686685599999999,0.25084918637919473,0.2786731400533269,0.2786731400533269,0.2786731400533269
LBP07_S00,LBP07,-1886,40,0,39,-1886,1716268023.56,2024-05-21 05:07:03.560000+00:00,2024-05-21 14:07:03.560000+09:00,2024,5,21,5,7,3,560,,,,,,,,,-0.046631,-0.054932,0.77124,-24.169922,-4.821777,20.324707,,,,,,,,,,,0.0,1.0,1.0,0.0,0.0,0.0,0.0,5.0,0.0,0.08472004,0.15486333333333333,1.0836848666666667,16.192220026666668,-1.8969726799999997,-4.691568973333333,70.21245050208856,-24.225750342410052,11.267362024653098,45.91034361851868,-4.651750410794177,-23.129238327790258,51.61743986947148,1.067231744748753,54.73917008823257,1.0281161137350152,-0.13135104,-0.20979533333333333,-0.3124448666666667,0.65359124,0.39860879606937577,0.31865169205867655,0.31865169205867655,0.31865169205867655
LBP07_S00,LBP07,-1885,41,0,40,-1885,1716268023.6,2024-05-21 05:07:03.600000+00:00,2024-05-21 14:07:03.600000+09:00,2024,5,21,5,7,3,600,,,,,,,,,0.068115,-0.145996,0.873291,157.043457,-14.160156,-3.662109,,,,,,,,,,,0.0,1.0,1.0,0.0,0.0,0.0,0.0,5.0,0.0,0.0943522,0.14824224,1.0661881333333334,14.881184866666667,-0.8789062666666666,-3.6515299199999998,107.7702430304481,-22.96201757633389,10.651326833814268,50.2211533397366,-5.570231113847533,-22.703185254437688,55.39518334776345,1.001416244630298,57.693030050674814,1.0237270871397097,-0.026237200000000002,-0.29423824,-0.19289713333333336,0.5133725733333334,0.35280849846673956,0.32719089366069226,0.32719089366069226,0.32719089366069226
LBP07_S00,LBP07,-1884,42,0,41,-1884,1716268023.64,2024-05-21 05:07:03.640000+00:00,2024-05-21 14:07:03.640000+09:00,2024,5,21,5,7,3,640,,,,,,,,,0.083984,0.176514,0.272949,207.580566,-34.545898,43.212891,,,,,,,,,,,0.0,1.0,1.0,0.0,0.0,0.0,0.0,5.0,0.0,0.08761392000000001,0.12168625333333334,1.0529850133333332,18.929036426666666,0.858561186666667,-2.7848306933333333,139.12224375412396,-20.62328124899833,8.842866032682839,55.78604308990156,-6.395162363807466,-22.349470613130375,60.43574721946434,0.9452638954704867,61.049245190649536,1.0223099690928354,-0.0036299200000000087,0.05482774666666666,-0.7800360133333332,0.8384936799999998,0.7819689509313721,0.4181465051148282,0.4181465051148282,0.4181465051148282
LBP07_S00,LBP07,-1883,43,0,42,-1883,1716268023.68,2024-05-21 05:07:03.680000+00:00,2024-05-21 14:07:03.680000+09:00,2024,5,21,5,7,3,680,,,,,,,,,0.210205,-0.429199,0.650635,285.461426,-33.935547,-0.854492,,,,,,,,,,,0.0,1.0,1.0,0.0,0.0,0.0,0.0,5.0,0.0,0.08836586666666667,0.13998702666666665,1.0209114533333334,26.320800759999997,-1.1905924533333332,-2.7734374666666666,157.0789442270563,-17.16728833199127,6.564387794303758,62.06920085898381,-7.081853897087116,-22.086895101358223,66.26137098725746,1.005197611765106,64.6786856111081,1.0219776952312045,0.12183913333333334,-0.5691860266666666,-0.3702764533333335,1.0613016133333333,0.6898711178597908,0.463433940572322,0.463433940572322,0.463433940572322
LBP07_S00,LBP07,-1882,44,0,43,-1882,1716268023.72,2024-05-21 05:07:03.720000+00:00,2024-05-21 14:07:03.720000+09:00,2024,5,21,5,7,3,720,,,,,,,,,-0.081543,0.493652,0.386719,209.228516,-2.13623,-24.108887,,,,,,,,,,,0.0,1.0,1.0,0.0,0.0,0.0,0.0,5.0,0.0,0.08369465333333333,0.13834314666666667,0.9990136666666666,23.319498666666664,-3.05989584,-3.32682288,157.4732713373758,-12.714871181564636,4.562449806600653,68.36813171247884,-7.590448744349702,-21.904397109094198,72.1915435401429,1.0240628699148369,68.39530400464655,1.01678410831467,-0.16523765333333335,0.3553088533333333,-0.6122946666666667,1.1328411733333332,0.7269474686417166,0.5010787302965213,0.5010787302965213,0.5010787302965213
LBP07_S00,LBP07,-1881,45,0,44,-1881,1716268023.76,2024-05-21 05:07:03.760000+00:00,2024-05-21 14:07:03.760000+09:00,2024,5,21,5,7,3,760,,,,,,,,,0.272705,-0.298096,0.693848,132.080078,9.765625,-2.380371,,,,,,,,,,,0.0,1.0,1.0,0.0,0.0,0.0,0.0,5.0,0.0,0.09294921333333334,0.1434342933333333,0.9783398400000001,16.744791626666668,-3.57584636,-2.1622720933333337,140.1196487473212,-7.597594404148748,3.3951144070465022,73.97291766237169,-7.894352520515652,-21.768592532812338,77.5124826725464,0.9930039009725707,71.98235958277316,1.00716657797016,0.17975578666666664,-0.4415302933333333,-0.28449184000000005,0.90577792,0.5551547079848618,0.5078382275075638,0.5078382275075638,0.5078382275075638
LBP07_S00,LBP07,-1880,46,0,45,-1880,1716268023.8,2024-05-21 05:07:03.800000+00:00,2024-05-21 14:07:03.800000+09:00,2024,5,21,5,7,3,800,,,,,,,,,-0.008545,0.280762,0.399902,167.663574,-23.071289,-10.559082,,,,,,,,,,,0.0,1.0,1.0,0.0,0.0,0.0,0.0,5.0,0.0,0.09580077333333334,0.15399744,0.9838932266666666,10.802408813333333,-3.6303711066666664,-1.4184569866666668,108.69033039675185,-2.357602515082341,3.2846447895198474,78.32053087824175,-7.988656621118946,-21.637206741231545,81.64614447248911,1.0109730247178417,75.22203053368001,0.998864076167914,-0.10434577333333334,0.12676456,-0.5839912266666666,0.8151015599999999,0.6066325468586095,0.5188153741021244,0.5188153741021244,0.5188153741021244
LBP07_S00,LBP07,-1879,47,0,46,-1879,1716268023.84,2024-05-21 05:07:03.840000+00:00,2024-05-21 14:07:03.840000+09:00,2024,5,21,5,7,3,840,,,,,,,,,0.312012,0.863037,0.593994,147.644043,-48.400879,-18.798828,,,,,,,,,,,0.0,1.0,1.0,0.0,0.0,0.0,0.0,5.0,0.0,0.09042316,0.14791345333333333,0.9842350266666665,5.51920568,-3.2885742399999995,-1.1515299066666664,69.58560727297207,2.3111467593032233,4.09085401319212,81.10395516916064,-7.8962107507468176,-21.47357258070386,84.26930643882258,1.0189872304765266,77.92475468893603,0.9989641003325787,0.22158884,0.7151235466666668,-0.3902410266666665,1.3269534133333334,0.8442697198783762,0.5513608086797496,0.5513608086797496,0.5513608086797496
LBP07_S00,LBP07,-1878,48,0,47,-1878,1716268023.88,2024-05-21 05:07:03.880000+00:00,2024-05-21 14:07:03.880000+09:00,2024,5,21,5,7,3,880,,,,,,,,,-0.010498,-0.255127,0.979736,-231.689453,58.59375,52.246094,,,,,,,,,,,0.0,1.0,1.0,0.0,0.0,0.0,0.0,5.0,0.0,0.09291013333333333,0.14262048,0.98573568,12.566731720000002,-5.00895184,-1.7724608933333332,30.15010306286015,5.682410178389608,5.414845812318985,82.30995929167504,-7.668914343611233,-21.2569787482111,85.35573086388955,0.9906840683429166,79.9557231087071,1.0023994374339167,-0.10340813333333332,-0.39774748,-0.005999679999999952,0.5071552933333332,0.41101374191860934,0.5386019844287369,0.5386019844287369,0.5386019844287369
LBP07_S00,LBP07,-1877,49,0,48,-1877,1716268023.92,2024-05-21 05:07:03.920000+00:00,2024-05-21 14:07:03.920000+09:00,2024,5,21,5,7,3,920,,,,,,,,,-0.051025,0.287354,0.638428,-93.017578,23.55957,16.174316,,,,,,,,,,,0.0,1.0,1.0,0.0,0.0,0.0,0.0,5.0,0.0,0.09667641333333334,0.15681970666666667,0.9784602933333334,11.494954386666667,-5.220540373333333,0.33284509333333323,-3.226948438551132,7.163011205221867,6.786430530384496,82.18088135413299,-7.382393895402358,-20.985521526995722,85.13864641588424,1.014845188662262,81.25419968462188,1.001276500547567,-0.14770141333333334,0.13053429333333333,-0.3400322933333334,0.618268,0.39303545609298784,0.5264714404007578,0.5264714404007578,0.5264714404007578
LBP07_S00,LBP07,-1876,50,0,49,-1876,1716268023.96,2024-05-21 05:07:03.960000+00:00,2024-05-21 14:07:03.960000+09:00,2024,5,21,5,7,3,960,,,,,,,,,0.177734,-0.207275,0.626709,-130.79834,4.882812,26.123047,,,,,,,,,,,0.0,1.0,1.0,0.0,0.0,0.0,0.0,5.0,0.0,0.09523436,0.1441699733333333,0.9703808666666667,10.92203772,-4.79410808,2.31201176,-26.54347081059248,6.459649244300358,7.8507733007124765,81.11914252170929,-7.124007925630344,-20.671490594967224,84.01414937854008,0.9842067267262933,81.84042882061703,0.9953951595477089,0.08249964,-0.3514449733333333,-0.3436718666666667,0.77761648,0.49842763950201247,0.5243142249470082,0.5243142249470082,0.5243142249470082
LBP07_S00,LBP07,-1875,51,0,50,-1875,1716268024.0,2024-05-21 05:07:04+00:00,2024-05-21 14:07:04+09:00,2024,5,21,5,7,4,0,5.0,7.0,4.0,40.529182,141.543701,20.153,3.0,8.0,0.029053,-0.110596,1.359619,102.905273,-20.141602,-6.04248,-240.0,-15.0,408.0,2384.0,0.0,1015.299988,23.059999,0.022792,-17.043573,4.007812,1.0,1.0,1.0,0.0,0.0,0.0,0.0,6.0,0.0,0.10081378666666665,0.15915044,0.9505273466666665,12.084960893333333,-5.736490893333333,2.871907586666666,-38.73032111504194,3.6882536135477304,8.474384233955272,79.56992967710761,-6.976477781088435,-20.332515225609015,82.42242490032366,1.0024164862769458,81.80755902605956,0.9958703130430052,-0.07176078666666666,-0.26974644000000003,0.4090916533333334,0.7505988800000001,0.49524613398056194,0.5222379327351191,0.5222379327351191,0.5222379327351191
LBP07_S00,LBP07,-1874,52,0,51,-1874,1716268024.04,2024-05-21 05:07:04.040000+00:00,2024-05-21 14:07:04.040000+09:00,2024,5,21,5,7,4,40,,,,,,,,,0.045654,0.294434,1.093506,-25.45166,16.906738,12.207031,,,,,,,,,,,1.0,1.0,1.0,0.0,0.0,0.0,0.0,6.0,0.0,0.10036456,0.15053716,0.9529134133333333,9.589029893333333,-4.994303386666666,3.1551107199999997,-41.25411297765525,-0.6116051062507534,8.736995647792881,77.9197651580014,-7.000941985338465,-19.9830353996973,80.74543141717504,0.9796172664838665,81.30032207058811,0.9907335348298769,-0.054710560000000005,0.14389683999999997,0.14059258666666674,0.33919998666666673,0.20848458303462966,0.5013210427550865,0.5013210427550865,0.5013210427550865
LBP07_S00,LBP07,-1873,53,0,52,-1873,1716268024.08,2024-05-21 05:07:04.080000+00:00,2024-05-21 14:07:04.080000+09:00,2024,5,21,5,7,4,80,,,,,,,,,0.064209,0.226562,1.002686,119.506836,-1.77002,-21.850586,,,,,,,,,,,1.0,1.0,1.0,0.0,0.0,0.0,0.0,6.0,0.0,0.09890948,0.1530990133333333,0.9730240800000002,6.072591093333333,-2.9606119866666663,3.758951853333333,-37.095763576788286,-5.558264092001095,8.835104096646434,76.43593461492986,-7.223272549018509,-19.629631235831443,79.24613674640528,0.9939682429016097,80.48573933716723,0.985400898252518,-0.03470047999999999,0.0734629866666667,0.029661919999999786,0.1378253866666665,0.08649140547073816,0.47539419042481473,0.47539419042481473,0.47539419042481473
LBP07_S00,LBP07,-1872,54,0,53,-1872,1716268024.12,2024-05-21 05:07:04.120000+00:00,2024-05-21 14:07:04.120000+09:00,2024,5,21,5,7,4,120,,,,,,,,,0.104736,0.396729,0.904785,-30.883789,-2.258301,8.239746,,,,,,,,,,,1.0,1.0,1.0,0.0,0.0,0.0,0.0,6.0,0.0,0.09630532000000001,0.13986008,0.9686132666666667,6.425781199999999,-2.0711263199999994,4.2097982133333325,-29.60001090439882,-10.086529430263377,8.9599193798297,75.25193417875391,-7.626733726229044,-19.271234460638254,78.05383490009446,0.9652494599162545,79.52299263312743,0.9836192962390913,0.008430679999999982,0.25686892,-0.06382826666666674,0.3291278666666667,0.26481458806663183,0.4630071549919804,0.4630071549919804,0.4630071549919804
LBP07_S00,LBP07,-1871,55,0,54,-1871,1716268024.16,2024-05-21 05:07:04.160000+00:00,2024-05-21 14:07:04.160000+09:00,2024,5,21,5,7,4,160,,,,,,,,,0.018066,-0.003662,0.785156,-143.981934,1.953125,19.104004,,,,,,,,,,,1.0,1.0,1.0,0.0,0.0,0.0,0.0,6.0,0.0,0.09610024,0.14994470666666665,0.98009764,5.53873692,-1.355794293333333,5.769043,-21.602706335621757,-13.159765826069435,9.211724996836779,74.38782592532904,-8.153124359271821,-18.902765460764783,77.18378472697157,0.9977554359255367,78.53945618625627,0.9762623991583951,-0.07803424,-0.15360670666666665,-0.19494164000000003,0.4265825866666667,0.2601664965964038,0.4517382295255595,0.4517382295255595,0.4517382295255595
LBP07_S00,LBP07,-1870,56,0,55,-1870,1716268024.2,2024-05-21 05:07:04.200000+00:00,2024-05-21 14:07:04.200000+09:00,2024,5,21,5,7,4,200,,,,,,,,,0.091553,-0.224854,1.0354,24.414062,-49.438477,3.540039,,,,,,,,,,,1.0,1.0,1.0,0.0,0.0,0.0,0.0,6.0,0.0,0.09406573333333335,0.13488285333333333,0.9873209466666666,6.722005146666667,-1.6097005333333327,6.28336592,-14.998424952677295,-14.001670805151704,9.582397992298972,73.78788892722194,-8.71319119147789,-18.519469541072823,76.57377491777466,0.9596052425865578,77.61770571392931,0.9708348763675383,-0.00251273333333335,-0.35973685333333333,0.04807905333333351,0.4103286400000002,0.3629442282836334,0.4470648610391423,0.4470648610391423,0.4470648610391423
LBP07_S00,LBP07,-1869,57,0,56,-1869,1716268024.24,2024-05-21 05:07:04.240000+00:00,2024-05-21 14:07:04.240000+09:00,2024,5,21,5,7,4,240,,,,,,,,,0.251953,0.498291,0.549316,40.222168,-39.672852,10.803223,,,,,,,,,,,1.0,1.0,1.0,0.0,0.0,0.0,0.0,6.0,0.0,0.09617510666666666,0.13977544,0.9808984133333333,8.18033848,-1.8424479199999992,7.603352906666667,-10.68888219694041,-12.292482166465788,9.999769481237228,73.36033363934433,-9.204890478136521,-18.119478761823334,76.12347910461378,0.9656608647029358,76.79480030028704,0.9621571484329203,0.1557778933333333,0.35851555999999996,-0.43158241333333325,0.9458758666666665,0.5822916265172539,0.45382619931304796,0.45382619931304796,0.45382619931304796
LBP07_S00,LBP07,-1868,58,0,57,-1868,1716268024.28,2024-05-21 05:07:04.280000+00:00,2024-05-21 14:07:04.280000+09:00,2024,5,21,5,7,4,280,,,,,,,,,0.268066,0.32959,0.815674,-38.879395,-18.615723,27.832031,,,,,,,,,,,1.0,1.0,1.0,0.0,0.0,0.0,0.0,6.0,0.0,0.09031898666666667,0.13326501333333332,0.9786913866666667,10.236816346666666,-2.648925786666666,7.67415368,-8.762389403253893,-8.261465350141679,10.40180393993473,73.00983806321418,-9.535349092142189,-17.703406604225943,75.72826382349146,0.9728680482086511,76.07163306571061,0.9605017383368868,0.17774701333333337,0.19632498666666667,-0.16301738666666665,0.5370893866666667,0.31098580272130844,0.4470242756658222,0.4470242756658222,0.4470242756658222
LBP07_S00,LBP07,-1867,59,0,58,-1867,1716268024.32,2024-05-21 05:07:04.320000+00:00,2024-05-21 14:07:04.320000+09:00,2024,5,21,5,7,4,320,,,,,,,,,0.102051,-0.389893,0.97168,-135.742188,22.094727,13.61084,,,,,,,,,,,1.0,1.0,1.0,0.0,0.0,0.0,0.0,6.0,0.0,0.09276038666666665,0.12787111999999998,0.9690234266666666,5.808919213333332,-1.6796875066666659,8.708496133333334,-8.76819493561256,-2.6281249565883726,10.801635203628145,72.65911026578968,-9.640474090405723,-17.27134119608082,75.30328194717283,0.9412762178552989,75.42799542581844,0.9571419335874843,0.00929061333333335,-0.5177641199999999,0.0026565733333333563,0.5297113066666667,0.5178542814705303,0.450243821384218,0.450243821384218,0.450243821384218
LBP07_S00,LBP07,-1866,60,0,59,-1866,1716268024.36,2024-05-21 05:07:04.360000+00:00,2024-05-21 14:07:04.360000+09:00,2024,5,21,5,7,4,360,,,,,,,,,0.227539,0.487061,0.972412,119.445801,-0.915527,6.530762,,,,,,,,,,,1.0,1.0,1.0,0.0,0.0,0.0,0.0,6.0,0.0,0.09521482666666667,0.12816084000000003,0.9558821466666666,7.414550719999999,-2.519531253333333,9.190266973333333,-9.982427315220168,3.598806521423597,11.312421348858091,72.25981317318087,-9.49652182954878,-16.818844342126496,74.79664465527034,0.9299314988177279,74.83872256228827,0.9479548152637083,0.13232417333333332,0.35890016,0.016529853333333455,0.5077541866666668,0.38287367074218775,0.44731468439978195,0.44731468439978195,0.44731468439978195
LBP07_S00,LBP07,-1865,61,0,60,-1865,1716268024.4,2024-05-21 05:07:04.400000+00:00,2024-05-21 14:07:04.400000+09:00,2024,5,21,5,7,4,400,,,,,,,,,0.124512,0.044922,0.782471,-41.687012,53.100586,7.202148,,,,,,,,,,,1.0,1.0,1.0,0.0,0.0,0.0,0.0,6.0,0.0,0.09287108,0.12127281333333334,0.9463932133333333,6.881510346666666,-2.792968746666666,9.151204466666666,-11.595332114601385,9.393381830429444,12.119301054317388,71.79599988859682,-9.120786556331602,-16.3340722999538,74.19337076390096,0.9156392069307645,74.28733972636883,0.9439656524586381,0.03164092,-0.07635081333333335,-0.16392221333333323,0.2719139466666666,0.18357855686110708,0.4363256790856705,0.4363256790856705,0.4363256790856705
LBP07_S00,LBP07,-1864,62,0,61,-1864,1716268024.44,2024-05-21 05:07:04.440000+00:00,2024-05-21 14:07:04.440000+09:00,2024,5,21,5,7,4,440,,,,,,,,,0.086914,-0.037598,0.806396,-36.132812,14.892578,17.51709,,,,,,,,,,,1.0,1.0,1.0,0.0,0.0,0.0,0.0,6.0,0.0,0.09567056,0.13831057333333333,0.94155272,7.020670506666665,-3.0753580799999995,8.739420613333333,-12.803975823685205,13.95565797197626,13.407691312864463,71.28384085564942,-8.562560237452551,-15.797764647439221,73.51375907141082,0.9630631655235303,73.77493199471053,0.9418744164222691,-0.008756559999999997,-0.17590857333333332,-0.13515672,0.31982185333333335,0.22200865405736037,0.4277529980845381,0.4277529980845381,0.4277529980845381
LBP07_S00,LBP07,-1863,63,0,62,-1863,1716268024.48,2024-05-21 05:07:04.480000+00:00,2024-05-21 14:07:04.480000+09:00,2024,5,21,5,7,4,480,,,,,,,,,0.149414,0.052002,0.950684,-39.001465,11.779785,23.55957,,,,,,,,,,,1.0,1.0,1.0,0.0,0.0,0.0,0.0,6.0,0.0,0.09740884,0.14001629333333332,0.9488671733333335,0.4012043599999995,-1.4916992266666662,9.483235720000001,-12.8467881987003,16.846896340661996,15.272134481247338,70.7699693277014,-7.888684383826072,-15.186879268189328,72.80976034748348,0.9603701954075871,73.32286969020961,0.9382398670458307,0.052005159999999995,-0.08801429333333333,0.0018168266666664934,0.14183627999999981,0.10224653224793667,0.4195829756253571,0.41523351862928415,0.41523351862928415
LBP07_S00,LBP07,-1862,64,0,63,-1862,1716268024.52,2024-05-21 05:07:04.520000+00:00,2024-05-21 14:07:04.520000+09:00,2024,5,21,5,7,4,520,,,,,,,,,0.174805,0.391846,0.914551,77.209473,-6.347656,4.150391,,,,,,,,,,,1.0,1.0,1.0,0.0,0.0,0.0,0.0,6.0,0.0,0.0999772,0.11959637333333334,0.9603645733333334,2.1679686799999995,-0.4532877599999996,9.763997439999999,-11.033435535870534,17.992916350137545,17.633747155894614,70.32863190626658,-7.1689677298205705,-14.481529381953543,72.16110626479288,0.8733782766784924,72.96877982287359,0.9345474920398033,0.07482779999999999,0.2722496266666667,-0.04581357333333336,0.39289100000000005,0.28603835822236867,0.42099054249908413,0.4104485126882873,0.4104485126882873
LBP07_S00,LBP07,-1861,65,0,64,-1861,1716268024.56,2024-05-21 05:07:04.560000+00:00,2024-05-21 14:07:04.560000+09:00,2024,5,21,5,7,4,560,,,,,,,,,-0.053223,-0.044189,1.059082,17.578125,12.207031,8.666992,,,,,,,,,,,1.0,1.0,1.0,0.0,0.0,0.0,0.0,6.0,0.0,0.10115884,0.1446712533333333,0.9529589733333333,9.719238213333334,-1.6984049466666662,9.85839848,-6.821857801399423,17.59031055014346,20.193373533646596,70.0557575942106,-6.465355307814832,-13.67379444060768,71.66995636777715,0.9578638078748339,72.75633913407927,0.9350951656086709,-0.15438184,-0.1888602533333333,0.10612302666666673,0.44936512000000006,0.26601512099843216,0.4156867954962463,0.40529017727079253,0.40529017727079253
LBP07_S00,LBP07,-1860,66,0,65,-1860,1716268024.6,2024-05-21 05:07:04.600000+00:00,2024-05-21 14:07:04.600000+09:00,2024,5,21,5,7,4,600,,,,,,,,,0.108643,0.315918,0.97876,-1.037598,16.296387,13.305664,,,,,,,,,,,1.0,1.0,1.0,0.0,0.0,0.0,0.0,6.0,0.0,0.09759438666666667,0.13386070666666666,0.9617480400000001,3.0037434266666665,0.0764974000000006,10.625813853333334,0.014389689284329384,15.97980996860376,22.445723784584185,70.05633318178198,-5.826162909070682,-12.775965489224312,71.44969760119163,0.938692882222869,72.72112899374577,0.9376333537444754,0.011048613333333332,0.18205729333333331,0.017011959999999826,0.2101178666666665,0.1831838876525184,0.40890181106367757,0.39763133969774855,0.39763133969774855
LBP07_S00,LBP07,-1859,67,0,66,-1859,1716268024.64,2024-05-21 05:07:04.640000+00:00,2024-05-21 14:07:04.640000+09:00,2024,5,21,5,7,4,640,,,,,,,,,-0.036377,-0.05835,1.051758,-26.428223,22.155762,19.836426,,,,,,,,,,,1.0,1.0,1.0,0.0,0.0,0.0,0.0,6.0,0.0,0.10460936,0.14073245333333334,0.9594856666666666,7.150065039999999,-0.7014973866666662,10.9944662,9.132746406253577,13.539898150139388,23.769999291330606,70.42164303803213,-5.2845669830651065,-11.825165517571088,71.60285605960472,0.929315370938554,72.8762882865158,0.9402651119098209,-0.14098636,-0.19908245333333335,0.0922723333333334,0.4323411466666668,0.26081633466875925,0.38805570641317305,0.39307083953011557,0.39307083953011557
LBP07_S00,LBP07,-1858,68,0,67,-1858,1716268024.68,2024-05-21 05:07:04.680000+00:00,2024-05-21 14:07:04.680000+09:00,2024,5,21,5,7,4,680,,,,,,,,,0.075928,0.137695,0.910645,-55.480957,28.198242,48.156738,,,,,,,,,,,1.0,1.0,1.0,0.0,0.0,0.0,0.0,6.0,0.0,0.10249022666666666,0.139821,0.9580664,5.2775064533333325,0.10253906666666714,10.874837293333334,19.37949284118113,10.619353768703359,23.587630293753936,71.19682275167938,-4.859792832316972,-10.881660305820931,72.18736515013114,0.9359442981483743,73.20221324140451,0.9374508398164128,-0.02656222666666666,-0.002125999999999989,-0.04742139999999995,0.0761096266666666,0.05439541285302808,0.3626366782129026,0.38214582576633854,0.38214582576633854
LBP07_S00,LBP07,-1857,69,0,68,-1857,1716268024.72,2024-05-21 05:07:04.720000+00:00,2024-05-21 14:07:04.720000+09:00,2024,5,21,5,7,4,720,,,,,,,,,0.124512,0.156982,0.810303,-0.915527,-12.817383,22.338867,,,,,,,,,,,1.0,1.0,1.0,0.0,0.0,0.0,0.0,6.0,0.0,0.1036328,0.1447266,0.9522232933333333,3.436686146666666,0.028483080000000455,11.169433640000001,28.731994914528407,7.499990717946757,21.545141714658133,72.34610254826052,-4.559793203599102,-10.019854637234605,73.17887505922954,0.9467529535439762,73.64363479661623,0.9345797074770201,0.0208792,0.0122554,-0.14192029333333334,0.17505489333333335,0.1439705021232453,0.33931759955216373,0.3747028469024919,0.3747028469024919
LBP07_S00,LBP07,-1856,70,0,69,-1856,1716268024.76,2024-05-21 05:07:04.760000+00:00,2024-05-21 14:07:04.760000+09:00,2024,5,21,5,7,4,760,,,,,,,,,0.058594,-0.128418,0.96875,-30.700684,1.037598,38.146973,,,,,,,,,,,1.0,1.0,1.0,0.0,0.0,0.0,0.0,6.0,0.0,0.10250650666666666,0.14581709333333334,0.9496223866666665,0.49560541333333274,0.0813802133333338,11.027018279999998,34.58228491336402,4.377245387823826,17.659426312980028,73.72939394479508,-4.384703388086149,-9.313477584715404,74.44454325193537,0.9553133801757719,74.11519978992908,0.9376303189376813,-0.04391250666666666,-0.27423509333333335,0.01912761333333346,0.3372752133333335,0.278386530293981,0.32824687244452844,0.3717841706416279,0.3717841706416279
LBP07_S00,LBP07,-1855,71,0,70,-1855,1716268024.8,2024-05-21 05:07:04.800000+00:00,2024-05-21 14:07:04.800000+09:00,2024,5,21,5,7,4,800,,,,,,,,,-0.125488,0.015381,1.231445,95.153809,-7.324219,6.225586,,,,,,,,,,,1.0,1.0,1.0,0.0,0.0,0.0,0.0,6.0,0.0,0.10285481333333334,0.14215173333333334,0.9528548133333333,-1.9230143733333338,0.04313152000000045,11.233724,34.39295778710384,1.358546010534418,12.36924572573708,75.10511225627923,-4.330361547664772,-8.81870775568592,75.74496369160126,0.9419567885842197,74.51398247109653,0.932223359820916,-0.22834281333333334,-0.12677073333333333,0.2785901866666666,0.6337037333333333,0.38186876192982944,0.3192563210473773,0.3720807762677515,0.3720807762677515
LBP07_S00,LBP07,-1854,72,0,71,-1854,1716268024.84,2024-05-21 05:07:04.840000+00:00,2024-05-21 14:07:04.840000+09:00,2024,5,21,5,7,4,840,,,,,,,,,-0.098877,0.102051,1.325195,63.842773,26.306152,6.04248,,,,,,,,,,,1.0,1.0,1.0,0.0,0.0,0.0,0.0,6.0,0.0,0.10483072,0.14273766666666665,0.9550390533333335,-3.6775716666666667,0.3759765733333338,11.683756546666666,26.568575071300767,-1.5133947409495774,6.469010470903233,76.16785525913126,-4.390897337302755,-8.559947336849792,76.77300862029794,0.93492044458945,74.73534381593494,0.9279942664192864,-0.20370772,-0.04068666666666665,0.3701559466666664,0.6145503333333331,0.4244616176814328,0.3024639969594995,0.3735773717367138,0.3735773717367138
LBP07_S00,LBP07,-1853,73,0,72,-1853,1716268024.88,2024-05-21 05:07:04.880000+00:00,2024-05-21 14:07:04.880000+09:00,2024,5,21,5,7,4,880,,,,,,,,,0.193115,0.136963,1.243164,252.746582,-45.227051,-10.681152,,,,,,,,,,,1.0,1.0,1.0,0.0,0.0,0.0,0.0,6.0,0.0,0.10145506666666666,0.13714195999999998,0.9527831999999999,-5.939941466666667,1.2027994933333337,11.722005253333334,11.222165871203456,-4.213684216895549,0.9423832524819142,76.6167418939794,-4.559444705978577,-8.522252006750515,77.22397589960062,0.9316588720136587,74.68815255928101,0.9262384288070946,0.09165993333333335,-0.00017895999999997803,0.2903808,0.38221969333333333,0.3045038331679795,0.2982036006094743,0.37165866233202677,0.37165866233202677
LBP07_S00,LBP07,-1852,74,0,73,-1852,1716268024.92,2024-05-21 05:07:04.920000+00:00,2024-05-21 14:07:04.920000+09:00,2024,5,21,5,7,4,920,,,,,,,,,-0.2146,0.647217,1.414551,-95.031738,42.724609,3.540039,,,,,,,,,,,1.0,1.0,1.0,0.0,0.0,0.0,0.0,6.0,0.0,0.10388670666666666,0.13245121333333335,0.9488085866666668,-4.46126308,1.429850266666667,11.678059933333333,-9.52738010240506,-6.681107515169767,-3.254949139468385,76.2356466898832,-4.826689006585368,-8.65244997232925,76.87675619792144,0.9038843912851037,74.30659195961024,0.9233782964647268,-0.3184867066666667,0.5147657866666667,0.4657424133333331,1.2989949066666666,0.763762785833068,0.31303269379907755,0.38225607107529813,0.38225607107529813
LBP07_S00,LBP07,-1851,75,0,74,-1851,1716268024.96,2024-05-21 05:07:04.960000+00:00,2024-05-21 14:07:04.960000+09:00,2024,5,21,5,7,4,960,,,,,,,,,0.134766,0.63916,1.076172,52.91748,-22.399902,-21.66748,,,,,,,,,,,1.0,1.0,1.0,0.0,0.0,0.0,0.0,6.0,0.0,0.10287758666666666,0.13113285333333335,0.9464094933333335,-3.78987636,1.7122396000000006,11.613769573333334,-31.951774144549802,-8.781089768216692,-5.402264054483042,74.9575757241012,-5.177932597314036,-8.868540534508572,75.65778317945164,0.9037942167071814,73.55766346004658,0.9205767018036759,0.03188841333333334,0.5080271466666666,0.12976250666666644,0.6696780666666664,0.5253063494682022,0.3141078421977251,0.38602055208563774,0.38602055208563774
LBP07_S00,LBP07,-1850,76,0,75,-1850,1716268025.0,2024-05-21 05:07:05+00:00,2024-05-21 14:07:05+09:00,2024,5,21,5,7,5,0,5.0,7.0,5.0,40.529175,141.543625,23.587,3.0,8.0,0.203369,0.395264,0.813232,-245.178223,-10.437012,-18.920898,-239.0,-18.0,405.0,2976.0,0.0,1015.5,23.129999,0.024774,-18.704979,4.007812,1.0,1.0,1.0,0.0,0.0,0.0,0.0,5.0,0.0,0.10408851999999999,0.13065434666666667,0.9419954266666666,-1.2337240133333336,1.4624023600000005,11.010742226666666,-51.735853908847545,-10.306333180992127,-5.156541563417994,72.8881415677473,-5.590185924553721,-9.074802197045292,73.66331104957574,0.896401948206575,72.4448079647989,0.917177676587199,0.09928048,0.2646096533333333,-0.12876342666666662,0.49265355999999993,0.31057189569109317,0.30672087266614634,0.3840859711524443,0.3840859711524443
LBP07_S00,LBP07,-1849,77,0,76,-1849,1716268025.04,2024-05-21 05:07:05.040000+00:00,2024-05-21 14:07:05.040000+09:00,2024,5,21,5,7,5,40,,,,,,,,,0.042725,-0.264893,0.784668,-177.734375,-12.878418,-9.094238,,,,,,,,,,,1.0,1.0,1.0,0.0,0.0,0.0,0.0,5.0,0.0,0.10315102666666667,0.13371424,0.9367154800000002,-1.8554688133333335,1.678873706666667,10.757649786666667,-65.2548338587117,-11.020980189351297,-2.5965180536203185,70.27794821339883,-6.031025132127772,-9.178662919190105,71.13094349306523,0.9117569948166335,71.00812752772251,0.918834275980488,-0.060426026666666674,-0.39860724000000003,-0.15204748000000012,0.6110807466666668,0.43087988193171517,0.3156166846220298,0.38525581892192606,0.38525581892192606
LBP07_S00,LBP07,-1848,78,0,77,-1848,1716268025.08,2024-05-21 05:07:05.080000+00:00,2024-05-21 14:07:05.080000+09:00,2024,5,21,5,7,5,80,,,,,,,,,0.215332,0.043701,0.710938,-152.160645,-9.033203,32.226562,,,,,,,,,,,1.0,1.0,1.0,0.0,0.0,0.0,0.0,5.0,0.0,0.10600910666666666,0.13617844,0.9363834533333333,-0.5249024000000003,1.151529946666667,10.477701866666667,-70.59594238839561,-10.7335985861855,1.837412686821112,67.454110517863,-6.460369075575192,-9.10516641171726,68.37175915342378,0.9073429747246979,69.32093727490881,0.9184407009603138,0.10932289333333334,-0.09247744000000002,-0.22544545333333332,0.4272457866666667,0.26707531586501426,0.32284004103780084,0.382373367627855,0.382373367627855
LBP07_S00,LBP07,-1847,79,0,78,-1847,1716268025.12,2024-05-21 05:07:05.120000+00:00,2024-05-21 14:07:05.120000+09:00,2024,5,21,5,7,5,120,,,,,,,,,0.123535,-0.183838,0.777832,54.077148,-26.184082,13.183594,,,,,,,,,,,1.0,1.0,1.0,0.0,0.0,0.0,0.0,5.0,0.0,0.10708008,0.14091477333333335,0.93827148,-3.7394206266666665,1.5519205733333337,10.924479199999999,-67.9319349218282,-9.36886555231181,7.478978278530268,64.73683312098987,-6.835123697667664,-8.806007280576049,65.68959006359279,0.9187370069334682,67.4819487768902,0.9225721306295261,0.016454920000000012,-0.32475277333333336,-0.16043948000000008,0.5016471733333334,0.3625961319740852,0.326751302794099,0.38190248106467,0.38190248106467
LBP07_S00,LBP07,-1846,80,0,79,-1846,1716268025.16,2024-05-21 05:07:05.160000+00:00,2024-05-21 14:07:05.160000+09:00,2024,5,21,5,7,5,160,,,,,,,,,0.205322,0.570068,0.53418,40.100098,-22.705078,1.098633,,,,,,,,,,,1.0,1.0,1.0,0.0,0.0,0.0,0.0,5.0,0.0,0.10574870666666666,0.13989263999999998,0.9521940133333334,-6.457519573333333,1.9018554666666672,10.764160186666667,-59.16977279071536,-7.00585106333046,13.595265937846843,62.37004220936126,-7.115357740200883,-8.262196643062175,63.31598829945853,0.9213231280110011,65.60308487661524,0.9282379963179916,0.09957329333333334,0.43017536,-0.41801401333333343,0.9477626666666668,0.6080307528730894,0.3406658730451664,0.3871612780834705,0.3871612780834705
LBP07_S00,LBP07,-1845,81,0,80,-1845,1716268025.2,2024-05-21 05:07:05.200000+00:00,2024-05-21 14:07:05.200000+09:00,2024,5,21,5,7,5,200,,,,,,,,,0.146729,0.031738,0.831543,-75.256348,10.192871,21.789551,,,,,,,,,,,1.0,1.0,1.0,0.0,0.0,0.0,0.0,5.0,0.0,0.10369141333333333,0.14853521333333333,0.9607421866666666,-10.56070968,2.365722653333334,10.951334666666666,-47.1218231320228,-3.8631076265927664,19.519569587308077,60.48516928408035,-7.269882045264594,-7.4814138595698525,61.378159320837256,0.958522782517109,63.794494211210505,0.9321477778965115,0.04303758666666667,-0.11679721333333333,-0.12919918666666652,0.2890339866666665,0.17940527512827253,0.333324314918952,0.3824395507435796,0.3824395507435796
LBP07_S00,LBP07,-1844,82,0,81,-1844,1716268025.24,2024-05-21 05:07:05.240000+00:00,2024-05-21 14:07:05.240000+09:00,2024,5,21,5,7,5,240,,,,,,,,,0.236328,0.239014,0.909912,-42.114258,18.554688,39.794922,,,,,,,,,,,1.0,1.0,1.0,0.0,0.0,0.0,0.0,5.0,0.0,0.10669271999999999,0.1440528,0.9745117200000001,-12.583821666666667,2.1988932133333337,11.29964196,-34.587680458185176,-0.2352925063943387,24.73174460315382,59.10166206575294,-7.279293745520367,-6.4921440754437,59.90110609216119,0.9309846943877081,62.14969948279469,0.9394360019937584,0.12963528000000002,0.0949612,-0.06459972000000003,0.2891962,0.17319370412978877,0.3169603980234534,0.3777896430410509,0.3777896430410509
LBP07_S00,LBP07,-1843,83,0,82,-1843,1716268025.28,2024-05-21 05:07:05.280000+00:00,2024-05-21 14:07:05.280000+09:00,2024,5,21,5,7,5,280,,,,,,,,,0.084717,0.00415,0.847168,20.080566,10.620117,20.019531,,,,,,,,,,,1.0,1.0,1.0,0.0,0.0,0.0,0.0,5.0,0.0,0.10342774666666665,0.15286790666666666,0.9841471333333331,-14.137369839999998,2.1223958133333336,11.334635453333332,-23.656974491692267,3.586059579486194,28.883921555649643,58.15538308608525,-7.13585136234092,-5.336787213217714,58.83409091941438,0.9729731687057835,60.73399855692021,0.94272385743048,-0.018710746666666653,-0.14871790666666668,-0.13697913333333311,0.30440778666666646,0.20305267979736344,0.3126430731064956,0.37399101340531865,0.37399101340531865
LBP07_S00,LBP07,-1842,84,0,83,-1842,1716268025.32,2024-05-21 05:07:05.320000+00:00,2024-05-21 14:07:05.320000+09:00,2024,5,21,5,7,5,320,,,,,,,,,0.035156,0.222168,0.901367,-38.94043,19.714355,32.775879,,,,,,,,,,,1.0,1.0,1.0,0.0,0.0,0.0,0.0,5.0,0.0,0.10635092,0.15299485333333332,0.9971451866666666,-16.643880253333336,2.5073242000000007,11.620279986666667,-15.374594003810483,7.363169990420645,31.782817801133813,57.54039932593283,-6.841324562724094,-4.065474501172361,58.088117195171904,0.9605430481697591,59.57810746850847,0.9488214906415857,-0.07119492,0.06917314666666668,-0.0957781866666666,0.23614625333333328,0.13793876139334227,0.29744645230340805,0.36896862506463823,0.36896862506463823
LBP07_S00,LBP07,-1841,85,0,84,-1841,1716268025.36,2024-05-21 05:07:05.360000+00:00,2024-05-21 14:07:05.360000+09:00,2024,5,21,5,7,5,360,,,,,,,,,0.046875,0.017334,0.902832,57.861328,-8.239746,22.155762,,,,,,,,,,,1.0,1.0,1.0,0.0,0.0,0.0,0.0,5.0,0.0,0.10392578666666666,0.14385748,1.0056770933333332,-19.237467493333334,3.4659830533333342,11.548665399999999,-9.778995340579309,10.908018959085414,33.34833820430982,57.14923951230966,-6.405003804360677,-2.7315409729999685,57.571876525404214,0.9428920324923804,58.67734190412513,0.9549710280250394,-0.05705078666666666,-0.12652348000000002,-0.10284509333333325,0.2864193599999999,0.1727428622934619,0.28904121996545906,0.3648805883402388,0.3648805883402388
LBP07_S00,LBP07,-1840,86,0,85,-1840,1716268025.4,2024-05-21 05:07:05.400000+00:00,2024-05-21 14:07:05.400000+09:00,2024,5,21,5,7,5,400,,,,,,,,,0.213623,0.6521,0.824463,18.249512,-16.967773,17.944336,,,,,,,,,,,1.0,1.0,1.0,0.0,0.0,0.0,0.0,5.0,0.0,0.10654297333333333,0.15622076,1.0035872533333332,-16.816406293333337,2.762044253333334,10.638020866666666,-6.25009861701154,14.037071784752564,33.574462562895064,56.8992355676292,-5.843520932970575,-1.388562470484166,57.2153637654176,0.9692841891790427,57.995376025218924,0.959970988650209,0.10708002666666668,0.49587924000000005,-0.17912425333333326,0.78208352,0.5380035788971443,0.30321822084690053,0.36841371059650213,0.36841371059650213
LBP07_S00,LBP07,-1839,87,0,86,-1839,1716268025.44,2024-05-21 05:07:05.440000+00:00,2024-05-21 14:07:05.440000+09:00,2024,5,21,5,7,5,440,,,,,,,,,0.195557,-0.115234,1.2229,-125.305176,12.451172,47.363281,,,,,,,,,,,1.0,1.0,1.0,0.0,0.0,0.0,0.0,5.0,0.0,0.10948567999999999,0.15219080000000001,1.0140755333333331,-18.30973312,2.9882812400000005,10.350748733333333,-4.038726985973085,16.53017569917282,32.51509971787504,56.73768648819028,-5.182313905003663,-0.08795848176916432,56.97393423432052,0.9446355491838501,57.471253245087624,0.9630517512049825,0.08607132000000002,-0.2674248,0.20882446666666699,0.562320586666667,0.3500456451096061,0.3083397004889903,0.3680463492867642,0.3680463492867642
LBP07_S00,LBP07,-1838,88,0,87,-1838,1716268025.48,2024-05-21 05:07:05.480000+00:00,2024-05-21 14:07:05.480000+09:00,2024,5,21,5,7,5,480,,,,,,,,,0.000244,0.098389,1.536865,-121.154785,47.912598,46.142578,,,,,,,,,,,1.0,1.0,1.0,0.0,0.0,0.0,0.0,5.0,0.0,0.10895182666666665,0.15941410666666664,1.02668296,-17.242838586666668,3.3789062533333336,10.039876333333334,-2.7768570065360807,18.1379053757193,30.30003714269642,56.62661220792884,-4.456797689974891,1.1240430039386926,56.81284826930634,0.9683193068357556,57.02852435701317,0.970270280243372,-0.10870782666666666,-0.061025106666666634,0.5101820399999999,0.6799149733333332,0.5251925067637861,0.3252575394696243,0.3724202575474908,0.37112764649219604
LBP07_S00,LBP07,-1837,89,0,88,-1837,1716268025.52,2024-05-21 05:07:05.520000+00:00,2024-05-21 14:07:05.520000+09:00,2024,5,21,5,7,5,520,,,,,,,,,0.12915,0.082764,1.579834,25.939941,22.521973,14.282227,,,,,,,,,,,1.0,1.0,1.0,0.0,0.0,0.0,0.0,5.0,0.0,0.10720052000000001,0.16097661333333335,1.0333594,-20.336914106666665,4.707845066666667,10.13020836,-2.7375469349353985,18.645829328032786,27.16346940728363,56.51711033053142,-3.71096451685358,2.210581780230038,56.68193441975929,0.9802323807680036,56.58552130997212,0.9747064835497881,0.02194947999999998,-0.07821261333333335,0.5464746,0.6466366933333334,0.5524793941875661,0.3359151809082322,0.37845286170365816,0.37461518010172234
LBP07_S00,LBP07,-1836,90,0,89,-1836,1716268025.56,2024-05-21 05:07:05.560000+00:00,2024-05-21 14:07:05.560000+09:00,2024,5,21,5,7,5,560,,,,,,,,,0.125,-0.007324,1.460693,60.668945,17.63916,32.592773,,,,,,,,,,,1.0,1.0,1.0,0.0,0.0,0.0,0.0,5.0,0.0,0.10619466666666666,0.15632817333333332,1.0425683866666666,-19.81933598666667,5.021158866666667,10.006510453333332,-4.700770139408838,17.96288624940068,23.456865386706077,56.32907952495507,-2.992449066877553,3.1488563956982807,56.4963295103965,0.9713227342626982,56.06560161035338,0.9797721684565405,0.01880533333333334,-0.16365217333333332,0.4181246133333334,0.6005821200000001,0.44940390148912895,0.3432507321278601,0.3794687638120533,0.37602628805242816
LBP07_S00,LBP07,-1835,91,0,90,-1835,1716268025.6,2024-05-21 05:07:05.600000+00:00,2024-05-21 14:07:05.600000+09:00,2024,5,21,5,7,5,600,,,,,,,,,0.063965,0.282471,1.441406,47.180176,6.408691,19.348145,,,,,,,,,,,1.0,1.0,1.0,0.0,0.0,0.0,0.0,5.0,0.0,0.102028,0.15620122666666666,1.0512825733333333,-20.749511773333335,5.301106786666667,10.31331384,-9.481852591164834,16.188055502987275,19.626416179211276,55.949805421308476,-2.344926846758062,3.933913042866732,56.13693151952432,0.9893304080648452,55.40605858669956,0.9877198883105633,-0.038063,0.12626977333333336,0.39012342666666666,0.5544562,0.4118120149543884,0.3523958572199348,0.3806488341418062,0.3766889866987607
LBP07_S00,LBP07,-1834,92,0,91,-1834,1716268025.64,2024-05-21 05:07:05.640000+00:00,2024-05-21 14:07:05.640000+09:00,2024,5,21,5,7,5,640,,,,,,,,,0.115723,0.54248,1.453613,17.272949,14.953613,20.080566,,,,,,,,,,,1.0,1.0,1.0,0.0,0.0,0.0,0.0,5.0,0.0,0.0997754,0.15750981333333333,1.0557812800000002,-19.30664068,5.043131533333335,9.953613319999999,-17.36713442948369,13.62797638660568,16.15325697162928,55.25512004412913,-1.7998077912938348,4.580043321731903,55.47381721141662,1.0031699847716031,54.56471056034453,0.9929358119913815,0.015947600000000006,0.3849701866666666,0.3978317199999999,0.7987495066666666,0.5538288977708606,0.36411635974401896,0.376086033078596,0.3799097123546171
LBP07_S00,LBP07,-1833,93,0,92,-1833,1716268025.68,2024-05-21 05:07:05.680000+00:00,2024-05-21 14:07:05.680000+09:00,2024,5,21,5,7,5,680,,,,,,,,,0.209961,0.385498,1.474121,3.90625,13.122559,-2.075195,,,,,,,,,,,1.0,1.0,1.0,0.0,0.0,0.0,0.0,5.0,0.0,0.10293946666666667,0.16789066666666666,1.0591862266666667,-18.028971400000003,4.680175800000001,9.529622439999999,-27.742981412543582,10.762314962254573,13.46947702042197,54.14540078762739,-1.369315192803652,5.118822402548782,54.40406044900398,1.0173352017699424,53.52388502259068,1.0025486045904584,0.10702153333333334,0.21760733333333335,0.4149347733333333,0.73956364,0.4806011092773787,0.3811645876009929,0.37190063290694775,0.3817077730139521
LBP07_S00,LBP07,-1832,94,0,93,-1832,1716268025.72,2024-05-21 05:07:05.720000+00:00,2024-05-21 14:07:05.720000+09:00,2024,5,21,5,7,5,720,,,,,,,,,0.145752,0.070557,1.337402,-111.694336,36.92627,21.42334,,,,,,,,,,,1.0,1.0,1.0,0.0,0.0,0.0,0.0,5.0,0.0,0.1043034,0.16777022666666666,1.0634277733333335,-19.5141602,5.339355493333334,9.213867226666666,-39.08631739389054,8.163150656829027,11.871327063353009,52.581948091871766,-1.042789166530491,5.593675485082902,52.88892019898447,1.0111998972372833,52.29201747464329,1.0095465145190325,0.04144859999999999,-0.09721322666666667,0.2739742266666665,0.41263605333333314,0.29364991871019247,0.38715176426447084,0.36323468190831726,0.3801628983770441
LBP07_S00,LBP07,-1831,95,0,94,-1831,1716268025.76,2024-05-21 05:07:05.760000+00:00,2024-05-21 14:07:05.760000+09:00,2024,5,21,5,7,5,760,,,,,,,,,-0.060547,-0.200684,1.141846,-49.743652,-1.77002,0.488281,,,,,,,,,,,1.0,1.0,1.0,0.0,0.0,0.0,0.0,5.0,0.0,0.101709,0.16775394666666665,1.0709049866666667,-21.440429733333335,6.1303711199999995,9.182942746666667,-49.30340924388101,6.374697319742024,11.453359920375668,50.609811722116525,-0.78780127374081,6.0518098818979285,50.97644628886589,1.0223692310326076,50.90290643732607,1.01593859879724,-0.16225599999999998,-0.3684379466666666,0.07094101333333325,0.6016349599999998,0.40878620017401474,0.3923677510596722,0.3603073117521003,0.3806564035804401
LBP07_S00,LBP07,-1830,96,0,95,-1830,1716268025.8,2024-05-21 05:07:05.800000+00:00,2024-05-21 14:07:05.800000+09:00,2024,5,21,5,7,5,800,,,,,,,,,0.110107,0.132812,0.820557,-92.712402,-2.075195,14.770508,,,,,,,,,,,1.0,1.0,1.0,0.0,0.0,0.0,0.0,5.0,0.0,0.09959962666666666,0.1638672266666667,1.0738476933333334,-21.49983728,6.557617213333334,8.758951866666667,-56.26691736002901,5.768388196026585,12.082326489620979,48.35913502771537,-0.5570657458997466,6.5351029414827675,48.801883501867415,1.0214434259872252,49.41208623502013,1.0232252714325631,0.010507373333333334,-0.031055226666666685,-0.2532906933333334,0.29485329333333343,0.25540361651113097,0.3873091452429243,0.35328273314515074,0.37853347498604506
LBP07_S00,LBP07,-1829,97,0,96,-1829,1716268025.84,2024-05-21 05:07:05.840000+00:00,2024-05-21 14:07:05.840000+09:00,2024,5,21,5,7,5,840,,,,,,,,,0.285645,0.765137,0.641357,-20.202637,-23.620605,14.709473,,,,,,,,,,,1.0,1.0,1.0,0.0,0.0,0.0,0.0,5.0,0.0,0.09942709333333333,0.17108077333333332,1.0774902666666666,-19.663085973333338,6.30371096,8.365071653333334,-58.36417399916378,6.412092163386848,13.418976195428115,46.02456806774882,-0.3005820593642726,7.071861989299892,46.565678856782064,1.0407634751746204,47.88969619483856,1.0299782319131257,0.18621790666666665,0.5940562266666667,-0.43613326666666663,1.2164074,0.7601263944227243,0.40073573631257586,0.35159986663603765,0.38489335697665633
LBP07_S00,LBP07,-1828,98,0,97,-1828,1716268025.88,2024-05-21 05:07:05.880000+00:00,2024-05-21 14:07:05.880000+09:00,2024,5,21,5,7,5,880,,,,,,,,,0.242676,-0.392334,0.945312,-8.056641,-36.376953,6.774902,,,,,,,,,,,1.0,1.0,1.0,0.0,0.0,0.0,0.0,5.0,0.0,0.09946941333333333,0.1701595466666667,1.0805989866666668,-21.89208988,6.6992187733333335,8.040364613333335,-54.91714546701588,8.013831381213915,14.98416971780409,43.82788224906818,0.019971195884283977,7.671228778012056,44.49417278983228,1.0382984061214953,46.41014162542977,1.0371437397751138,0.1432065866666667,-0.5624935466666667,-0.13528698666666672,0.8409871200000002,0.5959947023822526,0.4123953710811468,0.35529948584531057,0.3883540347701907
LBP07_S00,LBP07,-1827,99,0,98,-1827,1716268025.92,2024-05-21 05:07:05.920000+00:00,2024-05-21 14:07:05.920000+09:00,2024,5,21,5,7,5,920,,,,,,,,,0.144775,0.621338,0.728516,-151.611328,43.151855,18.249512,,,,,,,,,,,1.0,1.0,1.0,0.0,0.0,0.0,0.0,5.0,0.0,0.09926758666666666,0.17213870666666664,1.0895768533333334,-22.058105506666667,6.3842773600000005,7.936197946666666,-46.40214417195795,9.991028758338325,16.25600826038903,41.971796482189866,0.419612346217817,8.321469108427618,42.790824046587126,1.0441532235500806,45.04022438724759,1.0428610816594701,0.04550741333333333,0.4491992933333333,-0.3610608533333334,0.85576756,0.5781140628018417,0.4049694221598978,0.3590010579794876,0.39141468038360444
LBP07_S00,LBP07,-1826,100,0,99,-1826,1716268025.96,2024-05-21 05:07:05.960000+00:00,2024-05-21 14:07:05.960000+09:00,2024,5,21,5,7,5,960,,,,,,,,,0.14624,-0.200928,1.287354,-50.537109,35.888672,29.418945,,,,,,,,,,,1.0,1.0,1.0,0.0,0.0,0.0,0.0,5.0,0.0,0.09854818666666666,0.17086592,1.09729496,-22.16308598666667,6.6129557466666675,7.627766960000001,-34.430025302292385,11.663148924699614,16.776980486900655,40.59459547009817,0.8861383032058017,8.992548327903643,41.58812748733713,1.0441894606159274,43.82831701245582,1.0490289170454508,0.04769181333333335,-0.37179392,0.19005904000000018,0.6095447733333335,0.4202709443843455,0.4007680059565435,0.35743792407713426,0.3918727163201241
LBP07_S00,LBP07,-1825,101,0,100,-1825,1716268026.0,2024-05-21 05:07:06+00:00,2024-05-21 14:07:06+09:00,2024,5,21,5,7,6,0,5.0,7.0,6.0,40.529129,141.543533,25.551001,3.0,8.0,0.0354,0.310059,1.100342,-32.836914,57.739258,26.489258,-247.0,19.0,400.0,2366.0,0.0,1015.799988,23.209999,0.027747,-21.196339,4.007812,1.0,1.0,1.0,0.0,0.0,0.0,0.0,5.0,0.0,0.09714518666666666,0.17352542666666668,1.10238284,-20.712076866666667,6.311848973333334,7.049153680000001,-21.45502726772582,12.492777450259528,16.244503653555135,39.73639437938914,1.3858494012161828,9.642328474045849,40.913031117708634,1.056860012870471,42.797086245034194,1.0554018305984152,-0.06174518666666666,0.1365335733333333,-0.0020408400000000437,0.2003196,0.14986010059911148,0.39433953415286427,0.3505302034095053,0.38809126919948334
LBP07_S00,LBP07,-1824,102,0,101,-1824,1716268026.04,2024-05-21 05:07:06.040000+00:00,2024-05-21 14:07:06.040000+09:00,2024,5,21,5,7,6,40,,,,,,,,,0.076904,-0.419189,1.297119,-35.217285,19.897461,17.51709,,,,,,,,,,,1.0,1.0,1.0,0.0,0.0,0.0,0.0,5.0,0.0,0.09457682666666667,0.17634442666666664,1.1101627866666666,-19.647623746666667,5.90169272,6.25406904,-10.220797706361004,12.25975914263418,14.559090054377117,39.3275624711347,1.87623976692155,10.224692076220933,40.678271517328696,1.074825063391484,41.94134846162241,1.0628644166543708,-0.01767282666666667,-0.5955334266666666,0.18695621333333334,0.8001624666666667,0.6244397623339428,0.4020819293689533,0.3588493069954916,0.3917273998630904
LBP07_S00,LBP07,-1823,103,0,102,-1823,1716268026.08,2024-05-21 05:07:06.080000+00:00,2024-05-21 14:07:06.080000+09:00,2024,5,21,5,7,6,80,,,,,,,,,0.081299,0.737061,1.173584,145.751953,-17.883301,-6.408691,,,,,,,,,,,1.0,1.0,1.0,0.0,0.0,0.0,0.0,5.0,0.0,0.09635092,0.17955405333333332,1.1167969066666665,-21.17838546666667,6.320800800000001,5.7674154,-3.0510368290690417,11.082843655624625,11.818096063628142,39.20552099797194,2.319553513146535,10.697415918766058,40.70488806718228,1.074508620613506,41.231310342544546,1.0692183356491096,-0.01505192000000001,0.5575069466666667,0.05678709333333343,0.6293459600000001,0.5605937297602647,0.41382266592476336,0.3683313534812821,0.3942859806191082
LBP07_S00,LBP07,-1822,104,0,103,-1822,1716268026.12,2024-05-21 05:07:06.120000+00:00,2024-05-21 14:07:06.120000+09:00,2024,5,21,5,7,6,120,,,,,,,,,0.144043,-0.195068,1.186523,5.79834,-18.127441,-0.061035,,,,,,,,,,,1.0,1.0,1.0,0.0,0.0,0.0,0.0,5.0,0.0,0.09770833333333333,0.18138998666666667,1.1218489866666665,-21.461588586666668,6.098632826666667,4.79654952,-1.1975457679280606,9.289228700027229,8.267226721894742,39.157619167254815,2.691122661147624,11.028104987641848,40.769846451066684,1.0728782510970916,40.62029300590713,1.0769404766647437,0.04633466666666668,-0.37645798666666663,0.06467401333333345,0.48746666666666677,0.38477297860020193,0.414709739789808,0.37073052129195355,0.3941439955143484
LBP07_S00,LBP07,-1821,105,0,104,-1821,1716268026.16,2024-05-21 05:07:06.160000+00:00,2024-05-21 14:07:06.160000+09:00,2024,5,21,5,7,6,160,,,,,,,,,0.19751,0.395508,1.220703,35.888672,-14.343262,1.525879,,,,,,,,,,,1.0,1.0,1.0,0.0,0.0,0.0,0.0,5.0,0.0,0.09747721333333334,0.18692710666666665,1.1306771066666668,-22.033691453333333,6.2272135466666665,3.8175456133333334,-4.484315228585231,7.216307260508988,4.240902833394744,38.97824655811141,2.979774951567984,11.197741100977638,40.66413861464964,1.0860983665622512,40.05540133296166,1.0851630875271077,0.10003278666666665,0.20858089333333338,0.09002589333333333,0.39863957333333333,0.24822813890148504,0.4003176352309438,0.37049175413805513,0.391998174093571
LBP07_S00,LBP07,-1820,106,0,105,-1820,1716268026.2,2024-05-21 05:07:06.200000+00:00,2024-05-21 14:07:06.200000+09:00,2024,5,21,5,7,6,200,,,,,,,,,0.137451,0.30835,1.016357,-72.44873,10.070801,5.981445,,,,,,,,,,,1.0,1.0,1.0,0.0,0.0,0.0,0.0,5.0,0.0,0.09464517333333333,0.18594729333333335,1.1423958533333334,-22.395019573333336,6.394042973333334,2.3876953600000004,-11.388872397802407,5.0565642237717805,0.12019375012754063,38.522691662199314,3.182037520518855,11.202548850982739,40.24450566774954,1.0960692865467798,39.48931414884569,1.0941549664251242,0.04280582666666666,0.12240270666666667,-0.12603885333333342,0.2912473866666667,0.18083294485663914,0.40037474202007856,0.36684952846951524,0.38893780845245607
LBP07_S00,LBP07,-1819,107,0,106,-1819,1716268026.24,2024-05-21 05:07:06.240000+00:00,2024-05-21 14:07:06.240000+09:00,2024,5,21,5,7,6,240,,,,,,,,,0.070557,-0.068359,1.053223,-68.786621,18.798828,7.751465,,,,,,,,,,,1.0,1.0,1.0,0.0,0.0,0.0,0.0,5.0,0.0,0.09289712,0.18626956,1.1525032666666666,-21.455891973333333,6.85546876,1.302897186666667,-19.523654683590678,2.8152243672357766,-3.685727341124533,37.74174547485568,3.294646495208286,11.055119757337758,39.46529766600345,1.1043026651220103,38.891052593907105,1.10260311658473,-0.022340120000000005,-0.25462856,-0.09928026666666656,0.3762489466666666,0.2742104226295791,0.4044154107600702,0.36068790439176174,0.3872988457978435
LBP07_S00,LBP07,-1818,108,0,107,-1818,1716268026.28,2024-05-21 05:07:06.280000+00:00,2024-05-21 14:07:06.280000+09:00,2024,5,21,5,7,6,280,,,,,,,,,0.127197,0.06543,0.948975,-34.912109,19.042969,5.249023,,,,,,,,,,,1.0,1.0,1.0,0.0,0.0,0.0,0.0,5.0,0.0,0.09239581333333333,0.19065758666666666,1.15865236,-21.190592493333337,7.370605480000001,0.40364588000000007,-26.325980428492954,0.37731810062362603,-6.753404022151468,36.688706257715964,3.309739219233231,10.7849835964517,38.383999423458064,1.1155198162778353,38.25329117590125,1.1057082958200914,0.03480118666666668,-0.12522758666666667,-0.20967736000000003,0.36970613333333335,0.24669346637545006,0.4061610422231936,0.3594020576648445,0.38531848834119004
LBP07_S00,LBP07,-1817,109,0,108,-1817,1716268026.32,2024-05-21 05:07:06.320000+00:00,2024-05-21 14:07:06.320000+09:00,2024,5,21,5,7,6,320,,,,,,,,,0.05249,-0.079834,0.965576,-17.883301,-1.281738,-12.451172,,,,,,,,,,,1.0,1.0,1.0,0.0,0.0,0.0,0.0,5.0,0.0,0.09343096000000001,0.19841799999999998,1.1587272400000002,-21.82373052,7.492675800000001,-0.25553381333333325,-29.721416521546182,-2.3733837167074867,-8.680398285725985,35.49984959685412,3.2148038705649316,10.43776766502266,37.14190731713243,1.1263793321737212,37.59408297456254,1.1079981599016218,-0.040940960000000005,-0.278252,-0.19315124000000017,0.5123442000000002,0.3411857840286715,0.4142909231286068,0.35586868771600744,0.3847055341146273
LBP07_S00,LBP07,-1816,110,0,109,-1816,1716268026.36,2024-05-21 05:07:06.360000+00:00,2024-05-21 14:07:06.360000+09:00,2024,5,21,5,7,6,360,,,,,,,,,0.11084,0.682861,0.30835,43.457031,-25.512695,-33.325195,,,,,,,,,,,1.0,1.0,1.0,0.0,0.0,0.0,0.0,5.0,0.0,0.09346025333333334,0.20262372,1.1579590133333333,-22.364095093333336,7.3819987199999995,-1.0213215733333332,-28.591153243466845,-5.44945721923595,-9.153085219562973,34.35620346711544,2.9968255817954934,10.071644256240141,35.927255646177514,1.134108249596092,36.95210468594362,1.1119025159344562,0.017379746666666654,0.48023728000000004,-0.8496090133333333,1.34722604,0.9760970116915818,0.44642508910453155,0.3677331545349953,0.3928067872321198
LBP07_S00,LBP07,-1815,111,0,110,-1815,1716268026.4,2024-05-21 05:07:06.400000+00:00,2024-05-21 14:07:06.400000+09:00,2024,5,21,5,7,6,400,,,,,,,,,0.212646,-0.391357,0.599121,-203.857422,8.239746,13.793945,,,,,,,,,,,1.0,1.0,1.0,0.0,0.0,0.0,0.0,5.0,0.0,0.09203773333333333,0.20342776,1.1534537999999999,-27.009277386666668,8.269043,-1.23291012,-22.973842458426446,-8.706874039498933,-8.032210045004033,33.437249768778386,2.648550620215536,9.750355854439979,34.93041556832278,1.1413415144665282,36.37626680974978,1.116815050189713,0.12060826666666667,-0.59478476,-0.5543327999999998,1.2697258266666664,0.8219489752243962,0.45778290495762164,0.3805005629022611,0.3986060059887722
LBP07_S00,LBP07,-1814,112,0,111,-1814,1716268026.44,2024-05-21 05:07:06.440000+00:00,2024-05-21 14:07:06.440000+09:00,2024,5,21,5,7,6,440,,,,,,,,,0.033447,0.027832,0.611328,60.974121,-13.061523,-16.540527,,,,,,,,,,,1.0,1.0,1.0,0.0,0.0,0.0,0.0,5.0,0.0,0.09506182666666668,0.19148114666666666,1.1486979333333334,-25.38818364,7.867838573333334,-1.691894493333333,-13.997162569753872,-11.848407654018471,-5.424662785834864,32.87736326598823,2.1746143140547973,9.533369343006585,34.30065733727011,1.105876855745099,35.91204238040114,1.1206911303235674,-0.061614826666666685,-0.16364914666666666,-0.5373699333333334,0.7626339066666667,0.5651051896068224,0.46638528673751034,0.3873624936132503,0.40082599510367956
LBP07_S00,LBP07,-1813,113,0,112,-1813,1716268026.48,2024-05-21 05:07:06.480000+00:00,2024-05-21 14:07:06.480000+09:00,2024,5,21,5,7,6,480,,,,,,,,,0.176758,0.006348,0.479736,30.944824,-13.73291,-7.751465,,,,,,,,,,,1.0,1.0,1.0,0.0,0.0,0.0,0.0,5.0,0.0,0.09258134666666666,0.1824219066666667,1.14553712,-24.694824253333334,8.282877626666666,-1.8147786133333332,-3.569794526006735,-14.470233263110934,-1.7111511539693374,32.73457148494796,1.59580498353036,9.464923296847811,34.112806053795126,1.0974072614288093,35.58769385617198,1.1246292365391413,0.08417665333333334,-0.1760739066666667,-0.66580112,0.92605168,0.693814716598399,0.4731301751308948,0.3991938573002596,0.4059902300752921
LBP07_S00,LBP07,-1812,114,0,113,-1812,1716268026.52,2024-05-21 05:07:06.520000+00:00,2024-05-21 14:07:06.520000+09:00,2024,5,21,5,7,6,520,,,,,,,,,0.039795,0.27124,0.481201,29.418945,-22.155762,-9.521484,,,,,,,,,,,1.0,1.0,1.0,0.0,0.0,0.0,0.0,5.0,0.0,0.08906246666666667,0.18198896,1.1433659066666666,-19.90722658666667,8.374023466666667,-1.9278971066666668,6.084131503350553,-16.134266697767313,2.488854702653747,32.97793674508198,0.9504343156196675,9.564477484953962,34.35006356487753,1.1119218114254341,35.40365443221479,1.127209843104343,-0.049267466666666676,0.08925103999999998,-0.6621649066666666,0.8006834133333333,0.6699667118847832,0.4778296678387835,0.40687242437350785,0.41157846374869994
LBP07_S00,LBP07,-1811,115,0,114,-1811,1716268026.56,2024-05-21 05:07:06.560000+00:00,2024-05-21 14:07:06.560000+09:00,2024,5,21,5,7,6,560,,,,,,,,,0.167725,0.129883,0.746338,75.622559,-44.372559,-0.671387,,,,,,,,,,,1.0,1.0,1.0,0.0,0.0,0.0,0.0,5.0,0.0,0.08815752,0.19151045333333333,1.1405924666666667,-16.15722658666667,8.36344404,-2.282714813333333,12.909407787004387,-16.446234109640667,6.419957202620956,33.494313056562156,0.2925849512340408,9.8212757730588,34.90575985271128,1.1352237091148198,35.32773737827722,1.129700822768103,0.07956748000000001,-0.06162745333333333,-0.39425446666666675,0.5354494000000001,0.406897421181949,0.4761294086264963,0.40969007037717814,0.41168897875020094
LBP07_S00,LBP07,-1810,116,0,115,-1810,1716268026.6,2024-05-21 05:07:06.600000+00:00,2024-05-21 14:07:06.600000+09:00,2024,5,21,5,7,6,600,,,,,,,,,0.148438,0.209229,1.014893,-84.04541,15.869141,29.846191,,,,,,,,,,,1.0,1.0,1.0,0.0,0.0,0.0,0.0,5.0,0.0,0.08723304,0.18926761333333333,1.13801108,-14.706217466666667,8.247070346666668,-2.4943033466666664,15.388202716194726,-15.11927557546843,9.348335514528765,34.10984116520994,-0.3121860717846964,10.19520919363995,35.60226137426312,1.1348300878853237,35.29769452279809,1.1310979169275128,0.06120495999999999,0.019961386666666664,-0.12311808000000002,0.20428442666666669,0.1389336737768932,0.46521427497939655,0.40880506609966566,0.40883731442100296
LBP07_S00,LBP07,-1809,117,0,116,-1809,1716268026.64,2024-05-21 05:07:06.640000+00:00,2024-05-21 14:07:06.640000+09:00,2024,5,21,5,7,6,640,,,,,,,,,-0.015869,0.099854,1.317139,3.723145,-8.300781,31.188965,,,,,,,,,,,1.0,1.0,1.0,0.0,0.0,0.0,0.0,5.0,0.0,0.08732418666666666,0.19407230666666667,1.1362532666666667,-14.51171876,8.14534508,-2.57649736,12.740891188368119,-12.013627920445762,10.7359144031617,34.619476812744665,-0.7927311886025268,10.624645769766419,36.22181242371182,1.143683727277751,35.23103767121284,1.1343512650390113,-0.10319318666666666,-0.09421830666666667,0.18088573333333335,0.37829722666666665,0.2285729021758558,0.4522040351555963,0.40816019744980764,0.4014587004375961
LBP07_S00,LBP07,-1808,118,0,117,-1808,1716268026.68,2024-05-21 05:07:06.680000+00:00,2024-05-21 14:07:06.680000+09:00,2024,5,21,5,7,6,680,,,,,,,,,0.055908,0.218994,1.291748,-22.277832,0.854492,13.183594,,,,,,,,,,,1.0,1.0,1.0,0.0,0.0,0.0,0.0,5.0,0.0,0.08516924,0.18795902666666667,1.13854168,-14.61588542666667,8.246256533333334,-2.552083293333333,5.000459289633692,-7.161010080210487,10.374371466525451,34.819495184330016,-1.0791715918109464,11.039620628427437,36.543605183886186,1.141325881929851,35.04020487663238,1.1379183529192791,-0.029261239999999994,0.031034973333333327,0.15320632,0.21350253333333333,0.15903322364864744,0.43934131973044704,0.41025295366572,0.3943808618481142
LBP07_S00,LBP07,-1807,119,0,118,-1807,1716268026.72,2024-05-21 05:07:06.720000+00:00,2024-05-21 14:07:06.720000+09:00,2024,5,21,5,7,6,720,,,,,,,,,0.143555,0.157471,1.419434,57.495117,-14.648438,2.01416,,,,,,,,,,,1.0,1.0,1.0,0.0,0.0,0.0,0.0,5.0,0.0,0.08410804,0.19070968,1.13552084,-12.757975266666667,7.824707053333333,-2.7888997066666668,-6.977402711898985,-0.7894091926938769,8.42841616039578,34.540399075854054,-1.1107479595187015,11.37675727484327,36.382736777756755,1.151289128811321,34.64949600855116,1.1450885741889367,0.05944695999999999,-0.03323867999999999,0.28391316,0.3765988,0.29196820601320544,0.4392740512225676,0.4132129077435192,0.3885811383464007
LBP07_S00,LBP07,-1806,120,0,119,-1806,1716268026.76,2024-05-21 05:07:06.760000+00:00,2024-05-21 14:07:06.760000+09:00,2024,5,21,5,7,6,760,,,,,,,,,0.027832,0.363037,1.416504,15.563965,4.02832,0.244141,,,,,,,,,,,1.0,1.0,1.0,0.0,0.0,0.0,0.0,5.0,0.0,0.08260738666666666,0.18560550666666667,1.1297102933333332,-11.223144533333336,7.274576840000001,-3.4586588266666665,-21.566085664396287,6.650393598749824,5.371952335767273,33.677755649278204,-0.8447322155687086,11.59163536827396,35.6268270913862,1.1480791911901922,34.009287267254535,1.1489288847316612,-0.05477538666666666,0.17743149333333333,0.2867937066666668,0.5190005866666668,0.3416619791469131,0.4365890823814835,0.41447841672057784,0.38573456862856137
LBP07_S00,LBP07,-1805,121,0,120,-1805,1716268026.8,2024-05-21 05:07:06.800000+00:00,2024-05-21 14:07:06.800000+09:00,2024,5,21,5,7,6,800,,,,,,,,,0.210693,0.290283,1.374756,-20.324707,5.79834,10.864258,,,,,,,,,,,1.0,1.0,1.0,0.0,0.0,0.0,0.0,5.0,0.0,0.08342443999999999,0.20165044,1.1231022133333333,-10.486653640000002,6.6707356933333335,-4.021809866666667,-36.54788004344063,14.477827457393763,1.8427532329861995,32.21584044754058,-0.26561911727295806,11.665345497593409,34.26384705247027,1.1738749955815122,33.10352323777488,1.1502365338930012,0.12726856,0.08863256000000003,0.2516537866666668,0.4675549066666669,0.295605557120125,0.4381971600058432,0.4127531526243838,0.38158754209871487
LBP07_S00,LBP07,-1804,122,0,121,-1804,1716268026.84,2024-05-21 05:07:06.840000+00:00,2024-05-21 14:07:06.840000+09:00,2024,5,21,5,7,6,840,,,,,,,,,0.130127,0.177734,1.233887,-46.875,23.498535,-24.169922,,,,,,,,,,,1.0,1.0,1.0,0.0,0.0,0.0,0.0,5.0,0.0,0.08421872,0.18599614666666664,1.1194726533333335,-9.311523426666668,6.13281252,-4.6809895599999995,-49.485925326950316,21.8255901528275,-1.5323937543796498,30.236403434462567,0.6074044888401419,11.604049747418223,32.3923293914655,1.1415477345477756,31.948807125736504,1.1518957144092685,0.045908279999999996,-0.008262146666666637,0.1144143466666665,0.16858477333333313,0.12355758156932357,0.41273440749170726,0.4067350719021416,0.3719780469212609
LBP07_S00,LBP07,-1803,123,0,122,-1803,1716268026.88,2024-05-21 05:07:06.880000+00:00,2024-05-21 14:07:06.880000+09:00,2024,5,21,5,7,6,880,,,,,,,,,0.185791,0.672119,0.822998,-50.109863,5.79834,-16.052246,,,,,,,,,,,1.0,1.0,1.0,0.0,0.0,0.0,0.0,5.0,0.0,0.08391923999999999,0.20018234666666668,1.1081315066666668,-8.684082013333335,6.455078146666668,-5.064290346666667,-58.26620867001578,27.75203202077163,-4.28613995258293,27.905755087661934,1.7174857696710069,11.432604149314907,30.205717372982964,1.1691094741253873,30.58693387700892,1.1510362778671412,0.10187176000000002,0.47193665333333334,-0.2851335066666668,0.8589419200000001,0.5607166636270003,0.41132328594149714,0.41185932851132195,0.37397408587737274
LBP07_S00,LBP07,-1802,124,0,123,-1802,1716268026.92,2024-05-21 05:07:06.920000+00:00,2024-05-21 14:07:06.920000+09:00,2024,5,21,5,7,6,920,,,,,,,,,0.169678,-0.014893,1.425049,-205.01709,40.527344,-5.371094,,,,,,,,,,,1.0,1.0,1.0,0.0,0.0,0.0,0.0,5.0,0.0,0.08229164,0.18611984,1.10443684,-12.41292316,6.77571616,-4.213867173333333,-61.670851199171366,31.41795671530396,-6.189486095400408,25.438921039695078,2.9742040382831654,11.18502470549889,27.947976151911277,1.150324916852679,29.075195175440843,1.1523959943379365,0.08738636,-0.20101284,0.32061216000000003,0.60901136,0.3883744261647268,0.40373370047601254,0.40435156131795513,0.37391193881166257
LBP07_S00,LBP07,-1801,125,0,124,-1801,1716268026.96,2024-05-21 05:07:06.960000+00:00,2024-05-21 14:07:06.960000+09:00,2024,5,21,5,7,6,960,,,,,,,,,0.137695,0.334473,1.572266,-50.78125,34.179688,2.807617,,,,,,,,,,,1.0,1.0,1.0,0.0,0.0,0.0,0.0,5.0,0.0,0.08150388,0.18329431999999998,1.09887044,-9.66308592,6.3216146,-4.514160133333334,-59.767810172417285,32.29420469369825,-7.243940957046267,23.048208632798385,4.265972226031096,10.89526706721704,25.848119557914746,1.1483002007282195,27.478141138635017,1.1515516166602606,0.05619112000000001,0.15117868000000004,0.47339555999999994,0.68076536,0.5001157780765474,0.4069274938237006,0.40384774989012207,0.37393444732598974
LBP07_S00,LBP07,-1800,126,0,125,-1800,1716268027.0,2024-05-21 05:07:07+00:00,2024-05-21 14:07:07+09:00,2024,5,21,5,7,7,0,5.0,7.0,7.0,40.529053,141.543472,27.087,3.0,8.0,-0.102295,0.006592,1.860352,-129.150391,79.528809,0.732422,-251.0,32.0,392.0,2515.0,0.0,1016.099976,23.280001,0.03072,-23.687103,4.007812,1.0,1.0,1.0,0.0,0.0,0.0,0.0,6.0,0.0,0.08120765333333334,0.18424809333333333,1.0841373733333335,-6.7407226399999995,5.253092466666667,-4.94628904,-53.91989576749005,30.33889888593809,-7.604069214060017,20.891412802098785,5.47952818146862,10.591104298654638,24.055100253879353,1.1514218930479962,25.86164265606696,1.1509311936588014,-0.18350265333333332,-0.17765609333333335,0.7762146266666665,1.1373733733333333,0.8171560792958148,0.43361933297156874,0.41397943356221645,0.3782265799301931
LBP07_S00,LBP07,-1799,127,0,126,-1799,1716268027.04,2024-05-21 05:07:07.040000+00:00,2024-05-21 14:07:07.040000+09:00,2024,5,21,5,7,7,40,,,,,,,,,-0.029785,-0.054199,1.78418,13.366699,40.405273,2.929688,,,,,,,,,,,1.0,1.0,1.0,0.0,0.0,0.0,0.0,6.0,0.0,0.08208005333333333,0.17821293333333332,1.0703418,-4.1805012800000005,4.296061213333334,-5.245768213333333,-46.34415117595272,26.0690635086697,-7.475556873875952,19.037646755060678,6.522290721815407,10.292082023699601,22.603079936435922,1.135089361856478,24.287987423077283,1.1474179222091805,-0.11186505333333333,-0.23241193333333332,0.7138382000000001,1.0581151866666667,0.7590086117378692,0.4390020869477258,0.42054200815833953,0.38556690031290297
LBP07_S00,LBP07,-1798,128,0,127,-1798,1716268027.08,2024-05-21 05:07:07.080000+00:00,2024-05-21 14:07:07.080000+09:00,2024,5,21,5,7,7,80,,,,,,,,,-0.248291,0.217041,1.65625,49.743652,19.226074,1.159668,,,,,,,,,,,1.0,1.0,1.0,0.0,0.0,0.0,0.0,6.0,0.0,0.07970049333333333,0.18260746666666666,1.06088868,-3.2340494533333337,3.8362630400000004,-6.455078106666667,-39.3485793187471,20.469824919367607,-7.039223726694262,17.463703582310792,7.341083718590111,10.010513074631831,21.426218168205477,1.1549230466378053,22.81064713264356,1.1464993234724852,-0.32799149333333333,0.03443353333333335,0.5953613200000001,0.9577863466666667,0.6806020785076918,0.4438024208976229,0.42881254341119307,0.3934883759533957
LBP07_S00,LBP07,-1797,129,0,128,-1797,1716268027.12,2024-05-21 05:07:07.120000+00:00,2024-05-21 14:07:07.120000+09:00,2024,5,21,5,7,7,120,,,,,,,,,-0.064209,0.494873,1.242188,77.331543,-21.606445,-18.737793,,,,,,,,,,,1.0,1.0,1.0,0.0,0.0,0.0,0.0,6.0,0.0,0.08240882666666667,0.18282556,1.0487109466666666,-1.6512044000000008,3.166503933333334,-7.267252586666666,-34.540337601774425,14.74374461081236,-6.431403374557194,16.082090078239816,7.930833503022606,9.753256939649543,20.412196409698474,1.1428453520345596,21.46853929394898,1.142551837124818,-0.14661782666666667,0.31204744,0.19347705333333343,0.65214232,0.3953527059140482,0.44422560999017674,0.42946767488999243,0.39522888419136126
LBP07_S00,LBP07,-1796,130,0,129,-1796,1716268027.16,2024-05-21 05:07:07.160000+00:00,2024-05-21 14:07:07.160000+09:00,2024,5,21,5,7,7,160,,,,,,,,,0.255371,0.774902,1.040527,-48.156738,-25.268555,-12.695312,,,,,,,,,,,1.0,1.0,1.0,0.0,0.0,0.0,0.0,6.0,0.0,0.08128577333333332,0.17982426666666668,1.0425260533333334,-1.9677734133333338,2.808431026666667,-8.343098933333332,-32.33713002860034,9.979742362669178,-5.777879497237064,14.788604877095802,8.330023197529373,9.52214175976006,19.46184226570562,1.1418749611756018,20.281178581439253,1.1418051735680352,0.1740852266666667,0.5950777333333332,-0.0019990533333333893,0.7711620133333333,0.6200219117635698,0.45909736090466013,0.42970749806780195,0.40002695639359015
LBP07_S00,LBP07,-1795,131,0,130,-1795,1716268027.2,2024-05-21 05:07:07.200000+00:00,2024-05-21 14:07:07.200000+09:00,2024,5,21,5,7,7,200,,,,,,,,,0.193848,-0.233887,1.353516,-86.975098,0.0,-20.141602,,,,,,,,,,,1.0,1.0,1.0,0.0,0.0,0.0,0.0,6.0,0.0,0.08081377333333334,0.17727544,1.0341243599999999,-3.037109346666667,2.3006185200000004,-8.842773413333335,-31.98093930635325,6.868013343371839,-5.249938352836201,13.509367304841671,8.604743731264247,9.312144225646612,18.527294722573505,1.1387422810853012,19.24733752135036,1.14140113726727,0.11303422666666665,-0.41116244,0.3193916400000001,0.8435883066666667,0.5327685315094864,0.473174784370774,0.4367747631954263,0.4022912804366015
LBP07_S00,LBP07,-1794,132,0,131,-1794,1716268027.24,2024-05-21 05:07:07.240000+00:00,2024-05-21 14:07:07.240000+09:00,2024,5,21,5,7,7,240,,,,,,,,,0.057373,0.49707,1.110107,-104.248047,19.65332,8.483887,,,,,,,,,,,1.0,1.0,1.0,0.0,0.0,0.0,0.0,6.0,0.0,0.0826432,0.1783105866666667,1.0296517066666666,0.15787763999999962,1.2369791866666668,-9.653320293333334,-32.013145493109775,5.569472795546193,-5.101977303076166,12.22884148511728,8.827522643086095,9.108065133523565,17.618926487128288,1.1323617471808243,18.34947643054,1.1410481524833413,-0.0252702,0.31875941333333335,0.08045529333333334,0.4244849066666667,0.3297259480568728,0.47539540538786573,0.439905408073968,0.3989237380571297
LBP07_S00,LBP07,-1793,133,0,132,-1793,1716268027.28,2024-05-21 05:07:07.280000+00:00,2024-05-21 14:07:07.280000+09:00,2024,5,21,5,7,7,280,,,,,,,,,0.109863,0.038086,1.036377,-43.334961,13.427734,-3.967285,,,,,,,,,,,1.0,1.0,1.0,0.0,0.0,0.0,0.0,6.0,0.0,0.08379554666666666,0.17954106666666667,1.0297819066666667,0.10823570666666626,1.6861979466666668,-9.529622373333334,-30.964522451186212,5.775295977061643,-5.663862469222146,10.990260587069832,9.058534482168561,8.88151063475468,16.784638986037137,1.1296346106487145,17.563439765601537,1.1414403069267558,0.026067453333333337,-0.14145506666666666,0.006595093333333413,0.17411761333333342,0.14398799694777337,0.47128718661075875,0.4387241144169762,0.39669710064681596
LBP07_S00,LBP07,-1792,134,0,133,-1792,1716268027.32,2024-05-21 05:07:07.320000+00:00,2024-05-21 14:07:07.320000+09:00,2024,5,21,5,7,7,320,,,,,,,,,0.089111,0.151123,1.244873,2.01416,3.051758,-15.930176,,,,,,,,,,,1.0,1.0,1.0,0.0,0.0,0.0,0.0,6.0,0.0,0.08297524,0.18418950666666667,1.0326953066666666,2.1289062799999994,1.7114258133333335,-10.0878906,-27.95914656436801,6.910776535603748,-7.285797806552229,9.871894724495112,9.33496554359271,8.59007872249259,16.074369026814008,1.1428582812848516,16.86959390820247,1.1413523665863319,0.00613575999999999,-0.03306650666666666,0.21217769333333325,0.2513799599999999,0.21482647639936825,0.46623281430558655,0.4402618687170967,0.39265672991253375
LBP07_S00,LBP07,-1791,135,0,134,-1791,1716268027.36,2024-05-21 05:07:07.360000+00:00,2024-05-21 14:07:07.360000+09:00,2024,5,21,5,7,7,360,,,,,,,,,0.230713,0.417969,1.205566,-47.729492,28.747559,-17.822266,,,,,,,,,,,1.0,1.0,1.0,0.0,0.0,0.0,0.0,6.0,0.0,0.08077470666666667,0.17987634666666666,1.0321451866666667,1.1881510799999997,2.19075524,-9.86572264,-23.02582220196568,8.390968425322177,-10.251727895948992,8.950861836416484,9.670604280605598,8.18000960665463,15.509708957025804,1.1442598377205675,16.261037247699754,1.1410486593516336,0.14993829333333333,0.23809265333333332,0.17342081333333326,0.56145176,0.33052137884895494,0.44040978899188155,0.4434174390482065,0.3919586993539574
LBP07_S00,LBP07,-1790,136,0,135,-1790,1716268027.4,2024-05-21 05:07:07.400000+00:00,2024-05-21 14:07:07.400000+09:00,2024,5,21,5,7,7,400,,,,,,,,,0.109375,0.193359,1.455811,-54.138184,29.47998,-0.610352,,,,,,,,,,,1.0,1.0,1.0,0.0,0.0,0.0,0.0,6.0,0.0,0.07890621333333334,0.17738610666666665,1.0296712399999999,1.476237026666666,2.6586914400000006,-10.02522784,-17.055743280168237,9.832275870830529,-14.684103500720722,8.268632105209754,10.063895315438819,7.592645466625802,15.076489345775768,1.1478920452087085,15.746868498571974,1.1424721639493287,0.030468786666666664,0.01597289333333335,0.4261397600000001,0.47258144000000013,0.4275261107058077,0.424632874411138,0.4412078896843798,0.39521133340522
LBP07_S00,LBP07,-1789,137,0,136,-1789,1716268027.44,2024-05-21 05:07:07.440000+00:00,2024-05-21 14:07:07.440000+09:00,2024,5,21,5,7,7,440,,,,,,,,,0.032959,-0.133057,1.385254,-44.006348,32.043457,-5.615234,,,,,,,,,,,1.0,1.0,1.0,0.0,0.0,0.0,0.0,6.0,0.0,0.07847327999999999,0.172168,1.0299284,3.1941732266666656,2.0231120133333333,-9.891764306666666,-11.454807949168572,11.149572137805139,-20.46611895966745,7.810439787243011,10.509878200951023,6.774000708239104,14.74271328705127,1.139010906290625,15.350554203354672,1.1420076680084918,-0.04551427999999999,-0.30522499999999997,0.3553256,0.70606488,0.4706273816133932,0.4208537620914008,0.4436195244144555,0.3985262497726338
LBP07_S00,LBP07,-1788,138,0,137,-1788,1716268027.48,2024-05-21 05:07:07.480000+00:00,2024-05-21 14:07:07.480000+09:00,2024,5,21,5,7,7,480,,,,,,,,,0.044189,0.251465,1.332275,69.824219,-10.803223,-19.836426,,,,,,,,,,,1.0,1.0,1.0,0.0,0.0,0.0,0.0,6.0,0.0,0.07680986666666666,0.17555342666666668,1.0226171999999998,5.038248746666666,1.3338216533333336,-10.30517576,-7.608464409208068,12.511802560905869,-27.21054203909562,7.5061012108746885,11.010350303387257,5.6855790266752795,14.487759594214841,1.1540436432335626,15.103843568028967,1.1434017076638925,-0.03262086666666666,0.07591157333333332,0.3096578000000003,0.41819024000000027,0.32049124950436114,0.4059208234076393,0.439525499269267,0.4014361793360528
LBP07_S00,LBP07,-1787,139,0,138,-1787,1716268027.52,2024-05-21 05:07:07.520000+00:00,2024-05-21 14:07:07.520000+09:00,2024,5,21,5,7,7,520,,,,,,,,,-0.017822,0.603271,1.498047,157.043457,-37.109375,-55.480957,,,,,,,,,,,1.0,1.0,1.0,0.0,0.0,0.0,0.0,6.0,0.0,0.07689450666666667,0.16903974666666666,1.0171093866666667,5.989583386666666,0.37597660000000027,-10.716959613333334,-6.338070292283927,14.185243654688199,-34.29728668726344,7.2525783991833315,11.577760049574785,4.313687559184742,14.326629804671292,1.1398082796875793,15.037564932210188,1.144364907506429,-0.09471650666666667,0.43423125333333334,0.4809376133333332,1.0098853733333333,0.6548503538407359,0.40531616908587736,0.44157291846233043,0.40635367261096433
LBP07_S00,LBP07,-1786,140,0,139,-1786,1716268027.56,2024-05-21 05:07:07.560000+00:00,2024-05-21 14:07:07.560000+09:00,2024,5,21,5,7,7,560,,,,,,,,,0.079834,0.196533,1.556641,-97.229004,43.640137,-27.832031,,,,,,,,,,,1.0,1.0,1.0,0.0,0.0,0.0,0.0,6.0,0.0,0.07749671999999999,0.17825524,1.0064811333333334,7.809244839999998,-0.3336588133333331,-11.110026026666667,-7.560772651422764,16.34301319297583,-40.97868307654687,6.950147493126421,12.231480577293818,2.674540236122867,14.320154774427808,1.1561100071525519,15.172969493716144,1.1433401318271939,0.002337280000000011,0.018277760000000004,0.5501598666666665,0.5707749066666665,0.5504683626504799,0.4110590067446186,0.44359420768555746,0.41014638249965835
LBP07_S00,LBP07,-1785,141,0,140,-1785,1716268027.6,2024-05-21 05:07:07.600000+00:00,2024-05-21 14:07:07.600000+09:00,2024,5,21,5,7,7,600,,,,,,,,,0.210449,0.453613,1.357666,-22.277832,-0.366211,-59.509277,,,,,,,,,,,1.0,1.0,1.0,0.0,0.0,0.0,0.0,6.0,0.0,0.07694333333333334,0.16663414666666668,0.9982975333333334,5.5297852,-0.2913411066666664,-10.815429680000001,-10.301415022633886,18.930131423012522,-46.523819075392446,6.538090892221065,12.98868583421432,0.8135874731071691,14.564151770400523,1.1340973216769326,15.517708096423647,1.143946818110825,0.13350566666666666,0.2869788533333333,0.35936846666666666,0.7798529866666666,0.4788802774462288,0.4246568708913921,0.4449355729353943,0.41408900103024116
LBP07_S00,LBP07,-1784,142,0,141,-1784,1716268027.64,2024-05-21 05:07:07.640000+00:00,2024-05-21 14:07:07.640000+09:00,2024,5,21,5,7,7,640,,,,,,,,,-0.053711,0.356934,1.713867,-69.335938,31.799316,-53.588867,,,,,,,,,,,1.0,1.0,1.0,0.0,0.0,0.0,0.0,6.0,0.0,0.07570309333333333,0.16944338666666667,0.9879297066666667,6.723632853333333,-0.816243453333333,-11.196289053333333,-13.037296984354548,21.635559820739815,-50.35921090315463,6.016599012846884,13.854108227043913,-1.2007809630190165,15.151820133871205,1.1463021437348317,16.06713413327076,1.1443242701950018,-0.12941409333333334,0.1874906133333333,0.7259372933333333,1.042842,0.7608453794914735,0.4459477699840167,0.44907590256980645,0.42075605496121066
LBP07_S00,LBP07,-1783,143,0,142,-1783,1716268027.68,2024-05-21 05:07:07.680000+00:00,2024-05-21 14:07:07.680000+09:00,2024,5,21,5,7,7,680,,,,,,,,,-0.136475,0.064209,1.789551,-82.580566,40.710449,-59.082031,,,,,,,,,,,1.0,1.0,1.0,0.0,0.0,0.0,0.0,6.0,0.0,0.07423824,0.16298505333333332,0.975459,7.581380253333333,-1.4990233999999998,-11.598307279999998,-14.1929609349639,23.965088531232837,-52.16701184306059,5.448880575448328,14.812711768293227,-3.2874614367414403,16.121852627849346,1.1392666090740808,16.808241034663222,1.1451845343403597,-0.21071324000000002,-0.09877605333333332,0.8140919999999999,1.1235812933333333,0.8467009877680591,0.4734544805487932,0.4563979001396201,0.4313201292934111
LBP07_S00,LBP07,-1782,144,0,143,-1782,1716268027.72,2024-05-21 05:07:07.720000+00:00,2024-05-21 14:07:07.720000+09:00,2024,5,21,5,7,7,720,,,,,,,,,-0.006592,0.181152,1.568359,69.519043,21.789551,-59.020996,,,,,,,,,,,1.0,1.0,1.0,0.0,0.0,0.0,0.0,6.0,0.0,0.07530269333333334,0.1624804933333333,0.9640234533333334,10.297037799999998,-2.4365233999999996,-12.10205076,-12.56381787845034,25.369405947471783,-51.917204337926535,4.946327860310315,15.827488006192098,-5.364149610258502,17.428414641873577,1.1326105244924989,17.723265302960908,1.1414724247845514,-0.08189469333333334,0.0186715066666667,0.6043355466666667,0.7049017466666667,0.6101449163291152,0.4861815489614296,0.46272780009199854,0.43753578814948935
LBP07_S00,LBP07,-1781,145,0,144,-1781,1716268027.76,2024-05-21 05:07:07.760000+00:00,2024-05-21 14:07:07.760000+09:00,2024,5,21,5,7,7,760,,,,,,,,,0.020996,0.200684,1.429932,-10.803223,39.672852,-29.296875,,,,,,,,,,,1.0,1.0,1.0,0.0,0.0,0.0,0.0,6.0,0.0,0.07389644000000001,0.16729494666666667,0.9520865999999999,11.585286493333331,-3.0761718399999998,-12.580566386666668,-7.543982465823318,25.374123668916663,-49.83105056593512,4.6445685616773815,16.842452952948765,-7.357391632895907,18.957094984100838,1.1503267005568785,18.791349429335558,1.1417353184807744,-0.05290044000000001,0.033389053333333335,0.4778454000000001,0.5641348933333334,0.48192272382182794,0.49179197874842623,0.46419053056495485,0.440249604063194
LBP07_S00,LBP07,-1780,146,0,145,-1780,1716268027.8,2024-05-21 05:07:07.800000+00:00,2024-05-21 14:07:07.800000+09:00,2024,5,21,5,7,7,800,,,,,,,,,-0.047852,0.597412,1.237061,47.668457,1.831055,-43.212891,,,,,,,,,,,1.0,1.0,1.0,0.0,0.0,0.0,0.0,6.0,0.0,0.07284826666666666,0.16552085333333336,0.9418684933333332,11.289876333333334,-3.1844075199999997,-12.83772784,0.8294092403567125,23.675369329673146,-46.2950999725708,4.67774493129165,17.78946772613569,-9.209195631798739,20.570749714246904,1.1516665660504772,19.987811768793083,1.1419397817960841,-0.12070026666666667,0.4318911466666667,0.29519250666666674,0.8477839200000001,0.5368772047075595,0.5014428446519236,0.4698200023288834,0.44231638330023043
LBP07_S00,LBP07,-1779,147,0,146,-1779,1716268027.84,2024-05-21 05:07:07.840000+00:00,2024-05-21 14:07:07.840000+09:00,2024,5,21,5,7,7,840,,,,,,,,,-0.09668,0.41748,1.267578,23.31543,18.005371,-51.391602,,,,,,,,,,,1.0,1.0,1.0,0.0,0.0,0.0,0.0,6.0,0.0,0.07626949333333334,0.17159833333333332,0.9347688799999999,11.167806026666666,-3.539225226666666,-12.635091119999998,11.928753705810502,20.190833574475548,-41.75926200260129,5.15489507952407,18.59710106911471,-10.87956611190279,22.15378230097589,1.147613547744204,21.281884254098856,1.144920134965825,-0.17294949333333334,0.2458816666666667,0.3328091200000002,0.7516402800000002,0.4484765675062734,0.5144396040894016,0.46358700579055445,0.4426365826312282
LBP07_S00,LBP07,-1778,148,0,147,-1778,1716268027.88,2024-05-21 05:07:07.880000+00:00,2024-05-21 14:07:07.880000+09:00,2024,5,21,5,7,7,880,,,,,,,,,0.086426,0.197266,0.905273,-95.64209,21.30127,-26.550293,,,,,,,,,,,1.0,1.0,1.0,0.0,0.0,0.0,0.0,6.0,0.0,0.07841468,0.16256188,0.9393131466666667,8.803710973333331,-2.8361002266666664,-11.577962213333333,24.622445747897373,15.075469564969135,-36.6504958681003,6.139792909439965,19.200119851713477,-12.345585946626802,23.63800227719171,1.1169225476754778,22.635486519725266,1.1471130941426837,0.008011320000000002,0.034704120000000005,-0.03404014666666666,0.07675558666666667,0.04926752254990074,0.4939816384463176,0.4526524621939074,0.4392334318229872
LBP07_S00,LBP07,-1777,149,0,148,-1777,1716268027.92,2024-05-21 05:07:07.920000+00:00,2024-05-21 14:07:07.920000+09:00,2024,5,21,5,7,7,920,,,,,,,,,0.012207,-0.248779,1.057861,26.550293,12.634277,-30.883789,,,,,,,,,,,1.0,1.0,1.0,0.0,0.0,0.0,0.0,6.0,0.0,0.07621742666666666,0.16901694666666667,0.9434895866666667,8.660481813333332,-2.2029622,-11.595865853333333,37.407092276277794,8.71294300870044,-31.318724213799417,7.6360766004910765,19.548637572061494,-13.598334915178778,25.00747106841777,1.1424372166498105,24.005636430515846,1.1501639183173507,-0.06401042666666666,-0.41779594666666664,0.11437141333333323,0.5961777866666665,0.43787167978873565,0.4959615285912779,0.44984761453364525,0.43488821707572944
LBP07_S00,LBP07,-1776,150,0,149,-1776,1716268027.96,2024-05-21 05:07:07.960000+00:00,2024-05-21 14:07:07.960000+09:00,2024,5,21,5,7,7,960,,,,,,,,,-0.05127,-0.040283,0.839111,104.919434,8.728027,-30.883789,,,,,,,,,,,1.0,1.0,1.0,0.0,0.0,0.0,0.0,6.0,0.0,0.07508136,0.17380210666666665,0.9518880266666666,7.5919596799999995,-2.2265624666666666,-11.676432266666666,48.63566653713425,1.6827091963239074,-26.015519219396385,9.581503261976447,19.61594593991445,-14.638955683954634,26.284778169003047,1.1581546403056495,25.35013968134183,1.153410606258394,-0.12635136,-0.21408510666666664,-0.11277702666666656,0.45321349333333316,0.27297574400320196,0.48687592722834416,0.4469017105260224,0.4315238090028628
LBP07_S00,LBP07,-1775,151,0,150,-1775,1716268028.0,2024-05-21 05:07:08+00:00,2024-05-21 14:07:08+09:00,2024,5,21,5,7,8,0,5.0,7.0,8.0,40.529018,141.543411,31.166,3.0,8.0,-0.060547,0.362793,0.650391,113.891602,-3.601074,-27.404785,-241.0,39.0,377.0,2721.0,0.0,1015.799988,23.370001,0.027747,-21.196339,4.007812,1.0,1.0,1.0,0.0,0.0,0.0,0.0,5.0,0.0,0.07449868,0.17519533333333334,0.9612142,5.808105519999999,-2.1598306933333333,-11.631673146666667,56.8424162382316,-5.306307729120318,-20.89587492059062,11.85519991150571,19.403693630749636,-15.47479068077826,27.50487662345826,1.1639008533743402,26.633525350486217,1.1552216362024728,-0.13504568,0.18759766666666663,-0.31082319999999997,0.6334665466666666,0.38735162563706915,0.4696837490819943,0.4516515410267815,0.4325475387354758
LBP07_S00,LBP07,-1774,152,0,151,-1774,1716268028.04,2024-05-21 05:07:08.040000+00:00,2024-05-21 14:07:08.040000+09:00,2024,5,21,5,7,8,40,,,,,,,,,-0.025146,0.449219,0.57666,103.515625,-13.671875,-35.705566,,,,,,,,,,,1.0,1.0,1.0,0.0,0.0,0.0,0.0,5.0,0.0,0.07560870666666666,0.18005210666666666,0.9690592533333332,4.099121146666667,-2.2314452666666664,-11.056315080000001,61.07191182166513,-11.519907290057656,-16.029085095359843,14.298076384372315,18.94289733914733,-16.11595408459265,28.687842790135317,1.1682317355034186,27.8310134911686,1.1573301837499033,-0.10075470666666667,0.2691668933333333,-0.39239925333333325,0.7623208533333332,0.48639438874103136,0.4587791801621208,0.4488906335549233,0.43328773215960004
LBP07_S00,LBP07,-1773,153,0,152,-1773,1716268028.08,2024-05-21 05:07:08.080000+00:00,2024-05-21 14:07:08.080000+09:00,2024,5,21,5,7,8,80,,,,,,,,,0.145996,-0.124512,0.517334,-43.334961,-17.76123,16.357422,,,,,,,,,,,1.0,1.0,1.0,0.0,0.0,0.0,0.0,5.0,0.0,0.07449216,0.17806968,0.9765332133333334,-0.012206986666666732,-1.4461262533333332,-10.46386716,61.08524416135103,-16.32956659558497,-11.408768584692671,16.741486150826358,18.289714675323932,-16.572304827980357,29.82335173575518,1.1697748508207508,28.93062512156694,1.1625010453467486,0.07150383999999999,-0.30258168,-0.45919921333333347,0.8332847333333335,0.5545560293895653,0.4537373381973957,0.4487698795475093,0.4371208083399274
LBP07_S00,LBP07,-1772,154,0,153,-1772,1716268028.12,2024-05-21 05:07:08.120000+00:00,2024-05-21 14:07:08.120000+09:00,2024,5,21,5,7,8,120,,,,,,,,,0.130371,0.176514,0.645996,68.664551,-33.813477,7.019043,,,,,,,,,,,1.0,1.0,1.0,0.0,0.0,0.0,0.0,5.0,0.0,0.07468095999999999,0.17611654666666665,0.9835481866666667,1.7293294666666663,-1.7871093333333328,-10.613606733333334,57.385536859249946,-19.34285744898467,-6.966946671629536,19.036907625196356,17.516000377364545,-16.850982694845538,30.873447150133366,1.1650774039029317,29.934516691490906,1.1697672358463231,0.055690039999999996,0.000397453333333353,-0.33755218666666664,0.39363968,0.3421155027878771,0.4516078500723488,0.44791673003126276,0.43684773328411125
LBP07_S00,LBP07,-1771,155,0,154,-1771,1716268028.16,2024-05-21 05:07:08.160000+00:00,2024-05-21 14:07:08.160000+09:00,2024,5,21,5,7,8,160,,,,,,,,,0.043701,0.111572,0.705811,32.287598,-15.136719,2.929688,,,,,,,,,,,1.0,1.0,1.0,0.0,0.0,0.0,0.0,5.0,0.0,0.07451494666666666,0.17739909333333334,0.9855501333333333,1.6056315466666664,-1.0262043866666664,-10.835774706666665,51.10721505114986,-20.498467417160064,-2.6131671915597923,21.08119622724235,16.69606168067814,-16.95550938250793,31.790951675544736,1.1684369999976683,30.860217854726386,1.1750720542988138,-0.030813946666666668,-0.06582709333333334,-0.27973913333333333,0.37638017333333335,0.2890271410161613,0.43836805924245253,0.4487327100735563,0.43259435179268546
LBP07_S00,LBP07,-1770,156,0,155,-1770,1716268028.2,2024-05-21 05:07:08.200000+00:00,2024-05-21 14:07:08.200000+09:00,2024,5,21,5,7,8,200,,,,,,,,,0.067139,0.238037,0.60498,64.086914,-21.42334,4.02832,,,,,,,,,,,1.0,1.0,1.0,0.0,0.0,0.0,0.0,5.0,0.0,0.07309893333333334,0.17610026666666667,0.988125,1.7830404,-0.6551106399999995,-10.765787733333333,43.84884103042182,-20.09595307584846,1.682759204406257,22.835149868459226,15.892223557644204,-16.88819901433168,32.54563112107074,1.172752041524781,31.74161838320622,1.1801041824942582,-0.005959933333333334,0.06193673333333333,-0.38314500000000007,0.45104166666666673,0.3881646181278534,0.4325839027071873,0.45287934353898057,0.4353778096993467
LBP07_S00,LBP07,-1769,157,0,156,-1769,1716268028.24,2024-05-21 05:07:08.240000+00:00,2024-05-21 14:07:08.240000+09:00,2024,5,21,5,7,8,240,,,,,,,,,0.123779,-0.143799,0.474121,72.998047,-22.705078,-10.437012,,,,,,,,,,,1.0,1.0,1.0,0.0,0.0,0.0,0.0,5.0,0.0,0.07004229333333334,0.18237956,0.9877734266666666,2.3388672266666664,-0.5997720933333329,-11.234537733333333,37.480339443969235,-18.74522740351416,5.775346352310766,24.334363446217996,15.142414461503638,-16.657185160239248,33.149898604959255,1.1993221637126557,32.62862666738448,1.1838445911463533,0.05373670666666666,-0.32617856,-0.5136524266666666,0.8935676933333332,0.6108345946879632,0.4438282485724308,0.45961182698014824,0.44121302157345554
LBP07_S00,LBP07,-1768,158,0,157,-1768,1716268028.28,2024-05-21 05:07:08.280000+00:00,2024-05-21 14:07:08.280000+09:00,2024,5,21,5,7,8,280,,,,,,,,,0.145996,1.20752,0.351562,75.317383,-34.667969,-22.216797,,,,,,,,,,,1.0,1.0,1.0,0.0,0.0,0.0,0.0,5.0,0.0,0.07013018666666668,0.17730144,0.9911686133333334,1.8782552399999997,-0.615234333333333,-10.786132786666666,33.88897871322301,-17.23813508919817,9.246716064665186,25.689922594746918,14.45288905793571,-16.28731651765264,33.676917976431376,1.1895844526712263,33.583687140595785,1.188490805025745,0.07586581333333331,1.03021856,-0.6396066133333334,1.7456909866666666,1.214990750096863,0.4866683586983945,0.47897777265457664,0.45470552917744894
LBP07_S00,LBP07,-1767,159,0,158,-1767,1716268028.32,2024-05-21 05:07:08.320000+00:00,2024-05-21 14:07:08.320000+09:00,2024,5,21,5,7,8,320,,,,,,,,,0.094727,-0.951904,0.62915,49.194336,-20.629883,-16.662598,,,,,,,,,,,1.0,1.0,1.0,0.0,0.0,0.0,0.0,5.0,0.0,0.06652667999999999,0.17096029333333335,0.9921126266666666,4.70865888,-0.8756509999999995,-10.707193986666667,34.61451610782033,-16.35994855183828,11.402282386996918,27.07450323905973,13.798491115862179,-15.831225222172765,34.26448270077256,1.195485401174715,34.673703107726105,1.192821535734622,0.028200320000000015,-1.1228642933333333,-0.36296262666666657,1.5140272399999999,1.180407280411229,0.5252915908588689,0.4957622025822277,0.4686051094310208
LBP07_S00,LBP07,-1766,160,0,159,-1766,1716268028.36,2024-05-21 05:07:08.360000+00:00,2024-05-21 14:07:08.360000+09:00,2024,5,21,5,7,8,360,,,,,,,,,0.024414,1.081299,0.052246,104.919434,15.930176,-6.591797,,,,,,,,,,,1.0,1.0,1.0,0.0,0.0,0.0,0.0,5.0,0.0,0.06604816000000001,0.17660807999999997,0.9888867066666668,9.279785186666667,-1.6406249599999998,-10.380859346666668,40.384652054401165,-16.676046321913816,11.414357543047414,28.68988932123578,13.131449262985626,-15.374650920450868,35.09878345380143,1.2084759222600943,35.95797451218301,1.1959094389310494,-0.04163416,0.9046909200000001,-0.9366407066666668,1.882965786666667,1.3028794562024473,0.5641859139530085,0.5022978514724451,0.4836735973498073
LBP07_S00,LBP07,-1765,161,0,160,-1765,1716268028.4,2024-05-21 05:07:08.400000+00:00,2024-05-21 14:07:08.400000+09:00,2024,5,21,5,7,8,400,,,,,,,,,0.091553,-0.402588,0.547363,-261.413574,7.080078,81.726074,,,,,,,,,,,1.0,1.0,1.0,0.0,0.0,0.0,0.0,5.0,0.0,0.06642250666666667,0.17372722666666668,0.9931575466666668,11.74153648,-1.9661457999999996,-10.379231746666665,50.675467921987746,-18.350339159321887,8.606355623656329,30.71690803811529,12.397435696612751,-15.030396695504615,36.374959465240856,1.2013049398952924,37.475287528785785,1.197835067372527,0.025130493333333323,-0.5763152266666667,-0.44579454666666674,1.0472402666666667,0.7290429068448351,0.5762465857985696,0.5004397301048538,0.48622078838910976
LBP07_S00,LBP07,-1764,162,0,161,-1764,1716268028.44,2024-05-21 05:07:08.440000+00:00,2024-05-21 14:07:08.440000+09:00,2024,5,21,5,7,8,440,,,,,,,,,0.136475,-0.327148,0.80542,80.932617,-21.606445,24.841309,,,,,,,,,,,1.0,1.0,1.0,0.0,0.0,0.0,0.0,5.0,0.0,0.06545570666666667,0.17841798666666667,0.9905566266666667,12.345377626666664,-2.0532226266666664,-10.162760386666665,63.52465572256711,-21.062847297330656,2.7861248076208787,33.257894267017974,11.554921804719525,-14.918951703199781,38.23844752224831,1.2146938742973339,39.23411169498503,1.1964529536607986,0.07101929333333334,-0.5055659866666666,-0.18513662666666664,0.7617219066666666,0.5430619462209804,0.5791439683828731,0.499998865237137,0.4887943390705948
LBP07_S00,LBP07,-1763,163,0,162,-1763,1716268028.48,2024-05-21 05:07:08.480000+00:00,2024-05-21 14:07:08.480000+09:00,2024,5,21,5,7,8,480,,,,,,,,,-0.021973,0.169922,0.431885,98.022461,-32.226562,13.73291,,,,,,,,,,,1.0,1.0,1.0,0.0,0.0,0.0,0.0,5.0,0.0,0.06565428000000001,0.17811525333333333,0.9810416533333334,13.824056013333331,-2.8230793999999997,-10.703938773333334,75.81618940402818,-24.072406498136527,-5.51823912915754,36.2905418431791,10.592025544794064,-15.139681268366083,40.72351140705843,1.2130821579095215,41.20847624403065,1.1882060391066975,-0.08762728,-0.008193253333333345,-0.5491566533333334,0.6449771866666667,0.5561642738442029,0.5885708893564668,0.49724585638205304,0.48920729596500034
LBP07_S00,LBP07,-1762,164,0,163,-1762,1716268028.52,2024-05-21 05:07:08.520000+00:00,2024-05-21 14:07:08.520000+09:00,2024,5,21,5,7,8,520,,,,,,,,,0.19458,-0.369873,0.545166,217.956543,-49.255371,-8.178711,,,,,,,,,,,1.0,1.0,1.0,0.0,0.0,0.0,0.0,5.0,0.0,0.06846678666666667,0.1764290533333333,0.9714713333333332,13.63118492,-3.6035155999999997,-10.339355439999999,84.06848577821766,-26.41678236422903,-15.047239762379984,39.65328127430781,9.535354250224902,-15.741570858861282,43.716161194702394,1.1959564358672052,43.33995043222141,1.1819076338333083,0.12611321333333333,-0.5463020533333334,-0.4263053333333332,1.0987206,0.7043342340692517,0.5905502445656075,0.4979332068257424,0.49123202716342274
LBP07_S00,LBP07,-1761,165,0,164,-1761,1716268028.56,2024-05-21 05:07:08.560000+00:00,2024-05-21 14:07:08.560000+09:00,2024,5,21,5,7,8,560,,,,,,,,,-0.053467,0.322266,0.751709,131.652832,-16.845703,-58.105469,,,,,,,,,,,1.0,1.0,1.0,0.0,0.0,0.0,0.0,5.0,0.0,0.07041014666666667,0.17716798666666667,0.9629068800000001,12.060546906666668,-4.02994788,-9.973958306666667,85.4796438925886,-27.18747262833458,-24.059000824125654,43.07246703001135,8.447855345091519,-16.703930891826307,46.96408184157245,1.1876932844124446,45.544716565467546,1.1769581360838877,-0.12387714666666667,0.14509801333333333,-0.21119788000000017,0.48017304000000016,0.2846111829427113,0.5799159573772967,0.49548748206095766,0.48903479091613716
LBP07_S00,LBP07,-1760,166,0,165,-1760,1716268028.6,2024-05-21 05:07:08.600000+00:00,2024-05-21 14:07:08.600000+09:00,2024,5,21,5,7,8,600,,,,,,,,,0.26709,0.298828,0.528076,165.893555,-43.823242,-41.564941,,,,,,,,,,,1.0,1.0,1.0,0.0,0.0,0.0,0.0,5.0,0.0,0.07763020000000001,0.18023765333333333,0.9567382666666668,10.620117226666666,-4.025878866666666,-9.765624973333333,78.81630284012614,-25.79350967544676,-30.763188550576373,46.225119143616396,7.416114958073648,-17.93445843384936,50.133872783063204,1.1589309044074982,47.724398854228596,1.1692674144483335,0.18945979999999998,0.11859034666666665,-0.42866226666666685,0.7367124133333335,0.48343564721932203,0.5800981721682205,0.5023775215298063,0.4899897726796697
LBP07_S00,LBP07,-1759,167,0,166,-1759,1716268028.64,2024-05-21 05:07:08.640000+00:00,2024-05-21 14:07:08.640000+09:00,2024,5,21,5,7,8,640,,,,,,,,,0.031494,0.317383,0.989746,-6.469727,-11.901855,-60.60791,,,,,,,,,,,1.0,1.0,1.0,0.0,0.0,0.0,0.0,5.0,0.0,0.08032225333333334,0.16649416,0.96015948,6.902669306666667,-2.845865853333333,-9.08691404,64.80325067605665,-22.142854137147427,-33.79324453347019,48.81724917065866,6.530400792587751,-19.28618821518817,52.893544095415535,1.116853018171643,49.779638133547365,1.1634463736560354,-0.04882825333333334,0.15088884000000002,0.02958652000000006,0.22930361333333343,0.16132886451543688,0.556117511569179,0.5010326407765979,0.48475643890293063
LBP07_S00,LBP07,-1758,168,0,167,-1758,1716268028.68,2024-05-21 05:07:08.680000+00:00,2024-05-21 14:07:08.680000+09:00,2024,5,21,5,7,8,680,,,,,,,,,0.174561,0.194336,0.843994,-76.293945,-24.963379,-39.550781,,,,,,,,,,,1.0,1.0,1.0,0.0,0.0,0.0,0.0,5.0,0.0,0.07861978666666666,0.16711916,0.9605924266666667,10.246582066666667,-2.8344726133333333,-9.761555973333332,45.91649775754383,-16.701824421197667,-32.564430031686946,50.65390908096042,5.862327815739844,-20.588765416455647,54.9916598583389,1.1266003999373355,51.62559279385552,1.1588981394682687,0.09594121333333333,0.02721684000000002,-0.11659842666666664,0.23975648,0.15342967736588584,0.528386659153092,0.5009205698509426,0.48039415314411066
LBP07_S00,LBP07,-1757,169,0,168,-1757,1716268028.72,2024-05-21 05:07:08.720000+00:00,2024-05-21 14:07:08.720000+09:00,2024,5,21,5,7,8,720,,,,,,,,,0.282959,0.148193,1.001953,127.929688,-42.84668,-39.367676,,,,,,,,,,,1.0,1.0,1.0,0.0,0.0,0.0,0.0,5.0,0.0,0.07755208,0.17364910666666666,0.9622525733333334,9.631347693333332,-1.9384765199999996,-9.514160133333332,25.731537912711442,-10.422918938315915,-27.414923781865006,51.68317059746887,5.445411058207208,-21.68536236773025,56.31214403323397,1.1459904236805087,53.20787487987237,1.156621429061881,0.20540692000000002,-0.025456106666666672,0.03970042666666673,0.2705634533333334,0.21075137016879986,0.5124109173066794,0.4992962331340545,0.47928883916355886
LBP07_S00,LBP07,-1756,170,0,169,-1756,1716268028.76,2024-05-21 05:07:08.760000+00:00,2024-05-21 14:07:08.760000+09:00,2024,5,21,5,7,8,760,,,,,,,,,0.025879,-0.108398,1.151611,-53.466797,31.921387,9.765625,,,,,,,,,,,1.0,1.0,1.0,0.0,0.0,0.0,0.0,5.0,0.0,0.07673177333333332,0.1651465066666667,0.9708756266666666,9.03320316,-1.1857095866666665,-9.501139306666667,8.091237896358896,-4.5553546356447026,-19.50385871721434,52.00682011332323,5.26319687278142,-22.465516716418822,56.89560634141191,1.1315687059045527,54.5158672806459,1.157404191827109,-0.05085277333333332,-0.2735445066666667,0.18073537333333334,0.5051326533333333,0.3317798620428021,0.5064052028355184,0.4990985907919723,0.478262087988476
LBP07_S00,LBP07,-1755,171,0,170,-1755,1716268028.8,2024-05-21 05:07:08.800000+00:00,2024-05-21 14:07:08.800000+09:00,2024,5,21,5,7,8,800,,,,,,,,,0.048584,0.481445,1.039062,58.837891,-0.183105,-27.099609,,,,,,,,,,,1.0,1.0,1.0,0.0,0.0,0.0,0.0,5.0,0.0,0.07481120000000001,0.16598634666666667,0.97589516,10.541992226666666,-1.477864533333333,-9.81608072,-3.6826006005739336,-0.37668128609309875,-10.513264916483163,51.85951608930027,5.2481296213376964,-22.886047313078148,56.92735225842852,1.1430945319723111,55.58913409879781,1.158777723274783,-0.026227200000000006,0.31545865333333334,0.06316683999999995,0.4048526933333333,0.32278797632239303,0.4978416337001117,0.49964223917601763,0.47916054611929276
LBP07_S00,LBP07,-1754,172,0,171,-1754,1716268028.84,2024-05-21 05:07:08.840000+00:00,2024-05-21 14:07:08.840000+09:00,2024,5,21,5,7,8,840,,,,,,,,,0.120605,0.44165,0.600098,-90.759277,12.329102,31.37207,,,,,,,,,,,1.0,1.0,1.0,0.0,0.0,0.0,0.0,5.0,0.0,0.07083333333333333,0.16881186666666664,0.98084308,12.165527386666666,-1.7016601066666663,-10.117187493333333,-7.407955000746374,1.0929122100410202,-2.24824593468675,51.56319788927042,5.291846109739337,-22.975977150465617,56.69799412532989,1.1692115324196675,56.51325870499206,1.1634329835724122,0.04977166666666667,0.27283813333333334,-0.38074507999999996,0.70335488,0.4710463689997004,0.4987444257598488,0.5065920149246251,0.4753061457803192
LBP07_S00,LBP07,-1753,173,0,172,-1753,1716268028.88,2024-05-21 05:07:08.880000+00:00,2024-05-21 14:07:08.880000+09:00,2024,5,21,5,7,8,880,,,,,,,,,0.102539,-0.579102,0.759766,13.549805,-1.281738,-5.187988,,,,,,,,,,,1.0,1.0,1.0,0.0,0.0,0.0,0.0,5.0,0.0,0.06736328,0.17053061333333333,0.9842773333333332,13.555501346666667,-2.1280923999999994,-10.353190093333332,-2.4276649599868345,-0.6763659977187779,3.757733554302034,51.46609129087095,5.264791469830586,-22.825667808293534,56.546332267226944,1.1903150538456426,57.4040912520824,1.1700106931866088,0.03517572000000001,-0.7496326133333333,-0.22451133333333317,1.0093196666666664,0.7833209591512231,0.5281065632239017,0.5110441008351096,0.47780382920390546
LBP07_S00,LBP07,-1752,174,0,173,-1752,1716268028.92,2024-05-21 05:07:08.920000+00:00,2024-05-21 14:07:08.920000+09:00,2024,5,21,5,7,8,920,,,,,,,,,0.112305,0.22998,0.747803,-22.766113,-4.516602,28.259277,,,,,,,,,,,1.0,1.0,1.0,0.0,0.0,0.0,0.0,5.0,0.0,0.06578125333333333,0.17335613333333336,0.9853027199999999,12.162272186666666,-2.4129231199999994,-10.423177066666668,10.27981220535797,-5.5966518611632825,6.542970921758698,51.87728377908527,5.040925395384054,-22.563948971423187,56.79608520243769,1.203784063519485,58.38286042577064,1.1760345638962764,0.04652374666666667,0.056623866666666633,-0.23749971999999986,0.3406473333333332,0.24854946847713624,0.5205336747714377,0.5082476016813579,0.47340963461290947
LBP07_S00,LBP07,-1751,175,0,174,-1751,1716268028.96,2024-05-21 05:07:08.960000+00:00,2024-05-21 14:07:08.960000+09:00,2024,5,21,5,7,8,960,,,,,,,,,0.021484,0.052979,0.739014,87.768555,-15.808105,-1.586914,,,,,,,,,,,1.0,1.0,1.0,0.0,0.0,0.0,0.0,5.0,0.0,0.06659179999999999,0.17427085333333334,0.9881152133333334,12.77669276,-3.031412706666666,-10.434570306666666,28.27287567003646,-12.961755092838269,5.868696865192869,53.00819880588673,4.522455191670523,-22.32920109681547,57.69675002309146,1.2014285988891846,59.54744997999474,1.1798486196395845,-0.04510779999999999,-0.12129185333333334,-0.24910121333333346,0.4155008666666668,0.28070953277367294,0.5208430263222565,0.5038594767753003,0.47154881579143376
LBP07_S00,LBP07,-1750,176,0,175,-1750,1716268029.0,2024-05-21 05:07:09+00:00,2024-05-21 14:07:09+09:00,2024,5,21,5,7,9,0,5.0,7.0,9.0,40.52903,141.543396,32.703999,3.0,8.0,0.041748,-0.178467,0.687256,38.513184,-14.099121,-4.394531,-232.0,14.0,398.0,2071.0,0.0,1016.0,23.440001,0.029729,-22.857084,4.007812,1.0,1.0,1.0,0.0,0.0,0.0,0.0,5.0,0.0,0.06687826666666667,0.17724610666666665,0.9866991999999999,13.546549533333334,-2.8873697333333332,-10.455729159999999,48.056125895500635,-21.5649511757363,2.2081512250279256,54.930443841706754,3.659857144641071,-22.240875047814352,59.37511884500587,1.205483507383791,60.946389776175224,1.183430566194609,-0.02513026666666667,-0.35571310666666667,-0.2994431999999999,0.6802865733333332,0.46564962641822133,0.5239749463535027,0.49682934771774856,0.47575934280235527
LBP07_S00,LBP07,-1749,177,0,176,-1749,1716268029.04,2024-05-21 05:07:09.040000+00:00,2024-05-21 14:07:09.040000+09:00,2024,5,21,5,7,9,40,,,,,,,,,0.12207,0.271973,0.5,101.257324,-33.325195,-11.962891,,,,,,,,,,,1.0,1.0,1.0,0.0,0.0,0.0,0.0,5.0,0.0,0.06775717333333334,0.16768556,0.98572264,10.7592774,-2.22412104,-9.493815093333332,65.63462046751698,-29.910323340066554,-3.4025555452115848,57.555828660407435,2.463444211038409,-22.376977269622817,61.801869566318885,1.18263011431361,62.56155017793934,1.185757769502851,0.05431282666666666,0.10428744000000001,-0.48572264,0.6443229066666667,0.4997521748735533,0.5245092577988035,0.49164421898046223,0.4740968416362168
LBP07_S00,LBP07,-1748,178,0,177,-1748,1716268029.08,2024-05-21 05:07:09.080000+00:00,2024-05-21 14:07:09.080000+09:00,2024,5,21,5,7,9,80,,,,,,,,,0.039795,-0.134521,0.559814,-25.20752,-14.709473,15.686035,,,,,,,,,,,1.0,1.0,1.0,0.0,0.0,0.0,0.0,5.0,0.0,0.06802410666666667,0.17049481333333333,0.9792968533333334,13.793945373333333,-3.041992133333333,-9.119466133333333,77.11982541398892,-36.48446108555927,-9.605031283178592,60.640621676966994,1.0040657676160383,-22.76117852094996,64.77935159522123,1.1868391070340096,64.30352172679945,1.185589745784739,-0.02822910666666667,-0.30501581333333333,-0.41948285333333335,0.7527277733333333,0.5194202470902225,0.5231038265068298,0.4884205823521128,0.4735478618672828
LBP07_S00,LBP07,-1747,179,0,178,-1747,1716268029.12,2024-05-21 05:07:09.120000+00:00,2024-05-21 14:07:09.120000+09:00,2024,5,21,5,7,9,120,,,,,,,,,0.051025,0.015625,0.408936,95.336914,-57.495117,-28.625488,,,,,,,,,,,1.0,1.0,1.0,0.0,0.0,0.0,0.0,5.0,0.0,0.06764325333333335,0.16817710666666666,0.9763053199999999,13.66373704,-2.8678384933333327,-8.045247386666667,79.3283764648933,-40.04751016938643,-14.998676270746794,63.81375673556273,-0.5978346391594189,-23.361125571779834,67.95803957547497,1.1841309811135903,66.02080998238522,1.1839010959078866,-0.016618253333333347,-0.15255210666666666,-0.5673693199999998,0.7365396799999999,0.5877552695378844,0.5329294171768302,0.4922686336245895,0.47625429241311856
LBP07_S00,LBP07,-1746,180,0,179,-1746,1716268029.16,2024-05-21 05:07:09.160000+00:00,2024-05-21 14:07:09.160000+09:00,2024,5,21,5,7,9,160,,,,,,,,,0.087646,-0.088867,0.2854,100.219727,-65.551758,-28.625488,,,,,,,,,,,1.0,1.0,1.0,0.0,0.0,0.0,0.0,5.0,0.0,0.06900718666666668,0.16352866666666666,0.9748404799999999,14.02750657333333,-2.744140573333333,-7.476399733333334,70.334985326176,-39.89023422597495,-18.412055869479158,66.62715614860977,-2.193444008198417,-24.097607806559,70.8850043032168,1.167388171454799,67.5210420519808,1.1792692759374075,0.018638813333333323,-0.2523956666666667,-0.6894404799999999,0.96047496,0.7344243687250691,0.5507453062851865,0.4945566827638195,0.48273690881076636
LBP07_S00,LBP07,-1745,181,0,180,-1745,1716268029.2,2024-05-21 05:07:09.200000+00:00,2024-05-21 14:07:09.200000+09:00,2024,5,21,5,7,9,200,,,,,,,,,0.217285,0.270508,0.158691,131.225586,-60.241699,-31.799316,,,,,,,,,,,1.0,1.0,1.0,0.0,0.0,0.0,0.0,5.0,0.0,0.06959638666666666,0.16449872000000001,0.9697395600000001,14.88606776,-2.6595051599999997,-7.00032552,49.91088918981283,-35.9922513506828,-19.11875580808409,68.62359171620228,-3.633134062225729,-24.862358038882366,73.07895627606972,1.1663665650547308,68.60021094040714,1.174299165292385,0.14768861333333333,0.10600928000000001,-0.81104856,1.0647464533333335,0.8311736645446094,0.5684656681418566,0.500524785424522,0.4914081184066059
LBP07_S00,LBP07,-1744,182,0,181,-1744,1716268029.24,2024-05-21 05:07:09.240000+00:00,2024-05-21 14:07:09.240000+09:00,2024,5,21,5,7,9,240,,,,,,,,,-0.034912,0.292725,0.157959,27.832031,-29.174805,-28.137207,,,,,,,,,,,1.0,1.0,1.0,0.0,0.0,0.0,0.0,5.0,0.0,0.06851566666666666,0.16243166666666667,0.9674902133333334,14.440918013333333,-2.3722330266666667,-6.5625,19.730126144701398,-29.02358531400818,-16.952670525227617,69.41279676199034,-4.794077474786056,-25.540464859891472,74.11770961393086,1.1675312952385477,69.07507411657971,1.1700950721986723,-0.10342766666666665,0.13029333333333334,-0.8095312133333334,1.0432522133333335,0.8264468647796791,0.5770901589455254,0.5104592037589781,0.49877127096860735
LBP07_S00,LBP07,-1743,183,0,182,-1743,1716268029.28,2024-05-21 05:07:09.280000+00:00,2024-05-21 14:07:09.280000+09:00,2024,5,21,5,7,9,280,,,,,,,,,0.048584,-0.067627,0.182617,-57.067871,10.925293,-14.038086,,,,,,,,,,,1.0,1.0,1.0,0.0,0.0,0.0,0.0,5.0,0.0,0.06662765333333334,0.16055992000000002,0.9631705466666667,16.336263066666667,-3.1331379866666667,-6.836751306666667,-16.76755101745475,-20.171840786742997,-12.293838186300217,68.74209472129215,-5.600951106255776,-26.03221838734348,73.71921482308473,1.1734285550771173,68.81392494509403,1.1685212597894954,-0.01804365333333334,-0.22818692000000002,-0.7805535466666667,1.02678412,0.8134240487584641,0.5610274908919893,0.5238479247951918,0.5063276787337142
LBP07_S00,LBP07,-1742,184,0,183,-1742,1716268029.32,2024-05-21 05:07:09.320000+00:00,2024-05-21 14:07:09.320000+09:00,2024,5,21,5,7,9,320,,,,,,,,,0.309082,0.375977,0.433105,-27.038574,-27.893066,2.746582,,,,,,,,,,,1.0,1.0,1.0,0.0,0.0,0.0,0.0,5.0,0.0,0.06728521333333333,0.15501956,0.9592935866666666,17.745768280000004,-3.8435872133333335,-6.51529948,-54.8760533499017,-10.839904543556846,-5.931321932065262,66.54705258729608,-6.03454728799805,-26.26947126462609,71.79840589839338,1.1574658638146944,67.76137923373248,1.1654205952989636,0.2417967866666667,0.22095744,-0.5261885866666667,0.9889428133333333,0.6198082808997822,0.5386035309115315,0.5319475608852001,0.5100426453586623
LBP07_S00,LBP07,-1741,185,0,184,-1741,1716268029.36,2024-05-21 05:07:09.360000+00:00,2024-05-21 14:07:09.360000+09:00,2024,5,21,5,7,9,360,,,,,,,,,0.271729,0.005127,0.64917,-133.850098,27.22168,45.959473,,,,,,,,,,,1.0,1.0,1.0,0.0,0.0,0.0,0.0,5.0,0.0,0.06825852,0.15484053333333334,0.9545116933333334,18.403320360000002,-4.640299453333333,-5.9879557199999995,-89.38014132331868,-2.3100116884848263,1.1486540335753923,62.971846934363334,-6.126947755537444,-26.223525103283077,68.48843890735493,1.151727492438963,65.95332810843675,1.161714901151919,0.20347048,-0.14971353333333334,-0.3053416933333334,0.6585257066666668,0.39629273016578154,0.5023400618700647,0.5332629879115367,0.502311921604985
