file_name,test_id,_program_index,program_index,session_id,index,_index,unixtime,datetime_utc,datetime_jst,rtc_year,rtc_month,rtc_day,rtc_hour,rtc_min,rtc_sec,rtc_msec,gps_hour,gps_min,gps_sec,latitude,longitude,altitude,fix_type,SIV,acc_x,acc_y,acc_z,gyro_x,gyro_y,gyro_z,mag_x,mag_y,mag_z,illuminance,atmopress,water_pressure,water_temp,depth,alt_wps,battery_level,behavior_class,camera_command,camera_recording,camera_count,play_audio,speaker_on,audio_file,prev_sd_write_time_ms,delay_occurred_counter,acc_x_ma,acc_y_ma,acc_z_ma,gyro_x_ma,gyro_y_ma,gyro_z_ma,gyro_x_lowpass,gyro_y_lowpass,gyro_z_lowpass,angle_x,angle_y,angle_z,combined_angle_change,gravity_adjusted_angle,smoothed_angle_change,smoothed_gravity_angle,acc_x_dy,acc_y_dy,acc_z_dy,ODBA,VeDBA,smoothed_VeDBA_1s,smoothed_VeDBA_2s,smoothed_VeDBA_3s
LBP07_S03,LBP07,-1650,1,3,0,-1650,1716272499.0,2024-05-21 06:21:39+00:00,2024-05-21 15:21:39+09:00,2024,5,21,6,21,39,0,6.0,21.0,39.0,40.540798,141.502472,-11.512,3.0,11.0,-0.212402,0.568115,1.538574,172.912598,80.383301,-98.510742,-256.0,15.0,398.0,2470.0,0.0,1019.799988,21.360001,0.067386,-54.35902,3.916406,0.0,1.0,1.0,3.0,0.0,0.0,0.0,5.0,0.0,,,,,,,173.62455523664346,80.93792171430992,-98.12872483328657,6.9449822094657385,3.237516868572397,-3.925148993331463,8.609360486350738,,16.87534429993495,,,,,,,,,
LBP07_S03,LBP07,-1649,2,3,1,-1649,1716272499.04,2024-05-21 06:21:39.040000+00:00,2024-05-21 15:21:39.040000+09:00,2024,5,21,6,21,39,40,,,,,,,,,-0.111816,0.181885,1.727051,53.466797,-41.381836,-48.461914,,,,,,,,,,,0.0,1.0,1.0,3.0,0.0,0.0,0.0,5.0,0.0,,,,,,,132.11408537038542,47.274550212251995,-61.43647180535864,12.229545624281155,5.128498877062476,-6.3826078655458085,14.717369672388223,,17.698767503129456,,,,,,,,,
LBP07_S03,LBP07,-1648,3,3,2,-1648,1716272499.08,2024-05-21 06:21:39.080000+00:00,2024-05-21 15:21:39.080000+09:00,2024,5,21,6,21,39,80,,,,,,,,,0.012695,0.449707,1.039551,32.409668,82.15332,-6.713867,,,,,,,,,,,0.0,1.0,1.0,3.0,0.0,0.0,0.0,5.0,0.0,,,,,,,93.66494919345068,17.369441458384586,-29.67680316095561,15.976143592019183,5.82327653539786,-7.569679991984033,18.61310744775236,,18.24253117593651,,,,,,,,,
LBP07_S03,LBP07,-1647,4,3,3,-1647,1716272499.12,2024-05-21 06:21:39.120000+00:00,2024-05-21 15:21:39.120000+09:00,2024,5,21,6,21,39,120,,,,,,,,,-0.548096,-0.508789,-0.105957,-4.333496,-43.334961,74.157715,,,,,,,,,,,0.0,1.0,1.0,3.0,0.0,0.0,0.0,5.0,0.0,,,,,,,60.55674349639922,-5.848932828597665,-6.412341603550087,18.39841333187515,5.589319222253954,-7.826173656126037,20.760325059945956,,18.581398320651047,,,,,,,,,
LBP07_S03,LBP07,-1646,5,3,4,-1646,1716272499.16,2024-05-21 06:21:39.160000+00:00,2024-05-21 15:21:39.160000+09:00,2024,5,21,6,21,39,160,,,,,,,,,0.213379,0.5,0.227783,86.303711,-115.112305,39.489746,,,,,,,,,,,0.0,1.0,1.0,3.0,0.0,0.0,0.0,5.0,0.0,,,,,,,33.81799821395158,-20.805443613975072,6.68357099419445,19.751133260433214,4.757101477694951,-7.558830816358259,21.676558833237483,,18.773038875140028,,,,,,,,,
LBP07_S03,LBP07,-1645,6,3,5,-1645,1716272499.2,2024-05-21 06:21:39.200000+00:00,2024-05-21 15:21:39.200000+09:00,2024,5,21,6,21,39,200,,,,,,,,,0.512207,0.135498,0.710693,-118.408203,-60.180664,68.481445,,,,,,,,,,,0.0,1.0,1.0,3.0,0.0,0.0,0.0,5.0,0.0,,,,,,,13.266813005553628,-27.487939649270185,10.07972802945346,20.281805780655358,3.657583891724143,-7.155641695180121,21.815883519101977,,18.864503469943507,,,,,,,,,
LBP07_S03,LBP07,-1644,7,3,6,-1644,1716272499.24,2024-05-21 06:21:39.240000+00:00,2024-05-21 15:21:39.240000+09:00,2024,5,21,6,21,39,240,,,,,,,,,0.350586,-0.993164,1.508545,55.969238,96.923828,-78.857422,,,,,,,,,,,0.0,1.0,1.0,3.0,0.0,0.0,0.0,5.0,0.0,,,,,,,-2.0123657948611857,-27.263180811474324,6.070430418963618,20.20131114886091,2.5670566592651705,-6.912824478421576,21.50511321277882,,19.923993016938987,,,,,,,,,
LBP07_S03,LBP07,-1643,8,3,7,-1643,1716272499.28,2024-05-21 06:21:39.280000+00:00,2024-05-21 15:21:39.280000+09:00,2024,5,21,6,21,39,280,,,,,,,,,-0.580566,0.962891,1.433105,349.487305,-27.709961,-81.848145,,,,,,,,,,,0.0,1.0,1.0,3.0,0.0,0.0,0.0,5.0,0.0,,,,,,,-12.994842880203485,-22.37245216333007,-1.982120472789648,19.681517433652772,1.6721585727319677,-6.992109297333162,20.95346833365283,,20.344436750201194,,,,,,,,,
LBP07_S03,LBP07,-1642,9,3,8,-1642,1716272499.32,2024-05-21 06:21:39.320000+00:00,2024-05-21 15:21:39.320000+09:00,2024,5,21,6,21,39,320,,,,,,,,,0.231445,0.364746,1.617432,-156.37207,-27.526855,-32.348633,,,,,,,,,,,0.0,1.0,1.0,3.0,0.0,0.0,0.0,5.0,0.0,,,,,,,-20.183604181798014,-15.293660246736051,-10.570839662649428,18.87417326638085,1.0604121628625256,-7.414942883839139,20.30616331105187,,20.369176106026416,,,,,,,,,
LBP07_S03,LBP07,-1641,10,3,9,-1641,1716272499.36,2024-05-21 06:21:39.360000+00:00,2024-05-21 15:21:39.360000+09:00,2024,5,21,6,21,39,360,,,,,,,,,-1.048828,0.027344,-0.106689,-134.82666,110.290527,-16.418457,,,,,,,,,,,0.0,1.0,1.0,3.0,0.0,0.0,0.0,5.0,0.0,,,,,,,-23.491328302265323,-8.182476131230475,-16.833726248736884,17.93452013429024,0.7331131176133066,-8.088291933788614,19.687684823174834,,20.195479335125967,,,,,,,,,
LBP07_S03,LBP07,-1640,11,3,10,-1640,1716272499.4,2024-05-21 06:21:39.400000+00:00,2024-05-21 15:21:39.400000+09:00,2024,5,21,6,21,39,400,,,,,,,,,0.611084,0.268799,0.086182,-48.217773,-189.208984,64.27002,,,,,,,,,,,0.0,1.0,1.0,3.0,0.0,0.0,0.0,5.0,0.0,,,,,,,-22.560482434241255,-2.527533340946442,-19.027233630378166,17.032100836920588,0.6320117839754489,-8.84938127900374,19.204255956305538,,19.970775652195314,,,,,,,,,
LBP07_S03,LBP07,-1639,12,3,11,-1639,1716272499.44,2024-05-21 06:21:39.440000+00:00,2024-05-21 15:21:39.440000+09:00,2024,5,21,6,21,39,440,,,,,,,,,0.575195,-0.296631,1.159912,-115.600586,51.147461,1.159668,,,,,,,,,,,0.0,1.0,1.0,3.0,0.0,0.0,0.0,5.0,0.0,,,,,,,-17.276526643067896,0.9598141168620997,-16.667440405729355,16.34103977119787,0.6704043486499329,-9.516078895232914,18.921807005010294,,19.800088922834625,,,,,,,,,
LBP07_S03,LBP07,-1638,13,3,12,-1638,1716272499.48,2024-05-21 06:21:39.480000+00:00,2024-05-21 15:21:39.480000+09:00,2024,5,21,6,21,39,480,,,,,,,,,0.113525,0.208496,1.474121,126.831055,138.183594,-92.773438,,,,,,,,,,,0.0,1.0,1.0,3.0,0.0,0.0,0.0,5.0,0.0,,,,,,,-8.15778858944926,2.274536242076259,-10.426526863461655,16.0147282276199,0.7613857983329833,-9.93313996977138,18.86050100600455,,19.7550844722889,,,,,,,,,
LBP07_S03,LBP07,-1637,14,3,13,-1637,1716272499.52,2024-05-21 06:21:39.520000+00:00,2024-05-21 15:21:39.520000+09:00,2024,5,21,6,21,39,520,,,,,,,,,-0.658936,0.41333,1.750488,42.236328,-105.224609,-39.733887,,,,,,,,,,,0.0,1.0,1.0,3.0,0.0,0.0,0.0,5.0,0.0,,,,,,,3.5431490642763515,1.9257589216129407,-1.8641406012254746,16.156454190190956,0.8384161551975009,-10.007705593820399,19.023357350941478,,19.87781038894423,,,,,,,,,
LBP07_S03,LBP07,-1636,15,3,14,-1636,1716272499.56,2024-05-21 06:21:39.560000+00:00,2024-05-21 15:21:39.560000+09:00,2024,5,21,6,21,39,560,,,,,,,,,0.198486,0.190674,1.625,-51.025391,20.996094,-9.033203,,,,,,,,,,,0.0,1.0,1.0,3.0,0.0,0.0,0.0,5.0,0.0,,,,,,,15.99584203395941,0.6660830442834106,6.981426161564875,16.796287871549332,0.8650594769688373,-9.728448547357804,19.42952200393095,,20.1799707028133,,,,,,,,,
LBP07_S03,LBP07,-1635,16,3,15,-1635,1716272499.6,2024-05-21 06:21:39.600000+00:00,2024-05-21 15:21:39.600000+09:00,2024,5,21,6,21,39,600,,,,,,,,,-1.052734,0.911377,-0.494629,17.028809,-52.612305,61.889648,,,,,,,,,,,0.0,1.0,1.0,3.0,0.0,0.0,0.0,5.0,0.0,,,,,,,27.098630583298654,-0.7961252143869263,14.115775493334342,17.880233094881277,0.8332144683933603,-9.16381752762443,20.109016225495083,,20.643642228911393,,,,,,,,,
LBP07_S03,LBP07,-1634,17,3,16,-1634,1716272499.64,2024-05-21 06:21:39.640000+00:00,2024-05-21 15:21:39.640000+09:00,2024,5,21,6,21,39,640,,,,,,,,,0.788086,-0.564941,0.719971,-126.77002,-94.787598,201.049805,,,,,,,,,,,0.0,1.0,1.0,3.0,0.0,0.0,0.0,5.0,0.0,,,,,,,34.87042796223427,-2.0004368306458464,18.11402338627403,19.275050213370648,0.7531969951675265,-8.439256592173468,21.055068707321585,,21.228013115227515,,,,,,,,,
LBP07_S03,LBP07,-1633,18,3,17,-1633,1716272499.68,2024-05-21 06:21:39.680000+00:00,2024-05-21 15:21:39.680000+09:00,2024,5,21,6,21,39,680,,,,,,,,,0.556152,-0.584473,1.431885,169.677734,86.05957,1.708984,,,,,,,,,,,0.0,1.0,1.0,3.0,0.0,0.0,0.0,5.0,0.0,,,,,,,37.90034804381336,-2.7686044887180015,18.45937232072743,20.791064135123182,0.6424528156188064,-7.700881699344371,22.180727500206096,,21.88140196047677,,,,,,,,,
LBP07_S03,LBP07,-1632,19,3,18,-1632,1716272499.72,2024-05-21 06:21:39.720000+00:00,2024-05-21 15:21:39.720000+09:00,2024,5,21,6,21,39,720,,,,,,,,,-0.037842,1.081299,1.507568,296.630859,163.757324,-135.253906,,,,,,,,,,,0.0,1.0,1.0,3.0,0.0,0.0,0.0,5.0,0.0,,,,,,,35.76493686062809,-3.0817221394517986,15.545894918373497,22.221661609548306,0.5191839300407345,-7.079045902609431,23.327766449742608,,22.553001761711773,,,,,,,,,
LBP07_S03,LBP07,-1631,20,3,19,-1631,1716272499.76,2024-05-21 06:21:39.760000+00:00,2024-05-21 15:21:39.760000+09:00,2024,5,21,6,21,39,760,,,,,,,,,-0.377441,0.615723,1.84082,-29.47998,-132.629395,-20.263672,,,,,,,,,,,0.0,1.0,1.0,3.0,0.0,0.0,0.0,5.0,0.0,,,,,,,29.214606236115834,-2.923262979395292,10.37214419311737,23.39024585899294,0.40225341086492283,-6.664160134884736,24.32440008415574,,23.198624880843806,,,,,,,,,
LBP07_S03,LBP07,-1630,21,3,20,-1630,1716272499.8,2024-05-21 06:21:39.800000+00:00,2024-05-21 15:21:39.800000+09:00,2024,5,21,6,21,39,800,,,,,,,,,0.128418,0.083496,1.199707,-64.941406,6.591797,-16.418457,,,,,,,,,,,0.0,1.0,1.0,3.0,0.0,0.0,0.0,5.0,0.0,,,,,,,19.946327584928188,-2.228558797278892,4.126367127123206,24.188098962390068,0.3131110589737672,-6.499105449799808,25.047964819466767,,23.779938939475347,,,,,,,,,
LBP07_S03,LBP07,-1629,22,3,21,-1629,1716272499.84,2024-05-21 06:21:39.840000+00:00,2024-05-21 15:21:39.840000+09:00,2024,5,21,6,21,39,840,,,,,,,,,-0.958984,-0.204102,-0.127441,-135.070801,30.639648,74.462891,,,,,,,,,,,0.0,1.0,1.0,3.0,0.0,0.0,0.0,5.0,0.0,,,,,,,9.997489851743726,-0.9785382077732181,-2.119787240548963,24.587998556459816,0.27396953066283847,-6.583896939421766,25.455695457502802,,24.262537019561286,,,,,,,,,
LBP07_S03,LBP07,-1628,23,3,22,-1628,1716272499.88,2024-05-21 06:21:39.880000+00:00,2024-05-21 15:21:39.880000+09:00,2024,5,21,6,21,39,880,,,,,,,,,0.690674,-0.064209,0.445801,-74.951172,-130.737305,69.763184,,,,,,,,,,,0.0,1.0,1.0,3.0,0.0,0.0,0.0,5.0,0.0,,,,,,,1.0615003108868069,0.6522473570183899,-7.535840773811628,24.63045856889529,0.30005942494357407,-6.885330570374231,25.576499018354617,,24.618676176601006,,,,,,,,,
LBP07_S03,LBP07,-1627,24,3,23,-1627,1716272499.92,2024-05-21 06:21:39.920000+00:00,2024-05-21 15:21:39.920000+09:00,2024,5,21,6,21,39,920,,,,,,,,,0.669678,-0.195557,1.076172,22.583008,2.929688,-36.865234,,,,,,,,,,,0.0,1.0,1.0,3.0,0.0,0.0,0.0,5.0,0.0,,,,,,,-5.908353572856916,2.2264473420676034,-11.552461718913353,24.394124425981012,0.3891173186262782,-7.347429039130765,25.47958854226183,,24.834828357040347,,,,,,,,,
LBP07_S03,LBP07,-1626,25,3,24,-1626,1716272499.96,2024-05-21 06:21:39.960000+00:00,2024-05-21 15:21:39.960000+09:00,2024,5,21,6,21,39,960,,,,,,,,,-0.125,0.074219,1.554688,144.40918,164.306641,-120.605469,,,,,,,,,,,0.0,1.0,1.0,3.0,0.0,0.0,0.0,5.0,0.0,,,,,,,-10.64616106738045,3.128204933714785,-13.876316033631,23.968277983285795,0.5142455159748696,-7.902481680476005,25.24266259024633,,24.918354544820538,,,,,,,,,
LBP07_S03,LBP07,-1625,26,3,25,-1625,1716272500.0,2024-05-21 06:21:40+00:00,2024-05-21 15:21:40+09:00,2024,5,21,6,21,40,0,6.0,21.0,40.0,40.540737,141.502426,-11.254,3.0,11.0,-0.401123,0.349121,1.612305,100.524902,-72.875977,-31.12793,-254.0,11.0,405.0,2425.0,0.0,1020.200012,21.370001,0.07135,-57.669693,3.916406,0.0,1.0,1.0,3.0,0.0,0.0,0.0,4.0,0.0,,,,,,,-13.221613013374098,2.769290759583484,-14.507119456238355,23.43941346275083,0.6250171463582089,-8.48276645872554,24.934997026354456,,24.897894576360454,,,,,,,,,
LBP07_S03,LBP07,-1624,27,3,26,-1624,1716272500.04,2024-05-21 06:21:40.040000+00:00,2024-05-21 15:21:40.040000+09:00,2024,5,21,6,21,40,40,,,,,,,,,0.232178,0.7771,1.172119,-3.723145,-1.464844,2.624512,,,,,,,,,,,0.0,1.0,1.0,3.0,0.0,0.0,0.0,4.0,0.0,,,,,,,-13.712301214485379,0.8079064172186764,-13.68477843653747,22.890921414171416,0.657333403046956,-9.030157596187038,24.616460277718797,,24.817296457697836,,,,,,,,,
LBP07_S03,LBP07,-1623,28,3,27,-1623,1716272500.08,2024-05-21 06:21:40.080000+00:00,2024-05-21 15:21:40.080000+09:00,2024,5,21,6,21,40,80,,,,,,,,,-1.235352,-0.524414,-0.330078,-199.645996,44.494629,48.64502,,,,,,,,,,,0.0,1.0,1.0,3.0,0.0,0.0,0.0,4.0,0.0,,,,,,,-12.134459331793037,-2.7204282248899054,-11.727470087202711,22.405543040899694,0.5485162740513597,-9.499256399675147,24.342249304599548,,24.727367798420087,,,,,,,,,
LBP07_S03,LBP07,-1622,29,3,28,-1622,1716272500.12,2024-05-21 06:21:40.120000+00:00,2024-05-21 15:21:40.120000+09:00,2024,5,21,6,21,40,120,,,,,,,,,0.585449,0.085938,0.275146,-91.61377,-113.28125,81.970215,,,,,,,,,,,0.0,1.0,1.0,3.0,0.0,0.0,0.0,4.0,0.0,,,,,,,-8.599408238111755,-7.387268044205483,-8.835446753592649,22.061566711375225,0.2530255522831404,-9.852674269818854,24.163028327544502,,24.680142966779567,,,,,,,,,
LBP07_S03,LBP07,-1621,30,3,29,-1621,1716272500.16,2024-05-21 06:21:40.160000+00:00,2024-05-21 15:21:40.160000+09:00,2024,5,21,6,21,40,160,,,,,,,,,0.541992,-0.311279,1.037109,-71.472168,22.766113,-13.671875,,,,,,,,,,,0.0,1.0,1.0,3.0,0.0,0.0,0.0,4.0,0.0,,,,,,,-3.450168006780479,-12.439468510329128,-5.00773711798264,21.923559991104007,-0.24455318813002475,-10.05298375453816,24.119800399554908,,24.727268038706054,,,,,,,,,
LBP07_S03,LBP07,-1620,31,3,30,-1620,1716272500.2,2024-05-21 06:21:40.200000+00:00,2024-05-21 15:21:40.200000+09:00,2024,5,21,6,21,40,200,,,,,,,,,0.244141,0.156006,1.241211,171.569824,115.112305,-82.15332,,,,,,,,,,,0.0,1.0,1.0,3.0,0.0,0.0,0.0,4.0,0.0,,,,,,,2.8363643377966357,-16.918197270786287,-0.16472090380099227,22.037014564615873,-0.9212810789614763,-10.059572590690198,24.24198363284057,,24.920073989547777,,,,,,,,,
LBP07_S03,LBP07,-1619,32,3,31,-1619,1716272500.24,2024-05-21 06:21:40.240000+00:00,2024-05-21 15:21:40.240000+09:00,2024,5,21,6,21,40,240,,,,,,,,,-0.695068,0.077881,1.545166,119.384766,-81.665039,-51.696777,,,,,,,,,,,0.0,1.0,1.0,3.0,0.0,0.0,0.0,4.0,0.0,,,,,,,9.946833519333408,-19.825905160284186,5.580112457167686,22.43488790538921,-1.714317285372844,-9.836368092403491,24.556408864725327,,25.306879270683485,,,,,,,,,
LBP07_S03,LBP07,-1618,33,3,32,-1618,1716272500.28,2024-05-21 06:21:40.280000+00:00,2024-05-21 15:21:40.280000+09:00,2024,5,21,6,21,40,280,,,,,,,,,0.365234,0.515381,1.945068,201.416016,-172.912598,-4.333496,,,,,,,,,,,0.0,1.0,1.0,3.0,0.0,0.0,0.0,4.0,0.0,,,,,,,17.948207374056235,-20.34324793736324,11.682439002676334,23.15281620035146,-2.5280472028673735,-9.369070532296439,25.10425070194942,,25.924687583405603,,,,,,,,,
LBP07_S03,LBP07,-1617,34,3,33,-1617,1716272500.32,2024-05-21 06:21:40.320000+00:00,2024-05-21 15:21:40.320000+09:00,2024,5,21,6,21,40,320,,,,,,,,,-0.222656,-0.009521,0.632568,-152.404785,155.639648,-4.02832,,,,,,,,,,,0.0,1.0,1.0,3.0,0.0,0.0,0.0,4.0,0.0,,,,,,,27.131118262315415,-18.05303848454705,17.145465406730832,24.238060930844075,-3.2501687422492553,-8.683251916027206,25.95083926152667,,26.78667829906815,1.5972548672042544,,,,,,,,
LBP07_S03,LBP07,-1616,35,3,34,-1616,1716272500.36,2024-05-21 06:21:40.360000+00:00,2024-05-21 15:21:40.360000+09:00,2024,5,21,6,21,40,360,,,,,,,,,-0.13623,0.168213,-0.253418,-67.626953,-96.008301,122.802734,,,,,,,,,,,0.0,1.0,1.0,3.0,0.0,0.0,0.0,4.0,0.0,,,,,,,37.44971933939412,-13.086837424903607,20.766007448340183,25.73604970441984,-3.7736422392453997,-7.852611618093599,27.170722098663557,,27.87052482803738,1.5686822428634728,,,,,,,,
LBP07_S03,LBP07,-1615,36,3,35,-1615,1716272500.4,2024-05-21 06:21:40.400000+00:00,2024-05-21 15:21:40.400000+09:00,2024,5,21,6,21,40,400,,,,,,,,,0.215088,-0.125244,0.48584,-170.715332,-27.46582,55.541992,,,,,,,,,,,0.0,1.0,1.0,3.0,0.0,0.0,0.0,4.0,0.0,,,,,,,47.87820867979209,-6.130838234716365,21.535661583480685,27.651178051611524,-4.018875768634055,-6.991185154754372,28.80304983771154,,29.11297519744121,1.5293980036380297,,,,,,,,
LBP07_S03,LBP07,-1614,37,3,36,-1614,1716272500.44,2024-05-21 06:21:40.440000+00:00,2024-05-21 15:21:40.440000+09:00,2024,5,21,6,21,40,440,,,,,,,,,0.927002,-0.557617,1.157227,85.144043,-29.846191,42.053223,,,,,,,,,,,0.0,1.0,1.0,3.0,0.0,0.0,0.0,4.0,0.0,,,,,,,56.161934011141504,1.714360448147869,18.9968802668111,29.897655412057183,-3.95030135070814,-6.231309944081928,30.79454340493999,,30.41332854773039,1.5333484353882398,,,,,,,,
LBP07_S03,LBP07,-1613,38,3,37,-1613,1716272500.48,2024-05-21 06:21:40.480000+00:00,2024-05-21 15:21:40.480000+09:00,2024,5,21,6,21,40,480,,,,,,,,,-0.083252,0.479248,1.336426,168.945312,142.700195,-52.856445,,,,,,,,,,,0.0,1.0,1.0,3.0,0.0,0.0,0.0,4.0,0.0,-0.004117866666666668,0.15774417333333332,0.9462402133333334,6.960449199999999,-7.027181013333332,-1.8660481599999998,59.259473020071376,9.180449105333775,13.394124773928091,32.26803433286004,-3.583083386494789,-5.695544953124804,32.962156461224964,1.5972548672042544,31.644690150632776,1.5250703586791232,-0.07913413333333334,0.32150382666666666,0.3901857866666665,0.7908237466666665,0.5117341787846628,0.5117341787846628,0.5117341787846628,0.5117341787846628
LBP07_S03,LBP07,-1612,39,3,38,-1612,1716272500.52,2024-05-21 06:21:40.520000+00:00,2024-05-21 15:21:40.520000+09:00,2024,5,21,6,21,40,520,,,,,,,,,-0.438721,-0.161377,1.931396,200.561523,-33.26416,-30.761719,,,,,,,,,,,0.0,1.0,1.0,3.0,0.0,0.0,0.0,4.0,0.0,0.004225226666666666,0.13914392,0.94013996,2.7270507599999996,-8.467610706666665,0.7470703333333334,54.363474701764474,15.111472440425807,5.591569254454081,34.44257332093062,-2.9786244888777564,-5.471882182946641,35.00149361723686,1.5401096185226912,32.669618817721705,1.519443940699219,-0.4429462266666667,-0.30052091999999997,0.9912560399999999,1.7347231866666666,1.126544592953322,0.8191393858689924,0.8191393858689924,0.8191393858689924
LBP07_S03,LBP07,-1611,40,3,39,-1611,1716272500.56,2024-05-21 06:21:40.560000+00:00,2024-05-21 15:21:40.560000+09:00,2024,5,21,6,21,40,560,,,,,,,,,0.40332,1.726562,1.314209,191.467285,-15.869141,-3.845215,,,,,,,,,,,0.0,1.0,1.0,3.0,0.0,0.0,0.0,4.0,0.0,0.01660804,0.13927086666666666,0.9353222533333333,6.138509093333333,-7.307942733333332,1.6446940266666668,40.03635736547754,18.685160481242384,-3.1491423652503094,36.04402761554972,-2.231218069628061,-5.597847877556653,36.54430409359318,1.4508295251871435,33.35689887906615,1.5270298116352046,0.38671196,1.5872911333333333,0.37888674666666666,2.35288984,1.6770791420697204,1.1051193046025685,1.1051193046025685,1.1051193046025685
LBP07_S03,LBP07,-1610,41,3,40,-1610,1716272500.6,2024-05-21 06:21:40.600000+00:00,2024-05-21 15:21:40.600000+09:00,2024,5,21,6,21,40,600,,,,,,,,,-0.731445,-0.633057,0.227051,-180.480957,130.371094,12.329102,,,,,,,,,,,0.0,1.0,1.0,3.0,0.0,0.0,0.0,4.0,0.0,0.0036978933333333317,0.14616539999999997,0.9415852666666666,4.5288085733333325,-6.002604186666665,0.7047526133333334,16.9373227493346,19.511150939849724,-11.409628669125382,36.721520525523104,-1.4507720320340718,-6.054233024321668,37.24551713573238,1.54519973063887,33.59765539016421,1.5314946330920858,-0.7351428933333334,-0.7792224,-0.7145342666666666,2.22889956,1.2877040966468716,1.1507655026136443,1.1507655026136443,1.1507655026136443
LBP07_S03,LBP07,-1609,42,3,41,-1609,1716272500.64,2024-05-21 06:21:40.640000+00:00,2024-05-21 15:21:40.640000+09:00,2024,5,21,6,21,40,640,,,,,,,,,0.231689,0.401611,0.097168,-7.69043,-131.347656,24.414062,,,,,,,,,,,0.0,1.0,1.0,3.0,0.0,0.0,0.0,4.0,0.0,0.012558573333333333,0.16113285333333333,0.9693749733333334,5.299479146666666,-7.1134440266666665,-0.4907226533333332,-12.137083504951471,17.6088403016626,-17.81717074435697,36.236037185325046,-0.7464184199675677,-6.766919854095947,36.87002489374918,1.491958051842657,33.31999408879289,1.525860854797346,0.21913042666666668,0.24047814666666667,-0.8722069733333334,1.3318155466666668,0.9309097095028306,1.1067943439914816,1.1067943439914816,1.1067943439914816
LBP07_S03,LBP07,-1608,43,3,42,-1608,1716272500.68,2024-05-21 06:21:40.680000+00:00,2024-05-21 15:21:40.680000+09:00,2024,5,21,6,21,40,680,,,,,,,,,0.462158,-0.092773,1.057129,-121.459961,9.399414,17.211914,,,,,,,,,,,0.0,1.0,1.0,3.0,0.0,0.0,0.0,4.0,0.0,0.012363253333333333,0.15718102666666667,0.9813801866666667,1.529134093333333,-4.458821626666666,-1.180013013333333,-42.83206805314089,13.322883779839861,-21.231910172444945,34.52275446319941,-0.2135030687739733,-7.616196260993745,35.353537372838744,1.491311850799698,32.500821711757546,1.520358754100878,0.4497947466666667,-0.24995402666666666,0.07574881333333328,0.7754975866666667,0.5201251890624216,1.0090161515033047,1.0090161515033047,1.0090161515033047
LBP07_S03,LBP07,-1607,44,3,43,-1607,1716272500.72,2024-05-21 06:21:40.720000+00:00,2024-05-21 15:21:40.720000+09:00,2024,5,21,6,21,40,720,,,,,,,,,0.620117,0.255615,1.373291,106.323242,90.576172,-44.86084,,,,,,,,,,,0.0,1.0,1.0,3.0,0.0,0.0,0.0,4.0,0.0,-0.00026695999999999903,0.15458012,0.9718066266666667,1.4038085733333328,-3.9135742266666664,-0.8349609199999998,-70.16845067810517,7.242414372684083,-20.959456924311393,31.716016436075204,0.07619350613339004,-8.4545745379662,32.82363987497114,1.5725450372511187,31.172515379443183,1.5029540219411532,0.6203839600000001,0.10103488,0.4014843733333333,1.1229032133333334,0.745837788552414,0.9714192425103204,0.9714192425103204,0.9714192425103204
LBP07_S03,LBP07,-1606,45,3,44,-1606,1716272500.76,2024-05-21 06:21:40.760000+00:00,2024-05-21 15:21:40.760000+09:00,2024,5,21,6,21,40,760,,,,,,,,,-0.721191,1.384766,1.339844,-32.409668,32.348633,-126.525879,,,,,,,,,,,0.0,1.0,1.0,3.0,0.0,0.0,0.0,4.0,0.0,0.0013020533333333343,0.16415042666666668,0.9561230266666666,-1.0782877733333336,-5.952962239999999,1.3500976800000002,-89.58193431251223,0.14764334147955677,-16.968352603320724,28.132739063574714,0.08209923979257232,-9.13330864209903,29.578287209644138,1.5627483832902525,29.422529034544787,1.4982956118275284,-0.7224930533333334,1.2206155733333333,0.38372097333333344,2.3268296,1.4694013663239414,1.033667007987023,1.033667007987023,1.033667007987023
LBP07_S03,LBP07,-1605,46,3,45,-1605,1716272500.8,2024-05-21 06:21:40.800000+00:00,2024-05-21 15:21:40.800000+09:00,2024,5,21,6,21,40,800,,,,,,,,,-0.158447,0.091553,2.033936,-305.358887,-85.327148,-31.555176,,,,,,,,,,,0.0,1.0,1.0,3.0,0.0,0.0,0.0,4.0,0.0,0.012864546666666667,0.1441732133333333,0.9470377466666665,-5.5069987199999995,-6.112467453333332,2.3771159200000005,-97.90221841395675,-7.051930860056881,-10.006943748225376,24.216650327016445,-0.19997799460970295,-9.533586392028045,26.026436823998328,1.4807906284394285,27.38583640771744,1.512083459990918,-0.17131154666666668,-0.052620213333333304,1.0868982533333336,1.3108300133333335,1.101573577193835,1.0412121823433356,1.0412121823433356,1.0412121823433356
LBP07_S03,LBP07,-1604,47,3,46,-1604,1716272500.84,2024-05-21 06:21:40.840000+00:00,2024-05-21 15:21:40.840000+09:00,2024,5,21,6,21,40,840,,,,,,,,,0.017822,0.35376,0.826416,-141.845703,81.481934,-24.047852,,,,,,,,,,,0.0,1.0,1.0,3.0,0.0,0.0,0.0,4.0,0.0,0.013714160000000003,0.13818687999999998,0.9439811066666668,-0.1367187733333329,-4.455566413333333,1.4274088933333338,-94.09974241933506,-13.43858614446423,-1.4938641053680264,20.45266063024304,-0.7375214403882722,-9.593340956242766,22.602819634586545,1.4708398478326674,25.231089847167045,1.5179180479379597,0.004107839999999998,0.21557312000000003,-0.11756510666666675,0.3372460666666668,0.24558134848058952,0.961649098957061,0.961649098957061,0.961649098957061
LBP07_S03,LBP07,-1603,48,3,47,-1603,1716272500.88,2024-05-21 06:21:40.880000+00:00,2024-05-21 15:21:40.880000+09:00,2024,5,21,6,21,40,880,,,,,,,,,-0.494873,0.009277,-0.365479,-187.255859,-84.777832,116.821289,,,,,,,,,,,0.0,1.0,1.0,3.0,0.0,0.0,0.0,4.0,0.0,0.020794240000000005,0.14132163999999997,0.96702472,4.381510386666667,-5.410156253333332,0.11637373333333358,-79.56077638474522,-18.268494444879806,6.850039828974792,17.270229574853232,-1.4682612181834644,-9.319339363083774,19.679093138081324,1.4232075456070046,23.14134943086461,1.5175937804215454,-0.51566724,-0.13204463999999996,-1.33250372,1.9802156,1.4348918611434751,1.0046711682467349,1.0046711682467349,1.0046711682467349
LBP07_S03,LBP07,-1602,49,3,48,-1602,1716272500.92,2024-05-21 06:21:40.920000+00:00,2024-05-21 15:21:40.920000+09:00,2024,5,21,6,21,40,920,,,,,,,,,0.31543,-0.442871,0.401855,-47.607422,-85.571289,90.026855,,,,,,,,,,,0.0,1.0,1.0,3.0,0.0,0.0,0.0,4.0,0.0,0.011611293333333338,0.15172528,0.9853482800000001,7.154947880000001,-3.6189778666666657,-1.6772460666666664,-57.69471007791002,-21.15230757471691,13.500881538114037,14.962441171736831,-2.3143535211721407,-8.779304101559212,17.501630168252948,1.4935255173864432,21.29185125679538,1.5117888820862584,0.30381870666666666,-0.59459628,-0.5834932800000001,1.4819082666666668,0.8867440163404561,0.9948439055878784,0.9948439055878784,0.9948439055878784
LBP07_S03,LBP07,-1601,50,3,49,-1601,1716272500.96,2024-05-21 06:21:40.960000+00:00,2024-05-21 15:21:40.960000+09:00,2024,5,21,6,21,40,960,,,,,,,,,0.614746,-0.071289,0.91748,105.163574,-36.621094,51.452637,,,,,,,,,,,0.0,1.0,1.0,3.0,0.0,0.0,0.0,4.0,0.0,-0.0027083599999999956,0.15304364,0.9742610400000001,6.785481733333334,-2.9028320399999994,-1.392415333333333,-32.912984126297665,-22.145174674295134,17.530652698333373,13.645921806684925,-3.200160508143946,-8.078077993625877,16.177377825319713,1.588708006821041,19.82923100781661,1.4923271999465102,0.61745436,-0.22433264000000003,-0.05678104000000017,0.8985680400000002,0.6593929833990204,0.9690399884964277,0.9690399884964277,0.9690399884964277
LBP07_S03,LBP07,-1600,51,3,50,-1600,1716272501.0,2024-05-21 06:21:41+00:00,2024-05-21 15:21:41+09:00,2024,5,21,6,21,41,0,6.0,21.0,41.0,40.54068,141.50238,-11.934,3.0,11.0,0.219238,0.296387,1.319336,185.72998,105.285645,-73.730469,-259.0,23.0,396.0,2429.0,0.0,1020.299988,21.41,0.072341,-58.496948,3.916406,0.0,1.0,1.0,3.0,0.0,0.0,0.0,5.0,0.0,-0.004996759999999996,0.15451499999999999,0.9520898133333333,5.6339517866666675,-7.211100266666666,0.7063802400000003,-9.330264932509566,-21.68910603884044,18.721264708008977,13.272711209384543,-4.067724749697564,-7.329227405305518,15.698051530228383,1.6035456101092862,18.855599202242647,1.485717976799307,0.22423475999999998,0.14187200000000003,0.36724618666666675,0.7333529466666667,0.45307687382768264,0.9321854803058031,0.9321854803058031,0.9321854803058031
LBP07_S03,LBP07,-1599,52,3,51,-1599,1716272501.04,2024-05-21 06:21:41.040000+00:00,2024-05-21 15:21:41.040000+09:00,2024,5,21,6,21,41,40,,,,,,,,,-0.777344,0.671631,1.522217,59.875488,-53.466797,-38.269043,,,,,,,,,,,0.0,1.0,1.0,3.0,0.0,0.0,0.0,5.0,0.0,0.012314440000000003,0.15162111999999997,0.9379296666666668,3.1762694933333333,-6.4135742266666655,2.181803426666667,10.285009728064725,-20.430319417370207,17.38608895441822,13.684111598507132,-4.884937526392372,-6.6337838471287895,15.972620730724833,1.4887153766785117,18.41886839949163,1.4905194958037913,-0.7896584400000001,0.52000988,0.5842873333333332,1.8939556533333333,1.1114685848257815,0.9441376872738017,0.9441376872738017,0.9441376872738017
LBP07_S03,LBP07,-1598,53,3,52,-1598,1716272501.08,2024-05-21 06:21:41.080000+00:00,2024-05-21 15:21:41.080000+09:00,2024,5,21,6,21,41,80,,,,,,,,,0.11499,0.557861,1.690186,-24.414062,-84.838867,-39.001465,,,,,,,,,,,0.0,1.0,1.0,3.0,0.0,0.0,0.0,5.0,0.0,0.019482413333333337,0.14234702666666665,0.9366373466666668,3.8273111600000003,-5.938313813333332,2.201334680000001,24.883259871008608,-19.005137262711013,14.069184210281973,14.679441993347476,-5.645143016900812,-6.07101647871751,16.85855563214645,1.4332628674468302,18.51039962315803,1.5031706607242614,0.09550758666666666,0.4155139733333334,0.7535486533333332,1.2645702133333332,0.8657997078346845,0.9392415635588568,0.9392415635588568,0.9392415635588568
LBP07_S03,LBP07,-1597,54,3,53,-1597,1716272501.12,2024-05-21 06:21:41.120000+00:00,2024-05-21 15:21:41.120000+09:00,2024,5,21,6,21,41,120,,,,,,,,,-0.562256,-0.111084,0.066895,-96.557617,112.670898,9.216309,,,,,,,,,,,0.0,1.0,1.0,3.0,0.0,0.0,0.0,5.0,0.0,0.027460920000000003,0.14207033333333333,0.9649543999999999,4.263509066666667,-3.7923177199999993,0.3808594266666671,34.749857582527746,-17.888239425372134,9.337292402293276,16.069436296648586,-6.360672593915698,-5.697524782625779,18.19743738518345,1.3779282158536368,19.071107944079536,1.5156869089100011,-0.58971692,-0.2531543333333333,-0.8980593999999998,1.7409306533333333,1.1037952020860076,0.9489211893545715,0.9489211893545715,0.9489211893545715
LBP07_S03,LBP07,-1596,55,3,54,-1596,1716272501.16,2024-05-21 06:21:41.160000+00:00,2024-05-21 15:21:41.160000+09:00,2024,5,21,6,21,41,160,,,,,,,,,0.032959,-0.137695,-0.097168,-58.349609,-115.41748,116.210938,,,,,,,,,,,0.0,1.0,1.0,3.0,0.0,0.0,0.0,5.0,0.0,0.010885400000000007,0.14819012,0.9858691066666665,4.624023400000001,-3.6352539066666654,-2.277831986666666,40.68174007363697,-17.338719670112646,3.765165913084532,17.696705899594065,-7.054221380720204,-5.5469181461023975,19.841969153904497,1.4966561518182218,20.005607030274934,1.5166478907305354,0.022073599999999995,-0.28588512,-1.0830371066666664,1.3909958266666664,1.1203512485248894,0.9584450815307003,0.9584450815307003,0.9584450815307003
LBP07_S03,LBP07,-1595,56,3,55,-1595,1716272501.2,2024-05-21 06:21:41.200000+00:00,2024-05-21 15:21:41.200000+09:00,2024,5,21,6,21,41,200,,,,,,,,,0.222168,0.053711,0.523193,-93.017578,-37.658691,66.772461,,,,,,,,,,,0.0,1.0,1.0,3.0,0.0,0.0,0.0,5.0,0.0,0.006985666666666672,0.16868492,0.9842870666666667,4.4645182000000005,-4.333496093333332,-2.512206986666666,43.24686375438332,-17.423205700372645,-1.962905915920082,19.426580449769396,-7.75114960873511,-5.625434382739201,21.65912879648813,1.5288058184842699,21.201233729253815,1.4963226783983017,0.21518233333333334,-0.11497391999999998,-0.46109406666666664,0.79125032,0.5216609791561456,0.9354564445636185,0.9354564445636185,0.9354564445636185
LBP07_S03,LBP07,-1594,57,3,56,-1594,1716272501.24,2024-05-21 06:21:41.240000+00:00,2024-05-21 15:21:41.240000+09:00,2024,5,21,6,21,41,240,,,,,,,,,0.713379,-0.654541,1.050537,26.367188,-5.310059,-5.493164,,,,,,,,,,,0.0,1.0,1.0,3.0,0.0,0.0,0.0,5.0,0.0,-0.004029959999999993,0.15364910666666667,0.9607226133333332,-0.4239909066666657,-5.867513013333332,-0.071614546666666,42.5481569934853,-18.07013231222441,-7.014103237675271,21.128506729508807,-8.473954901224086,-5.905998512246211,23.518131871250596,1.5973514970373697,22.547513690914204,1.4873569882261244,0.71740896,-0.8081901066666667,0.08981438666666686,1.6154134533333333,1.0843954483741016,0.9429033947541428,0.9429033947541428,0.9429033947541428
LBP07_S03,LBP07,-1593,58,3,57,-1593,1716272501.28,2024-05-21 06:21:41.280000+00:00,2024-05-21 15:21:41.280000+09:00,2024,5,21,6,21,41,280,,,,,,,,,-0.061279,0.411133,1.230469,350.646973,65.124512,-109.313965,,,,,,,,,,,0.0,1.0,1.0,3.0,0.0,0.0,0.0,5.0,0.0,0.003281226666666673,0.14810222666666667,0.9369888933333335,-1.2792969066666657,-4.886881493333332,0.9619141066666672,38.57283421284636,-19.115753240534705,-10.554753529557777,22.67142009802266,-9.238585030845474,-6.328188653428522,25.28617634729635,1.5483700274644008,23.952394802509346,1.4952376178094189,-0.06456022666666668,0.26303077333333336,0.2934801066666666,0.6210711066666665,0.3993542081869938,0.917020100155707,0.917020100155707,0.917020100155707
LBP07_S03,LBP07,-1592,59,3,58,-1592,1716272501.32,2024-05-21 06:21:41.320000+00:00,2024-05-21 15:21:41.320000+09:00,2024,5,21,6,21,41,320,,,,,,,,,-0.54126,0.556396,1.665771,142.76123,-79.162598,-69.946289,,,,,,,,,,,0.0,1.0,1.0,3.0,0.0,0.0,0.0,5.0,0.0,0.00938149333333334,0.1399739733333333,0.9363736533333332,-2.039388053333332,-4.870605453333332,1.956380253333334,31.819794546557095,-20.33450395173918,-12.041014212011865,23.944211879884946,-10.051965188915041,-6.809829221908997,26.846621030206926,1.5031353355917856,25.351990090385307,1.50686700643418,-0.5506414933333333,0.4164220266666667,0.7293973466666667,1.6964608666666667,1.0043076459919595,0.9209877158755367,0.9209877158755367,0.9209877158755367
LBP07_S03,LBP07,-1591,60,3,59,-1591,1716272501.36,2024-05-21 06:21:41.360000+00:00,2024-05-21 15:21:41.360000+09:00,2024,5,21,6,21,41,360,,,,,,,,,0.090088,0.697266,1.681641,5.493164,-101.379395,-26.245117,,,,,,,,,,,0.0,1.0,1.0,3.0,0.0,0.0,0.0,5.0,0.0,0.028173800000000006,0.15209962666666668,0.9535774266666668,1.907552053333334,-4.115397119999999,0.22298181333333408,23.701317377752225,-21.47069577454606,-11.467867230653379,24.892264574995036,-10.910793019896884,-7.268543911135132,28.13364481510853,1.3854558834987019,26.711556738443193,1.5232887244348317,0.061914199999999996,0.5451663733333334,0.7280635733333332,1.3351441466666665,0.9116558065355373,0.9205819806868412,0.9205819806868412,0.9205819806868412
LBP07_S03,LBP07,-1590,61,3,60,-1590,1716272501.4,2024-05-21 06:21:41.400000+00:00,2024-05-21 15:21:41.400000+09:00,2024,5,21,6,21,41,400,,,,,,,,,-0.155762,0.284668,0.556152,-78.430176,119.567871,-6.713867,,,,,,,,,,,0.0,1.0,1.0,3.0,0.0,0.0,0.0,5.0,0.0,0.009068973333333338,0.1613672,0.9710155733333333,1.960449186666668,-2.7286783599999995,-1.5372720933333326,16.360811483722287,-22.277844842347825,-9.39583717721282,25.54669703434393,-11.801906813590797,-7.644377398223645,29.160851146832293,1.5138887083875157,28.019202300513456,1.5273935908227838,-0.16483097333333335,0.12330079999999999,-0.41486357333333335,0.7029953466666667,0.46312430461978144,0.9015212441840469,0.9015212441840469,0.9015212441840469
LBP07_S03,LBP07,-1589,62,3,61,-1589,1716272501.44,2024-05-21 06:21:41.440000+00:00,2024-05-21 15:21:41.440000+09:00,2024,5,21,6,21,41,440,,,,,,,,,-0.222412,-0.283203,-0.194336,-89.782715,-73.913574,81.848145,,,,,,,,,,,0.0,1.0,1.0,3.0,0.0,0.0,0.0,5.0,0.0,0.0005435733333333382,0.16842124,0.9811685600000001,0.936686160000001,-4.195963519999999,-1.619466106666666,11.94581844634609,-22.554141682904262,-6.717450635828227,26.024529772197774,-12.704072480906968,-7.913075423656774,30.021431846676247,1.5675216725114585,29.277068052896084,1.5135779774181306,-0.22295557333333332,-0.45162424,-1.17550456,1.8500843733333334,1.2788606696652949,0.9166148212032968,0.9166148212032968,0.9166148212032968
LBP07_S03,LBP07,-1588,63,3,62,-1588,1716272501.48,2024-05-21 06:21:41.480000+00:00,2024-05-21 15:21:41.480000+09:00,2024,5,21,6,21,41,480,,,,,,,,,0.053711,0.05249,0.241943,-81.848145,-65.490723,43.334961,,,,,,,,,,,0.0,1.0,1.0,3.0,0.0,0.0,0.0,5.0,0.0,0.003476520000000005,0.16602214666666668,0.9727343066666666,-3.9916992666666653,-4.7656249866666665,-0.26611323999999914,11.734681262011023,-22.1674892836468,-4.293083839980971,26.493917022678215,-13.59077205225284,-8.084798777256012,30.85450851090608,1.5495567536944408,30.49406156515737,1.4948707998288604,0.05023448,-0.11353214666666667,-0.7307913066666666,0.8945579333333332,0.7412617521545178,0.925795924138091,0.9098704723937284,0.9098704723937284
LBP07_S03,LBP07,-1587,64,3,63,-1587,1716272501.52,2024-05-21 06:21:41.520000+00:00,2024-05-21 15:21:41.520000+09:00,2024,5,21,6,21,41,520,,,,,,,,,0.927979,-0.010742,0.970947,-77.270508,-42.84668,24.536133,,,,,,,,,,,0.0,1.0,1.0,3.0,0.0,0.0,0.0,5.0,0.0,0.004690706666666673,0.16617189333333332,0.9472167200000001,-5.375162799999999,-4.648437479999999,0.9814453600000009,15.59862524332591,-21.06940152777121,-2.659944545581721,27.11786203241125,-14.433548113363688,-8.19119655907928,31.793103865762276,1.54214539586015,31.680923528304568,1.4899200075873642,0.9232882933333333,-0.17691389333333332,0.02373027999999988,1.1239324666666666,0.940384455661415,0.9183495186464148,0.9110006199221613,0.9110006199221613
LBP07_S03,LBP07,-1586,65,3,64,-1586,1716272501.56,2024-05-21 06:21:41.560000+00:00,2024-05-21 15:21:41.560000+09:00,2024,5,21,6,21,41,560,,,,,,,,,-0.129883,-0.675049,1.520264,125.976562,101.623535,-85.998535,,,,,,,,,,,0.0,1.0,1.0,3.0,0.0,0.0,0.0,5.0,0.0,0.005087840000000006,0.15581381333333333,0.9345246666666666,-8.161621133333332,-4.496256493333333,2.0263672266666677,22.07277687568366,-19.290418309378015,-1.9541498603575096,28.000773107438597,-15.205164845738809,-8.26936255349358,32.918424774607146,1.5377048156977442,32.84568349299639,1.4913239880128786,-0.13497084,-0.8308628133333333,0.5857393333333335,1.5515729866666668,1.0254953480363842,0.8922861668850812,0.915089717354812,0.915089717354812
LBP07_S03,LBP07,-1585,66,3,65,-1585,1716272501.6,2024-05-21 06:21:41.600000+00:00,2024-05-21 15:21:41.600000+09:00,2024,5,21,6,21,41,600,,,,,,,,,-0.583008,0.462402,1.46582,288.269043,-79.589844,-61.035156,,,,,,,,,,,0.0,1.0,1.0,3.0,0.0,0.0,0.0,5.0,0.0,0.027753866666666672,0.15431641333333335,0.9518912,-6.5519206133333325,-5.311686186666666,1.4957682666666674,28.96042120621926,-16.917378005411315,-2.0334163670641505,29.159189955687367,-15.881859965955261,-8.350699208176147,34.23778632031436,1.3906496844377407,33.98744457904753,1.5008968902970112,-0.6107618666666667,0.30808558666666663,0.5139287999999999,1.432776253333333,0.8556106579252827,0.8750024293362177,0.913038715305518,0.913038715305518
LBP07_S03,LBP07,-1584,67,3,66,-1584,1716272501.64,2024-05-21 06:21:41.640000+00:00,2024-05-21 15:21:41.640000+09:00,2024,5,21,6,21,41,640,,,,,,,,,0.20166,0.79834,1.797363,52.734375,-75.622559,-17.51709,,,,,,,,,,,0.0,1.0,1.0,3.0,0.0,0.0,0.0,5.0,0.0,0.02499345333333334,0.15632486666666665,0.9654491466666667,-3.265787799999999,-3.000488266666666,-0.9814452799999992,34.10894412820771,-14.072380404131204,-2.658019815247616,30.523547720815674,-16.44475518212051,-8.457020000786052,35.68806699386346,1.4102797211446665,35.08885576563258,1.4996270127956213,0.17666654666666667,0.6420151333333334,0.8319138533333333,1.6505955333333335,1.0655867677050321,0.8803895116643058,0.9181236503855017,0.9181236503855017
LBP07_S03,LBP07,-1583,68,3,67,-1583,1716272501.68,2024-05-21 06:21:41.680000+00:00,2024-05-21 15:21:41.680000+09:00,2024,5,21,6,21,41,680,,,,,,,,,-0.580811,-0.060059,-0.0271,-106.994629,119.506836,0.915527,,,,,,,,,,,0.0,1.0,1.0,3.0,0.0,0.0,0.0,5.0,0.0,0.011887986666666675,0.16737954666666666,0.9746190800000001,-1.354166706666666,-3.0859374799999992,-2.1809895466666656,35.952822062314866,-10.907217030731175,-3.57664210120872,31.961660603308268,-16.881043863349756,-8.6000856848344,37.154795978768334,1.4988621050494386,36.11046643047445,1.4884803648594729,-0.5926989866666666,-0.22743854666666666,-1.00171908,1.8218566133333334,1.185943293982299,0.907022235861101,0.926762993727334,0.926762993727334
LBP07_S03,LBP07,-1582,69,3,68,-1582,1716272501.72,2024-05-21 06:21:41.720000+00:00,2024-05-21 15:21:41.720000+09:00,2024,5,21,6,21,41,720,,,,,,,,,0.281982,0.150391,0.069092,-44.799805,-141.418457,98.144531,,,,,,,,,,,0.0,1.0,1.0,3.0,0.0,0.0,0.0,5.0,0.0,0.008912720000000008,0.16847004,0.9832421200000001,-4.348144573333333,-4.827473946666665,-1.8017577866666659,33.6525519051229,-7.599870783228623,-4.475100274038236,33.30776267951318,-17.1850386946789,-8.77908969579593,38.49422067712519,1.5171751398469304,36.99088687901178,1.4734726421611424,0.27306928,-0.01807903999999999,-0.9141501200000001,1.20529844,0.9542348375861439,0.91535811782245,0.9276214888479217,0.9276214888479217
LBP07_S03,LBP07,-1581,70,3,69,-1581,1716272501.76,2024-05-21 06:21:41.760000+00:00,2024-05-21 15:21:41.760000+09:00,2024,5,21,6,21,41,760,,,,,,,,,0.527832,-0.213867,0.942871,-111.26709,5.126953,52.185059,,,,,,,,,,,0.0,1.0,1.0,3.0,0.0,0.0,0.0,5.0,0.0,0.014690706666666675,0.16584308,0.9719107333333333,-6.152343799999999,-2.011718733333333,-1.3826497199999992,26.975609605741482,-4.32986367613987,-4.886357144100343,34.386787063742844,-17.358233241724495,-8.974543981559943,39.5512556756199,1.4811849063400269,37.6544961496025,1.4647589026988443,0.5131412933333332,-0.37971008,-0.029039733333333317,0.9218911066666665,0.6390125490860751,0.8821425651329355,0.9188757634005931,0.9188757634005931
LBP07_S03,LBP07,-1580,71,3,70,-1580,1716272501.8,2024-05-21 06:21:41.800000+00:00,2024-05-21 15:21:41.800000+09:00,2024,5,21,6,21,41,800,,,,,,,,,0.594238,-0.227783,1.537109,171.386719,73.608398,-15.563965,,,,,,,,,,,0.0,1.0,1.0,3.0,0.0,0.0,0.0,5.0,0.0,0.011347613333333341,0.16521808,0.9451789733333333,-7.705891986666666,-1.777343733333333,-0.3059895599999993,16.1929273507904,-1.227049096103733,-4.214271250285593,35.03450415777446,-17.407315205568644,-9.143114831571367,40.17496301268288,1.5011899333736158,38.024957045192,1.4648794026901868,0.5828903866666667,-0.39300108,0.5919300266666667,1.5678214933333334,0.9190169792877514,0.8748403012166921,0.9188799168090389,0.9188799168090389
LBP07_S03,LBP07,-1579,72,3,71,-1579,1716272501.84,2024-05-21 06:21:41.840000+00:00,2024-05-21 15:21:41.840000+09:00,2024,5,21,6,21,41,840,,,,,,,,,-0.774414,0.567139,1.54541,166.748047,47.180176,-101.318359,,,,,,,,,,,0.0,1.0,1.0,3.0,0.0,0.0,0.0,5.0,0.0,0.018639280000000008,0.1641015333333333,0.9489745466666667,-7.07112636,-3.5644531066666665,0.08056642666666743,2.1166383963885598,1.6792202396557283,-1.9415795020082482,35.11916969363,-17.340146395982416,-9.220778011651698,40.23753849509487,1.4560551931499754,38.04055755000998,1.4795924686794724,-0.7930532800000001,0.4030374666666666,0.5964354533333333,1.7925261999999997,1.0710312574564673,0.9078582975757272,0.923227097970394,0.923227097970394
LBP07_S03,LBP07,-1578,73,3,72,-1578,1716272501.88,2024-05-21 06:21:41.880000+00:00,2024-05-21 15:21:41.880000+09:00,2024,5,21,6,21,41,880,,,,,,,,,0.045654,1.197021,1.960693,-18.493652,-86.669922,-72.692871,,,,,,,,,,,0.0,1.0,1.0,3.0,0.0,0.0,0.0,5.0,0.0,0.028024040000000004,0.16420569333333332,0.9715429066666667,-2.9549154266666657,-2.0247395599999995,-2.0572916399999994,-13.838441183058306,4.45962806835632,2.067393285111138,34.56563204630767,-17.161761273248164,-9.138082280247252,39.658712996279405,1.3994795267111337,37.66755768091893,1.493151769294848,0.017629959999999997,1.0328153066666665,0.9891500933333334,2.03959536,1.4301874633473417,0.9076701216638818,0.9373093303419758,0.9373093303419758
LBP07_S03,LBP07,-1577,74,3,73,-1577,1716272501.92,2024-05-21 06:21:41.920000+00:00,2024-05-21 15:21:41.920000+09:00,2024,5,21,6,21,41,920,,,,,,,,,-0.375977,0.016357,0.049805,-83.92334,80.688477,-6.835938,,,,,,,,,,,0.0,1.0,1.0,3.0,0.0,0.0,0.0,5.0,0.0,0.019628853333333342,0.17123694666666667,0.9901268933333334,-0.4931641199999992,-0.5940755066666662,-4.096679653333332,-29.771274989101617,7.202496945868858,7.365690484419423,33.37478104674361,-16.87366139541341,-8.843454660870474,38.42919657166947,1.4550080012371702,36.9093497804289,1.4992127447746504,-0.39560585333333337,-0.15487994666666666,-0.9403218933333334,1.4908076933333334,1.0318415828764846,0.9134740243253231,0.9398642560861519,0.9398642560861519
LBP07_S03,LBP07,-1576,75,3,74,-1576,1716272501.96,2024-05-21 06:21:41.960000+00:00,2024-05-21 15:21:41.960000+09:00,2024,5,21,6,21,41,960,,,,,,,,,0.032715,-0.09668,0.027588,-267.944336,-85.144043,109.802246,,,,,,,,,,,0.0,1.0,1.0,3.0,0.0,0.0,0.0,5.0,0.0,0.005686800000000007,0.18119137333333332,0.9988182933333334,-1.7407227199999993,-1.696777333333333,-4.894205693333332,-43.63521700711852,9.884778036781775,12.975800793624845,31.629372366458867,-16.47827027394214,-8.32442262912548,36.62303373050208,1.5389098156111698,35.810694975626234,1.491313272128165,0.027028199999999995,-0.27787137333333334,-0.9712302933333334,1.2761298666666667,1.0105598974834424,0.9275207008886999,0.9417246677018699,0.9417246677018699
LBP07_S03,LBP07,-1575,76,3,75,-1575,1716272502.0,2024-05-21 06:21:42+00:00,2024-05-21 15:21:42+09:00,2024,5,21,6,21,42,0,6.0,21.0,42.0,40.540619,141.502335,-12.853,3.0,11.0,0.41333,-0.826904,1.081055,-144.592285,-27.648926,97.473145,-254.0,22.0,399.0,2435.0,0.0,1020.599976,21.469999,0.075314,-60.978813,3.916406,0.0,1.0,1.0,3.0,0.0,0.0,0.0,4.0,0.0,0.00611649333333334,0.18850908,0.9908918533333334,-3.719075573333333,-3.1640624799999997,-4.999999973333333,-53.62400233608841,12.285666646179504,17.67824660812072,29.48441227301533,-15.98684360809496,-7.617292764800652,34.39379136849423,1.537780344330596,34.45684800466232,1.4888081888710125,0.4072135066666666,-1.01541308,0.0901631466666667,1.5127897333333333,1.097732187768804,0.9533069134463449,0.9457248605240991,0.9457248605240991
LBP07_S03,LBP07,-1574,77,3,76,-1574,1716272502.04,2024-05-21 06:21:42.040000+00:00,2024-05-21 15:21:42.040000+09:00,2024,5,21,6,21,42,40,,,,,,,,,0.816895,0.191406,1.365723,309.326172,45.593262,18.859863,,,,,,,,,,,0.0,1.0,1.0,3.0,0.0,0.0,0.0,4.0,0.0,0.004567013333333341,0.18657874666666666,0.9671060533333334,-8.659668013333333,-2.1321614399999995,-4.370117159999999,-58.37937316434845,14.020234144591834,20.368895807865037,27.149237346441392,-15.426034242311287,-6.802536932486051,31.958068302952938,1.5458727272984232,32.9674411855838,1.4876414232143518,0.8123279866666667,0.004827253333333337,0.3986169466666666,1.2157721866666666,0.904873212370949,0.9450430985481515,0.9447035693202702,0.9447035693202702
LBP07_S03,LBP07,-1573,78,3,77,-1573,1716272502.08,2024-05-21 06:21:42.080000+00:00,2024-05-21 15:21:42.080000+09:00,2024,5,21,6,21,42,80,,,,,,,,,-0.955566,0.966797,1.509277,-88.317871,180.053711,-77.209473,,,,,,,,,,,0.0,1.0,1.0,3.0,0.0,0.0,0.0,4.0,0.0,0.0018261333333333407,0.16359698666666664,0.9550520133333333,-12.123209679999999,-2.63264972,-3.594563773333332,-56.99560021487076,14.693049690763896,20.30870952900983,24.869413337846563,-14.838312254680732,-5.990188551325658,29.572716973868026,1.559471859847462,31.48497247464228,1.49339272051205,-0.9573921333333334,0.8032000133333334,0.5542249866666666,2.3148171333333334,1.3670754530137994,0.965094128355316,0.9550053225810881,0.9550053225810881
LBP07_S03,LBP07,-1572,79,3,78,-1572,1716272502.12,2024-05-21 06:21:42.120000+00:00,2024-05-21 15:21:42.120000+09:00,2024,5,21,6,21,42,120,,,,,,,,,0.116455,0.61377,1.978271,53.466797,-126.647949,-15.50293,,,,,,,,,,,0.0,1.0,1.0,3.0,0.0,0.0,0.0,4.0,0.0,0.02177404000000001,0.16554034666666667,0.9706184133333333,-9.01204432,-4.75748696,-3.695475239999999,-49.02920650211527,14.080733648744106,17.216113566762083,22.90824507776195,-14.275082908730967,-5.301544008655174,27.507672629098504,1.4381804133820775,30.15772546671223,1.498626306391642,0.09468096,0.44822965333333337,1.0076525866666666,1.5505632,1.1069047121274107,0.9652185087569722,0.9586219747131434,0.9586219747131434
LBP07_S03,LBP07,-1571,80,3,79,-1571,1716272502.16,2024-05-21 06:21:42.160000+00:00,2024-05-21 15:21:42.160000+09:00,2024,5,21,6,21,42,160,,,,,,,,,0.19873,0.203613,1.128174,-196.472168,83.984375,-12.207031,,,,,,,,,,,0.0,1.0,1.0,3.0,0.0,0.0,0.0,4.0,0.0,0.019964146666666672,0.17603514666666664,0.98945956,-8.31136072,-1.049804666666666,-5.091959613333333,-34.72116624970188,12.225964175132372,11.280851941724052,21.519398427773876,-13.786044341725672,-4.850309930986212,26.01278596598078,1.4561340737685025,29.11828392742828,1.4990757014543843,0.1787658533333333,0.027577853333333346,0.13871444,0.3450581466666667,0.22794618702005806,0.929522306296779,0.9416295145342345,0.9416295145342345
LBP07_S03,LBP07,-1570,81,3,80,-1570,1716272502.2,2024-05-21 06:21:42.200000+00:00,2024-05-21 15:21:42.200000+09:00,2024,5,21,6,21,42,200,,,,,,,,,-0.435059,-0.05957,-0.007324,-127.807617,-19.287109,94.360352,,,,,,,,,,,0.0,1.0,1.0,3.0,0.0,0.0,0.0,4.0,0.0,0.015149693333333344,0.18927406666666666,0.9997590399999999,-8.07698572,-1.5226236799999995,-5.874023413333333,-15.38130388086396,9.394867460273923,3.185958364573385,20.904146272539318,-13.410249643314716,-4.722871596403277,25.280894821897718,1.4895222768070078,28.46230588263967,1.4878883656009128,-0.4502086933333333,-0.24884406666666664,-1.00708304,1.7061357999999998,1.130852548533076,0.9538899690718562,0.9459300380342082,0.9459300380342082
LBP07_S03,LBP07,-1569,82,3,81,-1569,1716272502.24,2024-05-21 06:21:42.240000+00:00,2024-05-21 15:21:42.240000+09:00,2024,5,21,6,21,42,240,,,,,,,,,0.468262,-0.275391,0.332275,-130.187988,-56.030273,85.021973,,,,,,,,,,,0.0,1.0,1.0,3.0,0.0,0.0,0.0,4.0,0.0,0.010419880000000006,0.18488930666666667,1.0100715466666668,-11.738281293333332,-2.4593098799999993,-5.815429666666666,6.383165670605493,5.951249130521145,-5.8810181767166725,21.15947289936354,-13.17219967809387,-4.958112323471943,25.412851385679662,1.5135681661269584,28.234305637956414,1.4685971184536883,0.45784212,-0.46028030666666664,-0.6777965466666668,1.5959189733333334,0.9385550203501732,0.9480563519508989,0.9457661487523407,0.9457661487523407
LBP07_S03,LBP07,-1568,83,3,82,-1568,1716272502.28,2024-05-21 06:21:42.280000+00:00,2024-05-21 15:21:42.280000+09:00,2024,5,21,6,21,42,280,,,,,,,,,0.286621,-0.5354,0.751709,17.333984,-39.672852,-4.821777,,,,,,,,,,,0.0,1.0,1.0,3.0,0.0,0.0,0.0,4.0,0.0,0.019759066666666672,0.16752276,1.0072948533333335,-9.163411506666666,-1.2231445199999993,-3.964029919999999,26.940517837177907,2.249406463128335,-14.342422596564077,22.237093612850657,-13.082223419568736,-5.531809227334507,26.386242916978905,1.4518153855070555,28.424447769126097,1.4540323976052516,0.26686193333333336,-0.70292276,-0.2555858533333335,1.225370546666667,0.7941283437911975,0.9638473173750672,0.9424696747314462,0.9424696747314462
LBP07_S03,LBP07,-1567,84,3,83,-1567,1716272502.32,2024-05-21 06:21:42.320000+00:00,2024-05-21 15:21:42.320000+09:00,2024,5,21,6,21,42,320,,,,,,,,,0.295166,-0.084229,1.388184,246.398926,96.740723,-103.57666,,,,,,,,,,,0.0,1.0,1.0,3.0,0.0,0.0,0.0,4.0,0.0,0.018391880000000006,0.16689776,0.9829328666666667,-2.9720052533333323,-1.0180663999999993,-2.8230793999999992,42.4974788413425,-1.382843334501639,-20.55700135180448,23.936992766504357,-13.137537152948802,-6.354089281406686,28.034781178829974,1.4595019518645889,28.975251517536712,1.4453684587393312,0.27677411999999996,-0.25112676,0.4052511333333334,0.9331520133333334,0.5512685771543877,0.9457257546215643,0.9341462471234236,0.9341462471234236
LBP07_S03,LBP07,-1566,85,3,84,-1566,1716272502.36,2024-05-21 06:21:42.360000+00:00,2024-05-21 15:21:42.360000+09:00,2024,5,21,6,21,42,360,,,,,,,,,-0.517822,0.262451,1.621582,204.040527,38.696289,-114.746094,,,,,,,,,,,0.0,1.0,1.0,3.0,0.0,0.0,0.0,4.0,0.0,0.02425125333333334,0.16995765333333335,0.9840721866666666,-0.5460612399999991,-2.618815106666666,-2.961425746666666,50.26180206888193,-4.582231482110066,-23.294428526978663,25.947464849259635,-13.320826412233204,-7.2858664224858325,30.06325328261598,1.4270364570764569,29.79398870247666,1.4497283925473672,-0.5420732533333333,0.09249334666666664,0.6375098133333335,1.2720764133333335,0.8419128180834914,0.9429360350834824,0.9322247173517585,0.9322247173517585
LBP07_S03,LBP07,-1565,86,3,85,-1565,1716272502.4,2024-05-21 06:21:42.400000+00:00,2024-05-21 15:21:42.400000+09:00,2024,5,21,6,21,42,400,,,,,,,,,-0.077637,1.049072,1.460449,159.790039,-54.870605,-70.251465,,,,,,,,,,,0.0,1.0,1.0,3.0,0.0,0.0,0.0,4.0,0.0,0.03855464,0.16996417333333333,1.0115526666666668,1.680501253333334,-0.33040365333333244,-5.846354133333333,49.36686963470192,-6.899805300623616,-22.14492092633068,27.922139634647714,-13.596818624258148,-8.17166325953906,32.11378892166165,1.3448678728583507,30.76657648427056,1.4497131940094292,-0.11619164,0.8791078266666666,0.44889633333333334,1.4441958000000001,0.99390089354653,0.9641670986405525,0.9334834148251212,0.9334834148251212
LBP07_S03,LBP07,-1564,87,3,86,-1564,1716272502.44,2024-05-21 06:21:42.440000+00:00,2024-05-21 15:21:42.440000+09:00,2024,5,21,6,21,42,440,,,,,,,,,-0.498779,-0.197754,0.328369,-143.310547,104.858398,22.521973,,,,,,,,,,,0.0,1.0,1.0,3.0,0.0,0.0,0.0,4.0,0.0,0.03134434666666667,0.18477211999999998,1.0342837866666668,3.903808546666667,0.9716796800000008,-8.697102826666667,41.09180839421016,-7.859412203208532,-17.640911118634207,29.56581197041612,-13.911195112386489,-8.877299704284427,33.85948961464977,1.400225518814056,31.770320949592996,1.4457693607870534,-0.5301233466666666,-0.38252611999999997,-0.7059147866666667,1.6185642533333333,0.9621188498298777,0.9514974258471358,0.9340561235252163,0.9340561235252163
LBP07_S03,LBP07,-1563,88,3,87,-1563,1716272502.48,2024-05-21 06:21:42.480000+00:00,2024-05-21 15:21:42.480000+09:00,2024,5,21,6,21,42,480,,,,,,,,,-0.058105,0.318848,-0.188721,40.466309,-184.936523,64.63623,,,,,,,,,,,0.0,1.0,1.0,3.0,0.0,0.0,0.0,4.0,0.0,0.01939773333333334,0.20091144,1.0515364,0.9936522933333343,0.7918294266666674,-10.619303346666666,28.271175892800304,-7.138205088355681,-11.020703192713889,30.696659006128133,-14.196723315920716,-9.318127831992983,35.0807544579742,1.4728324711882579,32.68459918411684,1.4301959185923458,-0.07750273333333334,0.11793656000000002,-1.2402574,1.4356966933333333,1.248260439216725,0.971777373329624,0.9487866487338574,0.9402169924603438
LBP07_S03,LBP07,-1562,89,3,88,-1562,1716272502.52,2024-05-21 06:21:42.520000+00:00,2024-05-21 15:21:42.520000+09:00,2024,5,21,6,21,42,520,,,,,,,,,0.639404,0.196289,0.688477,-142.089844,-45.410156,70.922852,,,,,,,,,,,0.0,1.0,1.0,3.0,0.0,0.0,0.0,4.0,0.0,0.016308546666666673,0.18548499999999998,1.0586978533333333,-4.039713586666666,1.2027994666666673,-10.349934853333332,14.19757292556225,-4.772309024724329,-3.7690612982531486,31.264561923150623,-14.38761567690969,-9.468890283923109,35.695044478498005,1.4817797514624378,33.40024091300581,1.4261057486389417,0.6230954533333333,0.010804000000000008,-0.3702208533333333,1.0041203066666666,0.7248642290964106,0.9631565642670238,0.9407530414567192,0.9360755931648836
LBP07_S03,LBP07,-1561,90,3,89,-1561,1716272502.56,2024-05-21 06:21:42.560000+00:00,2024-05-21 15:21:42.560000+09:00,2024,5,21,6,21,42,560,,,,,,,,,0.736084,-0.504883,1.528076,-2.197266,56.640625,-7.568359,,,,,,,,,,,0.0,1.0,1.0,3.0,0.0,0.0,0.0,4.0,0.0,0.01952469333333334,0.17156246666666666,1.0405240266666667,-1.8896484799999993,2.460937493333334,-9.085286413333332,1.5207061794738082,-1.2439039155899816,2.822820538025318,31.325390170329577,-14.43737183353329,-9.355977462402096,35.73866378391975,1.4559820883891217,33.82872442380649,1.4246307483482825,0.7165593066666667,-0.6764454666666666,0.48755197333333333,1.8805567466666666,1.0994283223774644,0.9661138832406669,0.9292000250628741,0.9391577201311587
LBP07_S03,LBP07,-1560,91,3,90,-1560,1716272502.6,2024-05-21 06:21:42.600000+00:00,2024-05-21 15:21:42.600000+09:00,2024,5,21,6,21,42,600,,,,,,,,,-0.454346,0.890625,1.62915,49.743652,108.337402,-74.645996,,,,,,,,,,,0.0,1.0,1.0,3.0,0.0,0.0,0.0,4.0,0.0,0.020348266666666674,0.17001950666666665,1.0221906933333333,-0.10335291999999886,2.9728190000000008,-8.350423133333333,-8.437845764608408,2.6304279871799605,7.893401677587683,30.98787633974524,-14.33215471404609,-9.040241395298589,35.31833947512208,1.4500839445832507,33.91014112374273,1.4315696786411114,-0.4746942666666667,0.7206054933333333,0.6069593066666668,1.802259066666667,1.0549912434601825,0.9740891066620629,0.9245457679991403,0.9413027853779925
LBP07_S03,LBP07,-1559,92,3,91,-1559,1716272502.64,2024-05-21 06:21:42.640000+00:00,2024-05-21 15:21:42.640000+09:00,2024,5,21,6,21,42,640,,,,,,,,,-0.455078,-0.105957,2.288574,-99.731445,-83.007812,1.647949,,,,,,,,,,,0.0,1.0,1.0,3.0,0.0,0.0,0.0,4.0,0.0,0.03798498666666667,0.17807614666666666,1.0446581333333333,2.571614520000001,1.255696613333334,-9.009602826666667,-15.78840713027922,5.959337195693982,11.020901986097916,30.356340054534073,-14.093781226218331,-8.599405315854671,34.55563373091808,1.3578337441798811,33.6170694556954,1.4493242030094808,-0.49306298666666665,-0.2840331466666667,1.2439158666666668,2.021012,1.3678861869947756,0.9861810834336527,0.9332852975489793,0.9490588472255704
LBP07_S03,LBP07,-1558,93,3,92,-1558,1716272502.68,2024-05-21 06:21:42.680000+00:00,2024-05-21 15:21:42.680000+09:00,2024,5,21,6,21,42,680,,,,,,,,,0.263672,0.952637,1.313232,157.714844,33.691406,-15.869141,,,,,,,,,,,0.0,1.0,1.0,3.0,0.0,0.0,0.0,4.0,0.0,0.029625613333333335,0.18639645333333335,1.07265944,3.9453124266666677,3.816731760000001,-11.404622359999998,-21.683884672258422,8.049136369194803,12.119833813672479,29.488984667643734,-13.77181577145054,-8.114611963307771,33.542660205868565,1.410913685973014,32.95314536620752,1.4561249652163186,0.2340463866666667,0.7662405466666666,0.24057255999999994,1.2408594933333332,0.836527012769288,0.9722044321851322,0.9396133340231166,0.9470493501817082
LBP07_S03,LBP07,-1557,94,3,93,-1557,1716272502.72,2024-05-21 06:21:42.720000+00:00,2024-05-21 15:21:42.720000+09:00,2024,5,21,6,21,42,720,,,,,,,,,-0.864014,-0.046387,-0.259766,-70.007324,48.706055,47.790527,,,,,,,,,,,0.0,1.0,1.0,3.0,0.0,0.0,0.0,4.0,0.0,0.023743453333333334,0.19011716,1.098317,4.171549400000001,3.775227853333334,-12.102050746666665,-27.671811324098943,8.57886867866992,11.350994368863038,28.382112214679776,-13.428661024303743,-7.66057218855325,32.31961628683678,1.4447519489579985,31.9482957967249,1.4514630938167512,-0.8877574533333333,-0.23650416000000002,-1.358083,2.4823446133333333,1.6396453727971763,0.9996208535935736,0.9574894857080118,0.9592001575960146
LBP07_S03,LBP07,-1556,95,3,94,-1556,1716272502.76,2024-05-21 06:21:42.760000+00:00,2024-05-21 15:21:42.760000+09:00,2024,5,21,6,21,42,760,,,,,,,,,0.170898,0.199707,0.060791,-93.62793,-59.082031,57.250977,,,,,,,,,,,0.0,1.0,1.0,3.0,0.0,0.0,0.0,4.0,0.0,0.014986946666666673,0.20453122666666668,1.1069953866666666,4.531249920000001,4.72005208,-12.539062466666666,-35.0349297258307,7.646876833887012,9.085227980604609,26.980715025646546,-13.122785950948263,-7.297163069329065,30.877420281978452,1.4964257600047446,30.653746250868863,1.440339468168041,0.15591105333333333,-0.004824226666666681,-1.0462043866666666,1.2069396666666665,1.0577689484925414,1.0163711095698322,0.9492568373513839,0.9608996195080238
LBP07_S03,LBP07,-1555,96,3,95,-1555,1716272502.8,2024-05-21 06:21:42.800000+00:00,2024-05-21 15:21:42.800000+09:00,2024,5,21,6,21,42,800,,,,,,,,,0.585938,-0.526123,1.153564,-121.948242,7.8125,58.166504,,,,,,,,,,,0.0,1.0,1.0,3.0,0.0,0.0,0.0,4.0,0.0,0.009446573333333338,0.19829098666666664,1.0893130933333333,-0.2669271733333323,4.260253893333334,-10.5607096,-44.285247421992054,5.711328164522422,5.866726957025621,25.209305128766864,-12.894332824367366,-7.062493991048041,29.183072241188363,1.5224131165420474,29.138122301521854,1.4349677536565428,0.5764914266666666,-0.7244139866666667,0.06425090666666677,1.36515632,0.9280334951422555,1.0167317702040124,0.9457860357103524,0.9603425665526717
LBP07_S03,LBP07,-1554,97,3,96,-1554,1716272502.84,2024-05-21 06:21:42.840000+00:00,2024-05-21 15:21:42.840000+09:00,2024,5,21,6,21,42,840,,,,,,,,,0.450439,0.705322,1.162842,160.949707,87.280273,-55.541992,,,,,,,,,,,0.0,1.0,1.0,3.0,0.0,0.0,0.0,4.0,0.0,0.019521440000000004,0.19269854666666664,1.0679491733333333,-3.109537839999999,4.212239573333335,-8.571777306666666,-54.884263418482284,3.4598882633942893,2.301735472678355,23.013934592027574,-12.755937293831595,-6.970424572140907,27.220248719770968,1.4682331408824325,27.4830207741543,1.4301839526902307,0.43091756,0.5126234533333334,0.09489282666666665,1.03843384,0.6763707540813217,1.0009453500690066,0.9544018238223668,0.9556097030114825
LBP07_S03,LBP07,-1553,98,3,97,-1553,1716272502.88,2024-05-21 06:21:42.880000+00:00,2024-05-21 15:21:42.880000+09:00,2024,5,21,6,21,42,880,,,,,,,,,-0.742188,0.630859,1.753662,-70.983887,-26.733398,-62.255859,,,,,,,,,,,0.0,1.0,1.0,3.0,0.0,0.0,0.0,4.0,0.0,0.026269480000000005,0.18304685333333334,1.0582519066666667,-3.020019613333332,3.9331054666666674,-7.810058559999999,-65.23450313923216,1.6365875653800845,-1.1318220445557683,20.404554466458286,-12.690473791216391,-7.015697453923138,25.032258763147933,1.4262137571925821,25.775580573056594,1.4427549047856023,-0.7684574799999999,0.4478121466666666,0.6954100933333334,1.91167972,1.129007446910796,0.9888981494115447,0.9482841355377133,0.958452288977045
LBP07_S03,LBP07,-1552,99,3,98,-1552,1716272502.92,2024-05-21 06:21:42.920000+00:00,2024-05-21 15:21:42.920000+09:00,2024,5,21,6,21,42,920,,,,,,,,,0.030273,0.333496,1.837646,-54.199219,-107.116699,-43.029785,,,,,,,,,,,0.0,1.0,1.0,3.0,0.0,0.0,0.0,4.0,0.0,0.03595046666666667,0.17948565333333336,1.07156572,-1.5755209066666658,3.430989586666668,-8.247884079999999,-72.994968237149,0.8504832447420491,-4.259062906018049,17.484755736972325,-12.656454461426708,-7.18605997016386,22.74954901993765,1.3705434949753366,24.099366070515998,1.4523709549172434,-0.005677466666666665,0.15401034666666666,0.76608028,0.9257680933333332,0.781428445804871,0.9788816239286803,0.9461778241270015,0.9555970657000745
LBP07_S03,LBP07,-1551,100,3,99,-1551,1716272502.96,2024-05-21 06:21:42.960000+00:00,2024-05-21 15:21:42.960000+09:00,2024,5,21,6,21,42,960,,,,,,,,,0.094971,-0.105713,0.922119,-225.219727,121.582031,-19.104004,,,,,,,,,,,0.0,1.0,1.0,3.0,0.0,0.0,0.0,4.0,0.0,0.03390293333333334,0.2025488,1.0938411066666667,0.853678320000001,4.934082026666667,-10.77880856,-75.70936669258926,1.405942272731046,-7.237126316310038,14.456381069268755,-12.600216770517466,-7.475545022816261,20.58242429044972,1.4022649432741414,22.529692307983602,1.4532240614718217,0.06106806666666666,-0.30826180000000003,-0.17172210666666665,0.5410519733333333,0.35811049694707703,0.9527836479072256,0.9401521743979627,0.9461131519103444
LBP07_S03,LBP07,-1550,101,3,100,-1550,1716272503.0,2024-05-21 06:21:43+00:00,2024-05-21 15:21:43+09:00,2024,5,21,6,21,43,0,6.0,21.0,43.0,40.540569,141.502274,-13.034,3.0,11.0,-0.310059,0.360352,-0.301514,-3.234863,-64.086914,62.438965,-257.0,29.0,393.0,2434.0,0.0,1020.0,21.540001,0.069368,-56.014488,3.916406,0.0,1.0,1.0,3.0,0.0,0.0,0.0,4.0,0.0,0.03363274666666667,0.20069984,1.1211067333333333,-2.3982747999999985,6.1710612000000005,-11.695963506666665,-71.58421143746456,3.208454898558932,-10.38460038567699,11.593012611770172,-12.47187857457511,-7.890929038243341,18.767324201446513,1.4022459349201293,21.136615873342336,1.4480841734705199,-0.34369174666666663,0.15965216000000002,-1.4226207333333334,1.9259646400000001,1.4722304778224504,0.9677635795093714,0.960535246477858,0.954333735127721
LBP07_S03,LBP07,-1549,102,3,101,-1549,1716272503.04,2024-05-21 06:21:43.040000+00:00,2024-05-21 15:21:43.040000+09:00,2024,5,21,6,21,43,40,,,,,,,,,0.261963,0.000244,0.220215,-212.70752,9.94873,80.993652,,,,,,,,,,,0.0,1.0,1.0,3.0,0.0,0.0,0.0,4.0,0.0,0.017594333333333337,0.20441727999999998,1.12263668,0.15950514666666815,8.409830733333335,-12.38688148,-60.135658354552014,5.782091138941637,-13.898440913935685,9.187586277588093,-12.240594929017444,-8.446866674800768,17.48123171994103,1.4835432651335982,19.989645505240365,1.4329721203664072,0.24436866666666668,-0.20417327999999998,-0.90242168,1.3509636266666667,0.9569575027389802,0.9698469511240927,0.9574450248361219,0.9543741007832789
LBP07_S03,LBP07,-1548,103,3,102,-1548,1716272503.08,2024-05-21 06:21:43.080000+00:00,2024-05-21 15:21:43.080000+09:00,2024,5,21,6,21,43,80,,,,,,,,,0.4646,-0.636719,0.972412,-78.918457,-16.662598,8.850098,,,,,,,,,,,0.0,1.0,1.0,3.0,0.0,0.0,0.0,4.0,0.0,0.013085866666666673,0.2086816,1.1063996933333333,-1.4575195866666653,8.21695964,-10.273437466666666,-42.44961573904501,8.397023146702823,-17.642315136703957,7.489601648026293,-11.904714003149332,-9.152559280268926,16.780515180462572,1.5070741872894242,19.15511612229031,1.427526249467195,0.45151413333333335,-0.8454006000000001,-0.13398769333333327,1.4309024266666666,0.967739577078926,0.9538735160866978,0.9594838222210069,0.9545766079998796
LBP07_S03,LBP07,-1547,104,3,103,-1547,1716272503.12,2024-05-21 06:21:43.120000+00:00,2024-05-21 15:21:43.120000+09:00,2024,5,21,6,21,43,120,,,,,,,,,0.378418,0.236572,1.291992,154.846191,60.058594,-103.820801,,,,,,,,,,,0.0,1.0,1.0,3.0,0.0,0.0,0.0,4.0,0.0,0.023909440000000004,0.20607093333333334,1.08862952,-3.427734426666665,8.056640626666667,-8.865559866666667,-20.959925997948226,10.2761080286252,-21.15742823031687,6.651204608108364,-11.493669682004324,-9.9988564094816,16.622878661512832,1.4532830145037818,18.683751380092428,1.430820595392087,0.35450856,0.03050106666666666,0.20336248,0.5883721066666666,0.4098328103664084,0.9259906400162576,0.945604574386615,0.9464461035575891
LBP07_S03,LBP07,-1546,105,3,104,-1546,1716272503.16,2024-05-21 06:21:43.160000+00:00,2024-05-21 15:21:43.160000+09:00,2024,5,21,6,21,43,160,,,,,,,,,-0.440918,0.517822,1.724854,71.899414,16.357422,-103.637695,,,,,,,,,,,0.0,1.0,1.0,3.0,0.0,0.0,0.0,4.0,0.0,0.024811133333333336,0.19954098666666667,1.0735709333333334,-3.348795626666665,7.864583346666667,-8.181152306666666,1.1431980709969587,10.826642172526107,-23.893612787395533,6.696932530948242,-11.06060399510328,-10.954600920977422,16.94665593556578,1.4450268799917265,18.594185992305743,1.44288231950775,-0.4657291333333333,0.31828101333333336,0.6512830666666667,1.4352932133333334,0.8616124778638301,0.9513372916500085,0.9404297989733937,0.945198550238563
LBP07_S03,LBP07,-1545,106,3,105,-1545,1716272503.2,2024-05-21 06:21:43.200000+00:00,2024-05-21 15:21:43.200000+09:00,2024,5,21,6,21,43,200,,,,,,,,,0.020996,0.237793,1.887939,-52.978516,-15.50293,-53.710938,,,,,,,,,,,0.0,1.0,1.0,3.0,0.0,0.0,0.0,4.0,0.0,0.04069981333333334,0.20466469333333334,1.0902896933333333,-2.083333386666665,6.961263026666667,-8.641764279999999,20.620241711152246,9.824613534954604,-25.497544802140553,7.521742199394332,-10.667619453705097,-11.974502713063044,17.713368560168647,1.3712925855009177,18.861232044072604,1.4508182749327825,-0.01970381333333334,0.03312830666666666,0.7976493066666668,0.8504814266666668,0.7985800782565827,0.9380463928389489,0.9459681809554025,0.94307364484752
LBP07_S03,LBP07,-1544,107,3,106,-1544,1716272503.24,2024-05-21 06:21:43.240000+00:00,2024-05-21 15:21:43.240000+09:00,2024,5,21,6,21,43,240,,,,,,,,,-0.261719,-0.119141,0.695312,-15.930176,129.516602,-20.263672,,,,,,,,,,,0.0,1.0,1.0,3.0,0.0,0.0,0.0,4.0,0.0,0.03232090666666667,0.20757809333333332,1.1124934666666666,-1.6015625466666654,9.24560548,-10.865885373333333,34.76633063722475,7.484641374699154,-25.957330307745544,8.912395424883321,-10.36823379871713,-13.012795925372867,18.87495489027039,1.4137744318903114,19.415837102464543,1.4566724585181912,-0.29403990666666663,-0.3267190933333333,-0.41718146666666656,1.0379404666666665,0.60600759796495,0.92474449594354,0.9364004239472195,0.9382584156063404
LBP07_S03,LBP07,-1543,108,3,107,-1543,1716272503.28,2024-05-21 06:21:43.280000+00:00,2024-05-21 15:21:43.280000+09:00,2024,5,21,6,21,43,280,,,,,,,,,0.114502,0.468506,-0.059814,84.899902,-155.334473,76.416016,,,,,,,,,,,0.0,1.0,1.0,3.0,0.0,0.0,0.0,4.0,0.0,0.023821560000000002,0.21635088,1.1231152133333333,-0.9212239999999986,8.566894546666667,-11.976725226666666,41.783166020809375,4.390288252313639,-25.51949296785096,10.583722065715696,-10.192622268624584,-14.033575644086905,20.318611341169166,1.4591572164415016,20.159109643631616,1.4494824211595443,0.09068044,0.25215511999999995,-1.1829292133333333,1.5257647733333333,1.212900107386518,0.9414953664873527,0.95267134193121,0.9421266084483148
LBP07_S03,LBP07,-1542,109,3,108,-1542,1716272503.32,2024-05-21 06:21:43.320000+00:00,2024-05-21 15:21:43.320000+09:00,2024,5,21,6,21,43,320,,,,,,,,,0.324219,-0.093262,0.917236,-104.797363,21.606445,24.963379,,,,,,,,,,,0.0,1.0,1.0,3.0,0.0,0.0,0.0,4.0,0.0,0.017460893333333335,0.22306312,1.12042316,-3.4643555199999985,8.693847680000001,-11.897786426666665,40.98762372711301,1.3194979459175464,-24.468025663113302,12.223227014800216,-10.139842350787882,-15.012296670611438,21.853895142070773,1.491160736131969,20.98537424260804,1.438767969999939,0.30675810666666664,-0.31632512,-0.20318716000000003,0.8262703866666666,0.48522895579056086,0.9388537816327996,0.942289768127182,0.935780807716957
LBP07_S03,LBP07,-1541,110,3,109,-1541,1716272503.36,2024-05-21 06:21:43.360000+00:00,2024-05-21 15:21:43.360000+09:00,2024,5,21,6,21,43,360,,,,,,,,,0.567627,0.176025,1.439209,241.088867,19.470215,-37.536621,,,,,,,,,,,0.0,1.0,1.0,3.0,0.0,0.0,0.0,4.0,0.0,0.01875321333333333,0.21362952000000002,1.1006933466666666,-5.567220106666666,8.672688826666667,-9.803873666666664,32.918888656916586,-0.9570502151782547,-22.9476119773255,13.53998256107688,-10.178124359395012,-15.930201149704457,23.252884808118353,1.4816244975244643,21.802699729561603,1.4412615512630813,0.5488737866666666,-0.03760452000000003,0.33851565333333333,0.92499396,0.6459639163033253,0.931015825561593,0.9369759303225377,0.9318107133140306
LBP07_S03,LBP07,-1540,111,3,110,-1540,1716272503.4,2024-05-21 06:21:43.400000+00:00,2024-05-21 15:21:43.400000+09:00,2024,5,21,6,21,43,400,,,,,,,,,-0.414551,0.4021,1.879639,13.916016,79.833984,-97.412109,,,,,,,,,,,0.0,1.0,1.0,3.0,0.0,0.0,0.0,4.0,0.0,0.02164384,0.19922847999999999,1.0783821599999999,-5.710449279999999,9.485677106666667,-7.779947893333333,19.324276864978966,-1.8359366890840618,-20.959289793193328,14.312953635676038,-10.251561826958374,-16.76857274143219,24.31337478536587,1.4607877707742152,22.542312262948496,1.448650076207782,-0.43619484000000003,0.20287152000000003,0.8012568400000002,1.4403232000000004,0.9345776135327242,0.9286428943610407,0.9464049965007965,0.9318481038575265
LBP07_S03,LBP07,-1539,112,3,111,-1539,1716272503.44,2024-05-21 06:21:43.440000+00:00,2024-05-21 15:21:43.440000+09:00,2024,5,21,6,21,43,440,,,,,,,,,-0.118652,0.188965,1.809082,-8.422852,-112.548828,-17.76123,,,,,,,,,,,0.0,1.0,1.0,3.0,0.0,0.0,0.0,4.0,0.0,0.0316178,0.20018226666666666,1.0917382800000002,-4.488118546666666,7.974446626666667,-7.329101533333333,2.937234141041622,-0.9818400895133539,-18.51153808214908,14.430443001317704,-10.290835430538909,-17.509034264718153,24.913957131611756,1.4116428915471302,23.15914303476498,1.4596122540751322,-0.1502698,-0.01121726666666667,0.7173437199999999,0.8788307866666666,0.7329998993771755,0.9194781363429325,0.9354877810950342,0.9291967944644551
LBP07_S03,LBP07,-1538,113,3,112,-1538,1716272503.48,2024-05-21 06:21:43.480000+00:00,2024-05-21 15:21:43.480000+09:00,2024,5,21,6,21,43,480,,,,,,,,,-0.051025,1.028076,0.741943,20.568848,32.653809,-60.791016,,,,,,,,,,,0.0,1.0,1.0,3.0,0.0,0.0,0.0,4.0,0.0,0.033701133333333334,0.19829750666666668,1.11309896,1.691894480000002,9.82259116,-9.628092413333333,-13.006498362043919,1.6155090138165633,-15.79595500433055,13.910183066835947,-10.226215069986246,-18.140872464891373,25.04316117022684,1.3999296756933701,23.631575484553725,1.4669079971234935,-0.08472613333333334,0.8297784933333333,-0.37115596000000006,1.2856605866666668,0.9129444738381827,0.906065497727791,0.9389214355287073,0.9345462650651687
LBP07_S03,LBP07,-1537,114,3,113,-1537,1716272503.52,2024-05-21 06:21:43.520000+00:00,2024-05-21 15:21:43.520000+09:00,2024,5,21,6,21,43,520,,,,,,,,,-0.554932,-0.306152,0.147461,-169.98291,44.128418,16.479492,,,,,,,,,,,0.0,1.0,1.0,3.0,0.0,0.0,0.0,4.0,0.0,0.01981441333333334,0.21736650666666668,1.1200553333333334,6.234537706666668,9.79248048,-11.522623666666664,-25.443165211368903,5.6277385566340055,-13.256168780150983,12.89245645838119,-10.001105527720886,-18.671119216097413,24.79613353104847,1.4782188271352075,23.96451475959435,1.4692563977383424,-0.5747464133333333,-0.5235185066666667,-0.9725943333333333,2.0708592533333334,1.245128428594472,0.9268760657077135,0.9450163149873687,0.9361273828737173
LBP07_S03,LBP07,-1536,115,3,114,-1536,1716272503.56,2024-05-21 06:21:43.560000+00:00,2024-05-21 15:21:43.560000+09:00,2024,5,21,6,21,43,560,,,,,,,,,0.197754,0.00293,0.410156,-68.29834,-53.405762,54.321289,,,,,,,,,,,0.0,1.0,1.0,3.0,0.0,0.0,0.0,4.0,0.0,0.011025346666666672,0.21618486666666664,1.1246484266666665,3.1152343200000026,8.22916668,-11.588541626666665,-32.14963157020077,10.438593935944747,-11.510746540454813,11.606471195573159,-9.583561770283097,-19.131549077715604,24.34278126943472,1.518912129438733,24.19316598298334,1.46056825520288,0.18672865333333333,-0.21325486666666665,-0.7144924266666666,1.1144759466666665,0.7686642022994956,0.9136455009045947,0.9398796920726309,0.924015183676781
LBP07_S03,LBP07,-1535,116,3,115,-1535,1716272503.6,2024-05-21 06:21:43.600000+00:00,2024-05-21 15:21:43.600000+09:00,2024,5,21,6,21,43,600,,,,,,,,,0.764648,-0.487305,1.394531,52.856445,-28.991699,4.760742,,,,,,,,,,,0.0,1.0,1.0,3.0,0.0,0.0,0.0,4.0,0.0,0.018307240000000006,0.20661129333333336,1.1070507733333332,5.706380146666668,6.816406266666667,-10.497233026666667,-32.1869250429326,15.272465435566135,-11.1906754809915,10.318994193855854,-8.972663152860452,-19.579176096955266,23.881676278333458,1.480914364174419,24.382289572709485,1.4555617136318422,0.7463407599999999,-0.6939162933333334,0.2874802266666667,1.72773728,1.0588622350972614,0.9138003405700779,0.9439447236160704,0.9209639588561195
LBP07_S03,LBP07,-1534,117,3,116,-1534,1716272503.64,2024-05-21 06:21:43.640000+00:00,2024-05-21 15:21:43.640000+09:00,2024,5,21,6,21,43,640,,,,,,,,,0.095947,1.188721,1.510254,44.86084,146.728516,-80.322266,,,,,,,,,,,0.0,1.0,1.0,3.0,0.0,0.0,0.0,4.0,0.0,0.016777293333333335,0.20256181333333334,1.0786914,6.605631453333335,6.966145853333334,-9.103190053333332,-25.998829030100655,19.3864723164489,-12.784987284872598,9.279041032651827,-8.197204260202497,-20.09057558835017,23.59927938815781,1.4867318623739243,24.617811318881948,1.4574011468069277,0.07916970666666667,0.9861591866666666,0.4315625999999999,1.496891493333333,1.0793628035185887,0.9022594052310303,0.9442202443323414,0.9229433334429964
LBP07_S03,LBP07,-1533,118,3,117,-1533,1716272503.68,2024-05-21 06:21:43.680000+00:00,2024-05-21 15:21:43.680000+09:00,2024,5,21,6,21,43,680,,,,,,,,,0.101074,0.900146,1.82959,-103.881836,-26.062012,-41.442871,,,,,,,,,,,0.0,1.0,1.0,3.0,0.0,0.0,0.0,4.0,0.0,0.01750646666666667,0.20153642666666666,1.0687271999999999,8.426106720000002,4.683431013333333,-8.273111933333333,-15.188378290283367,22.276739124838365,-16.540413865560236,8.671505901040494,-7.3061346952089625,-20.75219214297258,23.648004091575448,1.4826412225899919,24.991788619854578,1.464440546264186,0.08356753333333333,0.6986095733333333,0.7608628000000002,1.543039906666667,1.0363161047693124,0.9102509689110313,0.9412277005480817,0.9298258789857549
LBP07_S03,LBP07,-1532,119,3,118,-1532,1716272503.72,2024-05-21 06:21:43.720000+00:00,2024-05-21 15:21:43.720000+09:00,2024,5,21,6,21,43,720,,,,,,,,,0.265381,-0.073242,2.146729,-168.273926,20.324707,-40.466309,,,,,,,,,,,0.0,1.0,1.0,3.0,0.0,0.0,0.0,4.0,0.0,0.03305985333333333,0.19994462666666665,1.0805338400000002,10.07731114666667,4.099121106666667,-9.384765586666665,-2.0689579950744696,23.820068048445467,-22.390549383223295,8.588747581237515,-6.3533319732711435,-21.64781411830151,24.14040737596068,1.404279310777344,25.58507144883695,1.471854925929563,0.23232114666666664,-0.27318662666666665,1.06619516,1.5717029333333332,1.1248894022904887,0.8896607300907639,0.9446407918421688,0.9348799005022624
LBP07_S03,LBP07,-1531,120,3,119,-1531,1716272503.76,2024-05-21 06:21:43.760000+00:00,2024-05-21 15:21:43.760000+09:00,2024,5,21,6,21,43,760,,,,,,,,,-0.020752,0.082275,1.131592,160.705566,125.061035,12.329102,,,,,,,,,,,0.0,1.0,1.0,3.0,0.0,0.0,0.0,4.0,0.0,0.028151,0.2042708,1.0948176933333333,13.496907493333335,5.869140626666667,-11.498209600000001,10.921672857547069,24.27960497679089,-29.876870124455944,9.025614495539397,-5.382147774199508,-22.842888923279748,25.14412070537978,1.4315590818140869,26.45274284990456,1.4694782674632503,-0.048903,-0.1219958,0.03677430666666659,0.2076731066666666,0.13648013869224357,0.8528091776987519,0.934590143634292,0.9171076174671731
LBP07_S03,LBP07,-1530,121,3,120,-1530,1716272503.8,2024-05-21 06:21:43.800000+00:00,2024-05-21 15:21:43.800000+09:00,2024,5,21,6,21,43,800,,,,,,,,,-0.260986,0.044678,0.206787,158.996582,-69.946289,54.016113,,,,,,,,,,,0.0,1.0,1.0,3.0,0.0,0.0,0.0,4.0,0.0,0.0197428,0.21902990666666666,1.1066373600000001,14.420572866666667,6.149088546666667,-12.180175746666665,21.842939886454733,24.157754077779536,-38.085707377248816,9.899332090997586,-4.415837611088326,-24.3663172183697,26.668592247090523,1.4791821025250693,27.615803037961303,1.4577896530305332,-0.2807288,-0.17435190666666667,-0.8998503600000001,1.3549310666666667,0.9586124956935789,0.8540323377208048,0.9353820539624086,0.9152014697138365
LBP07_S03,LBP07,-1529,122,3,121,-1529,1716272503.84,2024-05-21 06:21:43.840000+00:00,2024-05-21 15:21:43.840000+09:00,2024,5,21,6,21,43,840,,,,,,,,,0.457275,0.583252,0.911865,40.100098,-38.574219,-34.423828,,,,,,,,,,,0.0,1.0,1.0,3.0,0.0,0.0,0.0,4.0,0.0,0.019042933333333338,0.21804684,1.1089387866666665,11.35823562666667,4.830729173333333,-10.799153613333331,29.725906369233503,23.95224703168858,-45.69334992725561,11.088368345766925,-3.4577477298207833,-26.194051215459925,28.65373014133804,1.482036886119714,29.059943833784452,1.4441700483077937,0.43823206666666664,0.36520516000000003,-0.19707378666666642,1.000511013333333,0.6035397505854126,0.8511190975809684,0.9260322238249876,0.9199742484085676
LBP07_S03,LBP07,-1528,123,3,122,-1528,1716272503.88,2024-05-21 06:21:43.880000+00:00,2024-05-21 15:21:43.880000+09:00,2024,5,21,6,21,43,880,,,,,,,,,0.577881,0.009766,1.695557,-20.263672,86.853027,-99.54834,,,,,,,,,,,0.0,1.0,1.0,3.0,0.0,0.0,0.0,4.0,0.0,0.02034826666666667,0.21370113333333332,1.0865136533333335,9.01448562666667,5.60384116,-8.90706376,34.685510414375706,23.923544376992815,-51.19961516004347,12.475788762341953,-2.500805954741071,-28.242035821861663,30.975989460050563,1.474073472347141,30.739789770510736,1.433484091089418,0.5575327333333333,-0.20393513333333332,0.6090433466666665,1.3705112133333333,0.8505093094521397,0.8399791720826224,0.9144386607470836,0.9121824810526831
LBP07_S03,LBP07,-1527,124,3,123,-1527,1716272503.92,2024-05-21 06:21:43.920000+00:00,2024-05-21 15:21:43.920000+09:00,2024,5,21,6,21,43,920,,,,,,,,,-0.225342,0.667725,2.106689,119.140625,12.084961,-123.779297,,,,,,,,,,,0.0,1.0,1.0,3.0,0.0,0.0,0.0,4.0,0.0,0.022975226666666668,0.19999670666666666,1.0614908666666665,6.972656200000003,5.020345066666667,-6.554361933333333,37.58691132085253,23.980819426203173,-53.321879649015344,13.979265215176055,-1.541573177692944,-30.374911007822277,33.47284754172457,1.4544522424720783,32.58572993696912,1.430763582346497,-0.24831722666666667,0.4677282933333333,1.0451981333333333,1.7612436533333333,1.1716954977157767,0.8555898541590584,0.9172357390438692,0.9159818341376873
LBP07_S03,LBP07,-1526,125,3,124,-1526,1716272503.96,2024-05-21 06:21:43.960000+00:00,2024-05-21 15:21:43.960000+09:00,2024,5,21,6,21,43,960,,,,,,,,,-0.28125,1.13916,2.211426,-113.098145,-50.109863,-92.712402,,,,,,,,,,,0.0,1.0,1.0,3.0,0.0,0.0,0.0,4.0,0.0,0.033538373333333336,0.20021481333333332,1.0595182133333332,8.707682240000002,2.2314453333333337,-5.597330693333333,39.413422709209605,23.73316159449756,-51.39482381935473,15.555802123544439,-0.5922467139130416,-32.43070396059647,35.973383150002135,1.4020259851115635,34.51128462078367,1.4321943314036047,-0.3147883733333333,0.9389451866666666,1.1519077866666667,2.4056413466666666,1.5190791067398848,0.9020285985507707,0.9274061232289982,0.927444315782232
LBP07_S03,LBP07,-1525,126,3,125,-1525,1716272504.0,2024-05-21 06:21:44+00:00,2024-05-21 15:21:44+09:00,2024,5,21,6,21,44,0,6.0,21.0,44.0,40.540531,141.502213,-12.552,3.0,11.0,-0.012451,-0.860596,1.856445,-191.772461,136.108398,-53.527832,-247.0,35.0,388.0,2594.0,0.0,1020.299988,21.6,0.072341,-58.496948,3.916406,0.0,1.0,1.0,3.0,0.0,0.0,0.0,6.0,0.0,0.04398433333333334,0.19417314666666668,1.0725390533333334,8.988443960000003,4.545084653333334,-5.81217444,40.65229148598713,22.673546527058452,-45.584503801687895,17.181893782983924,0.3146951471692965,-34.25408411266398,38.323084236564945,1.3447183169470256,36.42113995198024,1.4275090331557982,-0.05643533333333334,-1.0547691466666667,0.7839059466666665,1.8951104266666665,1.3153826184147848,0.8957546841744641,0.9317591318419177,0.93894172571006
LBP07_S03,LBP07,-1524,127,3,126,-1524,1716272504.04,2024-05-21 06:21:44.040000+00:00,2024-05-21 15:21:44.040000+09:00,2024,5,21,6,21,44,40,,,,,,,,,-0.536133,-0.372559,0.15918,221.130371,40.893555,56.57959,,,,,,,,,,,0.0,1.0,1.0,3.0,0.0,0.0,0.0,6.0,0.0,0.03785804,0.19905921333333335,1.0784765466666666,13.864746040000004,5.788574226666667,-7.0450846,41.01881770200903,20.411475240494024,-36.81843167598152,18.822646491064283,1.1311541567890575,-35.726821379703246,40.39773875542067,1.3798722901901648,38.221090203990755,1.4214709724909431,-0.57399104,-0.5716182133333333,-0.9192965466666666,2.0649058,1.225283329082679,0.9064877172282121,0.9381673341761524,0.9404592556334855
LBP07_S03,LBP07,-1523,128,3,127,-1523,1716272504.08,2024-05-21 06:21:44.080000+00:00,2024-05-21 15:21:44.080000+09:00,2024,5,21,6,21,44,80,,,,,,,,,0.176758,0.442139,0.315186,109.558105,-46.447754,16.113281,,,,,,,,,,,0.0,1.0,1.0,3.0,0.0,0.0,0.0,6.0,0.0,0.02329424,0.2045182,1.0857031066666667,14.490559853333334,4.8933919333333336,-7.384440080000001,39.66236181663956,16.85941996331065,-26.4899472226199,20.409140963729865,1.8055309553214836,-36.78641926860804,42.1074057561593,1.455436135160782,39.82964511651033,1.408700387507838,0.15346376,0.2376208,-0.7705171066666667,1.1616016666666669,0.8207992336082857,0.9006101034893864,0.9272418097880422,0.9398592493104668
LBP07_S03,LBP07,-1522,129,3,128,-1522,1716272504.12,2024-05-21 06:21:44.120000+00:00,2024-05-21 15:21:44.120000+09:00,2024,5,21,6,21,44,120,,,,,,,,,0.760498,0.493164,1.751953,104.064941,-16.113281,-40.222168,,,,,,,,,,,0.0,1.0,1.0,3.0,0.0,0.0,0.0,6.0,0.0,0.03154945333333334,0.20939450666666665,1.0828548,14.13411454666667,3.6808268400000004,-7.172037733333333,35.71877558873324,12.310766577771046,-16.099466169717793,21.837891987279193,2.2979616184323253,-37.43039791539675,43.39595421410616,1.4185868013484226,41.18870097250739,1.3938502917608953,0.7289485466666666,0.28376949333333334,0.6690982000000001,1.68181624,1.0293607289368205,0.925391220232203,0.9256909301242302,0.9388667896684776
LBP07_S03,LBP07,-1521,130,3,129,-1521,1716272504.16,2024-05-21 06:21:44.160000+00:00,2024-05-21 15:21:44.160000+09:00,2024,5,21,6,21,44,160,,,,,,,,,-0.593994,0.486328,2.00293,44.677734,76.660156,-63.415527,,,,,,,,,,,0.0,1.0,1.0,3.0,0.0,0.0,0.0,6.0,0.0,0.03951169333333335,0.21388343999999998,1.0688411333333334,12.352701786666668,6.52750652,-7.575683560000001,28.878305584265167,7.406047810944828,-6.977140959973604,22.9930242106498,2.5942035308701183,-37.7094835537957,44.242674017345465,1.3847060993360214,42.27009517479184,1.383109323679629,-0.6335056933333334,0.27244456,0.9340888666666667,1.8400391200000001,1.1610674022596443,0.9373694172080356,0.944353354429022,0.9394096717182743
LBP07_S03,LBP07,-1520,131,3,130,-1520,1716272504.2,2024-05-21 06:21:44.200000+00:00,2024-05-21 15:21:44.200000+09:00,2024,5,21,6,21,44,200,,,,,,,,,-0.218994,0.332764,2.44751,-76.049805,-40.771484,14.465332,,,,,,,,,,,0.0,1.0,1.0,3.0,0.0,0.0,0.0,6.0,0.0,0.029303360000000004,0.19446937333333333,1.0522102800000002,7.561035120000001,7.017415373333333,-6.319173133333334,19.67159437061184,3.019305222827431,-0.12574723661424472,23.779887985474275,2.7149757397832155,-37.714513443260266,44.66809476719568,1.4188014958765172,43.076342932754834,1.3817613095562329,-0.24829736,0.13829462666666667,1.3952997199999997,1.7818917066666664,1.4239516464332347,0.9623842799351016,0.9502153363870253,0.9514402139486354
LBP07_S03,LBP07,-1519,132,3,131,-1519,1716272504.24,2024-05-21 06:21:44.240000+00:00,2024-05-21 15:21:44.240000+09:00,2024,5,21,6,21,44,240,,,,,,,,,0.056641,0.426514,1.701416,53.344727,65.551758,-38.269043,,,,,,,,,,,0.0,1.0,1.0,3.0,0.0,0.0,0.0,6.0,0.0,0.04294594666666667,0.19854164,1.0566276000000001,7.915852826666669,5.423177093333333,-5.92285152,9.381907228311954,0.0841703808744414,3.866775816463349,24.155164274606754,2.718342555018193,-37.55984241060173,44.739279266533764,1.3543310362886645,43.63594686209009,1.3794342338443069,0.013695053333333325,0.22797236,0.6447883999999999,0.8864558133333332,0.6840402270220168,0.9655055850973843,0.9451250405204621,0.9461021443306078
LBP07_S03,LBP07,-1518,133,3,132,-1518,1716272504.28,2024-05-21 06:21:44.280000+00:00,2024-05-21 15:21:44.280000+09:00,2024,5,21,6,21,44,280,,,,,,,,,-0.476807,-0.056885,-0.095703,-9.216309,30.639648,39.0625,,,,,,,,,,,0.0,1.0,1.0,3.0,0.0,0.0,0.0,6.0,0.0,0.047373040000000005,0.19214841333333332,1.0674023333333331,8.098144493333336,5.48177084,-5.241699186666667,-0.31418353966200513,-0.6381328729272933,4.898584401982178,24.142596933020275,2.6928172401011015,-37.36389903452245,44.56654802002117,1.325572514877711,43.99525276092049,1.3704864126544094,-0.52418004,-0.24903341333333331,-1.1631053333333332,1.9363187866666665,1.2998447490832499,0.9689833707652535,0.9552393686263032,0.9581086848758912
LBP07_S03,LBP07,-1517,134,3,133,-1517,1716272504.32,2024-05-21 06:21:44.320000+00:00,2024-05-21 15:21:44.320000+09:00,2024,5,21,6,21,44,320,,,,,,,,,0.214355,0.136963,0.063477,-70.43457,-82.763672,79.223633,,,,,,,,,,,0.0,1.0,1.0,3.0,0.0,0.0,0.0,6.0,0.0,0.04391274666666667,0.19601885333333333,1.0693033866666668,12.055664026666669,5.712076826666667,-6.370442679999999,-7.802980417102922,1.1780380274679056,3.3985458471208125,23.83047771633616,2.739938761199818,-37.22795720063761,44.286789564569084,1.3470425616594177,44.2093891796096,1.3575463502049268,0.17044225333333332,-0.059055853333333325,-1.0058263866666668,1.2353244933333334,1.0218732189705313,0.9904491412924524,0.9646514614626259,0.9583428925156054
LBP07_S03,LBP07,-1516,135,3,134,-1516,1716272504.36,2024-05-21 06:21:44.360000+00:00,2024-05-21 15:21:44.360000+09:00,2024,5,21,6,21,44,360,,,,,,,,,0.596191,-0.026611,0.954346,12.207031,-122.314453,30.883789,,,,,,,,,,,0.0,1.0,1.0,3.0,0.0,0.0,0.0,6.0,0.0,0.034059240000000005,0.18750322666666663,1.07512044,12.765299440000003,5.165201826666666,-6.192220026666666,-11.938984637129561,5.217133645233895,0.27434565011183,23.352918330850976,2.9486241070091737,-37.21698337463314,44.035860729632056,1.388545843877601,44.33425636247162,1.344620330215661,0.56213176,-0.21411422666666663,-0.12077444000000004,0.8970204266666667,0.613533603822216,0.989151928793208,0.9600838771774005,0.9543679298127612
LBP07_S03,LBP07,-1515,136,3,135,-1515,1716272504.4,2024-05-21 06:21:44.400000+00:00,2024-05-21 15:21:44.400000+09:00,2024,5,21,6,21,44,400,,,,,,,,,0.570312,0.017578,1.554688,29.907227,81.90918,-39.550781,,,,,,,,,,,0.0,1.0,1.0,3.0,0.0,0.0,0.0,6.0,0.0,0.04798828,0.19122393333333332,1.0736523466666668,15.926106733333336,5.2075195333333335,-5.660807266666667,-12.312847649188367,10.505244631805109,-3.2985676488431324,22.86040442488344,3.368833892281378,-37.348926080586864,43.91912352991753,1.3214475598277657,44.420312650579554,1.3345054698330425,0.52232372,-0.1736459333333333,0.4810356533333333,1.1770053066666666,0.7310063463579983,0.981009078106219,0.9548259862336299,0.9579396903692708
LBP07_S03,LBP07,-1514,137,3,136,-1514,1716272504.44,2024-05-21 06:21:44.440000+00:00,2024-05-21 15:21:44.440000+09:00,2024,5,21,6,21,44,440,,,,,,,,,-0.375977,1.446533,1.476318,92.407227,38.818359,-107.971191,,,,,,,,,,,0.0,1.0,1.0,3.0,0.0,0.0,0.0,6.0,0.0,0.05341146666666667,0.18806964,1.070459,15.686848920000005,8.002929680000001,-5.1196288800000005,-9.352823502508675,15.664620261859664,-6.2215307926257575,22.486291484783095,3.9954187027557646,-37.59778731229189,43.99079774372473,1.2903940782911927,44.508020997329915,1.322623872900945,-0.4293884666666667,1.2584633600000001,0.40585899999999997,2.093710826666667,1.3902611307412147,1.0072995273607805,0.9633888318518565,0.9594250298502829
LBP07_S03,LBP07,-1513,138,3,137,-1513,1716272504.48,2024-05-21 06:21:44.480000+00:00,2024-05-21 15:21:44.480000+09:00,2024,5,21,6,21,44,480,,,,,,,,,0.033447,-0.086182,2.286865,-325.744629,27.282715,-25.45166,,,,,,,,,,,0.0,1.0,1.0,3.0,0.0,0.0,0.0,6.0,0.0,0.04604492,0.18701169333333334,1.0618815333333333,18.15022782666667,8.176269533333334,-4.35384112,-4.256562029541869,19.38105304776044,-7.812302882935585,22.31602900360142,4.770660824666182,-37.91027942760932,44.248769943050426,1.3260355106659532,44.624869314042414,1.3215385257389545,-0.012597920000000006,-0.2731936933333333,1.2249834666666668,1.5107750800000002,1.2551406276876382,1.0209873735147588,0.9635264356212748,0.9662767481907245
LBP07_S03,LBP07,-1512,139,3,138,-1512,1716272504.52,2024-05-21 06:21:44.520000+00:00,2024-05-21 15:21:44.520000+09:00,2024,5,21,6,21,44,520,,,,,,,,,-0.274902,0.268066,1.085693,114.562988,125.061035,-27.282715,,,,,,,,,,,0.0,1.0,1.0,3.0,0.0,0.0,0.0,6.0,0.0,0.05380209333333333,0.18872066666666668,1.0669726800000001,19.208984333333333,8.412272133333333,-4.631347626666667,1.2677576563765574,20.884449459350897,-7.96392548055791,22.366739309856484,5.606038803040218,-38.228836446831636,44.644626042726294,1.2893266014557652,44.78445375722691,1.3214824945729973,-0.3287040933333333,0.07934533333333335,0.0187203199999999,0.42676974666666656,0.33866283125960084,0.984728749621364,0.9558024076645387,0.9582537931987002
LBP07_S03,LBP07,-1511,140,3,139,-1511,1716272504.56,2024-05-21 06:21:44.560000+00:00,2024-05-21 15:21:44.560000+09:00,2024,5,21,6,21,44,560,,,,,,,,,-0.468018,-0.355225,0.30249,4.699707,87.158203,72.509766,,,,,,,,,,,0.0,1.0,1.0,3.0,0.0,0.0,0.0,6.0,0.0,0.05503581333333334,0.18891598666666667,1.0741341333333334,20.637207000000004,8.40332032,-4.338378866666667,5.474392704009151,20.209666004947806,-7.036392772385986,22.58571501801685,6.41442544323813,-38.51029215772707,45.10323689842479,1.2835574955098372,44.98829535325506,1.3198520643371083,-0.5230538133333333,-0.5441409866666667,-0.7716441333333335,1.8388389333333335,1.0794023223621794,0.9971582744238713,0.955401887664233,0.9589725528563775
LBP07_S03,LBP07,-1510,141,3,140,-1510,1716272504.6,2024-05-21 06:21:44.600000+00:00,2024-05-21 15:21:44.600000+09:00,2024,5,21,6,21,44,600,,,,,,,,,0.22876,0.266602,0.133057,140.50293,-91.61377,44.555664,,,,,,,,,,,0.0,1.0,1.0,3.0,0.0,0.0,0.0,6.0,0.0,0.053278000000000006,0.19475909333333333,1.0802767066666668,24.230957000000004,9.19759116,-4.4645182,7.195154092831146,18.102782041201838,-5.555204562897577,22.873521181730094,7.138536724886204,-38.73250034024298,45.5451782346993,1.29998552655554,45.23046768057668,1.3152993217974833,0.17548199999999997,0.07184290666666668,-0.9472197066666668,1.1945446133333335,0.9660126853514924,0.9934442924340405,0.9536223165020591,0.9604445798887269
LBP07_S03,LBP07,-1509,142,3,141,-1509,1716272504.64,2024-05-21 06:21:44.640000+00:00,2024-05-21 15:21:44.640000+09:00,2024,5,21,6,21,44,640,,,,,,,,,0.269287,0.308594,0.667969,58.654785,-90.026855,33.813477,,,,,,,,,,,0.0,1.0,1.0,3.0,0.0,0.0,0.0,6.0,0.0,0.04623698666666667,0.20319008000000002,1.0827246266666666,24.09016924,9.24641928,-3.020833306666667,6.372661636285321,15.616841691867942,-3.905011726402141,23.128427647181507,7.7632103925609215,-38.88870080929907,45.907762433658796,1.3434775646687618,45.504186913071734,1.3157496599428897,0.22305001333333332,0.10540391999999996,-0.41475562666666654,0.7432095599999998,0.48258007071472175,0.9695729831218859,0.935916194176458,0.9526711572621896
LBP07_S03,LBP07,-1508,143,3,142,-1508,1716272504.68,2024-05-21 06:21:44.680000+00:00,2024-05-21 15:21:44.680000+09:00,2024,5,21,6,21,44,680,,,,,,,,,0.61084,0.324219,1.226807,-12.084961,51.757812,-33.630371,,,,,,,,,,,0.0,1.0,1.0,3.0,0.0,0.0,0.0,6.0,0.0,0.05007488,0.20287433333333332,1.0825228,21.206054653333336,8.985188813333334,-1.2573242,4.235398258068345,13.605358446747282,-2.193730172890308,23.297843577504242,8.307424730430812,-38.97645001621468,46.16239245186617,1.3250122032181386,45.80883479101999,1.3197118315550924,0.56076512,0.12134466666666666,0.14428419999999997,0.8263939866666666,0.5916079599757755,0.9517846573301444,0.931017813120588,0.9447466861421028
LBP07_S03,LBP07,-1507,144,3,143,-1507,1716272504.72,2024-05-21 06:21:44.720000+00:00,2024-05-21 15:21:44.720000+09:00,2024,5,21,6,21,44,720,,,,,,,,,-0.346436,0.368896,1.734375,-8.666992,29.907227,-68.664551,,,,,,,,,,,0.0,1.0,1.0,3.0,0.0,0.0,0.0,6.0,0.0,0.05017578666666667,0.20859373333333334,1.0730729333333333,20.7145182,9.92919924,-0.6827799200000001,2.9691497318753264,12.363782745842775,-0.33624289202411756,23.416609566779254,8.801976040264522,-38.98989973189564,46.32520552485055,1.330738259300528,46.155536352401,1.3195730625135,-0.3966117866666667,0.16030226666666667,0.6613020666666667,1.2182161200000001,0.7876027865612215,0.9382931927009737,0.9139769613958687,0.9425249254617704
LBP07_S03,LBP07,-1506,145,3,144,-1506,1716272504.76,2024-05-21 06:21:44.760000+00:00,2024-05-21 15:21:44.760000+09:00,2024,5,21,6,21,44,760,,,,,,,,,-0.109619,0.444092,1.739502,-60.241699,-45.776367,-31.12793,,,,,,,,,,,0.0,1.0,1.0,3.0,0.0,0.0,0.0,6.0,0.0,0.04850586666666667,0.21320962666666665,1.0620475466666668,18.58642576,8.623860693333333,0.21158857333333325,4.971782837395401,11.561616986117324,1.7410980441087416,23.61548088027507,9.264440719709215,-38.92025581013129,46.45758400284825,1.343018418481351,46.56930396608548,1.3182088089928032,-0.15812486666666667,0.23088237333333334,0.6774544533333333,1.0664616933333333,0.7329765890637636,0.9621530507158346,0.9074811142072932,0.9437777793281396
LBP07_S03,LBP07,-1505,146,3,145,-1505,1716272504.8,2024-05-21 06:21:44.800000+00:00,2024-05-21 15:21:44.800000+09:00,2024,5,21,6,21,44,800,,,,,,,,,0.117188,0.275635,1.335205,-19.348145,83.129883,-9.643555,,,,,,,,,,,0.0,1.0,1.0,3.0,0.0,0.0,0.0,6.0,0.0,0.049215506666666665,0.20020506666666668,1.0658398533333333,14.737955706666671,10.10091148,0.8691406533333332,11.965212065534512,10.445779617608983,3.9410344252016603,24.094089362896447,9.682271904413575,-38.76261443312322,46.65631585486802,1.3259509412818304,47.086313520229666,1.3159997539158501,0.06797249333333333,0.07542993333333334,0.26936514666666667,0.41276757333333336,0.2878671862706412,0.935323238338917,0.8946777880298609,0.935362448754578
LBP07_S03,LBP07,-1504,147,3,146,-1504,1716272504.84,2024-05-21 06:21:44.840000+00:00,2024-05-21 15:21:44.840000+09:00,2024,5,21,6,21,44,840,,,,,,,,,-0.67749,-0.140381,0.065674,9.033203,45.593262,55.725098,,,,,,,,,,,0.0,1.0,1.0,3.0,0.0,0.0,0.0,6.0,0.0,0.0479362,0.1984082,1.0606445466666667,16.97347002666667,8.449707053333332,1.4152018533333333,24.29283291670449,8.188505673447231,5.992615702858823,25.065802679564626,10.009812131351465,-38.522909805008865,47.0372765232073,1.3300157944132174,47.74662641852963,1.3097472987045966,-0.7254262,-0.3387892,-0.9949705466666667,2.059185946666667,1.2771012811900417,0.9622656995631022,0.9066923985720353,0.9381100490710257
LBP07_S03,LBP07,-1503,148,3,147,-1503,1716272504.88,2024-05-21 06:21:44.880000+00:00,2024-05-21 15:21:44.880000+09:00,2024,5,21,6,21,44,880,,,,,,,,,0.262451,0.116943,0.287354,-29.23584,-25.695801,79.101562,,,,,,,,,,,0.0,1.0,1.0,3.0,0.0,0.0,0.0,6.0,0.0,0.049319666666666664,0.19958008,1.0527311333333333,14.362792946666671,7.908528666666668,2.7766927333333333,40.65666955541963,4.22831574761058,7.58899895818118,26.69206946178141,10.178944761255888,-38.21934984668162,47.71578555686058,1.3246478202500307,48.58491162700371,1.2978787003779888,0.21313133333333334,-0.08263707999999999,-0.7653771333333333,1.0611455466666666,0.7987840812565821,0.9601966904352797,0.9000879312589511,0.9296913373098157
LBP07_S03,LBP07,-1502,149,3,148,-1502,1716272504.92,2024-05-21 06:21:44.920000+00:00,2024-05-21 15:21:44.920000+09:00,2024,5,21,6,21,44,920,,,,,,,,,0.37207,0.087891,1.051514,7.751465,-32.653809,26.977539,,,,,,,,,,,0.0,1.0,1.0,3.0,0.0,0.0,0.0,6.0,0.0,0.05792318666666667,0.19347981333333333,1.0459635466666666,15.504557266666668,7.51953128,3.7231445466666666,58.39903741165361,-1.5109756205030271,8.547150385767399,29.028030958247555,10.118505736435766,-37.87746383125092,48.78230217957106,1.275684066248796,49.62266937794235,1.291466984166617,0.31414681333333333,-0.10558881333333334,0.005550453333333483,0.4252860800000001,0.33146346006888183,0.926587408929404,0.8910886315442313,0.9203529623390475
LBP07_S03,LBP07,-1501,150,3,149,-1501,1716272504.96,2024-05-21 06:21:44.960000+00:00,2024-05-21 15:21:44.960000+09:00,2024,5,21,6,21,44,960,,,,,,,,,0.188965,-0.238037,1.629639,195.556641,53.466797,-62.62207,,,,,,,,,,,0.0,1.0,1.0,3.0,0.0,0.0,0.0,6.0,0.0,0.05853841333333334,0.18574543999999998,1.0455306,16.743977840000003,9.261881533333334,4.061686213333333,74.25704992676759,-8.569539857339446,8.869720460143178,31.99831295531826,9.775724142142188,-37.52267501284519,50.273332439866635,1.2614669447403084,50.86431021518065,1.287934213162515,0.13042658666666665,-0.42378244,0.5841084000000001,1.1383174266666667,0.7333384443164229,0.8951577824324656,0.8985931904916182,0.9166566762968207
LBP07_S03,LBP07,-1500,151,3,150,-1500,1716272505.0,2024-05-21 06:21:45+00:00,2024-05-21 15:21:45+09:00,2024,5,21,6,21,45,0,6.0,21.0,45.0,40.540531,141.502136,-10.126,3.0,10.0,-0.628174,0.603271,1.602783,196.105957,-29.907227,-44.616699,-250.0,13.0,404.0,2553.0,0.0,1020.299988,21.68,0.072341,-58.496948,3.916406,0.0,1.0,1.0,3.0,0.0,0.0,0.0,5.0,0.0,0.06459309333333334,0.18919270666666668,1.0502018266666666,18.472493466666666,9.301757826666666,5.131835959999999,85.34816065131456,-16.055059533343698,8.686023653997687,35.41223938137084,9.13352176080844,-37.175234066685285,52.14830721769894,1.237460974443005,52.297286728195864,1.2821077747474319,-0.6927670933333333,0.41407829333333335,0.5525811733333335,1.65942656,0.9781273085533421,0.8816675700380078,0.888711127106236,0.9150619445739478
LBP07_S03,LBP07,-1499,152,3,151,-1499,1716272505.04,2024-05-21 06:21:45.040000+00:00,2024-05-21 15:21:45.040000+09:00,2024,5,21,6,21,45,40,,,,,,,,,0.157715,0.102783,1.710205,75.378418,-71.655273,13.916016,,,,,,,,,,,0.0,1.0,1.0,3.0,0.0,0.0,0.0,5.0,0.0,0.06854166666666667,0.19283528,1.0615787733333333,19.216308573333336,10.922851573333334,5.274251333333333,90.0367907411457,-22.85949646894211,8.156501845012333,39.01371101101667,8.219141902050756,-36.848973992884794,54.29061451839968,1.224791581402683,53.89483304095985,1.2802577625579556,0.08917333333333333,-0.09005228,0.6486262266666667,0.82785184,0.6608912758017117,0.859091887906769,0.8827898025674906,0.911808852086358
LBP07_S03,LBP07,-1498,153,3,152,-1498,1716272505.08,2024-05-21 06:21:45.080000+00:00,2024-05-21 15:21:45.080000+09:00,2024,5,21,6,21,45,80,,,,,,,,,-0.409424,0.248779,0.189453,106.018066,74.09668,4.638672,,,,,,,,,,,0.0,1.0,1.0,3.0,0.0,0.0,0.0,5.0,0.0,0.05969076,0.18903318666666666,1.06294596,19.105631493333338,12.068684906666666,4.249674506666666,88.3621620481292,-27.938400630453547,7.445695247102595,42.54819749294184,7.101605876832615,-36.55114618300069,56.53996996125247,1.2608950411044206,55.619421992288494,1.2804291346415757,-0.46911476,0.05974581333333334,-0.87349296,1.4023535333333332,0.9932915842945015,0.8659915819342179,0.8833008427118021,0.9068250671701007
LBP07_S03,LBP07,-1497,154,3,153,-1497,1716272505.12,2024-05-21 06:21:45.120000+00:00,2024-05-21 15:21:45.120000+09:00,2024,5,21,6,21,45,120,,,,,,,,,0.001709,0.310059,-0.148682,120.910645,-115.41748,89.050293,,,,,,,,,,,0.0,1.0,1.0,3.0,0.0,0.0,0.0,5.0,0.0,0.05502605333333334,0.19781249333333334,1.0635807333333334,16.67236326666667,12.95003256,4.447428413333333,81.8871987916706,-30.588420293074947,6.786593008657792,45.823685444608664,5.878069065109617,-36.27968246265438,58.74161389723362,1.2954105492595083,57.425719190122564,1.2823546793535014,-0.053317053333333336,0.11224650666666663,-1.2122627333333333,1.3778262933333334,1.218615165285507,0.8735617593881652,0.899476489810184,0.9083145398788754
LBP07_S03,LBP07,-1496,155,3,154,-1496,1716272505.16,2024-05-21 06:21:45.160000+00:00,2024-05-21 15:21:45.160000+09:00,2024,5,21,6,21,45,160,,,,,,,,,0.253418,0.126709,0.380859,-59.936523,-87.219238,50.048828,,,,,,,,,,,0.0,1.0,1.0,3.0,0.0,0.0,0.0,5.0,0.0,0.05262697333333334,0.18128905333333334,1.0653352933333333,17.790527333333337,11.526692706666665,5.19205732,73.06267608226182,-30.643193812830987,6.552497776443674,48.74619248789914,4.652341312596378,-36.01758255159663,60.78734913300039,1.2847540343305195,59.262981180053806,1.2910122393703851,0.20079102666666665,-0.05458005333333335,-0.6844762933333333,0.9398473733333332,0.71540465105216,0.8557352493398659,0.8965523332739507,0.91481398606597
LBP07_S03,LBP07,-1495,156,3,155,-1495,1716272505.2,2024-05-21 06:21:45.200000+00:00,2024-05-21 15:21:45.200000+09:00,2024,5,21,6,21,45,200,,,,,,,,,0.731445,-0.178955,0.878174,-3.967285,-63.110352,10.986328,,,,,,,,,,,0.0,1.0,1.0,3.0,0.0,0.0,0.0,5.0,0.0,0.046442080000000004,0.17438801333333334,1.0646810000000002,19.290364573333335,11.320800786666666,6.07014976,64.37166161737113,-28.505573466161238,7.217282165176183,51.32105895259398,3.5121183739499284,-35.728891264989585,62.63177898250785,1.3074508193870666,61.077471271038085,1.3013810752532702,0.68500292,-0.35334301333333334,-0.1865070000000002,1.2248529333333336,0.7930101805960668,0.8304975907063792,0.8964409353207404,0.9103094211601434
LBP07_S03,LBP07,-1494,157,3,156,-1494,1716272505.24,2024-05-21 06:21:45.240000+00:00,2024-05-21 15:21:45.240000+09:00,2024,5,21,6,21,45,240,,,,,,,,,0.100098,0.049072,1.403564,126.281738,76.721191,-73.486328,,,,,,,,,,,0.0,1.0,1.0,3.0,0.0,0.0,0.0,5.0,0.0,0.04428713333333334,0.18430012,1.05431316,22.671712226666667,9.626464853333333,6.930338573333334,57.56499188512698,-24.972331777805785,9.15767333608992,53.623658627999056,2.513225102837697,-35.36258433154599,64.28316603649367,1.33172951524942,62.81491761170781,1.3167474058863349,0.05581086666666667,-0.13522812,0.34925084000000006,0.5402898266666667,0.378652408572195,0.8182820779683863,0.8918938315328853,0.9028440530031034
LBP07_S03,LBP07,-1493,158,3,157,-1493,1716272505.28,2024-05-21 06:21:45.280000+00:00,2024-05-21 15:21:45.280000+09:00,2024,5,21,6,21,45,280,,,,,,,,,-0.343994,0.571533,1.638184,86.608887,-18.676758,-55.969238,,,,,,,,,,,0.0,1.0,1.0,3.0,0.0,0.0,0.0,5.0,0.0,0.04253257333333334,0.18695637333333334,1.0531836,18.629557280000004,8.652343759999999,6.912434919999999,53.214267669303375,-20.901192151150727,12.38485667739797,55.752229334771194,1.6771774167916678,-34.86719006445007,65.77875753520131,1.343903267369286,64.42217326874818,1.328613134314292,-0.38652657333333335,0.3845766266666666,0.5850004,1.3561036,0.7997045965050352,0.7982764718652579,0.8836299213152556,0.9029184030392879
LBP07_S03,LBP07,-1492,159,3,158,-1492,1716272505.32,2024-05-21 06:21:45.320000+00:00,2024-05-21 15:21:45.320000+09:00,2024,5,21,6,21,45,320,,,,,,,,,0.242676,-0.157959,1.560791,16.723633,-2.13623,0.0,,,,,,,,,,,0.0,1.0,1.0,3.0,0.0,0.0,0.0,5.0,0.0,0.03925457333333334,0.18833332,1.0494531333333332,13.636067693333336,10.057779959999998,6.794433626666667,50.651967148434835,-16.870428679167414,16.385227932818754,57.778308020708586,1.0023602696249712,-34.21178094713732,67.15492207888346,1.3622596664176334,65.84768382833498,1.3339638854885165,0.20342142666666665,-0.34629232,0.5113378666666668,1.0610516133333334,0.6502038615736624,0.783409697569383,0.8869294194309176,0.9042375401648782
LBP07_S03,LBP07,-1491,160,3,159,-1491,1716272505.36,2024-05-21 06:21:45.360000+00:00,2024-05-21 15:21:45.360000+09:00,2024,5,21,6,21,45,360,,,,,,,,,-0.419922,-0.063477,-0.060303,28.259277,96.679688,27.160645,,,,,,,,,,,0.0,1.0,1.0,3.0,0.0,0.0,0.0,5.0,0.0,0.036357440000000005,0.17667641333333334,1.04312176,10.70556638666667,10.209147146666666,8.274739613333333,48.24511724752878,-13.004202440767822,20.21839618253171,59.70811271060974,0.48219217199425823,-33.40304509983605,68.41823334970942,1.3651553035691602,67.04215132199282,1.338459254936682,-0.45627944000000004,-0.24015341333333334,-1.10342476,1.7998576133333333,1.2179535255022755,0.8075864944365853,0.8983692116148967,0.9092514162637955
LBP07_S03,LBP07,-1490,161,3,160,-1490,1716272505.4,2024-05-21 06:21:45.400000+00:00,2024-05-21 15:21:45.400000+09:00,2024,5,21,6,21,45,400,,,,,,,,,0.119385,0.02124,-0.41626,6.652832,-98.632812,106.201172,,,,,,,,,,,0.0,1.0,1.0,3.0,0.0,0.0,0.0,5.0,0.0,0.03134116000000001,0.17494464,1.02999024,10.771484360000002,8.1982422,10.498860706666665,43.91708236923629,-9.054736847623538,22.872301991648154,61.46479600537919,0.12000269808931674,-32.488153020170124,69.52277062439626,1.3911242807736504,67.9618837225946,1.3416536506726988,0.08804384,-0.15370464,-1.4462502400000001,1.6879987200000002,1.4570575111571722,0.8366285410285523,0.9088188095673857,0.9154268378319373
LBP07_S03,LBP07,-1489,162,3,161,-1489,1716272505.44,2024-05-21 06:21:45.440000+00:00,2024-05-21 15:21:45.440000+09:00,2024,5,21,6,21,45,440,,,,,,,,,0.293457,-0.181396,0.18042,-13.183594,-104.309082,94.299316,,,,,,,,,,,0.0,1.0,1.0,3.0,0.0,0.0,0.0,5.0,0.0,0.03826498666666667,0.1675162533333333,1.0157194133333334,8.647460920000002,9.014485693333333,12.078450546666666,35.84035084879249,-4.6922115941457685,23.707916021548755,62.89841003933089,-0.06768576567651399,-31.539836379308174,70.36317108880333,1.3434488656822559,68.57611580567075,1.346465979572337,0.25519201333333336,-0.3489122533333333,-0.8352994133333334,1.43940368,0.9405252969007667,0.8186391076749344,0.9129693175178575,0.9151389237928826
LBP07_S03,LBP07,-1488,163,3,162,-1488,1716272505.48,2024-05-21 06:21:45.480000+00:00,2024-05-21 15:21:45.480000+09:00,2024,5,21,6,21,45,480,,,,,,,,,0.725342,-0.134277,0.787842,61.523438,-11.413574,48.522949,,,,,,,,,,,0.0,1.0,1.0,3.0,0.0,0.0,0.0,5.0,0.0,0.04163086666666667,0.16069333333333333,1.00048504,9.020182280000002,9.501139333333334,13.3528646,23.18963694094154,0.16942877982281465,22.752271920585674,63.825995516968554,-0.06090861448360141,-30.629745502484745,70.79507555712044,1.3144025528466659,68.8767295520362,1.3510585197133265,0.6837111333333333,-0.29497033333333333,-0.21264304,1.1913245066666667,0.7743936168714012,0.7994092272422848,0.9101983003785219,0.9088206994949447
LBP07_S03,LBP07,-1487,164,3,163,-1487,1716272505.52,2024-05-21 06:21:45.520000+00:00,2024-05-21 15:21:45.520000+09:00,2024,5,21,6,21,45,520,,,,,,,,,0.179932,0.562744,1.133789,223.632812,47.851562,-21.54541,,,,,,,,,,,0.0,1.0,1.0,3.0,0.0,0.0,0.0,5.0,0.0,0.04184570666666668,0.18115232,0.99332684,10.87646482666667,7.609863293333333,13.300781266666666,6.753608298421163,5.210670331123198,20.670434804617738,64.0961398489054,0.1475181987613265,-29.802928110300037,70.68628883381214,1.340364243741162,68.88649446570761,1.34663744524572,0.13808629333333333,0.38159168,0.1404621599999999,0.6601401333333332,0.4294294506011754,0.8030398920159478,0.8938843208186559,0.9048815691150083
LBP07_S03,LBP07,-1486,165,3,164,-1486,1716272505.56,2024-05-21 06:21:45.560000+00:00,2024-05-21 15:21:45.560000+09:00,2024,5,21,6,21,45,560,,,,,,,,,-0.356201,-0.095459,2.070068,44.73877,-10.498047,-33.02002,,,,,,,,,,,0.0,1.0,1.0,3.0,0.0,0.0,0.0,5.0,0.0,0.04751628000000001,0.18586911999999997,1.0021158933333334,7.8092447733333366,7.775065106666666,12.195638039999999,-10.876215343709205,9.810746145976312,18.4249069700174,63.66109123515702,0.539948044600379,-29.06593183149934,69.98467313901824,1.316697991690689,68.66196025014521,1.336018048828356,-0.40371728,-0.28132811999999996,1.0679521066666666,1.7529975066666665,1.175863451004029,0.8068983371616218,0.9020283057927465,0.9059007041633625
LBP07_S03,LBP07,-1485,166,3,165,-1485,1716272505.6,2024-05-21 06:21:45.600000+00:00,2024-05-21 15:21:45.600000+09:00,2024,5,21,6,21,45,600,,,,,,,,,0.164795,1.256348,1.415527,23.010254,17.39502,-58.71582,,,,,,,,,,,0.0,1.0,1.0,3.0,0.0,0.0,0.0,5.0,0.0,0.03966472000000001,0.18436846666666667,0.9977115866666668,1.8986002533333355,8.682454426666666,13.097330746666666,-25.775575490905613,13.361321315150706,16.808074700363846,62.6300682155208,1.0744008972064072,-28.393608843484788,68.77409981326927,1.3555741083834485,68.28937512295809,1.3260050104679921,0.12513027999999998,1.0719795333333333,0.41781541333333316,1.6149252266666665,1.1573104278789392,0.8145502468627197,0.9039972696483801,0.9072649599556126
LBP07_S03,LBP07,-1484,167,3,166,-1484,1716272505.64,2024-05-21 06:21:45.640000+00:00,2024-05-21 15:21:45.640000+09:00,2024,5,21,6,21,45,640,,,,,,,,,0.14209,0.230713,1.237549,-233.337402,130.493164,-28.625488,,,,,,,,,,,0.0,1.0,1.0,3.0,0.0,0.0,0.0,5.0,0.0,0.03203777333333334,0.16604489333333333,0.98233724,-2.0670572933333307,8.40820312,14.956054706666666,-33.814916310236974,15.61873463198863,16.10272899958356,61.27747156311132,1.6991502824859523,-27.749499683501444,67.28930350014805,1.377654916659314,67.87472688023416,1.3118166230800976,0.11005222666666666,0.06466810666666667,0.25521176,0.4299320933333333,0.2853532881472375,0.8066611755600204,0.8881170793409531,0.8928311879709789
LBP07_S03,LBP07,-1483,168,3,167,-1483,1716272505.68,2024-05-21 06:21:45.680000+00:00,2024-05-21 15:21:45.680000+09:00,2024,5,21,6,21,45,680,,,,,,,,,-0.501953,-0.503418,0.065918,-201.660156,70.43457,78.369141,,,,,,,,,,,0.0,1.0,1.0,3.0,0.0,0.0,0.0,5.0,0.0,0.04336914666666667,0.15794593333333334,0.9662206933333333,-1.7333984399999975,6.548665359999999,16.706542986666665,-32.09584754799277,16.90298591273485,16.047255906913527,59.993637661191606,2.3752697189953462,-27.107609447224903,65.87640667191556,1.29969252269322,67.53044342705739,1.3059279441185052,-0.5453221466666667,-0.6613639333333334,-0.9003026933333332,2.1069887733333332,1.2431103875290133,0.8327212726621498,0.8922529649961471,0.8982522996344419
LBP07_S03,LBP07,-1482,169,3,168,-1482,1716272505.72,2024-05-21 06:21:45.720000+00:00,2024-05-21 15:21:45.720000+09:00,2024,5,21,6,21,45,720,,,,,,,,,0.15918,0.259033,0.071533,-43.395996,-70.861816,77.514648,,,,,,,,,,,0.0,1.0,1.0,3.0,0.0,0.0,0.0,5.0,0.0,0.0488444,0.15173825333333332,0.9497135333333333,-0.012207026666664168,8.212076813333333,16.49576825333333,-20.113217970710846,18.01846560459968,16.102335387184947,59.18910894236317,3.0960083431793333,-26.463516031737505,64.9095799232594,1.2560657022439927,67.36102793495486,1.3099888205119248,0.11033559999999998,0.10729474666666669,-0.8781805333333333,1.09581088,0.8915644432205907,0.8368797389285245,0.8875864658147492,0.8882778872400873
LBP07_S03,LBP07,-1481,170,3,169,-1481,1716272505.76,2024-05-21 06:21:45.760000+00:00,2024-05-21 15:21:45.760000+09:00,2024,5,21,6,21,45,760,,,,,,,,,0.50293,-0.279785,0.868896,-79.956055,-54.6875,108.337402,,,,,,,,,,,0.0,1.0,1.0,3.0,0.0,0.0,0.0,5.0,0.0,0.04721028000000001,0.15128251999999998,0.9417643200000001,2.258300773333336,7.006022119999999,16.544596373333334,-0.12223477057817067,19.909167307951563,15.841302097817982,59.184219551540046,3.8923750354973956,-25.829863947824787,64.69238207783818,1.2650249199655221,67.44879734911348,1.3149764060324247,0.45571972,-0.43106752,-0.0728683200000001,0.9596555600000001,0.6315136277670111,0.8328212204766544,0.8974871355962445,0.8825944829637471
LBP07_S03,LBP07,-1480,171,3,170,-1480,1716272505.8,2024-05-21 06:21:45.800000+00:00,2024-05-21 15:21:45.800000+09:00,2024,5,21,6,21,45,800,,,,,,,,,0.326416,-0.23584,1.296143,174.865723,25.085449,-26.489258,,,,,,,,,,,0.0,1.0,1.0,3.0,0.0,0.0,0.0,5.0,0.0,0.051875,0.15757158666666668,0.9621777333333333,1.867675773333336,5.990397119999999,16.04003908,23.459788577839255,23.211130805914678,15.22578939143196,60.122611094653614,4.820820267733983,-25.220832372167507,65.37628819715702,1.2492404068947074,67.84025409835593,1.3139624402814865,0.274541,-0.39341158666666665,0.3339652666666667,1.0019178533333335,0.5845324940021058,0.8446878327859132,0.890005535562415,0.8780144696152117
LBP07_S03,LBP07,-1479,172,3,171,-1479,1716272505.84,2024-05-21 06:21:45.840000+00:00,2024-05-21 15:21:45.840000+09:00,2024,5,21,6,21,45,840,,,,,,,,,-0.288574,0.06665,1.599121,214.172363,46.264648,-42.175293,,,,,,,,,,,0.0,1.0,1.0,3.0,0.0,0.0,0.0,5.0,0.0,0.04736002666666667,0.16295244,0.9756673066666667,2.5130208266666694,7.71077472,14.285481786666667,45.349778086382685,27.924181106202095,14.621350156629056,61.93660221810892,5.937787511982067,-24.635978365902346,66.92033655703558,1.2845620760663312,68.53434466407579,1.306562672326439,-0.33593402666666666,-0.09630244,0.6234536933333333,1.05569016,0.7147169635271072,0.8221924600793957,0.892229079821249,0.8785257524078223
LBP07_S03,LBP07,-1478,173,3,172,-1478,1716272505.88,2024-05-21 06:21:45.880000+00:00,2024-05-21 15:21:45.880000+09:00,2024,5,21,6,21,45,880,,,,,,,,,0.30249,0.909912,1.643555,166.07666,-23.55957,-22.399902,,,,,,,,,,,0.0,1.0,1.0,3.0,0.0,0.0,0.0,5.0,0.0,0.03495769333333334,0.16160477333333334,0.9627538933333333,1.2288411466666693,9.613443986666667,14.625651053333332,60.8419649567877,33.34890332949077,14.585312499105068,64.37028081638043,7.271743645161697,-24.052565865938142,69.10092063609513,1.3550113167808608,69.47556857646995,1.2953327134166945,0.26753230666666666,0.7483072266666667,0.6808011066666668,1.6966406400000003,1.0464355629614772,0.8320985193475916,0.8961476048914356,0.8774247939551646
LBP07_S03,LBP07,-1477,174,3,173,-1477,1716272505.92,2024-05-21 06:21:45.920000+00:00,2024-05-21 15:21:45.920000+09:00,2024,5,21,6,21,45,920,,,,,,,,,0.437012,0.096924,1.598145,-72.143555,102.539062,-2.441406,,,,,,,,,,,0.0,1.0,1.0,3.0,0.0,0.0,0.0,5.0,0.0,0.029339213333333336,0.16301753333333333,0.9453450266666668,0.14241536000000263,7.517903613333333,15.990397146666668,66.85991981927627,38.292200364761044,15.591060092124657,67.04467760915148,8.803431659752139,-23.428923462253156,71.56398297539832,1.3902400989461627,70.5559764577404,1.2901645702292055,0.4076727866666667,-0.06609353333333333,0.6527999733333332,1.1265662933333331,0.7724721751112142,0.8497388679492849,0.8881631384393444,0.8773053770125824
LBP07_S03,LBP07,-1476,175,3,174,-1476,1716272505.96,2024-05-21 06:21:45.960000+00:00,2024-05-21 15:21:45.960000+09:00,2024,5,21,6,21,45,960,,,,,,,,,-0.45752,-0.185059,0.278809,-40.466309,134.58252,38.330078,,,,,,,,,,,0.0,1.0,1.0,3.0,0.0,0.0,0.0,5.0,0.0,0.03787112000000001,0.1414517866666667,0.9336197733333332,-2.4527994933333304,6.11897784,18.45784505333333,62.36510691640929,41.43238235594556,17.85468614117174,69.53928188580785,10.460726953989962,-22.714736016606285,73.89924063144281,1.3065583341813065,71.62897308286945,1.2914557122176316,-0.49539111999999996,-0.32651078666666666,-0.6548107733333333,1.4767126799999999,0.8836282048791437,0.8557504583717938,0.8754541204021296,0.88431227978501
LBP07_S03,LBP07,-1475,176,3,175,-1475,1716272506.0,2024-05-21 06:21:46+00:00,2024-05-21 15:21:46+09:00,2024,5,21,6,21,46,0,6.0,21.0,46.0,40.540535,141.50209,-9.386,3.0,11.0,0.271729,0.488525,0.080322,76.171875,-46.386719,41.625977,-252.0,-15.0,407.0,2305.0,0.0,1019.599976,21.74,0.065405,-52.703289,3.916406,0.0,1.0,1.0,3.0,0.0,0.0,0.0,5.0,0.0,0.042503280000000004,0.14444984,0.9153157333333333,3.4611002533333353,5.656738253333333,19.136555986666668,48.226696265998164,41.69529539254934,21.324951402495262,71.46834973644778,12.128538769691936,-21.861737960506474,75.71500547046791,1.281576428832973,72.53438822960169,1.2961035840926094,0.22922572,0.34407516,-0.8349937333333333,1.4082946133333332,0.9317438924642767,0.853895121728231,0.8677813458831194,0.8771057919802344
LBP07_S03,LBP07,-1474,177,3,176,-1474,1716272506.04,2024-05-21 06:21:46.040000+00:00,2024-05-21 15:21:46.040000+09:00,2024,5,21,6,21,46,40,,,,,,,,,0.354492,0.014893,0.757324,-105.59082,9.277344,102.966309,,,,,,,,,,,0.0,1.0,1.0,3.0,0.0,0.0,0.0,5.0,0.0,0.046458360000000004,0.14908201333333335,0.9180794133333332,1.5372721333333355,4.74283852,19.133300786666666,26.842950047465074,38.52855061291549,25.77786106507594,72.54206773834638,13.669680794208556,-20.830623517903437,76.70154262408951,1.2653553275618692,73.12995759474026,1.3061997585680145,0.30803364,-0.13418901333333336,-0.1607554133333332,0.6029780666666665,0.37246975392237414,0.8423582608530576,0.8507250743799133,0.8693126219960129
LBP07_S03,LBP07,-1473,178,3,177,-1473,1716272506.08,2024-05-21 06:21:46.080000+00:00,2024-05-21 15:21:46.080000+09:00,2024,5,21,6,21,46,80,,,,,,,,,0.332764,-0.198486,1.433105,190.612793,42.907715,-0.610352,,,,,,,,,,,0.0,1.0,1.0,3.0,0.0,0.0,0.0,5.0,0.0,0.05142906666666667,0.15563474666666666,0.9355598800000001,0.9488932266666689,3.046061173333333,17.854817706666665,1.732249178174473,32.041966041931964,30.90308342222927,72.61135770547335,14.951359435885834,-19.594500181014265,76.68048548462004,1.248011090818328,73.32120599314842,1.3073426968319843,0.2813349333333333,-0.35412074666666665,0.49754511999999995,1.1330008,0.6723853020175582,0.8295220095619799,0.8477567957480987,0.8653745649951948
LBP07_S03,LBP07,-1472,179,3,178,-1472,1716272506.12,2024-05-21 06:21:46.120000+00:00,2024-05-21 15:21:46.120000+09:00,2024,5,21,6,21,46,120,,,,,,,,,-0.149658,0.868896,1.475586,144.287109,63.720703,4.455566,,,,,,,,,,,0.0,1.0,1.0,3.0,0.0,0.0,0.0,5.0,0.0,0.049121120000000004,0.15978513333333333,0.9489387866666665,-1.9091796933333307,4.650878893333333,16.950683586666667,-22.895911946547372,23.039929805961833,36.305431714584756,71.69552122761145,15.872956628124307,-18.142282912430876,75.63954617454999,1.2689771221282549,73.0812908796325,1.2934307231325959,-0.19877912000000003,0.7091108666666667,0.5266472133333335,1.4345372000000003,0.9053776267859126,0.816992508021996,0.8452771337050806,0.8719818292141215
LBP07_S03,LBP07,-1471,180,3,179,-1471,1716272506.16,2024-05-21 06:21:46.160000+00:00,2024-05-21 15:21:46.160000+09:00,2024,5,21,6,21,46,160,,,,,,,,,-0.153076,0.494141,1.709717,-144.40918,-3.234863,28.625488,,,,,,,,,,,0.0,1.0,1.0,3.0,0.0,0.0,0.0,5.0,0.0,0.03998374666666667,0.15254554666666667,0.9452408666666666,-3.731282559999998,6.811523413333333,16.608886706666667,-42.72271812680516,12.959835788180165,41.43685099371037,69.98661250253924,16.391350059651515,-16.48480887268246,73.74653354516056,1.3115036387153016,72.45524308843184,1.2763646111048819,-0.19305974666666664,0.3415954533333333,0.7644761333333333,1.2991313333333334,0.8592923122880172,0.8227480144714303,0.8392416319056482,0.8719508936731106
LBP07_S03,LBP07,-1470,181,3,180,-1470,1716272506.2,2024-05-21 06:21:46.200000+00:00,2024-05-21 15:21:46.200000+09:00,2024,5,21,6,21,46,200,,,,,,,,,0.028564,0.666748,1.179199,-89.84375,55.297852,-10.620117,,,,,,,,,,,0.0,1.0,1.0,3.0,0.0,0.0,0.0,5.0,0.0,0.03348309333333333,0.15117836,0.9298762800000001,-4.0250651066666645,4.994303373333333,17.957356760000003,-54.13414978855134,3.6883349348452823,45.55210900440689,67.82124651099718,16.538883457045326,-14.662724512506186,71.3319818485427,1.3502021516487583,71.54837796167577,1.2660713130408725,-0.0049190933333333325,0.51556964,0.24932272,0.7698114533333333,0.572711157458234,0.813936053545917,0.8222168221261481,0.8689393080624658
LBP07_S03,LBP07,-1469,182,3,181,-1469,1716272506.24,2024-05-21 06:21:46.240000+00:00,2024-05-21 15:21:46.240000+09:00,2024,5,21,6,21,46,240,,,,,,,,,-0.386963,0.227051,-0.131592,-175.537109,31.616211,46.813965,,,,,,,,,,,0.0,1.0,1.0,3.0,0.0,0.0,0.0,5.0,0.0,0.04044924,0.14513018666666666,0.9122590933333333,-5.128580733333331,3.5253906133333324,19.61669921333333,-55.12531531929494,-2.777810067648888,47.785888122705536,65.61623389822539,16.42777105433937,-12.751288987597965,68.83282054111723,1.2959914587060288,70.50380919823931,1.262403893261694,-0.42741224,0.08192081333333334,-1.0438510933333334,1.5531841466666667,1.1309364914141766,0.8440274168595963,0.8311547474139913,0.8759383599751221
LBP07_S03,LBP07,-1468,183,3,182,-1468,1716272506.28,2024-05-21 06:21:46.280000+00:00,2024-05-21 15:21:46.280000+09:00,2024,5,21,6,21,46,280,,,,,,,,,0.167725,-0.506836,0.224609,-203.735352,-44.555664,125.732422,,,,,,,,,,,0.0,1.0,1.0,3.0,0.0,0.0,0.0,5.0,0.0,0.049560560000000003,0.135013,0.9037402133333334,-3.991699226666664,3.5538736799999993,20.056152346666668,-45.94744846618199,-4.806610421683047,47.37588609436645,63.77833595957811,16.23550663747205,-10.856253543823307,66.70176950093595,1.215891579786976,69.47603091852969,1.263443805344681,0.11816444000000001,-0.6418489999999999,-0.6791312133333334,1.4391446533333334,0.9418875615513346,0.8497147354614483,0.8239956036633529,0.8723248593639865
LBP07_S03,LBP07,-1467,184,3,183,-1467,1716272506.32,2024-05-21 06:21:46.320000+00:00,2024-05-21 15:21:46.320000+09:00,2024,5,21,6,21,46,320,,,,,,,,,0.228271,-0.228027,0.527588,62.866211,-102.233887,65.917969,,,,,,,,,,,0.0,1.0,1.0,3.0,0.0,0.0,0.0,5.0,0.0,0.049140626666666666,0.1354133866666667,0.90303384,-2.1826171866666644,3.211262999999999,19.291178386666665,-29.1507797323275,-1.6356717643840226,43.95361651693208,62.61230477028501,16.170079766896688,-9.098108883146024,65.30350506339178,1.219578978669023,68.60589531972347,1.2727705838720604,0.17913037333333334,-0.36344038666666667,-0.37544584000000003,0.9180166000000001,0.5523913323761164,0.8458022342935463,0.8146059659314647,0.8732203577184606
