file_name,test_id,_program_index,program_index,session_id,index,_index,unixtime,datetime_utc,datetime_jst,rtc_year,rtc_month,rtc_day,rtc_hour,rtc_min,rtc_sec,rtc_msec,gps_hour,gps_min,gps_sec,latitude,longitude,altitude,fix_type,SIV,acc_x,acc_y,acc_z,gyro_x,gyro_y,gyro_z,mag_x,mag_y,mag_z,illuminance,atmopress,water_pressure,water_temp,depth,alt_wps,battery_level,behavior_class,camera_command,camera_recording,camera_count,play_audio,speaker_on,audio_file,prev_sd_write_time_ms,delay_occurred_counter,acc_x_ma,acc_y_ma,acc_z_ma,gyro_x_ma,gyro_y_ma,gyro_z_ma,gyro_x_lowpass,gyro_y_lowpass,gyro_z_lowpass,angle_x,angle_y,angle_z,combined_angle_change,gravity_adjusted_angle,smoothed_angle_change,smoothed_gravity_angle,acc_x_dy,acc_y_dy,acc_z_dy,ODBA,VeDBA,smoothed_VeDBA_1s,smoothed_VeDBA_2s,smoothed_VeDBA_3s
LBP07_S05,LBP07,-1650,1,5,0,-1650,1716328817.0,2024-05-21 22:00:17+00:00,2024-05-22 07:00:17+09:00,2024,5,21,22,0,17,0,22.0,0.0,16.0,40.551117,141.570312,20.877001,3.0,6.0,-0.262939,0.530518,1.685791,60.424805,17.272949,-77.880859,-231.0,-34.0,395.0,3706.0,0.0,1023.799988,25.139999,0.107026,-87.416542,3.817969,0.0,1.0,1.0,5.0,0.0,0.0,0.0,6.0,0.0,,,,,,,60.04998108722877,18.308058687668098,-77.47332469862305,2.401999243489151,0.7323223475067239,-3.098932987944922,3.9886441368155987,,6.774137901451402,,,,,,,,,
LBP07_S05,LBP07,-1649,2,5,1,-1649,1716328817.04,2024-05-21 22:00:17.040000+00:00,2024-05-22 07:00:17.040000+09:00,2024,5,21,22,0,17,40,,,,,,,,,-0.134766,0.346191,1.847168,26.000977,-77.026367,-30.029297,,,,,,,,,,,0.0,1.0,1.0,5.0,0.0,0.0,0.0,6.0,0.0,,,,,,,32.55628146357638,11.975131256963651,-52.65717350405255,3.704250502032206,1.21132759778527,-5.205219928107024,6.502545719249083,,6.84381616183713,,,,,,,,,
LBP07_S05,LBP07,-1648,3,5,2,-1648,1716328817.08,2024-05-21 22:00:17.080000+00:00,2024-05-22 07:00:17.080000+09:00,2024,5,21,22,0,17,80,,,,,,,,,0.084473,0.095459,1.254639,-23.803711,73.486328,-39.001465,,,,,,,,,,,0.0,1.0,1.0,5.0,0.0,0.0,0.0,6.0,0.0,,,,,,,8.10063026229728,6.329771480199461,-30.57018999981951,4.028275712524097,1.4645184569932486,-6.428027528099804,7.726018213089734,,6.844974072870826,,,,,,,,,
LBP07_S05,LBP07,-1647,4,5,3,-1647,1716328817.12,2024-05-21 22:00:17.120000+00:00,2024-05-22 07:00:17.120000+09:00,2024,5,21,22,0,17,120,,,,,,,,,-0.578369,-0.237549,0.042725,-49.926758,48.828125,33.02002,,,,,,,,,,,0.0,1.0,1.0,5.0,0.0,0.0,0.0,6.0,0.0,,,,,,,-10.99693072936146,1.953867575321195,-13.328650604816959,3.5883984833496387,1.5426731600060963,-6.9611735522924825,7.982128875121318,,6.838452664270328,,,,,,,,,
LBP07_S05,LBP07,-1646,5,5,4,-1646,1716328817.16,2024-05-21 22:00:17.160000+00:00,2024-05-22 07:00:17.160000+09:00,2024,5,21,22,0,17,160,,,,,,,,,-0.032959,0.17041,0.03833,-85.021973,-64.575195,45.288086,,,,,,,,,,,0.0,1.0,1.0,5.0,0.0,0.0,0.0,6.0,0.0,,,,,,,-23.56956557672126,-0.8765853478348935,-1.9988544581356316,2.645615860280788,1.5076097460927005,-7.041127730617908,7.671352562981279,,6.855621210791487,,,,,,,,,
LBP07_S05,LBP07,-1645,6,5,5,-1645,1716328817.2,2024-05-21 22:00:17.200000+00:00,2024-05-22 07:00:17.200000+09:00,2024,5,21,22,0,17,200,,,,,,,,,0.512451,-0.172363,0.834961,-53.710938,-85.083008,36.315918,,,,,,,,,,,0.0,1.0,1.0,5.0,0.0,0.0,0.0,6.0,0.0,,,,,,,-29.72598779384285,-2.243284605451805,3.5538210864060513,1.4565763485270742,1.4178783618746282,-6.898974887161666,7.1922074637657705,,6.905125685131475,,,,,,,,,
LBP07_S05,LBP07,-1644,7,5,6,-1644,1716328817.24,2024-05-21 22:00:17.240000+00:00,2024-05-22 07:00:17.240000+09:00,2024,5,21,22,0,17,240,,,,,,,,,0.543213,0.04248,1.27832,67.993164,56.213379,-37.04834,,,,,,,,,,,0.0,1.0,1.0,5.0,0.0,0.0,0.0,6.0,0.0,,,,,,,-30.590794777878823,-2.541608575420664,4.467403820310099,0.23294455741192133,1.3162140188578018,-6.720278734349262,6.851921539073004,,7.283190961230851,,,,,,,,,
LBP07_S05,LBP07,-1643,8,5,7,-1643,1716328817.28,2024-05-21 22:00:17.280000+00:00,2024-05-22 07:00:17.280000+09:00,2024,5,21,22,0,17,280,,,,,,,,,-0.291992,0.361328,1.665283,24.169922,47.790527,-67.932129,,,,,,,,,,,0.0,1.0,1.0,5.0,0.0,0.0,0.0,6.0,0.0,,,,,,,-27.78649637996011,-2.321924374465737,2.413665196348204,-0.878515297786483,1.2233370438791722,-6.623732126495334,6.792802804066838,,7.451988050521893,,,,,,,,,
LBP07_S05,LBP07,-1642,9,5,8,-1642,1716328817.32,2024-05-21 22:00:17.320000+00:00,2024-05-22 07:00:17.320000+09:00,2024,5,21,22,0,17,320,,,,,,,,,-0.070068,0.209229,1.797852,-22.033691,-51.635742,-28.259277,,,,,,,,,,,0.0,1.0,1.0,5.0,0.0,0.0,0.0,6.0,0.0,,,,,,,-22.88658565715795,-2.0598455387186774,-0.9553242884430899,-1.793978724072801,1.140943222330425,-6.6619450980330575,6.992969582960753,,7.538592375427887,,,,,,,,,
LBP07_S05,LBP07,-1641,10,5,9,-1641,1716328817.36,2024-05-21 22:00:17.360000+00:00,2024-05-22 07:00:17.360000+09:00,2024,5,21,22,0,17,360,,,,,,,,,0.150879,0.431885,1.135254,5.615234,64.39209,-32.226562,,,,,,,,,,,0.0,1.0,1.0,5.0,0.0,0.0,0.0,6.0,0.0,,,,,,,-17.058935337338408,-1.9603032588480225,-4.424829886990789,-2.4763361375663373,1.062531091976504,-6.8389382935126894,7.350665954191362,,7.637876520005809,,,,,,,,,
LBP07_S05,LBP07,-1640,11,5,10,-1640,1716328817.4,2024-05-21 22:00:17.400000+00:00,2024-05-22 07:00:17.400000+09:00,2024,5,21,22,0,17,400,,,,,,,,,-0.588135,-0.176758,-0.031982,-50.65918,56.274414,29.11377,,,,,,,,,,,0.0,1.0,1.0,5.0,0.0,0.0,0.0,6.0,0.0,,,,,,,-10.99473519682962,-1.8976584787618436,-7.360424900416169,-2.916125545439522,0.9866247528260303,-7.133355289529336,7.76929689780936,,7.805761197420667,,,,,,,,,
LBP07_S05,LBP07,-1639,12,5,11,-1639,1716328817.44,2024-05-21 22:00:17.440000+00:00,2024-05-22 07:00:17.440000+09:00,2024,5,21,22,0,17,440,,,,,,,,,-0.01123,0.405273,0.009033,-57.739258,-83.862305,38.208008,,,,,,,,,,,0.0,1.0,1.0,5.0,0.0,0.0,0.0,6.0,0.0,,,,,,,-5.062022225426476,-1.5283433722022464,-9.586184972441115,-3.118606434456581,0.9254910179379405,-7.516802688426981,8.19051661215951,,8.059343218154435,,,,,,,,,
LBP07_S05,LBP07,-1638,13,5,12,-1638,1716328817.48,2024-05-21 22:00:17.480000+00:00,2024-05-22 07:00:17.480000+09:00,2024,5,21,22,0,17,480,,,,,,,,,0.527344,-0.320068,0.796631,-57.189941,-103.69873,55.419922,,,,,,,,,,,0.0,1.0,1.0,5.0,0.0,0.0,0.0,6.0,0.0,,,,,,,0.4745339868031673,-0.5211551275279934,-11.136241290357411,-3.0996250749844543,0.9046448128368207,-7.962252340041278,8.592061462149683,,8.385379125179295,,,,,,,,,
LBP07_S05,LBP07,-1637,14,5,13,-1637,1716328817.52,2024-05-21 22:00:17.520000+00:00,2024-05-22 07:00:17.520000+09:00,2024,5,21,22,0,17,520,,,,,,,,,0.611572,0.095947,1.34668,68.115234,67.871094,-42.236328,,,,,,,,,,,0.0,1.0,1.0,5.0,0.0,0.0,0.0,6.0,0.0,,,,,,,5.3213900987609835,1.2224341522524556,-12.052981315816737,-2.886769471034015,0.953542178926919,-8.444371592673948,8.974970320900535,,8.756028346759049,,,,,,,,,
LBP07_S05,LBP07,-1636,15,5,14,-1636,1716328817.56,2024-05-21 22:00:17.560000+00:00,2024-05-22 07:00:17.560000+09:00,2024,5,21,22,0,17,560,,,,,,,,,-0.236084,0.487549,1.661621,56.152344,35.522461,-73.730469,,,,,,,,,,,0.0,1.0,1.0,5.0,0.0,0.0,0.0,6.0,0.0,,,,,,,9.171100325655654,3.484168477922982,-12.332192213413615,-2.5199254580077888,1.0929089180438383,-8.937659281210491,9.350199337129855,,9.144632447978754,,,,,,,,,
LBP07_S05,LBP07,-1635,16,5,15,-1635,1716328817.6,2024-05-21 22:00:17.600000+00:00,2024-05-22 07:00:17.600000+09:00,2024,5,21,22,0,17,600,,,,,,,,,-0.005371,0.295166,1.837891,26.794434,-62.561035,-33.02002,,,,,,,,,,,0.0,1.0,1.0,5.0,0.0,0.0,0.0,6.0,0.0,,,,,,,11.80527098119752,5.818202510029615,-11.989072625988234,-2.047714618759888,1.3256370184450228,-9.41722218625002,9.72802767110345,,9.533150778999794,,,,,,,,,
LBP07_S05,LBP07,-1634,17,5,16,-1634,1716328817.64,2024-05-21 22:00:17.640000+00:00,2024-05-22 07:00:17.640000+09:00,2024,5,21,22,0,17,640,,,,,,,,,0.189941,0.198242,1.359863,14.221191,80.13916,-26.367188,,,,,,,,,,,0.0,1.0,1.0,5.0,0.0,0.0,0.0,6.0,0.0,,,,,,,13.170326716877467,7.745531812140438,-11.133779969670982,-1.5209015500847891,1.6354582909306403,-9.86257338503686,10.112280609321594,,9.911242763570309,,,,,,,,,
LBP07_S05,LBP07,-1633,18,5,17,-1633,1716328817.68,2024-05-21 22:00:17.680000+00:00,2024-05-22 07:00:17.680000+09:00,2024,5,21,22,0,17,680,,,,,,,,,-0.606201,-0.281006,0.073975,-44.677734,82.824707,29.968262,,,,,,,,,,,0.0,1.0,1.0,5.0,0.0,0.0,0.0,6.0,0.0,,,,,,,13.356204371093963,8.941137870799777,-9.962038592712023,-0.9866533752410306,1.9931038057626314,-10.261054928745342,10.499295019864386,,10.272544634387224,,,,,,,,,
LBP07_S05,LBP07,-1632,19,5,18,-1632,1716328817.72,2024-05-21 22:00:17.720000+00:00,2024-05-22 07:00:17.720000+09:00,2024,5,21,22,0,17,720,,,,,,,,,0.042725,0.309326,0.036377,4.638672,-65.124512,30.517578,,,,,,,,,,,0.0,1.0,1.0,5.0,0.0,0.0,0.0,6.0,0.0,,,,,,,12.504909133747038,9.323990511465812,-8.659852585731015,-0.48645700989114904,2.366063426221264,-10.607449032174582,10.879010595157798,,10.612071208618238,,,,,,,,,
LBP07_S05,LBP07,-1631,20,5,19,-1631,1716328817.76,2024-05-21 22:00:17.760000+00:00,2024-05-22 07:00:17.760000+09:00,2024,5,21,22,0,17,760,,,,,,,,,0.583984,0.078857,0.847412,-13.671875,-78.735352,41.503906,,,,,,,,,,,0.0,1.0,1.0,5.0,0.0,0.0,0.0,6.0,0.0,,,,,,,10.737647767349262,9.0243698978014,-7.3072693011172944,-0.056951099197178556,2.72703822213332,-10.899739804219275,11.235849264401772,,10.92574302679706,,,,,,,,,
LBP07_S05,LBP07,-1630,21,5,20,-1630,1716328817.8,2024-05-21 22:00:17.800000+00:00,2024-05-22 07:00:17.800000+09:00,2024,5,21,22,0,17,800,,,,,,,,,0.518066,-0.078857,1.585205,19.042969,93.383789,-47.180176,,,,,,,,,,,0.0,1.0,1.0,5.0,0.0,0.0,0.0,6.0,0.0,,,,,,,8.170716799288838,8.278544962942947,-5.874750074314872,0.26987757277437496,3.058180020651038,-11.134729807191869,11.550216743514506,,11.211332044364955,,,,,,,,,
LBP07_S05,LBP07,-1629,22,5,21,-1629,1716328817.84,2024-05-21 22:00:17.840000+00:00,2024-05-22 07:00:17.840000+09:00,2024,5,21,22,0,17,840,,,,,,,,,-0.491943,0.395508,1.841064,82.702637,29.052734,-76.293945,,,,,,,,,,,0.0,1.0,1.0,5.0,0.0,0.0,0.0,6.0,0.0,,,,,,,5.01280080601069,7.333149993123603,-4.330343286262819,0.47038960501480254,3.351506020375982,-11.307943538642382,11.803535320328669,,11.469460108552976,,,,,,,,,
LBP07_S05,LBP07,-1628,23,5,22,-1628,1716328817.88,2024-05-21 22:00:17.880000+00:00,2024-05-22 07:00:17.880000+09:00,2024,5,21,22,0,17,880,,,,,,,,,-0.090088,0.222656,1.971436,13.85498,-90.820312,-14.282227,,,,,,,,,,,0.0,1.0,1.0,5.0,0.0,0.0,0.0,6.0,0.0,,,,,,,1.660163177428367,6.40350628446147,-2.7755257251706866,0.5367961321119372,3.6076462717544406,-11.41896456764921,11.987327204459806,,11.703519698057429,,,,,,,,,
LBP07_S05,LBP07,-1627,24,5,23,-1627,1716328817.92,2024-05-21 22:00:17.920000+00:00,2024-05-22 07:00:17.920000+09:00,2024,5,21,22,0,17,920,,,,,,,,,0.137939,0.332031,1.280029,-13.305664,79.406738,-19.104004,,,,,,,,,,,0.0,1.0,1.0,5.0,0.0,0.0,0.0,6.0,0.0,,,,,,,-1.3104280529153234,5.672287777530699,-1.4870061638310401,0.4843790099953243,3.8345377828556684,-11.478444814202453,12.111688502688752,,11.918311740963272,,,,,,,,,
LBP07_S05,LBP07,-1626,25,5,24,-1626,1716328817.96,2024-05-21 22:00:17.960000+00:00,2024-05-22 07:00:17.960000+09:00,2024,5,21,22,0,17,960,,,,,,,,,-0.506592,-0.19165,0.026123,-14.892578,62.011719,48.095703,,,,,,,,,,,0.0,1.0,1.0,5.0,0.0,0.0,0.0,6.0,0.0,,,,,,,-3.288959903114955,5.2915537618003325,-0.8022426151363361,0.35282061387072605,4.0461999333276815,-11.510534518807907,12.206089512808818,,12.118183281842025,,,,,,,,,
LBP07_S05,LBP07,-1625,26,5,25,-1625,1716328818.0,2024-05-21 22:00:18+00:00,2024-05-22 07:00:18+09:00,2024,5,21,22,0,18,0,22.0,0.0,17.0,40.551174,141.570404,20.753,3.0,6.0,0.138184,0.181152,0.239746,-95.64209,-35.27832,60.424805,-236.0,-34.0,395.0,2905.0,0.0,1024.0,25.129999,0.109008,-89.066772,3.817969,0.0,1.0,1.0,5.0,0.0,0.0,0.0,5.0,0.0,,,,,,,-3.855451955401905,5.357601808359929,-0.9057098825426911,0.19860253565464983,4.260504005662079,-11.546762914109614,12.309308312983644,,12.30579433192066,,,,,,,,,
LBP07_S05,LBP07,-1624,27,5,26,-1624,1716328818.04,2024-05-21 22:00:18.040000+00:00,2024-05-22 07:00:18.040000+09:00,2024,5,21,22,0,18,40,,,,,,,,,0.592285,-0.173828,0.806885,-19.836426,-94.177246,50.842285,,,,,,,,,,,0.0,1.0,1.0,5.0,0.0,0.0,0.0,5.0,0.0,,,,,,,-2.947888046726217,5.852821829727343,-1.6605264296383093,0.08068701378560116,4.494616878851173,-11.613183971295147,12.45287650436613,,12.482131584867304,,,,,,,,,
LBP07_S05,LBP07,-1623,28,5,27,-1623,1716328818.08,2024-05-21 22:00:18.080000+00:00,2024-05-22 07:00:18.080000+09:00,2024,5,21,22,0,18,80,,,,,,,,,0.344482,0.115234,1.398682,52.368164,85.754395,-47.668457,,,,,,,,,,,0.0,1.0,1.0,5.0,0.0,0.0,0.0,5.0,0.0,,,,,,,-0.8664918540999582,6.590955737459624,-2.617653242867872,0.046027339621602825,4.758255108349558,-11.717890101009862,12.647215448922827,,12.647405045993462,,,,,,,,,
LBP07_S05,LBP07,-1622,29,5,28,-1622,1716328818.12,2024-05-21 22:00:18.120000+00:00,2024-05-22 07:00:18.120000+09:00,2024,5,21,22,0,18,120,,,,,,,,,-0.461914,0.34082,1.744141,77.941895,10.314941,-90.881348,,,,,,,,,,,0.0,1.0,1.0,5.0,0.0,0.0,0.0,5.0,0.0,,,,,,,1.887795796028268,7.224757879296633,-3.2224295166023604,0.12153917146273355,5.0472454235214235,-11.846787281673956,12.877726003945323,,12.801760075569685,,,,,,,,,
LBP07_S05,LBP07,-1621,30,5,29,-1621,1716328818.16,2024-05-21 22:00:18.160000+00:00,2024-05-22 07:00:18.160000+09:00,2024,5,21,22,0,18,160,,,,,,,,,0.030029,0.163818,1.892334,4.882812,-66.345215,-15.075684,,,,,,,,,,,0.0,1.0,1.0,5.0,0.0,0.0,0.0,5.0,0.0,,,,,,,4.827904052490816,7.341172092841724,-3.099584534559298,0.3146553335623662,5.340892307235093,-11.970770663056328,13.111959765188127,,12.944927313288764,,,,,,,,,
LBP07_S05,LBP07,-1620,31,5,30,-1620,1716328818.2,2024-05-21 22:00:18.200000+00:00,2024-05-22 07:00:18.200000+09:00,2024,5,21,22,0,18,200,,,,,,,,,0.102539,0.378418,1.011963,10.620117,107.36084,-34.240723,,,,,,,,,,,0.0,1.0,1.0,5.0,0.0,0.0,0.0,5.0,0.0,,,,,,,7.6050126341939785,6.609344768346139,-2.237023523001823,0.6188558389301253,5.605266097968938,-12.0602516039764,13.313589272980941,,13.074962529874238,,,,,,,,,
LBP07_S05,LBP07,-1619,32,5,31,-1619,1716328818.24,2024-05-21 22:00:18.240000+00:00,2024-05-22 07:00:18.240000+09:00,2024,5,21,22,0,18,240,,,,,,,,,-0.391357,-0.005859,0.013672,-34.057617,15.930176,56.945801,,,,,,,,,,,0.0,1.0,1.0,5.0,0.0,0.0,0.0,5.0,0.0,,,,,,,9.981547909139666,4.913859667525409,-0.9560172339126068,1.018117755295712,5.801820484669954,-12.098492293332905,13.456269931590253,,13.187303563080055,,,,,,,,,
LBP07_S05,LBP07,-1618,33,5,32,-1618,1716328818.28,2024-05-21 22:00:18.280000+00:00,2024-05-22 07:00:18.280000+09:00,2024,5,21,22,0,18,280,,,,,,,,,0.090088,-0.092285,0.344727,-93.322754,-24.169922,60.791016,,,,,,,,,,,0.0,1.0,1.0,5.0,0.0,0.0,0.0,5.0,0.0,,,,,,,11.718469096233767,2.411934103482373,0.2992862418271572,1.4868565191450624,5.898297848809249,-12.086520843659818,13.530877500222047,,13.275517902632933,,,,,,,,,
LBP07_S05,LBP07,-1617,34,5,33,-1617,1716328818.32,2024-05-21 22:00:18.320000+00:00,2024-05-22 07:00:18.320000+09:00,2024,5,21,22,0,18,320,,,,,,,,,0.655518,-0.091064,0.881836,29.11377,-70.373535,46.691895,,,,,,,,,,,0.0,1.0,1.0,5.0,0.0,0.0,0.0,5.0,0.0,,,,,,,12.511241970644477,-0.5078002115196798,1.2035964396614915,1.9873061979708415,5.877985840348462,-12.038376986073358,13.54336087987952,,13.334041352772257,1.3569805666485635,,,,,,,,
LBP07_S05,LBP07,-1616,35,5,34,-1616,1716328818.36,2024-05-21 22:00:18.360000+00:00,2024-05-22 07:00:18.360000+09:00,2024,5,21,22,0,18,360,,,,,,,,,0.066406,0.259521,1.214844,130.310059,56.884766,-37.658691,,,,,,,,,,,0.0,1.0,1.0,5.0,0.0,0.0,0.0,5.0,0.0,,,,,,,12.063499108263233,-3.3321596741699624,1.6662417357948258,2.469846162301371,5.7446994533816635,-11.971727316641564,13.506441678663563,,13.361695362251396,1.308251674061996,,,,,,,,
LBP07_S05,LBP07,-1615,36,5,35,-1615,1716328818.4,2024-05-21 22:00:18.400000+00:00,2024-05-22 07:00:18.400000+09:00,2024,5,21,22,0,18,400,,,,,,,,,-0.406494,0.332275,1.878418,15.563965,-8.117676,-70.251465,,,,,,,,,,,0.0,1.0,1.0,5.0,0.0,0.0,0.0,5.0,0.0,,,,,,,10.260522550708979,-5.535034229124694,1.76674490182639,2.8802670643297303,5.523298084216676,-11.901057520568509,13.432718645041833,,13.363994395470073,1.282627151365867,,,,,,,,
LBP07_S05,LBP07,-1614,37,5,36,-1614,1716328818.44,2024-05-21 22:00:18.440000+00:00,2024-05-22 07:00:18.440000+09:00,2024,5,21,22,0,18,440,,,,,,,,,0.065186,0.510254,1.769287,11.657715,-61.889648,-19.897461,,,,,,,,,,,0.0,1.0,1.0,5.0,0.0,0.0,0.0,5.0,0.0,,,,,,,7.3032461282571886,-6.657665536159413,1.5928576919114956,3.172396909460018,5.2569914627703,-11.83734321289205,13.33501989989489,,13.352776270822881,1.281355461486424,,,,,,,,
LBP07_S05,LBP07,-1613,38,5,37,-1613,1716328818.48,2024-05-21 22:00:18.480000+00:00,2024-05-22 07:00:18.480000+09:00,2024,5,21,22,0,18,480,,,,,,,,,0.024414,0.077393,0.888672,-6.591797,107.543945,-20.507812,,,,,,,,,,,0.0,1.0,1.0,5.0,0.0,0.0,0.0,5.0,0.0,0.03169924,0.14754233333333333,0.9845866533333333,-1.8261718800000002,-0.017089826666667324,-2.924804693333333,3.6798275872163706,-6.366164718358288,1.1300444772852498,3.3195900129486726,5.002344874035968,-11.792141433800639,13.23244995031609,1.3569805666485635,13.343130123426203,1.2722590485659144,-0.007285239999999995,-0.07014933333333333,-0.09591465333333327,0.17334922666666658,0.11905303193544552,0.11905303193544552,0.11905303193544552,0.11905303193544552
LBP07_S05,LBP07,-1612,39,5,38,-1612,1716328818.52,2024-05-21 22:00:18.520000+00:00,2024-05-22 07:00:18.520000+09:00,2024,5,21,22,0,18,520,,,,,,,,,-0.251221,0.209229,-0.072021,-3.417969,-29.785156,53.649902,,,,,,,,,,,0.0,1.0,1.0,5.0,0.0,0.0,0.0,5.0,0.0,0.04371746666666667,0.13708334666666666,0.9737305333333334,-3.0216471466666666,-1.1743163866666673,-1.2817382933333334,-0.030115546652419126,-4.514835883699373,0.2978609674621866,3.318385391082576,4.821751438687993,-11.78022699510215,13.154266098736693,1.2595227814754286,13.34901969037656,1.2655365768933429,-0.2949384666666667,0.07214565333333334,-1.0457515333333334,1.4128356533333335,1.0889398348318404,0.603996433383643,0.603996433383643,0.603996433383643
LBP07_S05,LBP07,-1611,40,5,39,-1611,1716328818.56,2024-05-21 22:00:18.560000+00:00,2024-05-22 07:00:18.560000+09:00,2024,5,21,22,0,18,560,,,,,,,,,0.090332,-0.087891,0.318604,-138.671875,-45.654297,73.974609,,,,,,,,,,,0.0,1.0,1.0,5.0,0.0,0.0,0.0,5.0,0.0,0.04787437333333333,0.13677085333333333,0.96738288,-2.143554706666667,1.1726888133333326,-1.8489583466666666,-3.4032490530114754,-1.227186839803415,-0.8985430189214552,3.182255428962117,4.772663965095857,-11.816168715859009,13.134950097374885,1.2313781059736084,13.379563964204365,1.270057623642286,0.042457626666666665,-0.22466185333333333,-0.64877888,0.9158983599999999,0.68788780592433,0.6319602242305385,0.6319602242305385,0.6319602242305385
LBP07_S05,LBP07,-1610,41,5,40,-1610,1716328818.6,2024-05-21 22:00:18.600000+00:00,2024-05-22 07:00:18.600000+09:00,2024,5,21,22,0,18,600,,,,,,,,,0.769531,-0.255127,0.92041,8.483887,-72.631836,18.615723,,,,,,,,,,,0.0,1.0,1.0,5.0,0.0,0.0,0.0,5.0,0.0,0.04153322666666667,0.13880536,0.9750423866666668,-1.8465169466666669,0.45654298666666593,-2.2387695466666666,-6.315276755006188,3.03749916500118,-2.2338983865777684,2.9296443587618697,4.894163931695904,-11.90552465132212,13.20140802650903,1.2775403918480952,13.437371427862772,1.278495647707272,0.7279977733333333,-0.39393236,-0.05463238666666681,1.17656252,0.8295469606395752,0.6813569083327977,0.6813569083327977,0.6813569083327977
LBP07_S05,LBP07,-1609,42,5,41,-1609,1716328818.64,2024-05-21 22:00:18.640000+00:00,2024-05-22 07:00:18.640000+09:00,2024,5,21,22,0,18,640,,,,,,,,,0.012451,0.303955,1.43042,65.673828,78.24707,-52.978516,,,,,,,,,,,0.0,1.0,1.0,5.0,0.0,0.0,0.0,5.0,0.0,0.04992841333333333,0.14477541333333332,0.9992481066666666,-1.1442057466666666,-1.092936173333334,-2.9191080933333335,-8.881204081908598,7.502433171106941,-3.2736401247499547,2.5743961954855257,5.194261258540182,-12.036470256312118,13.359808457623489,1.2358733968838769,13.519026560479556,1.2745641297062666,-0.037477413333333334,0.15917958666666665,0.4311718933333334,0.6278288933333334,0.461141950945888,0.6373139168554158,0.6373139168554158,0.6373139168554158
LBP07_S05,LBP07,-1608,43,5,42,-1608,1716328818.68,2024-05-21 22:00:18.680000+00:00,2024-05-22 07:00:18.680000+09:00,2024,5,21,22,0,18,680,,,,,,,,,-0.396729,0.253418,1.788086,36.376953,4.211426,-50.476074,,,,,,,,,,,0.0,1.0,1.0,5.0,0.0,0.0,0.0,5.0,0.0,0.050628280000000005,0.14493492,1.0075326133333333,-0.04882813333333335,1.3142903866666658,-3.5904948133333336,-11.228694700490879,11.228992966357172,-3.551966477739708,2.1252484074658904,5.643420977194469,-12.178548915421706,13.58977316972561,1.231924218530485,13.616706760594193,1.2680380681918846,-0.44735728,0.10848307999999998,0.7805533866666667,1.3363937466666669,0.9061791787787268,0.6821247938426342,0.6821247938426342,0.6821247938426342
LBP07_S05,LBP07,-1607,44,5,43,-1607,1716328818.72,2024-05-21 22:00:18.720000+00:00,2024-05-22 07:00:18.720000+09:00,2024,5,21,22,0,18,720,,,,,,,,,-0.055908,0.575928,1.852051,31.005859,-30.944824,-30.517578,,,,,,,,,,,0.0,1.0,1.0,5.0,0.0,0.0,0.0,5.0,0.0,0.04104169333333334,0.14771161333333335,0.9959570933333333,1.26627604,2.2981771066666656,-3.2194010666666673,-13.26409160941253,13.384221039856097,-2.8114984141955435,1.5946847430893891,6.178789818788713,-12.291008851989528,13.848803618157564,1.2971839041359445,13.719769639303337,1.2567988952253581,-0.09694969333333334,0.4282163866666666,0.8560939066666666,1.3812599866666666,0.962115010733685,0.7221233962556416,0.7221233962556416,0.7221233962556416
LBP07_S05,LBP07,-1606,45,5,44,-1606,1716328818.76,2024-05-21 22:00:18.760000+00:00,2024-05-22 07:00:18.760000+09:00,2024,5,21,22,0,18,760,,,,,,,,,-0.009766,0.241211,0.681396,-28.564453,137.084961,-21.42334,,,,,,,,,,,0.0,1.0,1.0,5.0,0.0,0.0,0.0,5.0,0.0,0.03499025333333333,0.14888024000000002,0.9819922533333334,-1.5421549466666666,0.9407552266666659,-1.7626953333333335,-14.60698398393084,13.517092323474158,-1.1495634130337136,1.0104053837321554,6.71947351172768,-12.336991388510876,14.084516315247619,1.3375618161621743,13.815925514216252,1.251661903616965,-0.04475625333333333,0.09233075999999998,-0.3005962533333334,0.4376832666666667,0.31762587894038585,0.6715612065912346,0.6715612065912346,0.6715612065912346
LBP07_S05,LBP07,-1605,46,5,45,-1605,1716328818.8,2024-05-21 22:00:18.800000+00:00,2024-05-22 07:00:18.800000+09:00,2024,5,21,22,0,18,800,,,,,,,,,-0.621582,-0.137207,-0.053711,-55.908203,44.86084,41.259766,,,,,,,,,,,0.0,1.0,1.0,5.0,0.0,0.0,0.0,5.0,0.0,0.04683596,0.13902021333333334,0.9711589200000001,-1.9156901066666667,-1.0498046666666674,-0.3068034000000002,-14.756342451259306,11.717263129982097,1.0208718273115767,0.4201516856817832,7.188164036926963,-12.296156515418414,14.249269971209687,1.2431119856982231,13.892410699417685,1.2482135249948314,-0.66841796,-0.27622721333333333,-1.0248699200000002,1.9695150933333334,1.2543693218335927,0.7363176638403854,0.7363176638403854,0.7363176638403854
LBP07_S05,LBP07,-1604,47,5,46,-1604,1716328818.84,2024-05-21 22:00:18.840000+00:00,2024-05-22 07:00:18.840000+09:00,2024,5,21,22,0,18,840,,,,,,,,,0.084229,0.070557,0.207764,-122.98584,-64.39209,80.932617,,,,,,,,,,,0.0,1.0,1.0,5.0,0.0,0.0,0.0,5.0,0.0,0.05279624,0.14090497333333332,0.9640918533333334,-0.11800130666666651,0.8064778799999992,-0.6860351733333334,-13.390971410397903,8.570444745905741,3.1638539214465884,-0.11548717073413295,7.530981826763193,-12.16960235856055,14.311821901041256,1.2093035145624471,13.937645224268882,1.2477192799773342,0.03143276,-0.07034797333333333,-0.7563278533333333,0.8581085866666667,0.7602425122821882,0.7387101486845657,0.7387101486845657,0.7387101486845657
LBP07_S05,LBP07,-1603,48,5,47,-1603,1716328818.88,2024-05-21 22:00:18.880000+00:00,2024-05-22 07:00:18.880000+09:00,2024,5,21,22,0,18,880,,,,,,,,,0.722412,-0.270264,0.974121,-25.024414,-81.726074,23.986816,,,,,,,,,,,0.0,1.0,1.0,5.0,0.0,0.0,0.0,5.0,0.0,0.046695973333333335,0.13928062666666666,0.9731022666666669,-0.13509114666666658,0.2758789199999993,-1.2394206,-10.612393424221178,4.919218184415653,4.838880670295581,-0.5399829077029801,7.727750554139819,-11.976047131748727,14.263078737407522,1.2445888369832974,13.943264618352064,1.2572624990193122,0.6757160266666667,-0.4095446266666667,0.0010187333333331328,1.0862793866666667,0.7901392204816384,0.743385518847936,0.743385518847936,0.743385518847936
LBP07_S05,LBP07,-1602,49,5,48,-1602,1716328818.92,2024-05-21 22:00:18.920000+00:00,2024-05-22 07:00:18.920000+09:00,2024,5,21,22,0,18,920,,,,,,,,,0.165771,0.362061,1.382324,111.633301,72.875977,-53.466797,,,,,,,,,,,0.0,1.0,1.0,5.0,0.0,0.0,0.0,5.0,0.0,0.05466146666666667,0.14536786666666668,0.9975781733333334,0.7983398533333333,-1.055501293333334,-2.2143555066666667,-6.974611489926928,1.5448647204317418,5.814745053056123,-0.8189673673000573,7.789545142957088,-11.743457329626482,14.115824847865841,1.2081528653914966,13.905795157667308,1.2586598399122475,0.11110953333333333,0.21669313333333334,0.3847458266666667,0.7125484933333334,0.45533569327341955,0.7193813667167263,0.7193813667167263,0.7193813667167263
LBP07_S05,LBP07,-1601,50,5,49,-1601,1716328818.96,2024-05-21 22:00:18.960000+00:00,2024-05-22 07:00:18.960000+09:00,2024,5,21,22,0,18,960,,,,,,,,,-0.347412,0.119141,1.911621,-15.686035,-33.813477,-30.517578,,,,,,,,,,,0.0,1.0,1.0,5.0,0.0,0.0,0.0,5.0,0.0,0.05550456000000001,0.14265628,1.00842128,1.4453125066666666,1.5486653733333329,-2.8898112400000002,-3.2882033979323104,-1.075698528535191,6.040215463652437,-0.9504955032173497,7.7465172018156805,-11.501848711080385,13.899801949389213,1.1968943197522743,13.827102056589151,1.2497685047113047,-0.40291656,-0.02351528,0.9031997199999999,1.32963156,0.989274712566631,0.7401423933205652,0.7401423933205652,0.7401423933205652
LBP07_S05,LBP07,-1600,51,5,50,-1600,1716328819.0,2024-05-21 22:00:19+00:00,2024-05-22 07:00:19+09:00,2024,5,21,22,0,19,0,22.0,0.0,18.0,40.551231,141.570496,20.834,3.0,6.0,0.074219,0.428711,1.897949,38.513184,-50.598145,-11.169434,-232.0,-31.0,393.0,3050.0,0.0,1024.400024,25.139999,0.112971,-92.366455,3.817969,0.0,1.0,1.0,5.0,0.0,0.0,0.0,5.0,0.0,0.04300456,0.14117190666666665,0.9997428933333333,2.4161783866666666,3.0175781333333327,-2.8727213999999996,-0.3280758265840498,-2.846449301911819,5.545629463837368,-0.9636185362807117,7.6326592297392075,-11.28002353252689,13.653753275021023,1.2725979416731217,13.713185539513663,1.236117037388883,0.031214439999999996,0.2875390933333334,0.8982061066666668,1.2169596400000002,0.9436245447807939,0.7546768327105814,0.7546768327105814,0.7546768327105814
LBP07_S05,LBP07,-1599,52,5,51,-1599,1716328819.04,2024-05-21 22:00:19.040000+00:00,2024-05-22 07:00:19.040000+09:00,2024,5,21,22,0,19,40,,,,,,,,,-0.026611,0.151611,0.634766,-30.334473,133.361816,-15.50293,,,,,,,,,,,0.0,1.0,1.0,5.0,0.0,0.0,0.0,5.0,0.0,0.03430990666666666,0.1418848,0.9820573466666667,1.9425455733333334,0.9545898533333328,-1.6674805200000002,1.3919502591389343,-3.9736817401996474,4.389806491582927,-0.9079405259151543,7.473711960131221,-11.104431272863573,13.416002398455289,1.3313055873036581,13.571723598371827,1.2263541192908258,-0.06092090666666666,0.00972619999999999,-0.3472913466666666,0.41793845333333324,0.3527282740369356,0.7278802621323384,0.7278802621323384,0.7278802621323384
LBP07_S05,LBP07,-1598,53,5,52,-1598,1716328819.08,2024-05-21 22:00:19.080000+00:00,2024-05-22 07:00:19.080000+09:00,2024,5,21,22,0,19,80,,,,,,,,,-0.196533,0.010254,0.028564,15.869141,-33.569336,70.007324,,,,,,,,,,,0.0,1.0,1.0,5.0,0.0,0.0,0.0,5.0,0.0,0.04380534666666666,0.13111657333333335,0.9619206266666667,3.042805986666667,-1.5332031200000005,0.3784179199999998,1.694582305053933,-4.811995010728429,2.706144399128572,-0.840157233712997,7.281232159702085,-10.99618549689843,13.215078562878071,1.2458976274598361,13.40947766825937,1.221073182440261,-0.24033834666666667,-0.12086257333333335,-0.9333566266666666,1.2945575466666668,0.9713520860397642,0.7430972511265526,0.7430972511265526,0.7430972511265526
LBP07_S05,LBP07,-1597,54,5,53,-1597,1716328819.12,2024-05-21 22:00:19.120000+00:00,2024-05-22 07:00:19.120000+09:00,2024,5,21,22,0,19,120,,,,,,,,,0.062012,0.07666,0.411621,-67.565918,-58.898926,56.57959,,,,,,,,,,,0.0,1.0,1.0,5.0,0.0,0.0,0.0,5.0,0.0,0.04688477333333333,0.12453454666666666,0.9415006933333333,8.004557279999998,-2.0678710933333337,0.6624348533333332,0.6906428861131325,-5.721809399609637,0.7963900728265885,-0.8125315182684717,7.052359783717699,-10.964329893985367,13.061872607376003,1.2082705521265178,13.23073752258603,1.215431330622344,0.015127226666666667,-0.047874546666666656,-0.5298796933333333,0.5928814666666666,0.5322530362639474,0.7306946502522816,0.7306946502522816,0.7306946502522816
LBP07_S05,LBP07,-1596,55,5,54,-1596,1716328819.16,2024-05-21 22:00:19.160000+00:00,2024-05-22 07:00:19.160000+09:00,2024,5,21,22,0,19,160,,,,,,,,,0.767334,-0.089355,0.82959,-38.635254,-48.156738,23.31543,,,,,,,,,,,0.0,1.0,1.0,5.0,0.0,0.0,0.0,5.0,0.0,0.04603842666666667,0.11961918666666667,0.9293555200000001,13.447265613333332,-4.558105466666667,1.1360676666666665,-1.3074457260830685,-6.978639331278558,-0.8437435885355946,-0.8648293473117944,6.7732142104665565,-10.998079637526791,12.945351144492731,1.2010471429379581,13.037270259582447,1.2150907893349676,0.7212955733333333,-0.20897418666666667,-0.09976552000000005,1.0300352799999999,0.757555723220495,0.7321869320838491,0.7321869320838491,0.7321869320838491
LBP07_S05,LBP07,-1595,56,5,55,-1595,1716328819.2,2024-05-21 22:00:19.200000+00:00,2024-05-22 07:00:19.200000+09:00,2024,5,21,22,0,19,200,,,,,,,,,0.058105,0.334961,1.372803,101.745605,65.856934,-64.697266,,,,,,,,,,,0.0,1.0,1.0,5.0,0.0,0.0,0.0,5.0,0.0,0.05636394666666666,0.1253158,0.9370345466666666,21.6495768,-7.136230466666667,-0.6884766133333335,-3.83904725285907,-8.714810358115656,-1.651706904094432,-1.0183912374261572,6.42462179614193,-11.064147913690569,12.834650559791323,1.1454828047176513,12.829296167994826,1.2110148493187969,0.0017410533333333394,0.2096452,0.43576845333333336,0.6471547066666667,0.4835786244968599,0.7191022843161128,0.7191022843161128,0.7191022843161128
LBP07_S05,LBP07,-1594,57,5,56,-1594,1716328819.24,2024-05-21 22:00:19.240000+00:00,2024-05-22 07:00:19.240000+09:00,2024,5,21,22,0,19,240,,,,,,,,,-0.393066,0.343262,1.760498,15.197754,-35.15625,-59.387207,,,,,,,,,,,0.0,1.0,1.0,5.0,0.0,0.0,0.0,5.0,0.0,0.059339199999999995,0.1360384533333333,0.95416996,24.936523413333333,-6.8375650933333345,-1.5063477066666668,-6.313818734484167,-10.86313474495981,-1.2489717702449965,-1.270943986805524,5.990096406343538,-11.114106784500368,12.689362599916672,1.1564941460567981,12.606604488149605,1.1953132728045615,-0.4524052,0.2072235466666667,0.8063280399999999,1.4659567866666667,0.9475109346970058,0.7305227168351573,0.7305227168351573,0.7305227168351573
LBP07_S05,LBP07,-1593,58,5,57,-1593,1716328819.28,2024-05-21 22:00:19.280000+00:00,2024-05-22 07:00:19.280000+09:00,2024,5,21,22,0,19,280,,,,,,,,,0.03125,0.349121,1.761963,-12.023926,-30.639648,-39.428711,,,,,,,,,,,0.0,1.0,1.0,5.0,0.0,0.0,0.0,5.0,0.0,0.05789064,0.14520186666666668,0.9642773866666666,25.61930336,-4.983723946666667,-2.8719076,-8.060452818717756,-13.11610543385492,0.3272730256554191,-1.5933620995542341,5.465452188989341,-11.101015863474151,12.475677280674143,1.188170318804129,12.369321380713616,1.173500231108481,-0.02664064,0.20391913333333334,0.7976856133333333,1.0282453866666668,0.8237688233709768,0.7349630076225774,0.7349630076225774,0.7349630076225774
LBP07_S05,LBP07,-1592,59,5,58,-1592,1716328819.32,2024-05-21 22:00:19.320000+00:00,2024-05-22 07:00:19.320000+09:00,2024,5,21,22,0,19,320,,,,,,,,,-0.172852,0.083252,0.485352,-41.137695,127.807617,-8.972168,,,,,,,,,,,0.0,1.0,1.0,5.0,0.0,0.0,0.0,5.0,0.0,0.05625002666666666,0.14821293333333332,0.9645833733333332,23.175455706666664,-3.668619773333334,-2.041829466666667,-8.467042070751745,-14.954138874157934,2.574040662805712,-1.932043782384304,4.867286634023023,-10.998054236961922,12.181152217830016,1.2047474525177306,12.11853026237291,1.1565993104267398,-0.22910202666666668,-0.06496093333333332,-0.4792313733333332,0.7732943333333332,0.5351358431924219,0.725879954693934,0.725879954693934,0.725879954693934
LBP07_S05,LBP07,-1591,60,5,59,-1591,1716328819.36,2024-05-21 22:00:19.360000+00:00,2024-05-22 07:00:19.360000+09:00,2024,5,21,22,0,19,360,,,,,,,,,0.022461,0.391602,-0.189697,-2.624512,-93.017578,82.092285,,,,,,,,,,,0.0,1.0,1.0,5.0,0.0,0.0,0.0,5.0,0.0,0.06208661333333333,0.14228194666666666,0.9632552533333334,19.819335906666666,-1.3956705466666672,-0.4923503066666668,-7.193087253775213,-15.786081814581914,4.715224100068063,-2.2197672725353126,4.235843361439747,-10.809445272959199,11.820061033512983,1.1561349195905684,11.857148673453553,1.1429114537587075,-0.03962561333333334,0.24932005333333335,-1.1529522533333334,1.4418979200000002,1.1802667396366764,0.7456359018653574,0.7456359018653574,0.7456359018653574
LBP07_S05,LBP07,-1590,61,5,60,-1590,1716328819.4,2024-05-21 22:00:19.400000+00:00,2024-05-22 07:00:19.400000+09:00,2024,5,21,22,0,19,400,,,,,,,,,0.091553,-0.272461,0.414551,-141.540527,-80.688477,86.975098,,,,,,,,,,,0.0,1.0,1.0,5.0,0.0,0.0,0.0,5.0,0.0,0.06707685333333333,0.13810551999999998,0.9596549866666665,20.234374973333335,1.3037109599999994,0.6909179333333332,-4.3462122560511025,-15.184739053139522,6.042170797391238,-2.393615762777357,3.6284537993141655,-10.56775844106355,11.426836476568813,1.1155821765307665,11.591080144295754,1.1339902578723096,0.02447614666666667,-0.41056652,-0.5451039866666665,0.9801466533333332,0.6828633138340732,0.7430203773640539,0.7430203773640539,0.7430203773640539
LBP07_S05,LBP07,-1589,62,5,61,-1589,1716328819.44,2024-05-21 22:00:19.440000+00:00,2024-05-22 07:00:19.440000+09:00,2024,5,21,22,0,19,440,,,,,,,,,0.797119,-0.109131,0.746582,66.345215,-88.439941,23.4375,,,,,,,,,,,0.0,1.0,1.0,5.0,0.0,0.0,0.0,5.0,0.0,0.06728193333333334,0.13766606666666667,0.96448572,21.418457,1.3997396133333326,1.9759114266666666,-0.5018340505133843,-13.117997341435283,6.205863499503059,-2.413689124797892,3.103733905656754,-10.319523901083427,11.043171324095404,1.1131751703428532,11.330219129514266,1.1321270886769503,0.7298370666666667,-0.24679706666666668,-0.21790372000000002,1.1945378533333333,0.8006578340250684,0.7453258756304946,0.7453258756304946,0.7453258756304946
LBP07_S05,LBP07,-1588,63,5,62,-1588,1716328819.48,2024-05-21 22:00:19.480000+00:00,2024-05-22 07:00:19.480000+09:00,2024,5,21,22,0,19,480,,,,,,,,,0.176758,0.389893,1.274902,82.03125,67.871094,-46.081543,,,,,,,,,,,0.0,1.0,1.0,5.0,0.0,0.0,0.0,5.0,0.0,0.07676761333333333,0.14364913333333335,0.9865527733333332,22.71647132,1.5991211199999995,2.3030598666666666,3.479064342354475,-10.03450334720539,5.293560644433189,-2.274526551103713,2.7023537717685384,-10.1077814753061,10.70716737947103,1.0768884206424265,11.088693897196576,1.1246827256488832,0.09999038666666667,0.24624386666666664,0.28834922666666674,0.6345834800000001,0.39214716091789487,0.7562496407897925,0.7317420789107791,0.7317420789107791
LBP07_S05,LBP07,-1587,64,5,63,-1587,1716328819.52,2024-05-21 22:00:19.520000+00:00,2024-05-22 07:00:19.520000+09:00,2024,5,21,22,0,19,520,,,,,,,,,-0.307373,0.231445,1.721436,12.878418,-9.94873,-59.631348,,,,,,,,,,,0.0,1.0,1.0,5.0,0.0,0.0,0.0,5.0,0.0,0.07823896,0.14445317333333332,1.0060254266666668,24.516601533333333,3.101399759999999,2.3982747066666668,6.755770812009259,-6.7228997462608655,3.667595041766765,-2.004295718623343,2.4334377819181037,-9.96107767363543,10.448056718182409,1.0713919854461937,10.883733562204947,1.1127949687138983,-0.38561196,0.08699182666666669,0.7154105733333331,1.18801436,0.8173594374808267,0.7453864248957521,0.7349130921911514,0.7349130921911514
LBP07_S05,LBP07,-1586,65,5,64,-1586,1716328819.56,2024-05-21 22:00:19.560000+00:00,2024-05-22 07:00:19.560000+09:00,2024,5,21,22,0,19,560,,,,,,,,,0.130615,0.465332,1.612793,22.705078,-8.422852,-35.888672,,,,,,,,,,,0.0,1.0,1.0,5.0,0.0,0.0,0.0,5.0,0.0,0.07361656,0.15019536,1.0178320666666667,25.60302732,5.375976586666666,2.3160806933333333,8.778413160419715,-3.998559629660776,1.7004432196635593,-1.6531591922065543,2.2734953967316724,-9.893059944848888,10.284665852914747,1.1118351840739762,10.732910558751573,1.0983296347609024,0.05699844000000001,0.31513664,0.5949609333333332,0.9670960133333333,0.6756762806446547,0.7448979638845651,0.7327974917787765,0.7327974917787765
LBP07_S05,LBP07,-1585,66,5,65,-1585,1716328819.6,2024-05-21 22:00:19.600000+00:00,2024-05-22 07:00:19.600000+09:00,2024,5,21,22,0,19,600,,,,,,,,,-0.212891,0.195801,0.385498,-9.277344,132.080078,-4.394531,,,,,,,,,,,0.0,1.0,1.0,5.0,0.0,0.0,0.0,5.0,0.0,0.07226565333333333,0.15326177333333335,1.0211946933333333,24.79654945333333,5.293782573333333,3.7288411066666662,9.393130669752171,-2.377664293256692,-0.40658240864944156,-1.2774339654164675,2.178388825001405,-9.909323241194866,10.226040411976445,1.1268511127640621,10.650403070113667,1.086880105152983,-0.28515665333333334,0.04253922666666665,-0.6356966933333333,0.9633925733333333,0.6980216247800629,0.7396369504501845,0.7315983239512346,0.7315983239512346
LBP07_S05,LBP07,-1584,67,5,66,-1584,1716328819.64,2024-05-21 22:00:19.640000+00:00,2024-05-22 07:00:19.640000+09:00,2024,5,21,22,0,19,640,,,,,,,,,0.019775,0.108154,-0.061279,-2.929688,-31.921387,52.001953,,,,,,,,,,,0.0,1.0,1.0,5.0,0.0,0.0,0.0,5.0,0.0,0.08132164,0.15417324,1.0193978133333332,23.09407549333333,6.175944039999999,5.681152306666666,8.764594529684462,-1.9047535295410687,-2.6154902267249382,-0.926850184229089,2.102198683819762,-10.013942850263863,10.274110276739771,1.0820505157761247,10.643759004733903,1.078922737644914,-0.06154664,-0.04601923999999999,-1.0806768133333333,1.1882426933333332,1.0834058031143066,0.7645275045369212,0.743325239923337,0.743325239923337
LBP07_S05,LBP07,-1583,68,5,67,-1583,1716328819.68,2024-05-21 22:00:19.680000+00:00,2024-05-22 07:00:19.680000+09:00,2024,5,21,22,0,19,680,,,,,,,,,0.134766,-0.000732,0.352783,-69.580078,-85.632324,59.875488,,,,,,,,,,,0.0,1.0,1.0,5.0,0.0,0.0,0.0,5.0,0.0,0.0840788,0.15459316,1.0160905199999999,22.22656248,7.982584666666665,6.76432288,7.206149121066583,-2.212615739648945,-4.896701124393941,-0.6386042193864256,2.013694054233804,-10.20981089523962,10.426073930757846,1.0692927494542808,10.712497211629472,1.0741301886789638,0.0506872,-0.15532516000000002,-0.6633075199999998,0.8693198799999998,0.6831339280561431,0.755605694508018,0.7413835847018146,0.7413835847018146
LBP07_S05,LBP07,-1582,69,5,68,-1582,1716328819.72,2024-05-21 22:00:19.720000+00:00,2024-05-22 07:00:19.720000+09:00,2024,5,21,22,0,19,720,,,,,,,,,0.801514,-0.216064,0.789062,-20.141602,-57.861328,22.155762,,,,,,,,,,,0.0,1.0,1.0,5.0,0.0,0.0,0.0,5.0,0.0,0.08597984,0.15465501333333334,1.0238021066666667,20.764973946666665,7.663574253333333,8.177897106666666,5.043775756691816,-2.76136980139806,-7.073840929447661,-0.43685318911875304,1.9032392621778818,-10.492764532417526,10.67292218329628,1.0600941129877717,10.84879819024623,1.0717131045370831,0.7155341599999999,-0.37071901333333335,-0.23474010666666667,1.3209932799999997,0.8393596598905761,0.7506954804742935,0.7444453370514634,0.7444453370514634
LBP07_S05,LBP07,-1581,70,5,69,-1581,1716328819.76,2024-05-21 22:00:19.760000+00:00,2024-05-22 07:00:19.760000+09:00,2024,5,21,22,0,19,760,,,,,,,,,0.097168,0.413574,1.298096,112.487793,57.495117,-63.232422,,,,,,,,,,,0.0,1.0,1.0,5.0,0.0,0.0,0.0,5.0,0.0,0.09296876,0.16021165333333334,1.0418131733333333,19.80468748,8.570963573333334,8.425292933333333,2.591789027011606,-3.1049045640254525,-8.805530648839596,-0.33318162803828877,1.7790430796168637,-10.84498575837111,10.994986147133933,1.041639623511376,11.039579062818783,1.065387945289462,0.004199240000000007,0.2533623466666667,0.2562828266666666,0.5138444133333333,0.36040393944749616,0.7524066028945781,0.7328077189422524,0.7328077189422524
LBP07_S05,LBP07,-1580,71,5,70,-1580,1716328819.8,2024-05-21 22:00:19.800000+00:00,2024-05-22 07:00:19.800000+09:00,2024,5,21,22,0,19,800,,,,,,,,,-0.41333,0.387207,1.76709,30.334473,-9.765625,-60.791016,,,,,,,,,,,0.0,1.0,1.0,5.0,0.0,0.0,0.0,5.0,0.0,0.09522461333333333,0.16196946666666667,1.0586523599999997,20.352376279999998,10.059407586666666,8.42366532,0.21537995260668466,-3.0400103218055197,-9.729114348594596,-0.3245664299340214,1.657442666744643,-11.234150332314893,11.360395822771165,1.0360085014500764,11.269020460043448,1.0532361663036363,-0.5085546133333333,0.22523753333333335,0.7084376400000003,1.442229786666667,0.9006906410824256,0.7382594556645313,0.737745451946375,0.737745451946375
LBP07_S05,LBP07,-1579,72,5,71,-1579,1716328819.84,2024-05-21 22:00:19.840000+00:00,2024-05-22 07:00:19.840000+09:00,2024,5,21,22,0,19,840,,,,,,,,,0.143311,0.236572,1.815918,-14.709473,-37.536621,-35.705566,,,,,,,,,,,0.0,1.0,1.0,5.0,0.0,0.0,0.0,5.0,0.0,0.09125325333333334,0.16623703999999997,1.0681347866666666,19.069010386666665,12.168782586666666,8.461914013333333,-1.6306389656301103,-2.5931039971195067,-9.66291926236466,-0.3897919885592258,1.5537185068598627,-11.62066710280948,11.730553393051082,1.0652496806833518,11.520747392627559,1.0390250912997228,0.052057746666666654,0.07033496000000003,0.7477832133333333,0.87017592,0.7528856153024428,0.7379651797853414,0.7381780280422626,0.7381780280422626
LBP07_S05,LBP07,-1578,73,5,72,-1578,1716328819.88,2024-05-21 22:00:19.880000+00:00,2024-05-22 07:00:19.880000+09:00,2024,5,21,22,0,19,880,,,,,,,,,0.011475,0.17334,0.93457,-2.319336,77.209473,-22.705078,,,,,,,,,,,0.0,1.0,1.0,5.0,0.0,0.0,0.0,5.0,0.0,0.09430989333333334,0.16679369333333333,1.07393556,16.987304653333332,12.485351586666665,9.28466792,-2.4905968756746892,-1.8994180086185966,-8.717687241403057,-0.48941586358621336,1.4777417865151188,-11.969374592465602,12.070177165638615,1.0527175792236172,11.779134429275402,1.0274713889744889,-0.08283489333333334,0.006546306666666668,-0.13936556,0.22874676,0.16225668860984546,0.7128498785104698,0.7221802130580289,0.7221802130580289
LBP07_S05,LBP07,-1577,74,5,73,-1577,1716328819.92,2024-05-21 22:00:19.920000+00:00,2024-05-22 07:00:19.920000+09:00,2024,5,21,22,0,19,920,,,,,,,,,-0.400879,-0.050781,-0.147705,-9.765625,13.000488,40.100098,,,,,,,,,,,0.0,1.0,1.0,5.0,0.0,0.0,0.0,5.0,0.0,0.10342121333333333,0.16515958666666666,1.0712858266666667,16.440429653333332,13.594563826666667,10.397949173333332,-2.127195602209311,-1.0671677678308578,-7.235427042122816,-0.5745036876745858,1.4350550758018845,-12.258791674150515,12.355865443907943,1.0081403929699833,12.029936019840381,1.0181575271802612,-0.5043002133333333,-0.21594058666666666,-1.2189908266666667,1.9392316266666667,1.3367451805170174,0.7481062580002137,0.7387900770434069,0.7387900770434069
LBP07_S05,LBP07,-1576,75,5,74,-1576,1716328819.96,2024-05-21 22:00:19.960000+00:00,2024-05-22 07:00:19.960000+09:00,2024,5,21,22,0,19,960,,,,,,,,,0.074219,0.102783,0.29834,-101.501465,-48.828125,56.274414,,,,,,,,,,,0.0,1.0,1.0,5.0,0.0,0.0,0.0,5.0,0.0,0.10486651999999999,0.16092130666666665,1.0695442933333335,15.81054684,15.572916680000002,10.68929032,-0.7600537353361678,-0.10023743349860312,-5.599357863495279,-0.6049058370880326,1.4310455784619405,-12.482765988690327,12.579079825161402,0.9903173942157194,12.261435040640375,1.0142971323060899,-0.030647519999999998,-0.05813830666666665,-0.7712042933333334,0.8599901200000001,0.7739996093280563,0.7394952538706707,0.7397166436824767,0.7397166436824767
LBP07_S05,LBP07,-1575,76,5,75,-1575,1716328820.0,2024-05-21 22:00:20+00:00,2024-05-22 07:00:20+09:00,2024,5,21,22,0,20,0,22.0,0.0,19.0,40.551289,141.570572,21.24,3.0,6.0,0.638428,-0.253906,0.871582,-29.23584,-69.519043,45.349121,-231.0,-25.0,393.0,3100.0,0.0,1024.099976,25.18,0.109999,-89.891541,3.817969,0.0,1.0,1.0,5.0,0.0,0.0,0.0,4.0,0.0,0.10611326666666666,0.16083016,1.0806868666666667,15.472818973333332,15.007324239999997,10.921223906666667,0.8353698950344507,1.0983262139646186,-4.0496759574370795,-0.5714910412866545,1.4749786270205252,-12.644753026987809,12.743309737817551,0.9847403627249263,12.467296533119546,1.0104201759263032,0.5323147333333333,-0.41473616,-0.20910486666666672,1.15615576,0.7064629523187808,0.7300087901721901,0.7388639849295614,0.7388639849295614
LBP07_S05,LBP07,-1574,77,5,76,-1574,1716328820.04,2024-05-21 22:00:20.040000+00:00,2024-05-22 07:00:20.040000+09:00,2024,5,21,22,0,20,40,,,,,,,,,0.177002,0.322754,1.371094,91.85791,98.999023,-72.570801,,,,,,,,,,,0.0,1.0,1.0,5.0,0.0,0.0,0.0,4.0,0.0,0.11107421333333332,0.16177415999999997,1.1046321733333333,15.28401689333333,16.0864258,10.006510373333334,1.48166552361732,2.6721712480092497,-2.6316586165466616,-0.5122244203419617,1.581865476940895,-12.750019371649675,12.857980643218205,0.9665134925237849,12.650237839916157,1.0037471427721274,0.06592778666666667,0.16097984,0.26646182666666673,0.49336945333333343,0.31821830087493064,0.72862839124571,0.7283478428281956,0.7283478428281956
LBP07_S05,LBP07,-1573,78,5,77,-1573,1716328820.08,2024-05-21 22:00:20.080000+00:00,2024-05-22 07:00:20.080000+09:00,2024,5,21,22,0,20,80,,,,,,,,,-0.391113,0.248047,1.829102,-1.525879,19.775391,-68.237305,,,,,,,,,,,0.0,1.0,1.0,5.0,0.0,0.0,0.0,4.0,0.0,0.11309569333333333,0.16824552,1.12126628,16.381835906666666,17.13785809333333,8.793945279999999,0.0003297835362301247,4.746883275464134,-1.2976117648046448,-0.5122112290005125,1.7717408079594605,-12.80192384224186,12.934089836407649,0.9761541315120047,12.822350412536846,0.9915002402251298,-0.5042086933333333,0.07980147999999998,0.7078357200000001,1.2918458933333334,0.872711916471304,0.7246827844629715,0.7318689177951007,0.7318689177951007
LBP07_S05,LBP07,-1572,79,5,78,-1572,1716328820.12,2024-05-21 22:00:20.120000+00:00,2024-05-22 07:00:20.120000+09:00,2024,5,21,22,0,20,120,,,,,,,,,0.05127,0.210205,1.858154,2.746582,-67.382812,-18.005371,,,,,,,,,,,0.0,1.0,1.0,5.0,0.0,0.0,0.0,4.0,0.0,0.10532877333333333,0.17332364,1.13031576,15.510253866666668,18.551432306666666,8.552246053333333,-4.272949824052435,7.358641906389016,-0.05978555364468952,-0.68312922196261,2.0660864842150213,-12.804315264387649,12.987912391296215,1.021490164246058,12.99701114644797,0.9791032527206222,-0.05405877333333333,0.03688136,0.7278382400000001,0.8187783733333334,0.7307743080432234,0.7326236353341425,0.7318428556581512,0.7318428556581512
LBP07_S05,LBP07,-1571,80,5,79,-1571,1716328820.16,2024-05-21 22:00:20.160000+00:00,2024-05-22 07:00:20.160000+09:00,2024,5,21,22,0,20,160,,,,,,,,,0.019531,0.182373,0.659668,-2.868652,115.966797,-5.065918,,,,,,,,,,,0.0,1.0,1.0,5.0,0.0,0.0,0.0,4.0,0.0,0.10741861333333333,0.16946948,1.1324121066666668,13.79557288,17.94514976,9.399414026666667,-11.045697523869407,10.35468249756067,0.9495995884549545,-1.1249571229173863,2.4802737841174483,-12.76633128084945,13.05360107192563,1.0028700597135076,13.172720042824674,0.968146367325088,-0.08788761333333334,0.012903520000000002,-0.4727441066666668,0.5735352400000001,0.48101738408698363,0.7215621017688022,0.7260097051564962,0.7260097051564962
LBP07_S05,LBP07,-1570,81,5,80,-1570,1716328820.2,2024-05-21 22:00:20.200000+00:00,2024-05-22 07:00:20.200000+09:00,2024,5,21,22,0,20,200,,,,,,,,,-0.206543,0.035889,-0.033203,44.921875,-11.291504,64.147949,,,,,,,,,,,0.0,1.0,1.0,5.0,0.0,0.0,0.0,4.0,0.0,0.1152832,0.16895516,1.1277994800000002,13.161621053333333,18.266601573333332,10.292968706666665,-18.848061179468036,13.26633139120149,1.5744461443368352,-1.8788795700961076,3.010927039765508,-12.703353435075977,13.189808890737282,0.9692781699083203,13.318691330377444,0.9581051185235413,-0.3218262,-0.13306616,-1.1610024800000003,1.6158948400000002,1.2121078600973334,0.7507032711928211,0.7370573904960606,0.7370573904960606
LBP07_S05,LBP07,-1569,82,5,81,-1569,1716328820.24,2024-05-21 22:00:20.240000+00:00,2024-05-22 07:00:20.240000+09:00,2024,5,21,22,0,20,240,,,,,,,,,0.089355,0.130127,0.230957,-142.63916,-45.593262,72.20459,,,,,,,,,,,0.0,1.0,1.0,5.0,0.0,0.0,0.0,4.0,0.0,0.11849934666666667,0.16402677333333332,1.1220052,12.412109333333333,19.05680338666667,10.935058546666667,-25.10208837673337,15.204633649170269,1.8127356306385332,-2.8829631051654427,3.6191123857323184,-12.630844009850435,13.45167911925797,0.9427806552133767,13.379357411754421,0.9532202930626893,-0.029144346666666668,-0.03389977333333333,-0.8910482000000001,0.9540923200000001,0.8921689763144189,0.7484895928575176,0.7405043146253576,0.7405043146253576
LBP07_S05,LBP07,-1568,83,5,82,-1568,1716328820.28,2024-05-21 22:00:20.280000+00:00,2024-05-22 07:00:20.280000+09:00,2024,5,21,22,0,20,280,,,,,,,,,0.596436,-0.378174,0.852783,-3.845215,-101.501465,41.259766,,,,,,,,,,,0.0,1.0,1.0,5.0,0.0,0.0,0.0,4.0,0.0,0.12103190666666665,0.16260098666666667,1.1310156266666667,12.5154622,17.54720052,11.39160152,-26.474665801271556,14.87235568065903,1.917318022459517,-3.941949737216305,4.21400661295868,-12.554151288952054,13.816784504749856,0.9287477041785396,13.324675207061361,0.9491936354372148,0.47540409333333333,-0.5407749866666667,-0.2782326266666667,1.2944117066666667,0.7719197061250962,0.7464156281676825,0.7411872579188301,0.7411872579188301
LBP07_S05,LBP07,-1567,84,5,83,-1567,1716328820.32,2024-05-21 22:00:20.320000+00:00,2024-05-22 07:00:20.320000+09:00,2024,5,21,22,0,20,320,,,,,,,,,0.376953,0.350586,1.267822,112.792969,87.585449,-56.70166,,,,,,,,,,,0.0,1.0,1.0,5.0,0.0,0.0,0.0,4.0,0.0,0.13185873333333334,0.16631191999999997,1.1484082,13.052571573333335,17.21761068,11.003417919999999,-19.466197776985126,10.79363101953934,2.2967753319181345,-4.72059764829571,4.645751853740253,-12.46228027567533,14.11295440767497,0.8985715390146415,13.279585346035878,0.9406637705516212,0.24509426666666664,0.18427408000000003,0.11941380000000001,0.5487821466666667,0.32907110438802967,0.7381730386155066,0.7324188291203024,0.7324188291203024
LBP07_S05,LBP07,-1566,85,5,84,-1566,1716328820.36,2024-05-21 22:00:20.360000+00:00,2024-05-22 07:00:20.360000+09:00,2024,5,21,22,0,20,360,,,,,,,,,-0.306641,0.310059,1.811035,4.333496,24.597168,-73.730469,,,,,,,,,,,0.0,1.0,1.0,5.0,0.0,0.0,0.0,4.0,0.0,0.1335807333333333,0.16545905333333336,1.1630891866666666,14.654134079999997,18.347167973333335,10.11311844,-1.1812134160006258,1.7925025858956223,3.2339313268077374,-4.767846184935735,4.7174519571760785,-12.332923022603019,14.038792700689124,0.8899049062002539,13.601567611684937,0.9267056240662532,-0.4402217333333333,0.14459994666666662,0.6479458133333333,1.2327674933333332,0.7965789955121854,0.7228255288505271,0.7337554992534666,0.7337554992534666
LBP07_S05,LBP07,-1565,86,5,85,-1565,1716328820.4,2024-05-21 22:00:20.400000+00:00,2024-05-22 07:00:20.400000+09:00,2024,5,21,22,0,20,400,,,,,,,,,0.009277,0.279785,1.803711,19.348145,-43.579102,-44.006348,,,,,,,,,,,0.0,1.0,1.0,5.0,0.0,0.0,0.0,4.0,0.0,0.12594075999999998,0.17180997333333334,1.1661425733333335,14.902343720000003,19.2203776,9.370930946666668,29.784831634666478,-12.389518078433673,4.589535346747925,-3.5764529195490757,4.221871234038732,-12.149341608733103,13.349970551587306,0.9358921081164057,14.657194097840181,0.9138363087708482,-0.11666375999999998,0.10797502666666667,0.6375684266666666,0.8622072133333332,0.6570864006835125,0.7217944523245048,0.7321908237724472,0.7321908237724472
LBP07_S05,LBP07,-1564,87,5,86,-1564,1716328820.44,2024-05-21 22:00:20.440000+00:00,2024-05-22 07:00:20.440000+09:00,2024,5,21,22,0,20,440,,,,,,,,,0.052002,0.201904,0.822266,-9.216309,111.450195,-12.451172,,,,,,,,,,,0.0,1.0,1.0,5.0,0.0,0.0,0.0,4.0,0.0,0.12916017333333335,0.17265632,1.16548828,13.172200493333333,18.367513013333333,10.093587199999998,72.48867163185523,-30.572107846056703,5.70616980043814,-0.6769060542748666,2.9989869201964634,-11.921094816715577,12.311158596287616,0.9262469162690412,16.652063539006235,0.9024043955708745,-0.07715817333333336,0.029247679999999998,-0.3432222799999999,0.44962813333333324,0.35300190365763956,0.7038882151098075,0.7246070453701511,0.7246070453701511
LBP07_S05,LBP07,-1563,88,5,87,-1563,1716328820.48,2024-05-21 22:00:20.480000+00:00,2024-05-22 07:00:20.480000+09:00,2024,5,21,22,0,20,480,,,,,,,,,-0.410156,-0.431396,0.145752,15.625,6.469727,56.70166,,,,,,,,,,,0.0,1.0,1.0,5.0,0.0,0.0,0.0,4.0,0.0,0.13585613333333332,0.16863613333333333,1.1591113333333334,12.940266893333332,19.666341146666667,10.53222652,123.09074368879195,-49.97151590677254,5.628725074476071,4.246723693276811,1.0001262839255618,-11.695945813736534,12.483191226152812,0.8908554826560681,19.63549173424643,0.8938393107493686,-0.5460121333333333,-0.6000321333333334,-1.0133593333333333,2.1594036,1.2981005158436485,0.7401263493068376,0.7481879950483151,0.7358520153794353
LBP07_S05,LBP07,-1562,89,5,88,-1562,1716328820.52,2024-05-21 22:00:20.520000+00:00,2024-05-22 07:00:20.520000+09:00,2024,5,21,22,0,20,520,,,,,,,,,-0.040527,0.149414,0.020264,32.592773,-86.853027,48.156738,,,,,,,,,,,0.0,1.0,1.0,5.0,0.0,0.0,0.0,4.0,0.0,0.13752930666666666,0.16758144,1.1507975333333333,12.535807253333333,20.866699226666665,10.748697880000002,174.962992994163,-66.56274318753866,3.5738095354597976,11.245243413043331,-1.6623834435759848,-11.552993432318143,16.207735047786787,0.8819086993923769,23.53488045817425,0.8903785827111536,-0.17805630666666666,-0.018167440000000007,-1.1305335333333333,1.32675728,1.1446135479763808,0.7532165137266599,0.7493014693112059,0.7437128140832227
LBP07_S05,LBP07,-1561,90,5,89,-1561,1716328820.56,2024-05-21 22:00:20.560000+00:00,2024-05-22 07:00:20.560000+09:00,2024,5,21,22,0,20,560,,,,,,,,,0.476074,-0.320068,0.151367,138.671875,-151.062012,79.711914,,,,,,,,,,,0.0,1.0,1.0,5.0,0.0,0.0,0.0,4.0,0.0,0.13978190666666665,0.16762050666666664,1.160625,12.813313773333332,19.58740236,11.100260386666667,219.69775094783245,-75.95824345893199,-0.5730604659664101,20.03315345095663,-4.700713181933264,-11.575915850956799,23.609865933478098,0.8741769067594578,28.202014066139128,0.8886124431744372,0.3362920933333333,-0.48768850666666663,-1.009258,1.8332386,1.1702709780804097,0.7730003016240901,0.7589491327543274,0.7517610813284527
LBP07_S05,LBP07,-1560,91,5,90,-1560,1716328820.6,2024-05-21 22:00:20.600000+00:00,2024-05-22 07:00:20.600000+09:00,2024,5,21,22,0,20,600,,,,,,,,,0.225586,-0.198486,0.306396,398.925781,-102.661133,-11.71875,,,,,,,,,,,0.0,1.0,1.0,5.0,0.0,0.0,0.0,4.0,0.0,0.14556966666666668,0.16778652,1.1779134133333333,12.237955693333332,20.463053400000003,10.424804666666667,248.96836555786797,-74.57953834083177,-5.988305294767586,29.991888073271348,-7.683894715566535,-11.815448062747501,33.138503302397815,0.8549590379085837,33.467086332134784,0.8848443747347584,0.08001633333333333,-0.36627252,-0.8715174133333333,1.3178062666666666,0.9487364092573266,0.7830288930031806,0.7613329217266824,0.7554087725863948
LBP07_S05,LBP07,-1559,92,5,91,-1559,1716328820.64,2024-05-21 22:00:20.640000+00:00,2024-05-22 07:00:20.640000+09:00,2024,5,21,22,0,20,640,,,,,,,,,0.126465,-0.17041,0.448975,422.424316,-106.628418,9.155273,,,,,,,,,,,0.0,1.0,1.0,5.0,0.0,0.0,0.0,4.0,0.0,0.14738932,0.17064785333333335,1.1897884133333334,13.552246053333333,21.33951825333333,9.890136693333332,256.79392860295104,-60.751188390662264,-11.025971660633749,40.26364521738939,-10.113942251193027,-12.256486929172851,43.28596107165989,0.8571298069983169,39.178352976071594,0.8752848395642439,-0.020924319999999996,-0.3410578533333334,-0.7408134133333334,1.1027955866666668,0.8158203232712385,0.7723254738094579,0.7684264891731896,0.7565071644170284
LBP07_S05,LBP07,-1558,93,5,92,-1558,1716328820.68,2024-05-21 22:00:20.680000+00:00,2024-05-22 07:00:20.680000+09:00,2024,5,21,22,0,20,680,,,,,,,,,0.168213,0.14624,0.649902,570.495605,-110.534668,-106.872559,,,,,,,,,,,0.0,1.0,1.0,5.0,0.0,0.0,0.0,4.0,0.0,0.14035806666666667,0.17542649333333335,1.19600912,14.146321573333331,22.1020508,9.782714813333332,241.43871309004876,-35.345504778253506,-13.697337918091774,49.92119374099134,-11.527762442323167,-12.804380445896522,52.810671744028085,0.8941404237963914,45.19005668752591,0.8655547827500343,0.02785493333333333,-0.02918649333333334,-0.5461071200000001,0.6031485466666667,0.5475954119774887,0.7669039331663116,0.7612548138371648,0.7527765974091795
LBP07_S05,LBP07,-1557,94,5,93,-1557,1716328820.72,2024-05-21 22:00:20.720000+00:00,2024-05-22 07:00:20.720000+09:00,2024,5,21,22,0,20,720,,,,,,,,,0.265869,1.113525,1.321533,251.159668,-42.724609,-30.822754,,,,,,,,,,,0.0,1.0,1.0,5.0,0.0,0.0,0.0,4.0,0.0,0.14268554666666666,0.17350266666666667,1.1948502666666667,12.660318973333332,21.468098973333333,10.848795546666667,206.1466218186533,-1.742521931886459,-12.326673352663256,58.167058613737474,-11.597463319598626,-13.297447380003051,60.78429048732375,0.8809101436474771,51.25563107723686,0.8590470349898973,0.12318345333333336,0.9400223333333334,0.12668273333333335,1.1898885200000002,0.9564855802704892,0.7715889699815083,0.7611422252279009,0.7563504392137638
LBP07_S05,LBP07,-1556,95,5,94,-1556,1716328820.76,2024-05-21 22:00:20.760000+00:00,2024-05-22 07:00:20.760000+09:00,2024,5,21,22,0,20,760,,,,,,,,,0.475342,0.766113,1.605469,37.536621,60.302734,-60.913086,,,,,,,,,,,0.0,1.0,1.0,5.0,0.0,0.0,0.0,4.0,0.0,0.15068684,0.17273117333333332,1.18769532,12.357584600000001,22.26562501333333,11.926269506666666,158.28416120687413,34.920165230000656,-6.118857400764223,64.49842506201244,-10.2006567103986,-13.54220167603362,66.68951536064573,0.8522242218034659,56.95276237621315,0.8566816591977158,0.32465516,0.5933818266666667,0.41777368000000004,1.3358106666666667,0.7950080583450951,0.788973134737412,0.7706898688159951,0.7570169498884419
LBP07_S05,LBP07,-1555,96,5,95,-1555,1716328820.8,2024-05-21 22:00:20.800000+00:00,2024-05-22 07:00:20.800000+09:00,2024,5,21,22,0,20,800,,,,,,,,,0.39502,0.146973,1.608154,-164.245605,192.016602,15.075684,,,,,,,,,,,0.0,1.0,1.0,5.0,0.0,0.0,0.0,4.0,0.0,0.15235676,0.17042649333333335,1.17857748,12.23063148,22.835286466666666,12.661946586666666,107.12512701302961,69.00598029645829,4.579802367871502,68.78343014253363,-7.440417498540269,-13.35900958131876,70.46263699095539,0.8402967564112588,61.89201982041275,0.8574097291132761,0.24266323999999997,-0.023453493333333353,0.42957652000000013,0.6956932533333334,0.49393471322852456,0.7727028976232562,0.7554811766438937,0.7525579289281042
LBP07_S05,LBP07,-1554,97,5,96,-1554,1716328820.84,2024-05-21 22:00:20.840000+00:00,2024-05-22 07:00:20.840000+09:00,2024,5,21,22,0,20,840,,,,,,,,,-0.054199,-0.049316,1.741455,-169.006348,199.523926,39.916992,,,,,,,,,,,0.0,1.0,1.0,5.0,0.0,0.0,0.0,4.0,0.0,0.15877604,0.17354173333333334,1.1838313866666668,12.800292933333331,21.10026042666667,12.928873666666666,61.12319865188135,95.76075080307204,18.407766142166373,71.22835808860889,-3.6099874664173868,-12.622698935632105,72.42819571083069,0.8289463481269456,65.8638682770875,0.8584154523233887,-0.21297504,-0.22285773333333334,0.5576236133333332,0.9934563866666666,0.637156206213512,0.7680737212596989,0.7530194505225201,0.750634566882861
LBP07_S05,LBP07,-1553,98,5,97,-1553,1716328820.88,2024-05-21 22:00:20.880000+00:00,2024-05-22 07:00:20.880000+09:00,2024,5,21,22,0,20,880,,,,,,,,,0.28418,-0.090576,1.701416,44.98291,111.633301,74.462891,,,,,,,,,,,0.0,1.0,1.0,5.0,0.0,0.0,0.0,4.0,0.0,0.15663410666666666,0.17008144000000003,1.1921158933333333,12.119140586666665,21.931966159999998,11.85628252,25.729276642231817,112.37522201199054,33.42162394278732,72.25752915429815,0.8850214140622352,-11.285833977920612,73.13893512326239,0.8257780050547002,68.81544470131874,0.8549317715111726,0.12754589333333333,-0.26065744,0.5093001066666667,0.89750344,0.5861713525789449,0.7850303078184627,0.7489400931644664,0.7479384486155838
LBP07_S05,LBP07,-1552,99,5,98,-1552,1716328820.92,2024-05-21 22:00:20.920000+00:00,2024-05-22 07:00:20.920000+09:00,2024,5,21,22,0,20,920,,,,,,,,,0.15332,0.299072,1.642334,75.500488,86.608887,77.270508,,,,,,,,,,,0.0,1.0,1.0,5.0,0.0,0.0,0.0,4.0,0.0,0.15762042666666665,0.18298508,1.1912142000000001,13.793945266666666,21.923014346666665,10.327148399999999,2.4958042262309315,118.41427613553944,47.64767218426969,72.35736132334739,5.6215924594838125,-9.379927090549824,73.17904803754969,0.8582549414705596,70.81270263233469,0.8454020113120352,-0.004300426666666635,0.11608692000000001,0.45111979999999985,0.5715071466666665,0.46583660291634627,0.750193964714436,0.7491501113573247,0.7433884188462412
LBP07_S05,LBP07,-1551,100,5,99,-1551,1716328820.96,2024-05-21 22:00:20.960000+00:00,2024-05-22 07:00:20.960000+09:00,2024,5,21,22,0,20,960,,,,,,,,,0.204834,0.25708,1.681152,82.458496,76.965332,72.631836,,,,,,,,,,,0.0,1.0,1.0,5.0,0.0,0.0,0.0,4.0,0.0,0.14862954666666667,0.18099614666666666,1.1880989600000003,9.730631466666667,22.436523453333333,10.709635373333333,-10.41996604597704,115.55783607511863,59.54437317611236,71.94056268150831,10.243905902488557,-6.998152163505329,73.00244037547402,0.8814576059150616,72.00665397627937,0.8354109628869597,0.05620445333333332,0.07608385333333331,0.4930530399999997,0.6253413466666664,0.5020448123084117,0.7393157728336504,0.7394055133521604,0.7395575679488153
LBP07_S05,LBP07,-1550,101,5,100,-1550,1716328821.0,2024-05-21 22:00:21+00:00,2024-05-22 07:00:21+09:00,2024,5,21,22,0,21,0,22.0,0.0,20.0,40.551346,141.570663,21.299999,3.0,6.0,0.248535,0.241455,1.700195,39.367676,77.392578,67.565918,-218.0,-35.0,354.0,645.0,0.0,1024.400024,25.23,0.112971,-92.366455,3.817969,0.0,1.0,1.0,5.0,0.0,0.0,0.0,5.0,0.0,0.14915362666666668,0.17554692,1.1807519599999998,7.26562496,20.61197917333333,11.771647093333332,-16.80985527515626,106.84754459616916,68.23541237519599,71.26816847050206,14.517807686335324,-4.26873566849749,72.85698786914529,0.8650162700097087,72.59625654372822,0.8279848835271937,0.09938137333333333,0.06590808000000001,0.5194430400000001,0.6847324933333334,0.5329555367752056,0.7323754762119072,0.7311921331920486,0.7363294112117277
LBP07_S05,LBP07,-1549,102,5,101,-1549,1716328821.04,2024-05-21 22:00:21.040000+00:00,2024-05-22 07:00:21.040000+09:00,2024,5,21,22,0,21,40,,,,,,,,,0.245605,0.256836,1.692383,61.645508,76.416016,44.677734,,,,,,,,,,,0.0,1.0,1.0,5.0,0.0,0.0,0.0,5.0,0.0,0.15849608,0.17089522666666668,1.1694596400000001,6.006673133333333,20.559082026666665,13.140462199999998,-20.724364027053305,95.75132733328348,73.48460908672243,70.43919390941993,18.347860779666664,-1.3293513050285926,72.80172531397228,0.8222929988761568,72.78958379976993,0.8215009194841858,0.08710891999999998,0.08594077333333333,0.5229233599999998,0.6959730533333331,0.5370499240279131,0.7411287411380265,0.7348785661918683,0.7332635729473614
LBP07_S05,LBP07,-1548,103,5,102,-1548,1716328821.08,2024-05-21 22:00:21.080000+00:00,2024-05-22 07:00:21.080000+09:00,2024,5,21,22,0,21,80,,,,,,,,,0.243164,0.345215,1.650879,-8.117676,79.589844,58.288574,,,,,,,,,,,0.0,1.0,1.0,5.0,0.0,0.0,0.0,5.0,0.0,0.16222004,0.1667318133333333,1.1602669333333333,5.568033813333332,20.979817706666665,13.709309853333334,-25.143963488601067,85.32962784906954,75.48724675544206,69.43343536987588,21.761045893629447,1.69013856518909,72.78325105418772,0.7988428218050181,72.77032975003966,0.8202509501307462,0.08094395999999998,0.17848318666666668,0.4906120666666667,0.7500392133333333,0.5283070816694657,0.727352547745953,0.7260176661044622,0.7301581715643629
LBP07_S05,LBP07,-1547,104,5,103,-1547,1716328821.12,2024-05-21 22:00:21.120000+00:00,2024-05-22 07:00:21.120000+09:00,2024,5,21,22,0,21,120,,,,,,,,,0.217285,0.40918,1.609375,-49.743652,76.477051,55.541992,,,,,,,,,,,0.0,1.0,1.0,5.0,0.0,0.0,0.0,5.0,0.0,0.16930989333333332,0.16779626666666667,1.1684537866666667,5.331217413333333,20.039062506666667,13.750813759999998,-31.342533904679446,77.67777915827477,74.60727522261772,68.1797340136887,24.86815705996044,4.674429574093798,72.72380392677051,0.7809996593967227,72.67667845734952,0.8178594711294276,0.047975106666666684,0.24138373333333332,0.44092121333333334,0.7302800533333333,0.5049546850410982,0.718319762825868,0.7254716990800053,0.7267969254968515
LBP07_S05,LBP07,-1546,105,5,104,-1546,1716328821.16,2024-05-21 22:00:21.160000+00:00,2024-05-22 07:00:21.160000+09:00,2024,5,21,22,0,21,160,,,,,,,,,0.236816,0.195312,1.644287,-60.180664,69.152832,66.162109,,,,,,,,,,,0.0,1.0,1.0,5.0,0.0,0.0,0.0,5.0,0.0,0.17178710666666666,0.16919926666666665,1.1830436266666666,5.449218719999999,21.125488293333333,12.791341106666666,-38.970787170284105,73.70048867192197,71.18252834933449,66.62090252687733,27.816176606837317,7.521730708067178,72.58554103513409,0.7779634282058048,72.5957006595591,0.8091994238620537,0.06502889333333334,0.02611273333333336,0.46124337333333343,0.5523850000000001,0.46653625931347353,0.7177405178349275,0.7196513098018648,0.7229695627588606
LBP07_S05,LBP07,-1545,106,5,105,-1545,1716328821.2,2024-05-21 22:00:21.200000+00:00,2024-05-22 07:00:21.200000+09:00,2024,5,21,22,0,21,200,,,,,,,,,0.245117,0.383057,1.590332,-98.999023,83.435059,71.777344,,,,,,,,,,,0.0,1.0,1.0,5.0,0.0,0.0,0.0,5.0,0.0,0.17244790666666665,0.16898441333333336,1.1956836,5.692545546666667,22.941894546666667,11.770019493333335,-46.65459354021997,73.18526729750577,65.46456602369422,64.75471878526854,30.74358729873755,10.140313349014946,72.39590955137257,0.7754571159811809,72.57111451578125,0.799012666981253,0.07266909333333335,0.21407258666666662,0.3946484000000001,0.6813900800000001,0.4548134003199623,0.6874487394438327,0.7190760053183268,0.719083241564094
LBP07_S05,LBP07,-1544,107,5,106,-1544,1716328821.24,2024-05-21 22:00:21.240000+00:00,2024-05-22 07:00:21.240000+09:00,2024,5,21,22,0,21,240,,,,,,,,,0.132812,0.410889,1.364502,-106.079102,83.984375,75.500488,,,,,,,,,,,0.0,1.0,1.0,5.0,0.0,0.0,0.0,5.0,0.0,0.1642936,0.17504234666666665,1.2028190266666667,5.672200506666666,24.1341146,11.330566359999999,-52.787973381416336,75.08962672849479,57.68719540822507,62.64319985001188,33.74717236787734,12.447801165343948,72.23565521352796,0.8164466545925498,72.61812377942576,0.7913563636854802,-0.0314816,0.23584665333333335,0.16168297333333337,0.4290112266666667,0.2876736325995153,0.6632689256952365,0.705879259276377,0.7129202471503143
LBP07_S05,LBP07,-1543,108,5,107,-1543,1716328821.28,2024-05-21 22:00:21.280000+00:00,2024-05-22 07:00:21.280000+09:00,2024,5,21,22,0,21,280,,,,,,,,,0.259277,0.039551,1.607666,-52.246094,87.463379,60.668945,,,,,,,,,,,0.0,1.0,1.0,5.0,0.0,0.0,0.0,5.0,0.0,0.16714516000000001,0.17285485333333334,1.2067838666666668,3.596191386666666,23.798014346666665,12.03450516,-56.21112411441904,77.93594015626375,48.200196214846095,60.39475488543512,36.86460997412789,14.375809013937792,72.20242219636107,0.8018632150415114,72.73813061870297,0.7856635565465704,0.09213183999999996,-0.13330385333333333,0.4008821333333332,0.6263178266666665,0.43239412355070783,0.6496879023922609,0.6980517652799716,0.7089691749869396
LBP07_S05,LBP07,-1542,109,5,108,-1542,1716328821.32,2024-05-21 22:00:21.320000+00:00,2024-05-22 07:00:21.320000+09:00,2024,5,21,22,0,21,320,,,,,,,,,0.357666,0.229004,1.593018,-67.138672,87.82959,49.560547,,,,,,,,,,,0.0,1.0,1.0,5.0,0.0,0.0,0.0,5.0,0.0,0.17643877333333333,0.17155602666666667,1.2049772266666667,2.8971353866666663,24.97721356,12.225748653333333,-56.57199295413807,80.21119431991394,37.58271902829634,58.1318751672696,40.07305774692445,15.879117775069645,72.36927005964542,0.771654468796822,72.92845936679593,0.779769081150892,0.18122722666666666,0.057447973333333346,0.3880407733333333,0.6267159733333333,0.43211019323146044,0.6538094659459982,0.6959912522807525,0.7051239113514468
LBP07_S05,LBP07,-1541,110,5,109,-1541,1716328821.36,2024-05-21 22:00:21.360000+00:00,2024-05-22 07:00:21.360000+09:00,2024,5,21,22,0,21,360,,,,,,,,,0.295654,0.30127,1.649902,-25.817871,80.627441,24.047852,,,,,,,,,,,0.0,1.0,1.0,5.0,0.0,0.0,0.0,5.0,0.0,0.1760644133333333,0.17398766666666668,1.1955078266666668,2.5854491866666662,27.21272788,12.206217399999998,-54.3224743055983,80.69133102295152,26.66783179332069,55.958976195045665,43.30071098784251,16.94583104680247,72.75657893769556,0.7795900371070533,73.18584552043491,0.781787032526525,0.11958958666666666,0.1272823333333333,0.4543941733333332,0.7012660933333332,0.4868023483685809,0.6414184000602541,0.6821219644553905,0.7021332050092157
LBP07_S05,LBP07,-1540,111,5,110,-1540,1716328821.4,2024-05-21 22:00:21.400000+00:00,2024-05-22 07:00:21.400000+09:00,2024,5,21,22,0,21,400,,,,,,,,,0.276855,0.209717,1.679688,-25.45166,75.073242,13.244629,,,,,,,,,,,0.0,1.0,1.0,5.0,0.0,0.0,0.0,5.0,0.0,0.16865229333333334,0.16970706666666666,1.1853450666666667,1.4770507466666662,26.617024746666665,12.892252560000001,-50.436422504131755,78.64381124443034,16.453123063986208,53.94151929488039,46.44646343761972,17.60395596936192,73.32708050559037,0.788453237051983,73.50523858310885,0.7844808278140607,0.10820270666666668,0.04000993333333333,0.49434293333333335,0.6425555733333334,0.5076254093639668,0.6354399604074722,0.6786172063659884,0.69950472128428
LBP07_S05,LBP07,-1539,112,5,111,-1539,1716328821.44,2024-05-21 22:00:21.440000+00:00,2024-05-22 07:00:21.440000+09:00,2024,5,21,22,0,21,440,,,,,,,,,0.173584,0.192383,1.638672,-35.583496,86.486816,1.953125,,,,,,,,,,,0.0,1.0,1.0,5.0,0.0,0.0,0.0,5.0,0.0,0.181123,0.17385420000000001,1.1962337333333333,1.1319986666666664,25.536295586666665,12.102050733333334,-46.011157810876185,73.89647228120155,7.920502137218339,52.101072982445345,49.40232232886778,17.920776054850652,74.0017937067444,0.7653649274870576,73.8767230375966,0.7852351803971297,-0.007539000000000018,0.018528799999999984,0.44243826666666664,0.4685060666666666,0.44289024911533603,0.6390354942257801,0.6714618546677938,0.6960831949886941
LBP07_S05,LBP07,-1538,113,5,112,-1538,1716328821.48,2024-05-21 22:00:21.480000+00:00,2024-05-22 07:00:21.480000+09:00,2024,5,21,22,0,21,480,,,,,,,,,0.11792,0.070557,1.724365,-31.921387,65.124512,-3.112793,,,,,,,,,,,0.0,1.0,1.0,5.0,0.0,0.0,0.0,5.0,0.0,0.18663406666666665,0.17004561333333332,1.21645508,2.0239257466666665,26.831054706666666,10.138346306666666,-41.91528618819306,66.78697967830391,1.8221769534156362,50.424461534917626,52.07380151599994,17.993663132987276,74.68653853511736,0.7398980678482354,74.28335834723434,0.7831058731449867,-0.06871406666666666,-0.09948861333333332,0.5079099199999999,0.6761126,0.5221035280241525,0.6079956147130002,0.6740609820099189,0.7014572016032102
LBP07_S05,LBP07,-1537,114,5,113,-1537,1716328821.52,2024-05-21 22:00:21.520000+00:00,2024-05-22 07:00:21.520000+09:00,2024,5,21,22,0,21,520,,,,,,,,,0.12085,0.280029,1.723877,-17.578125,51.147461,-14.953613,,,,,,,,,,,0.0,1.0,1.0,5.0,0.0,0.0,0.0,5.0,0.0,0.17710606666666664,0.1829102,1.2270768266666665,2.1386718399999993,28.16162112,7.8344726133333324,-38.59223970095584,58.02422592679328,-1.4991488149872827,48.88077194687939,54.39477055307167,17.933697180387785,75.29766546316023,0.8011791731530521,74.70184404989084,0.7823678935168374,-0.056256066666666646,0.09711879999999998,0.4968001733333336,0.6501750400000001,0.5093203496565543,0.5825838867802072,0.6679002002534336,0.6937289418008731
LBP07_S05,LBP07,-1536,115,5,114,-1536,1716328821.56,2024-05-21 22:00:21.560000+00:00,2024-05-22 07:00:21.560000+09:00,2024,5,21,22,0,21,560,,,,,,,,,0.241943,0.397461,1.566162,-56.335449,33.203125,-16.967773,,,,,,,,,,,0.0,1.0,1.0,5.0,0.0,0.0,0.0,5.0,0.0,0.17425450666666667,0.18133468,1.2329980533333333,0.9627278266666661,25.658365919999998,8.031412719999999,-36.05265178879987,48.504985562616234,-2.197509687772641,47.438665875327395,56.33496997557632,17.84579679287688,75.77947166187353,0.8049013810811612,75.10644219540458,0.7827242123381388,0.06768849333333332,0.21612632,0.3331639466666667,0.6169787600000001,0.40285299264742797,0.5518871673628879,0.662443734493489,0.6899284776238476
LBP07_S05,LBP07,-1535,116,5,115,-1535,1716328821.6,2024-05-21 22:00:21.600000+00:00,2024-05-22 07:00:21.600000+09:00,2024,5,21,22,0,21,600,,,,,,,,,0.187012,0.125732,1.599121,-56.884766,33.38623,0.488281,,,,,,,,,,,0.0,1.0,1.0,5.0,0.0,0.0,0.0,5.0,0.0,0.18501296,0.18410812,1.2319303333333333,0.9944661066666661,25.381673213333332,8.243815066666668,-34.01672925778993,39.13548707859628,-0.8851576598963408,46.0779967050158,57.90038945872017,17.810390486481026,76.11075409625012,0.7830006418118715,75.4750597070509,0.779937177497353,0.0019990400000000075,-0.058376119999999976,0.36719066666666667,0.42756582666666665,0.37180741417336893,0.5288100075595296,0.655919450281355,0.6838252836709648
LBP07_S05,LBP07,-1534,117,5,116,-1534,1716328821.64,2024-05-21 22:00:21.640000+00:00,2024-05-22 07:00:21.640000+09:00,2024,5,21,22,0,21,640,,,,,,,,,0.169189,0.014893,1.587646,-62.927246,32.775879,10.559082,,,,,,,,,,,0.0,1.0,1.0,5.0,0.0,0.0,0.0,5.0,0.0,0.18026685333333334,0.18389978666666668,1.2116568933333332,0.5957030799999995,28.178710973333335,8.331705693333333,-32.11875738378807,30.700731434938767,1.5285324609909465,44.79324640966428,59.12841871611772,17.871531784920663,76.30200830990539,0.7951535820711192,75.79546687335638,0.7825351775176207,-0.011077853333333332,-0.1690067866666667,0.37598910666666674,0.5560737466666668,0.4123758250744885,0.5126722276316596,0.6424988507205588,0.6831750686593462
LBP07_S05,LBP07,-1533,118,5,117,-1533,1716328821.68,2024-05-21 22:00:21.680000+00:00,2024-05-22 07:00:21.680000+09:00,2024,5,21,22,0,21,680,,,,,,,,,0.193115,0.214844,1.442139,-11.169434,28.320312,16.540527,,,,,,,,,,,0.0,1.0,1.0,5.0,0.0,0.0,0.0,5.0,0.0,0.18144523999999998,0.18485030666666666,1.2033268133333332,1.9344075066666664,25.274251333333332,9.199218720000001,-30.075537502462037,23.80082820624731,4.077556816853604,43.5902249095658,60.080451844367616,18.034634057594808,76.38727922292603,0.7944834187600192,76.06963931433782,0.7886281579431915,0.011669760000000029,0.02999369333333335,0.23881218666666681,0.2804756400000002,0.24097108838768722,0.5004072546880676,0.6336555939271896,0.6743056274541324
LBP07_S05,LBP07,-1532,119,5,118,-1532,1716328821.72,2024-05-21 22:00:21.720000+00:00,2024-05-22 07:00:21.720000+09:00,2024,5,21,22,0,21,720,,,,,,,,,0.185303,0.206299,1.41748,-25.20752,28.320312,17.63916,,,,,,,,,,,0.0,1.0,1.0,5.0,0.0,0.0,0.0,5.0,0.0,0.18962884,0.18571618666666667,1.21395832,-0.3743490000000005,25.086263053333333,8.881835906666668,-27.755388804293645,18.84295033078291,5.987001511748264,42.48000935739405,60.83416985759893,18.274114118064738,76.41525151478295,0.7752176570098369,76.31492847152138,0.7953301500920231,-0.0043258399999999975,0.02058281333333334,0.20352168000000015,0.22843033333333349,0.20460557012565153,0.47033205428227404,0.6209605121318912,0.6642055015793585
LBP07_S05,LBP07,-1531,120,5,119,-1531,1716328821.76,2024-05-21 22:00:21.760000+00:00,2024-05-22 07:00:21.760000+09:00,2024,5,21,22,0,21,760,,,,,,,,,0.180176,0.134277,1.357178,-20.812988,23.864746,12.817383,,,,,,,,,,,0.0,1.0,1.0,5.0,0.0,0.0,0.0,5.0,0.0,0.19513339999999998,0.1821256933333333,1.23242512,2.7652994399999997,26.56250004,6.993001266666667,-25.145333388015143,16.056236997210412,6.852048605669082,41.474196021873446,61.47641933748734,18.548196062291503,76.44275405415857,0.7517196886991945,76.56170694325408,0.7960592182617138,-0.014957399999999982,-0.0478486933333333,0.12475287999999995,0.18755897333333324,0.134448883731929,0.44390968729774744,0.6164414110175798,0.6617631416432459
LBP07_S05,LBP07,-1530,121,5,120,-1530,1716328821.8,2024-05-21 22:00:21.800000+00:00,2024-05-22 07:00:21.800000+09:00,2024,5,21,22,0,21,800,,,,,,,,,0.19043,0.141113,1.250732,-15.625,20.141602,12.145996,,,,,,,,,,,0.0,1.0,1.0,5.0,0.0,0.0,0.0,5.0,0.0,0.18098625333333332,0.19206385333333334,1.2448827999999998,2.8833007466666665,28.174641973333333,5.132649693333334,-22.264241390653694,15.495533946279938,6.696133951069549,40.5836263662473,62.09624069533854,18.816041420334283,76.53115216864514,0.8144332372546599,76.84797628706073,0.7962393325775546,0.00944374666666667,-0.05095085333333335,0.00584920000000011,0.06624380000000013,0.052147741534404206,0.42623820842998256,0.5994705530266193,0.64573352057259
LBP07_S05,LBP07,-1529,122,5,121,-1529,1716328821.84,2024-05-21 22:00:21.840000+00:00,2024-05-22 07:00:21.840000+09:00,2024,5,21,22,0,21,840,,,,,,,,,0.213379,0.006592,1.308838,-2.868652,20.324707,14.160156,,,,,,,,,,,0.0,1.0,1.0,5.0,0.0,0.0,0.0,5.0,0.0,0.1747557866666667,0.1899968,1.2531477733333332,1.7089843333333328,25.268554733333335,5.261230426666667,-19.08576879748016,17.017466207925665,5.896849738268682,39.820195614348094,62.77693934365556,19.051915409865032,76.74351811655893,0.8262947317427661,77.21203260553662,0.7946820136265524,0.03862321333333332,-0.1834048,0.05569022666666679,0.2777182400000001,0.19552614816800565,0.40857300610816233,0.5883233636839306,0.6382039690510676
LBP07_S05,LBP07,-1528,123,5,122,-1528,1716328821.88,2024-05-21 22:00:21.880000+00:00,2024-05-22 07:00:21.880000+09:00,2024,5,21,22,0,21,880,,,,,,,,,0.149414,0.206055,1.203125,-6.408691,-16.235352,-31.677246,,,,,,,,,,,0.0,1.0,1.0,5.0,0.0,0.0,0.0,5.0,0.0,0.1832584,0.19150721333333334,1.2448372266666667,1.1702473599999996,26.512044319999998,5.51757808,-15.520970624178458,20.24011514453196,5.011223519918538,39.19935678938096,63.586543949436845,19.25236435066177,77.13943010695297,0.8069179893365503,77.68455890305543,0.7934312113004862,-0.0338444,0.014547786666666646,-0.04171222666666674,0.09010441333333338,0.055650618700516054,0.38735217675302525,0.586191242285744,0.628410787693986
LBP07_S05,LBP07,-1527,124,5,123,-1527,1716328821.92,2024-05-21 22:00:21.920000+00:00,2024-05-22 07:00:21.920000+09:00,2024,5,21,22,0,21,920,,,,,,,,,0.407227,0.425537,1.333252,-18.127441,8.911133,0.732422,,,,,,,,,,,0.0,1.0,1.0,5.0,0.0,0.0,0.0,5.0,0.0,0.17360345333333335,0.18198248,1.2219824133333332,0.0732421466666663,28.223470106666664,6.352539026666666,-11.480288238226057,24.52137143266265,4.564716386631407,38.740145259851914,64.56739880674336,19.434953006127028,77.76545018048719,0.8084698548499589,78.28141270185,0.7966841047839399,0.23362354666666665,0.24355452,0.11126958666666686,0.5884476533333335,0.35535853259280753,0.38293305394008365,0.5665635093272597,0.627077758884911
LBP07_S05,LBP07,-1526,125,5,124,-1526,1716328821.96,2024-05-21 22:00:21.960000+00:00,2024-05-22 07:00:21.960000+09:00,2024,5,21,22,0,21,960,,,,,,,,,0.154785,-0.182373,1.43335,-33.081055,63.598633,2.380371,,,,,,,,,,,0.0,1.0,1.0,5.0,0.0,0.0,0.0,5.0,0.0,0.17670241333333334,0.18457037333333334,1.2148437333333333,-0.401204466666667,26.37532557333333,6.5275064799999996,-6.997152684628427,28.993674432117835,4.878724901615012,38.460259152466776,65.72714578402807,19.630102002191627,78.64216509994006,0.80670252423957,78.99805193553024,0.8035960598435491,-0.02191741333333333,-0.3669433733333334,0.21850626666666662,0.6073670533333333,0.42763629501373557,0.3799567132482966,0.5596362430409735,0.6195892466508724
LBP07_S05,LBP07,-1525,126,5,125,-1525,1716328822.0,2024-05-21 22:00:22+00:00,2024-05-22 07:00:22+09:00,2024,5,21,22,0,22,0,22.0,0.0,21.0,40.551426,141.570709,21.108999,3.0,6.0,0.199707,0.349609,1.274414,8.178711,39.428711,5.065918,-223.0,-5.0,394.0,1096.0,0.0,1024.599976,25.290001,0.114953,-94.015396,3.817969,0.0,1.0,1.0,5.0,0.0,0.0,0.0,5.0,0.0,0.19159824,0.18467778666666668,1.2315104000000001,-1.555175826666667,26.518554733333332,5.36865232,-2.3615691275498367,32.66630329506376,5.9919847660637044,38.36579638736478,67.03379791583062,19.869781392834174,79.75131728100904,0.7674274523018496,79.8062716732394,0.8155762599910037,0.008108759999999993,0.16493121333333333,0.04290359999999982,0.21594357333333314,0.17061294210376626,0.365463009461439,0.5489192428366731,0.6092824252818454
LBP07_S05,LBP07,-1524,127,5,126,-1524,1716328822.04,2024-05-21 22:00:22.040000+00:00,2024-05-22 07:00:22.040000+09:00,2024,5,21,22,0,22,40,,,,,,,,,0.142334,0.154541,1.371826,-9.521484,37.414551,10.864258,,,,,,,,,,,0.0,1.0,1.0,5.0,0.0,0.0,0.0,5.0,0.0,0.19232089333333335,0.19124029333333334,1.2511881333333335,-0.030110720000000507,28.40332036,3.4033202933333335,1.8019202470339053,34.56833991254248,7.690056951573537,38.43787319724614,68.41653151233231,20.177383670897115,81.02727128509339,0.7826455588104573,80.65387862129467,0.8225674346360842,-0.049986893333333365,-0.03669929333333333,0.12063786666666654,0.20732405333333323,0.13564299653932932,0.3494067323618957,0.5452677367499611,0.6063879549152107
LBP07_S05,LBP07,-1523,128,5,127,-1523,1716328822.08,2024-05-21 22:00:22.080000+00:00,2024-05-22 07:00:22.080000+09:00,2024,5,21,22,0,22,80,,,,,,,,,0.237549,0.022705,1.325195,-27.282715,32.104492,19.348145,,,,,,,,,,,0.0,1.0,1.0,5.0,0.0,0.0,0.0,5.0,0.0,0.18213534666666667,0.19833013333333332,1.27342772,-1.7016602000000005,29.020996146666665,1.5437825333333335,4.563681623509123,33.88937803745046,9.616042693594911,38.62042046218651,69.77210663383033,20.56202537864091,82.35581721087186,0.8270123535945557,81.46800246599784,0.8231073116808345,0.05541365333333334,-0.17562513333333332,0.05176727999999997,0.28280606666666663,0.19129744303752821,0.3359263468166182,0.5316394472812855,0.5959872263418475
LBP07_S05,LBP07,-1522,129,5,128,-1522,1716328822.12,2024-05-21 22:00:22.120000+00:00,2024-05-22 07:00:22.120000+09:00,2024,5,21,22,0,22,120,,,,,,,,,0.198486,0.29126,1.302246,31.005859,6.835938,16.479492,,,,,,,,,,,0.0,1.0,1.0,5.0,0.0,0.0,0.0,5.0,0.0,0.18280592,0.2062826,1.2932910133333333,-6.825358106666667,29.73470057333333,0.8577473733333335,4.844350534823974,30.093540119786507,11.412531662347988,38.81419448357947,70.9758482386218,21.01852664513483,83.5816438515853,0.8443372076059289,82.16260689745685,0.8248030144905437,0.015680079999999985,0.08497740000000001,0.00895498666666672,0.10961246666666671,0.08687470981687696,0.3192031478076493,0.5187614553167587,0.5900488486558866
LBP07_S05,LBP07,-1521,130,5,129,-1521,1716328822.16,2024-05-21 22:00:22.160000+00:00,2024-05-22 07:00:22.160000+09:00,2024,5,21,22,0,22,160,,,,,,,,,0.23999,0.269043,1.296143,5.92041,9.033203,15.258789,,,,,,,,,,,0.0,1.0,1.0,5.0,0.0,0.0,0.0,5.0,0.0,0.17470696000000002,0.20851892000000002,1.2889713466666666,-12.814127626666666,33.30240890666666,0.5761718533333334,1.6743450760511212,23.01248926143137,12.842821924973125,38.88116828662152,71.89634780907905,21.532239522133757,84.52495143125009,0.8715216901737411,82.65009880583845,0.830717730111204,0.06528303999999999,0.06052407999999995,0.007171653333333472,0.1329787733333334,0.0893110977595814,0.3041141413454936,0.5109273295902106,0.5811389203164077
LBP07_S05,LBP07,-1520,131,5,130,-1520,1716328822.2,2024-05-21 22:00:22.200000+00:00,2024-05-22 07:00:22.200000+09:00,2024,5,21,22,0,22,200,,,,,,,,,0.232666,0.190674,1.285889,-9.70459,18.310547,15.258789,,,,,,,,,,,0.0,1.0,1.0,5.0,0.0,0.0,0.0,5.0,0.0,0.17558912000000002,0.21528976,1.2781315066666668,-18.877766946666664,33.29915369333333,2.3771158666666667,-5.501967047509378,12.933094067756825,13.853438983245935,38.66108960472114,72.41367157178932,22.086377081463596,85.00722164919783,0.8843449837054632,82.85569556785066,0.8387929509862364,0.057076879999999997,-0.024615759999999987,0.00775749333333331,0.08945013333333329,0.06264091772738255,0.28842724204179043,0.4879379907428115,0.5755264175594814
LBP07_S05,LBP07,-1519,132,5,131,-1519,1716328822.24,2024-05-21 22:00:22.240000+00:00,2024-05-22 07:00:22.240000+09:00,2024,5,21,22,0,22,240,,,,,,,,,0.207031,0.2854,1.223877,-7.507324,24.658203,21.42334,,,,,,,,,,,0.0,1.0,1.0,5.0,0.0,0.0,0.0,5.0,0.0,0.17980461333333334,0.19767582666666667,1.2736881466666667,-24.262695333333333,33.64095055999999,3.4871419066666665,-16.560067537514257,0.6738383030059963,14.562244645090946,37.99868690322057,72.44062510390957,22.668866867267234,84.88475656359064,0.8316935021902687,82.73180625026467,0.8524440184943023,0.027226386666666658,0.08772417333333332,-0.04981114666666664,0.16476170666666662,0.10448902837230198,0.2810998578727019,0.4721843917839692,0.564286125475152
LBP07_S05,LBP07,-1518,133,5,132,-1518,1716328822.28,2024-05-21 22:00:22.280000+00:00,2024-05-22 07:00:22.280000+09:00,2024,5,21,22,0,22,280,,,,,,,,,0.156494,0.17627,1.078125,-21.54541,12.084961,15.74707,,,,,,,,,,,0.0,1.0,1.0,5.0,0.0,0.0,0.0,5.0,0.0,0.17811190666666665,0.19268885333333335,1.2722460800000002,-22.82389325333333,34.07389328,2.9785155999999997,-30.549849591341605,-12.393244698914323,15.179256619488509,36.77669291956691,71.94489531595299,23.276037132046774,84.0854744215431,0.8238750174336428,82.2689063165919,0.8653221218559424,-0.02161790666666666,-0.016418853333333344,-0.19412108000000017,0.23215784000000017,0.1960099648839229,0.27164449152603054,0.46066619695914574,0.5559160073619913
LBP07_S05,LBP07,-1517,134,5,133,-1517,1716328822.32,2024-05-21 22:00:22.320000+00:00,2024-05-22 07:00:22.320000+09:00,2024,5,21,22,0,22,320,,,,,,,,,0.308594,0.316895,0.879395,1.586914,-2.319336,11.047363,,,,,,,,,,,0.0,1.0,1.0,5.0,0.0,0.0,0.0,5.0,0.0,0.16433585333333334,0.19448572,1.2749414,-21.250813826666665,31.61295577333333,1.7496744533333337,-45.7362124442134,-24.43931245307654,15.886571324213774,34.94724442179837,70.96732281782992,23.911499985015325,82.6403692643032,0.8676170110565616,81.49997768157286,0.8730428534771904,0.14425814666666664,0.12240927999999998,-0.39554639999999985,0.6622138266666665,0.43846482100937106,0.27189867663714695,0.4628540712915726,0.5546270603995507
LBP07_S05,LBP07,-1516,135,5,134,-1516,1716328822.36,2024-05-21 22:00:22.360000+00:00,2024-05-22 07:00:22.360000+09:00,2024,5,21,22,0,22,360,,,,,,,,,-0.138184,0.13208,0.431641,-53.710938,-30.639648,1.647949,,,,,,,,,,,0.0,1.0,1.0,5.0,0.0,0.0,0.0,5.0,0.0,0.16410798666666665,0.20240564000000003,1.2789029866666666,-18.470865906666663,27.446289106666665,0.40445961333333363,-59.86160996787414,-33.43681161981824,16.71894719146721,32.55278002308341,69.6298503530372,24.580257872674014,80.69813272006216,0.8874547329898955,80.49756726015961,0.8744991112992653,-0.3022919866666667,-0.07032564000000002,-0.8472619866666666,1.2198796133333334,0.9023186881000729,0.28851933022640663,0.46496886514333036,0.5509210863790626
LBP07_S05,LBP07,-1515,136,5,135,-1515,1716328822.4,2024-05-21 22:00:22.400000+00:00,2024-05-22 07:00:22.400000+09:00,2024,5,21,22,0,22,400,,,,,,,,,0.165527,0.695312,0.346924,-15.930176,-81.359863,-27.709961,,,,,,,,,,,0.0,1.0,1.0,5.0,0.0,0.0,0.0,5.0,0.0,0.16196605333333333,0.20680342666666668,1.2660221333333335,-19.208170586666665,27.530924519999996,-0.9016927333333331,-70.61684160370383,-37.55797665910723,17.494300790514203,29.728106358935253,68.1275312866729,25.280029904294583,78.51242410514907,0.9039381273825077,79.36482873961498,0.8767513201117334,0.0035609466666666756,0.48850857333333336,-0.9190981333333335,1.4111676533333335,1.040862471827162,0.3098488127249344,0.4726443865662033,0.5556944084856371
LBP07_S05,LBP07,-1514,137,5,136,-1514,1716328822.44,2024-05-21 22:00:22.440000+00:00,2024-05-22 07:00:22.440000+09:00,2024,5,21,22,0,22,440,,,,,,,,,0.122803,-0.258301,0.512939,-238.40332,-49.926758,52.124023,,,,,,,,,,,0.0,1.0,1.0,5.0,0.0,0.0,0.0,5.0,0.0,0.15304353333333331,0.19845056,1.2447037733333333,-19.851888026666664,26.44287113333333,-1.0107422133333333,-76.22747503570923,-35.61676149990309,17.833308446329802,26.679007357506883,66.70286082667678,25.993362242147775,76.39827194836565,0.9114265924268581,78.22306140826815,0.8798239894670175,-0.03024053333333332,-0.45675156,-0.7317647733333332,1.2187568666666666,0.8631431867948114,0.3266589302321134,0.4828472122289467,0.5565275465225671
LBP07_S05,LBP07,-1513,138,5,137,-1513,1716328822.48,2024-05-21 22:00:22.480000+00:00,2024-05-22 07:00:22.480000+09:00,2024,5,21,22,0,22,480,,,,,,,,,0.216064,-0.018799,0.723877,-102.844238,-68.969727,33.569336,,,,,,,,,,,0.0,1.0,1.0,5.0,0.0,0.0,0.0,5.0,0.0,0.15465812,0.19755864,1.2281477866666668,-22.25016276,24.92350264,-1.2410481999999998,-75.97655278156402,-27.412022006853384,17.271037733973664,23.639945246244324,65.60637994640265,26.684203751506722,74.66653086068148,0.9042196698070356,77.19775992665171,0.8885817830931106,0.061405879999999996,-0.21635764000000002,-0.5042707866666668,0.7820343066666668,0.5521506468078825,0.32786081498346265,0.4679282148482315,0.5586609263344334
LBP07_S05,LBP07,-1512,139,5,138,-1512,1716328822.52,2024-05-21 22:00:22.520000+00:00,2024-05-22 07:00:22.520000+09:00,2024,5,21,22,0,22,520,,,,,,,,,0.393311,-0.117432,0.874512,-81.542969,-13.916016,43.029785,,,,,,,,,,,0.0,1.0,1.0,5.0,0.0,0.0,0.0,5.0,0.0,0.16256502666666667,0.18898442666666665,1.2210807333333333,-23.23242188,23.76546228,-2.1150716399999996,-70.45219290864618,-13.846179228413321,15.4131595317879,20.821857529898477,65.05253277726612,27.300730132778238,73.55753963745293,0.8588997858266774,76.40412109171888,0.9000925169982636,0.23074597333333335,-0.30641642666666663,-0.3465687333333334,0.8837311333333333,0.5169570752634954,0.3281662840077403,0.4553750853939737,0.554655561504869
LBP07_S05,LBP07,-1511,140,5,139,-1511,1716328822.56,2024-05-21 22:00:22.560000+00:00,2024-05-22 07:00:22.560000+09:00,2024,5,21,22,0,22,560,,,,,,,,,0.409912,0.153076,0.92334,-10.192871,23.132324,6.774902,,,,,,,,,,,0.0,1.0,1.0,5.0,0.0,0.0,0.0,5.0,0.0,0.15779614666666664,0.19734379999999999,1.21963868,-22.500813813333334,23.78255212,-4.24153648,-61.389777825250164,3.230556095174326,12.060203218043368,18.36626641688847,65.1817550210731,27.78313826149997,73.19756622580383,0.894043778298423,75.93270072775167,0.908097941963276,0.25211585333333336,-0.044267799999999996,-0.29629868000000004,0.5926823333333334,0.3915545292658192,0.32771434547247597,0.43980075641768196,0.5508672714864846
LBP07_S05,LBP07,-1510,141,5,140,-1510,1716328822.6,2024-05-21 22:00:22.600000+00:00,2024-05-22 07:00:22.600000+09:00,2024,5,21,22,0,22,600,,,,,,,,,0.318848,0.275635,0.999512,-27.038574,61.523438,-1.281738,,,,,,,,,,,0.0,1.0,1.0,5.0,0.0,0.0,0.0,5.0,0.0,0.14894524,0.19461918666666667,1.2206477866666665,-23.1201172,22.093912800000002,-5.70963544,-51.150516513368345,21.400125940645133,7.243034806008553,16.32024575635374,66.03776005869891,28.072859653740313,73.58954833572952,0.9150716772583042,75.8367210141227,0.9121500467805685,0.16990276,0.08101581333333335,-0.22113578666666656,0.4720543599999999,0.29039894285338674,0.32445800661967666,0.4266340070896031,0.5454323023941289
LBP07_S05,LBP07,-1509,142,5,141,-1509,1716328822.64,2024-05-21 22:00:22.640000+00:00,2024-05-22 07:00:22.640000+09:00,2024,5,21,22,0,22,640,,,,,,,,,0.205566,0.213379,1.032959,5.92041,49.560547,-19.958496,,,,,,,,,,,0.0,1.0,1.0,5.0,0.0,0.0,0.0,5.0,0.0,0.14777337333333335,0.19479821333333333,1.2229329466666667,-22.028808613333332,20.474446653333334,-7.233886733333332,-42.03458161337969,38.15478823191741,1.1690078000739528,14.63886249181855,67.56395158797561,28.119619965743272,74.63174174742615,0.919271438451201,76.12355942417157,0.9109257516194361,0.05779262666666665,0.018580786666666682,-0.18997394666666678,0.26634736000000014,0.19943754346234424,0.3159404753551909,0.4143063514934252,0.5336460589321028
LBP07_S05,LBP07,-1508,143,5,142,-1508,1716328822.68,2024-05-21 22:00:22.680000+00:00,2024-05-22 07:00:22.680000+09:00,2024,5,21,22,0,22,680,,,,,,,,,0.184326,-0.016846,1.300781,-51.330566,50.598145,-16.723633,,,,,,,,,,,0.0,1.0,1.0,5.0,0.0,0.0,0.0,5.0,0.0,0.14164708,0.19470381333333334,1.20499024,-21.219075546666662,21.6227214,-8.417968759999999,-35.67363812115332,51.333352397773474,-5.870488985927089,13.211916966972417,69.61728568388655,27.884800406306187,76.14908607221483,0.9389823564851724,76.75316627225898,0.9137173419541014,0.04267891999999998,-0.21154981333333334,0.09579075999999986,0.35001949333333315,0.23611582631224057,0.315746264872173,0.40807675978012026,0.5276858175755175
LBP07_S05,LBP07,-1507,144,5,143,-1507,1716328822.72,2024-05-21 22:00:22.720000+00:00,2024-05-22 07:00:22.720000+09:00,2024,5,21,22,0,22,720,,,,,,,,,0.189941,0.238281,1.324219,-21.66748,31.555176,-10.803223,,,,,,,,,,,0.0,1.0,1.0,5.0,0.0,0.0,0.0,5.0,0.0,0.13895502666666665,0.19462242666666668,1.1819726666666668,-18.28287764,19.39778649333333,-8.500976573333332,-32.68059760424635,59.42444253104431,-13.56697103475636,11.904693062802563,71.99426338512832,27.34212156491593,77.92616562463091,0.9476712607066853,77.64492079568534,0.9189485840893742,0.05098597333333335,0.04365857333333331,0.14224633333333325,0.23689087999999991,0.15728846063531546,0.31385358049255957,0.3920928173874168,0.5185915349187806
LBP07_S05,LBP07,-1506,145,5,144,-1506,1716328822.76,2024-05-21 22:00:22.760000+00:00,2024-05-22 07:00:22.760000+09:00,2024,5,21,22,0,22,760,,,,,,,,,0.311035,0.249512,1.595459,-43.212891,32.287598,-10.437012,,,,,,,,,,,0.0,1.0,1.0,5.0,0.0,0.0,0.0,5.0,0.0,0.14144852,0.1899512,1.1722981866666666,-18.115234399999995,17.68717452,-8.978678386666665,-32.61748553453364,61.72016225658266,-21.598772762341902,10.599993641421218,74.46306987539162,26.478170654422254,79.7383355837726,0.9279757811628204,78.69191515532202,0.9287626513113789,0.16958648,0.059560800000000025,0.42316081333333333,0.6523080933333334,0.459752256151461,0.32686571538934084,0.38538770134354416,0.5199161791415001
LBP07_S05,LBP07,-1505,146,5,145,-1505,1716328822.8,2024-05-21 22:00:22.800000+00:00,2024-05-22 07:00:22.800000+09:00,2024,5,21,22,0,22,800,,,,,,,,,0.283691,0.289795,1.631592,-22.094727,78.674316,-46.447754,,,,,,,,,,,0.0,1.0,1.0,5.0,0.0,0.0,0.0,5.0,0.0,0.14876297333333333,0.18510093333333336,1.17118816,-17.79378257333333,17.682291706666668,-10.263671866666666,-34.240620162703564,58.351203033720445,-29.57833842637458,9.230368834913076,76.79711799674044,25.295037117367272,81.38080820563775,0.8916951757711846,79.77908410894112,0.9382299634254292,0.1349280266666667,0.10469406666666667,0.4604038399999999,0.7000259333333333,0.4910581593478624,0.3444221321018792,0.38533017026593086,0.5144544127183726
LBP07_S05,LBP07,-1504,147,5,146,-1504,1716328822.84,2024-05-21 22:00:22.840000+00:00,2024-05-22 07:00:22.840000+09:00,2024,5,21,22,0,22,840,,,,,,,,,0.115234,0.418945,1.105713,-38.085938,130.126953,-37.17041,,,,,,,,,,,0.0,1.0,1.0,5.0,0.0,0.0,0.0,5.0,0.0,0.13883784000000002,0.19100588000000002,1.1732845066666668,-16.01481121333333,17.4064128,-12.651367186666667,-35.924162837994615,50.22929171694804,-36.98449762653042,7.793402321393291,78.80628966541836,23.815657212306057,82.6943404292397,0.9393424957735096,80.80062075033096,0.945866813400065,-0.023603840000000015,0.22793912,-0.06757150666666689,0.3191144666666669,0.23891272925970983,0.34615759534554735,0.3773653007268548,0.5076014409044695
LBP07_S05,LBP07,-1503,148,5,147,-1503,1716328822.88,2024-05-21 22:00:22.880000+00:00,2024-05-22 07:00:22.880000+09:00,2024,5,21,22,0,22,880,,,,,,,,,-0.544434,-0.147705,0.172363,-85.449219,32.531738,28.747559,,,,,,,,,,,0.0,1.0,1.0,5.0,0.0,0.0,0.0,5.0,0.0,0.1325618,0.18916993333333332,1.1775227866666667,-15.922851573333334,14.751790413333332,-13.704427093333333,-36.14116959436512,38.889289262262636,-43.13750604549233,6.347755537618687,80.36186123590886,22.090156970486365,83.58407609494506,0.9565320911597643,81.67326746956478,0.9487938882506161,-0.6769958,-0.3368749333333333,-1.0051597866666666,2.0190305200000003,1.2578371240577042,0.39424505555983486,0.39079861615643,0.5222091800437743
LBP07_S05,LBP07,-1502,149,5,148,-1502,1716328822.92,2024-05-21 22:00:22.920000+00:00,2024-05-22 07:00:22.920000+09:00,2024,5,21,22,0,22,920,,,,,,,,,0.534424,0.260254,0.668945,-35.644531,-68.054199,-19.165039,,,,,,,,,,,0.0,1.0,1.0,5.0,0.0,0.0,0.0,5.0,0.0,0.13264969333333332,0.1895149866666667,1.1736165333333333,-15.253906266666663,14.10400396,-14.35546876,-33.879992784721324,26.2179625408481,-47.27259309173304,4.992555826229834,81.41057973754279,20.199253246817044,84.0274832338199,0.9570404580467256,82.34417567151607,0.9500135897196189,0.4017743066666667,0.0707390133333333,-0.5046715333333333,0.9771848533333333,0.64893756098863,0.4059882166956678,0.3944606353178757,0.5130384117833958
LBP07_S05,LBP07,-1501,150,5,149,-1501,1716328822.96,2024-05-21 22:00:22.960000+00:00,2024-05-22 07:00:22.960000+09:00,2024,5,21,22,0,22,960,,,,,,,,,0.487549,-0.182861,1.814941,-34.606934,48.278809,-91.003418,,,,,,,,,,,0.0,1.0,1.0,5.0,0.0,0.0,0.0,5.0,0.0,0.12049149333333335,0.18440756,1.1497428399999998,-15.226236999999998,14.098307346666667,-14.274902359999999,-28.893403033029344,14.10510172998838,-48.73756493522386,3.8368197049086605,81.97478380674232,18.24975064940809,84.06925576199477,0.9887168994389242,82.79356295102275,0.9556629596736504,0.36705750666666664,-0.36726855999999997,0.6651981600000001,1.3995242266666668,0.8438637333315192,0.42263731422837914,0.4012970137383378,0.5139699334367752
LBP07_S05,LBP07,-1500,151,5,150,-1500,1716328823.0,2024-05-21 22:00:23+00:00,2024-05-22 07:00:23+09:00,2024,5,21,22,0,23,0,22.0,0.0,22.0,40.551487,141.570648,20.917999,3.0,6.0,-0.076172,0.710938,1.668213,-20.629883,30.273438,-127.441406,-231.0,22.0,392.0,7206.0,0.0,1024.699951,25.33,0.115944,-94.839767,3.817969,1.0,1.0,1.0,5.0,0.0,0.0,0.0,5.0,0.0,0.12130529333333336,0.18685873333333333,1.1288899733333333,-15.354817719999998,12.683105519999998,-13.93147788,-21.725976598716535,4.109072848698949,-47.26898839396124,2.967780640959999,82.13914672069028,16.35899111364964,83.80491474962795,0.9914401770046638,83.03293104251172,0.9649944508145095,-0.19747729333333336,0.5240792666666666,0.5393230266666666,1.2608795866666667,0.7775124990796125,0.44691329650741296,0.406188152984426,0.5149172607269197
LBP07_S05,LBP07,-1499,152,5,151,-1499,1716328823.04,2024-05-21 22:00:23.040000+00:00,2024-05-22 07:00:23.040000+09:00,2024,5,21,22,0,23,40,,,,,,,,,-0.036865,0.20459,1.815186,3.662109,-88.745117,-57.800293,,,,,,,,,,,1.0,1.0,1.0,5.0,0.0,0.0,0.0,5.0,0.0,0.12937169333333334,0.18150717333333335,1.1169628933333333,-15.9350586,11.328125053333332,-13.797200533333331,-13.532137601461303,-2.7685378540598777,-43.21883268307575,2.426495136901547,82.02840520652788,14.63023780632661,83.35820893976432,0.948542186956711,83.09965067761814,0.9786580615926924,-0.16623669333333335,0.02308282666666664,0.6982231066666666,0.8875426266666666,0.7181106890867002,0.4702120042093078,0.40980936828560177,0.5202491592364099
LBP07_S05,LBP07,-1498,153,5,152,-1498,1716328823.08,2024-05-21 22:00:23.080000+00:00,2024-05-22 07:00:23.080000+09:00,2024,5,21,22,0,23,80,,,,,,,,,0.415771,0.456055,1.749023,0.854492,-0.976562,-52.307129,,,,,,,,,,,1.0,1.0,1.0,5.0,0.0,0.0,0.0,5.0,0.0,0.12803381333333333,0.18063802666666665,1.11618164,-13.800455733333331,12.348632866666668,-15.123697933333332,-5.753978787994034,-6.154036291988049,-37.58227335952433,2.196335985381786,81.78224375484835,13.126946871945638,82.85816809172768,0.9511793711752022,83.04878970379282,0.9891992954773514,0.2877371866666667,0.27541697333333337,0.63284136,1.19599552,0.747753558813057,0.4924702488403289,0.4141982978284735,0.5185830478009666
LBP07_S05,LBP07,-1497,154,5,153,-1497,1716328823.12,2024-05-21 22:00:23.120000+00:00,2024-05-22 07:00:23.120000+09:00,2024,5,21,22,0,23,120,,,,,,,,,-0.304688,0.19458,0.337646,-27.160645,142.39502,-11.413574,,,,,,,,,,,1.0,1.0,1.0,5.0,0.0,0.0,0.0,5.0,0.0,0.11603510666666668,0.18384116,1.1183528666666667,-13.129069013333332,11.455891986666666,-16.157226573333332,0.24715498757540555,-6.2329783815640285,-31.760193958629763,2.206222184884802,81.53292461958578,11.856539113600448,82.42003841969786,1.0041649602469986,82.94327638779518,0.998048610426587,-0.4207231066666667,0.01073884,-0.7807068666666667,1.2121688133333333,0.8869196507171783,0.5244720464763409,0.4218375971419952,0.5206649857032861
LBP07_S05,LBP07,-1496,155,5,154,-1496,1716328823.16,2024-05-21 22:00:23.160000+00:00,2024-05-22 07:00:23.160000+09:00,2024,5,21,22,0,23,160,,,,,,,,,0.10791,0.253662,0.034912,97.53418,-101.867676,59.997559,,,,,,,,,,,1.0,1.0,1.0,5.0,0.0,0.0,0.0,5.0,0.0,0.11364578666666666,0.18717122666666666,1.12277996,-12.067057293333333,9.96175136,-16.96614584,3.5176335104815175,-3.602428401918689,-27.133388774854343,2.346927525304063,81.38882748350903,10.771203562606274,82.13201649866225,1.0212906925714107,82.84373698658962,1.0015351731656263,-0.005735786666666659,0.06649077333333334,-1.0878679599999999,1.16009452,1.0899131252451781,0.5644961275757648,0.43430513446062924,0.5287835955853953
LBP07_S05,LBP07,-1495,156,5,155,-1495,1716328823.2,2024-05-21 22:00:23.200000+00:00,2024-05-22 07:00:23.200000+09:00,2024,5,21,22,0,23,200,,,,,,,,,0.407227,0.10083,0.76416,-128.234863,-25.390625,40.344238,,,,,,,,,,,1.0,1.0,1.0,5.0,0.0,0.0,0.0,5.0,0.0,0.11051753333333333,0.18495768,1.1101497466666665,-11.583658853333331,11.424153706666665,-17.06054688,3.733252126242372,0.8816716649805312,-24.636714762890886,2.4962576103537577,81.42409435010825,9.785734972090639,82.04800455670191,1.0283312835530134,82.79951294362657,1.0058551848841595,0.29670946666666664,-0.08412768000000001,-0.3459897466666666,0.7268268933333333,0.463489890882492,0.5805300865019692,0.4344786642718798,0.5188020226625308
LBP07_S05,LBP07,-1494,157,5,156,-1494,1716328823.24,2024-05-21 22:00:23.240000+00:00,2024-05-22 07:00:23.240000+09:00,2024,5,21,22,0,23,240,,,,,,,,,0.502197,-0.13916,1.615967,92.834473,65.124512,-69.458008,,,,,,,,,,,1.0,1.0,1.0,5.0,0.0,0.0,0.0,5.0,0.0,0.10580073333333334,0.1839388,1.08869468,-9.890136706666665,10.400390693333332,-16.34440104,1.2810073220127116,6.2233179181853675,-24.52801621656589,2.547497903234266,81.67302706683566,8.804614323428003,82.18573069098655,1.0447548346200999,82.8423429729816,1.0128726460900461,0.39639626666666666,-0.3230988,0.52727232,1.2467673866666666,0.7345331403190012,0.6057318509798372,0.4434158544262696,0.5167002115159253
LBP07_S05,LBP07,-1493,158,5,157,-1493,1716328823.28,2024-05-21 22:00:23.280000+00:00,2024-05-22 07:00:23.280000+09:00,2024,5,21,22,0,23,280,,,,,,,,,-0.4646,0.367188,1.787109,5.004883,19.40918,-98.266602,,,,,,,,,,,1.0,1.0,1.0,5.0,0.0,0.0,0.0,5.0,0.0,0.10672846666666667,0.18573893333333333,1.0775358266666666,-10.249023426666666,9.291992253333332,-16.235351559999998,-2.8102073806492136,11.385074426393913,-26.437566557605823,2.4350896080082975,82.12843004389141,7.74711166112377,82.52894293496867,1.0450252406521208,82.98382192364281,1.0244825018754484,-0.5713284666666667,0.1814490666666667,0.7095731733333335,1.4623507066666668,0.9288886203050536,0.6350469971966825,0.45334574436135644,0.518793130371658
LBP07_S05,LBP07,-1492,159,5,158,-1492,1716328823.32,2024-05-21 22:00:23.320000+00:00,2024-05-22 07:00:23.320000+09:00,2024,5,21,22,0,23,320,,,,,,,,,-0.090332,0.195557,1.887695,24.719238,-130.371094,-47.058105,,,,,,,,,,,1.0,1.0,1.0,5.0,0.0,0.0,0.0,5.0,0.0,0.11657546666666666,0.1797754,1.0792643466666665,-11.0213216,9.382324279999999,-16.7195638,-7.0890866492373705,15.399492996356955,-29.6247729630658,2.1515261420388025,82.7444097637457,6.562120742601138,83.03208922176418,0.991906085437118,83.2169273329004,1.0408265219193247,-0.20690746666666665,0.015781600000000007,0.8084306533333334,1.03111972,0.8346375739864208,0.6508939073157645,0.4613962919764557,0.5255340166329698
LBP07_S05,LBP07,-1491,160,5,159,-1491,1716328823.36,2024-05-21 22:00:23.360000+00:00,2024-05-22 07:00:23.360000+09:00,2024,5,21,22,0,23,360,,,,,,,,,0.331055,0.42334,1.187744,-36.071777,117.858887,-54.504395,,,,,,,,,,,1.0,1.0,1.0,5.0,0.0,0.0,0.0,5.0,0.0,0.11020177333333334,0.18604818666666667,1.0840983333333332,-9.613444,10.167643293333333,-18.321126293333332,-10.033606104641992,17.511801405168903,-33.27110377443918,1.750181897853123,83.44488181995246,5.231276591623571,83.62701533236418,1.0319170166242588,83.52084136173663,1.051747808257168,0.22085322666666665,0.23729181333333332,0.10364566666666675,0.5617907066666668,0.3403321563162631,0.6284144460444121,0.45846688813540937,0.519450725443691
LBP07_S05,LBP07,-1490,161,5,160,-1490,1716328823.4,2024-05-21 22:00:23.400000+00:00,2024-05-22 07:00:23.400000+09:00,2024,5,21,22,0,23,400,,,,,,,,,-0.714844,-0.43457,0.0896,-62.927246,84.777832,18.615723,,,,,,,,,,,1.0,1.0,1.0,5.0,0.0,0.0,0.0,5.0,0.0,0.10353185333333334,0.18731445333333333,1.0921159066666666,-9.514973959999997,8.997395906666666,-18.527832026666665,-10.469620280686035,17.340845947188647,-36.66735294081352,1.3313970866256815,84.13851565784,3.76458247399103,84.23321504317843,1.061614789063527,83.86745980054155,1.0589749668885389,-0.8183758533333334,-0.6218844533333333,-1.0025159066666667,2.4427762133333335,1.4357985421835646,0.6442118888586681,0.4770303507918012,0.5298335539970249
LBP07_S05,LBP07,-1489,162,5,161,-1489,1716328823.44,2024-05-21 22:00:23.440000+00:00,2024-05-22 07:00:23.440000+09:00,2024,5,21,22,0,23,440,,,,,,,,,0.284424,0.395996,0.286865,-44.799805,-27.160645,0.671387,,,,,,,,,,,1.0,1.0,1.0,5.0,0.0,0.0,0.0,5.0,0.0,0.101748,0.18536784,1.0947070533333332,-9.180501306666665,8.959961013333333,-18.841959626666668,-7.92874796701066,15.000528947642284,-39.26848975829952,1.0142471679452552,84.73853681574569,2.193842883659049,84.7729984463765,1.0646407448107345,84.22777448064485,1.0623029578308452,0.182676,0.21062816,-0.8078420533333333,1.2011462133333333,0.854601384210675,0.6438702167553028,0.4852645734937081,0.5365215470710654
LBP07_S05,LBP07,-1488,163,5,162,-1488,1716328823.48,2024-05-21 22:00:23.480000+00:00,2024-05-22 07:00:23.480000+09:00,2024,5,21,22,0,23,480,,,,,,,,,0.707031,-0.42334,1.395752,-70.922852,17.211914,-30.212402,,,,,,,,,,,1.0,1.0,1.0,5.0,0.0,0.0,0.0,5.0,0.0,0.09079748,0.1871614533333333,1.0734114799999999,-9.102376306666665,10.01871752,-18.736165359999998,-2.7994940042195164,11.100612515849669,-40.68764984748382,0.9022674077764745,85.18256131637968,0.5663368897596963,85.18922218430346,1.1146195716139649,84.57678819797127,1.0679853335412592,0.61623352,-0.6105014533333333,0.32234052000000024,1.5490754933333335,0.9253967724860364,0.6588000617824288,0.4933304383829457,0.5315521638262972
LBP07_S05,LBP07,-1487,164,5,163,-1487,1716328823.52,2024-05-21 22:00:23.520000+00:00,2024-05-22 07:00:23.520000+09:00,2024,5,21,22,0,23,520,,,,,,,,,0.013672,0.641602,1.496094,146.972656,54.504395,-99.243164,,,,,,,,,,,1.0,1.0,1.0,5.0,0.0,0.0,0.0,5.0,0.0,0.09032873333333334,0.18563802666666668,1.0570768400000001,-9.005533853333331,8.45458992,-18.247070306666664,3.8065632093799997,6.587756095494817,-40.71081148693639,1.0545299361516745,85.44607156019947,-1.0620955697177594,85.45917870806028,1.113377823625433,84.89646154417673,1.0772432049248928,-0.07665673333333334,0.45596397333333333,0.4390171599999999,0.9716378666666665,0.6375856542596642,0.6636252049422755,0.49589574447500795,0.5247917919100744
LBP07_S05,LBP07,-1486,165,5,164,-1486,1716328823.56,2024-05-21 22:00:23.560000+00:00,2024-05-22 07:00:23.560000+09:00,2024,5,21,22,0,23,560,,,,,,,,,-0.287842,0.21167,1.819336,13.305664,-104.736328,-59.753418,,,,,,,,,,,1.0,1.0,1.0,5.0,0.0,0.0,0.0,5.0,0.0,0.09378250666666667,0.18337890666666667,1.0496191600000002,-9.404296879999999,7.172037839999998,-17.894694013333332,10.42118779911286,2.4720392339310076,-39.34543654116328,1.4713774481161888,85.54495312955672,-2.6359130313642907,85.59820088671138,1.0935622788851187,85.17694631226406,1.0925139853045942,-0.38162450666666664,0.028291093333333323,0.7697168399999998,1.1796324399999998,0.8595938947143339,0.6823467795602162,0.505030562516346,0.5206494307985267
LBP07_S05,LBP07,-1485,166,5,165,-1485,1716328823.6,2024-05-21 22:00:23.600000+00:00,2024-05-22 07:00:23.600000+09:00,2024,5,21,22,0,23,600,,,,,,,,,0.275879,0.397949,1.796143,14.648438,-49.133301,-63.171387,,,,,,,,,,,1.0,1.0,1.0,5.0,0.0,0.0,0.0,5.0,0.0,0.09998368,0.18090169333333334,1.0522982,-8.284505213333333,8.21858732,-18.87532553333333,15.657203670676935,-0.4543137223523659,-36.84375375099255,2.0976655949432663,85.52678058066262,-4.109663181403993,85.65115135773485,1.0616111929760774,85.41667688082399,1.1084384390548765,0.17589531999999997,0.21704730666666666,0.7438448,1.1367874266666667,0.794577739064087,0.7025139314086443,0.5134859690141604,0.5185939818626168
LBP07_S05,LBP07,-1484,167,5,166,-1484,1716328823.64,2024-05-21 22:00:23.640000+00:00,2024-05-22 07:00:23.640000+09:00,2024,5,21,22,0,23,640,,,,,,,,,-0.480957,-0.002686,0.125,-26.733398,160.949707,-11.962891,,,,,,,,,,,1.0,1.0,1.0,5.0,0.0,0.0,0.0,5.0,0.0,0.09123368,0.18191732,1.0587532800000001,-7.271321613333331,8.633626373333334,-20.329589853333335,18.548013259522087,-1.7980282425327694,-33.63584057603975,2.83958612532415,85.45485945096131,-5.455096804445582,85.67586786425076,1.101578591724238,85.62170141622462,1.121766730332017,-0.5721906800000001,-0.18460332,-0.9337532800000001,1.69054728,1.1105745125585422,0.7389594101724921,0.5274499427638415,0.5225240377197808
LBP07_S05,LBP07,-1483,168,5,167,-1483,1716328823.68,2024-05-21 22:00:23.680000+00:00,2024-05-22 07:00:23.680000+09:00,2024,5,21,22,0,23,680,,,,,,,,,0.234375,0.654053,-0.163086,115.722656,-110.778809,28.198242,,,,,,,,,,,1.0,1.0,1.0,5.0,0.0,0.0,0.0,5.0,0.0,0.08443029333333332,0.18470052,1.06518556,-6.966959626666665,7.185872466666665,-21.042480480000002,18.706236926354137,-1.5947195410637252,-30.17602357298329,3.5878356023783153,85.39107066931876,-6.662137747364914,85.72567639702325,1.1376039544884584,85.80423846458055,1.132547305026634,0.14994470666666668,0.46935247999999996,-1.22827156,1.8475687466666666,1.323414595145579,0.7824513609258257,0.5490988128989993,0.5328682934953554
LBP07_S05,LBP07,-1482,169,5,168,-1482,1716328823.72,2024-05-21 22:00:23.720000+00:00,2024-05-22 07:00:23.720000+09:00,2024,5,21,22,0,23,720,,,,,,,,,0.582031,-0.20752,0.988281,-152.709961,-17.089844,52.429199,,,,,,,,,,,1.0,1.0,1.0,5.0,0.0,0.0,0.0,5.0,0.0,0.08408849333333332,0.18746743999999999,1.0674088666666668,-6.363932279999998,7.228190173333332,-21.785481786666665,16.317895046820777,-0.21186443030191857,-26.78845747067947,4.240551404251146,85.3825960921067,-7.733676046192093,85.83693690263752,1.14461388923413,85.98031409856033,1.1336398031461319,0.4979425066666666,-0.39498743999999997,-0.07912786666666682,0.9720578133333334,0.6404865626900027,0.8017792850080131,0.5578164327502864,0.5286549732609489
LBP07_S05,LBP07,-1481,170,5,169,-1481,1716328823.76,2024-05-21 22:00:23.760000+00:00,2024-05-22 07:00:23.760000+09:00,2024,5,21,22,0,23,760,,,,,,,,,0.348389,0.39209,1.497314,145.446777,92.773438,-99.060059,,,,,,,,,,,1.0,1.0,1.0,5.0,0.0,0.0,0.0,5.0,0.0,0.07187821333333333,0.1824283866666667,1.04865236,-7.197265613333332,8.400065173333333,-21.85139976,12.03538775270356,1.8122865796177101,-23.61841488648045,4.721966914359289,85.4550875552914,-8.678412641651311,86.02432101796327,1.1911615541270837,86.16667114736059,1.139224167327004,0.2765107866666667,0.2096616133333333,0.4486616400000001,0.93483404,0.5671979147141187,0.8060771113505194,0.5664714133699301,0.5256175046792025
LBP07_S05,LBP07,-1480,171,5,170,-1480,1716328823.8,2024-05-21 22:00:23.800000+00:00,2024-05-22 07:00:23.800000+09:00,2024,5,21,22,0,23,800,,,,,,,,,-0.638184,0.281738,1.810303,-46.264648,7.446289,-77.087402,,,,,,,,,,,1.0,1.0,1.0,5.0,0.0,0.0,0.0,5.0,0.0,0.07120113333333333,0.18276366666666669,1.0360286666666667,-7.6106770799999985,7.387695386666665,-21.407063813333334,6.825843469345775,3.9346927634058013,-20.723278057373914,4.99500065313312,85.61247526582763,-9.507343763946269,86.28346039718502,1.19489770183493,86.37765100804465,1.1497153833477016,-0.7093851333333333,0.0989743333333333,0.7742743333333333,1.5826338,1.0547624990071967,0.8286252849368928,0.586523708519386,0.5330952084895849
LBP07_S05,LBP07,-1479,172,5,171,-1479,1716328823.84,2024-05-21 22:00:23.840000+00:00,2024-05-22 07:00:23.840000+09:00,2024,5,21,22,0,23,840,,,,,,,,,-0.071289,0.544678,2.038574,39.489746,-112.976074,-60.974121,,,,,,,,,,,1.0,1.0,1.0,5.0,0.0,0.0,0.0,5.0,0.0,0.07372392,0.17727537333333332,1.0363314,-8.394368479999999,6.837565173333332,-21.178385426666665,1.7988516091773823,5.734524552633429,-18.220669158674756,5.066954717500216,85.84185624793297,-10.23617053029326,86.59836892993556,1.1724464917569049,86.6229472541153,1.1647161982408187,-0.14501292,0.3674026266666667,1.0022426000000002,1.5146581466666669,1.0772667572626813,0.8621594460570117,0.6041585207012795,0.5389633491702405
LBP07_S05,LBP07,-1478,173,5,172,-1478,1716328823.88,2024-05-21 22:00:23.880000+00:00,2024-05-22 07:00:23.880000+09:00,2024,5,21,22,0,23,880,,,,,,,,,0.123535,0.239258,0.735352,-10.314941,117.980957,-23.498535,,,,,,,,,,,1.0,1.0,1.0,5.0,0.0,0.0,0.0,5.0,0.0,0.08301429333333334,0.17582681333333333,1.0509537866666667,-6.730143213333331,8.920898506666665,-22.17447917333333,-1.9887414812154784,6.978421014159631,-16.353777920120283,4.987405058251596,86.12099308849935,-10.890321647098071,86.94997852410131,1.1255445528089427,86.90682120699176,1.1812003144863448,0.04052070666666667,0.06343118666666667,-0.3156017866666667,0.41955368000000004,0.3244532799308704,0.8248240922919383,0.6095345739258866,0.5354737748682661
LBP07_S05,LBP07,-1477,174,5,173,-1477,1716328823.92,2024-05-21 22:00:23.920000+00:00,2024-05-22 07:00:23.920000+09:00,2024,5,21,22,0,23,920,,,,,,,,,-0.515869,-0.327393,0.043457,27.22168,5.004883,69.091797,,,,,,,,,,,1.0,1.0,1.0,5.0,0.0,0.0,0.0,5.0,0.0,0.07189775999999999,0.17107096000000002,1.07117188,-5.789387999999998,10.135905013333332,-23.063964853333335,-3.748136581004517,7.627238359969444,-15.39796083097118,4.837479595011415,86.42608262289812,-11.50624008033692,87.32274919606297,1.1692214654341566,87.22877683807505,1.195407637962036,-0.58776676,-0.49846396000000004,-1.02771488,2.1139456,1.2845753999486342,0.8502496058503385,0.6281189112730031,0.54639029216203
LBP07_S05,LBP07,-1476,175,5,174,-1476,1716328823.96,2024-05-21 22:00:23.960000+00:00,2024-05-22 07:00:23.960000+09:00,2024,5,21,22,0,23,960,,,,,,,,,0.325928,0.190186,0.439453,-97.412109,-36.987305,55.358887,,,,,,,,,,,1.0,1.0,1.0,5.0,0.0,0.0,0.0,5.0,0.0,0.06914710666666667,0.17906576000000002,1.0911425866666666,-2.6342773333333316,8.98763028,-24.163411466666666,-3.1574571343554054,7.797928312183936,-15.470770422875434,4.711181309637199,86.73799975538547,-12.125070897251938,87.70799949355197,1.1984744390920945,87.58520016308995,1.205750617553602,0.2567808933333333,0.011120239999999976,-0.6516895866666667,0.91959072,0.7005422216315681,0.8445167453823405,0.6335770298053598,0.5490369242863387
LBP07_S05,LBP07,-1475,176,5,175,-1475,1716328824.0,2024-05-21 22:00:24+00:00,2024-05-22 07:00:24+09:00,2024,5,21,22,0,24,0,22.0,0.0,23.0,40.551567,141.570618,20.436001,3.0,6.0,0.841553,-0.401611,1.170166,-34.301758,-9.460449,2.01416,-225.0,8.0,395.0,3740.0,0.0,1024.5,25.370001,0.113962,-93.190956,3.817969,0.0,1.0,1.0,5.0,0.0,0.0,0.0,6.0,0.0,0.06788409333333334,0.1829655066666667,1.0925944133333334,-1.1181640533333317,10.95621752,-24.846191413333333,-0.4744519699650059,7.6933709570926805,-16.402363194347863,4.692203230838599,87.04573459366918,-12.781165425025852,88.10411381844133,1.2116193419072492,87.97128429243521,1.2103312955246266,0.7736689066666667,-0.5845765066666667,0.07757158666666664,1.4358170000000001,0.9727849815593285,0.8523276446815291,0.649620470594471,0.5549013168834603
LBP07_S05,LBP07,-1474,177,5,176,-1474,1716328824.04,2024-05-21 22:00:24.040000+00:00,2024-05-22 07:00:24.040000+09:00,2024,5,21,22,0,24,40,,,,,,,,,-0.112061,0.883789,1.584229,116.516113,77.697754,-114.807129,,,,,,,,,,,0.0,1.0,1.0,5.0,0.0,0.0,0.0,6.0,0.0,0.056321586666666666,0.181556,1.08053712,-0.3157551999999984,11.047363359999999,-24.549153653333335,3.5043989522141588,7.521743379364991,-17.789839469224642,4.832379188927165,87.34660432884378,-13.492759003794838,88.51460739301538,1.2664197541794975,88.38264467607004,1.2199650761234668,-0.16838258666666667,0.7022330000000001,0.5036918800000001,1.3743074666666668,0.8804484038031373,0.8588211532701865,0.6645165787397471,0.5594799632804633
LBP07_S05,LBP07,-1473,178,5,177,-1473,1716328824.08,2024-05-21 22:00:24.080000+00:00,2024-05-22 07:00:24.080000+09:00,2024,5,21,22,0,24,80,,,,,,,,,-0.420654,0.140869,1.726562,-54.56543,-47.058105,-51.818848,,,,,,,,,,,0.0,1.0,1.0,5.0,0.0,0.0,0.0,6.0,0.0,0.053958306666666664,0.1824479333333333,1.0702929733333333,-0.5786132799999985,9.939778733333332,-24.256998706666668,7.6506887865430615,7.433547372208744,-19.218091663764966,5.138406740388888,87.64394622373213,-14.261482670345437,88.94523270785616,1.2796771892453704,88.81626380284163,1.2329264273857627,-0.47461230666666665,-0.04157893333333332,0.6562690266666666,1.1724602666666666,0.8109714450574729,0.8613498687199632,0.6769100587801461,0.5632488214589702
LBP07_S05,LBP07,-1472,179,5,178,-1472,1716328824.12,2024-05-21 22:00:24.120000+00:00,2024-05-22 07:00:24.120000+09:00,2024,5,21,22,0,24,120,,,,,,,,,0.129395,0.422607,1.780762,32.104492,-44.98291,-58.776855,,,,,,,,,,,0.0,1.0,1.0,5.0,0.0,0.0,0.0,6.0,0.0,0.05807614666666667,0.17572266666666667,1.0681803333333335,-1.0083007866666651,8.088378986666665,-23.867187506666667,10.81252968398063,7.493011308450999,-20.495509019225917,5.570907927748113,87.94366667607017,-15.081303031114473,89.40117015278649,1.2480436851497887,89.27070078196789,1.252403630755423,0.07131885333333335,0.24688433333333334,0.7125816666666664,1.030784853333333,0.7575030591064765,0.8561732050555351,0.6903226257659381,0.5666161331131752
LBP07_S05,LBP07,-1471,180,5,179,-1471,1716328824.16,2024-05-21 22:00:24.160000+00:00,2024-05-22 07:00:24.160000+09:00,2024,5,21,22,0,24,160,,,,,,,,,-0.222656,0.188232,0.298584,0.549316,155.273438,-22.644043,,,,,,,,,,,0.0,1.0,1.0,5.0,0.0,0.0,0.0,6.0,0.0,0.05987953333333333,0.17466797333333334,1.0708886666666666,0.1749674400000015,8.615722733333333,-24.71761068,12.121415641554933,7.68394185070682,-21.73648378353651,6.05576455341031,88.25102435009843,-15.950762382455933,89.88516231141588,1.2369683338373303,89.7457462529052,1.2723089917497055,-0.2825355333333333,0.013564026666666673,-0.7723046666666666,1.0684042266666667,0.8224748072558066,0.8454756723359602,0.7049858999558625,0.5713619804190729
LBP07_S05,LBP07,-1470,181,5,180,-1470,1716328824.2,2024-05-21 22:00:24.200000+00:00,2024-05-22 07:00:24.200000+09:00,2024,5,21,22,0,24,200,,,,,,,,,0.043213,0.376953,-0.135986,121.21582,-83.435059,65.551758,,,,,,,,,,,0.0,1.0,1.0,5.0,0.0,0.0,0.0,6.0,0.0,0.05076821333333334,0.17907553333333331,1.0764257733333333,1.1555989466666683,8.266601626666665,-25.666503906666666,11.208373157208642,7.937942081101531,-23.234549789107007,6.504099479698656,88.5685420333425,-16.88014437402021,90.39706423353327,1.2912355078233344,90.24178334161527,1.288750893264404,-0.007555213333333338,0.19787746666666667,-1.2124117733333333,1.4178444533333332,1.228476650645102,0.8760751427264647,0.728302614614217,0.5816774904234081
LBP07_S05,LBP07,-1469,182,5,181,-1469,1716328824.24,2024-05-21 22:00:24.240000+00:00,2024-05-22 07:00:24.240000+09:00,2024,5,21,22,0,24,240,,,,,,,,,0.319824,0.060547,0.638916,-93.505859,-44.311523,39.672852,,,,,,,,,,,0.0,1.0,1.0,5.0,0.0,0.0,0.0,6.0,0.0,0.04901366666666667,0.1802343866666667,1.08365884,1.7944335733333348,6.634928453333333,-25.964355466666667,8.277098922755231,8.166955986430922,-25.219991308764204,6.835183436608865,88.89522027279973,-17.88894402637078,90.93456019765149,1.302060004379863,90.75904162668714,1.2942757665440534,0.2708103333333333,-0.1196873866666667,-0.44474284,0.83524056,0.5342841012967473,0.8680651811655744,0.736898516072706,0.5849656300060379
LBP07_S05,LBP07,-1468,183,5,182,-1468,1716328824.28,2024-05-21 22:00:24.280000+00:00,2024-05-22 07:00:24.280000+09:00,2024,5,21,22,0,24,280,,,,,,,,,0.807861,-0.324219,1.524414,-28.137207,87.097168,-35.705566,,,,,,,,,,,0.0,1.0,1.0,5.0,0.0,0.0,0.0,6.0,0.0,0.045136720000000005,0.17868165333333333,1.07449868,1.9124348800000015,7.624511786666665,-26.14257812,4.026953363425457,8.2901001269007,-27.672392537083564,6.996261571145884,89.22682427787576,-18.995839727854122,91.49434831536391,1.320316586505544,91.29684309730763,1.296862121256686,0.76272428,-0.5029006533333333,0.4499153199999999,1.7155402533333333,1.0183718326796525,0.8716445096605585,0.7533457534286204,0.5927786661277572
LBP07_S05,LBP07,-1467,184,5,183,-1467,1716328824.32,2024-05-21 22:00:24.320000+00:00,2024-05-22 07:00:24.320000+09:00,2024,5,21,22,0,24,320,,,,,,,,,-0.386719,0.671875,1.750244,66.28418,67.138672,-129.516602,,,,,,,,,,,0.0,1.0,1.0,5.0,0.0,0.0,0.0,6.0,0.0,0.03497070666666667,0.17248373333333333,1.0530793999999999,1.8473307200000015,6.770019599999999,-24.79736328,-0.5316378686649237,8.254454338911193,-30.3067008652657,6.974996056399287,89.55700245143221,-20.20810776246475,92.07320390543607,1.368275075376982,91.85293621081577,1.3058085670523283,-0.42168970666666666,0.49939126666666667,0.6971646,1.6182455733333334,0.9556423627198185,0.8764847012098944,0.7636893042628294,0.5997590950542685
