file_name,test_id,_program_index,program_index,session_id,index,_index,unixtime,datetime_utc,datetime_jst,rtc_year,rtc_month,rtc_day,rtc_hour,rtc_min,rtc_sec,rtc_msec,gps_hour,gps_min,gps_sec,latitude,longitude,altitude,fix_type,SIV,acc_x,acc_y,acc_z,gyro_x,gyro_y,gyro_z,mag_x,mag_y,mag_z,illuminance,atmopress,water_pressure,water_temp,depth,alt_wps,battery_level,behavior_class,camera_command,camera_recording,camera_count,play_audio,speaker_on,audio_file,prev_sd_write_time_ms,delay_occurred_counter,acc_x_ma,acc_y_ma,acc_z_ma,gyro_x_ma,gyro_y_ma,gyro_z_ma,gyro_x_lowpass,gyro_y_lowpass,gyro_z_lowpass,angle_x,angle_y,angle_z,combined_angle_change,gravity_adjusted_angle,smoothed_angle_change,smoothed_gravity_angle,acc_x_dy,acc_y_dy,acc_z_dy,ODBA,VeDBA,smoothed_VeDBA_1s,smoothed_VeDBA_2s,smoothed_VeDBA_3s
LBP07_S02,LBP07,0,1,2,0,0,1716272161.0,2024-05-21 06:16:01+00:00,2024-05-21 15:16:01+09:00,2024,5,21,6,16,1,0,6.0,16.0,1.0,40.542458,141.505722,9.094,3.0,10.0,-0.659668,-0.189697,0.115723,-137.451172,121.887207,62.438965,-232.0,-8.0,403.0,2049.0,0.0,1020.200012,24.780001,0.07135,-57.669693,3.958594,0.0,1.0,1.0,2.0,0.0,0.0,0.0,10.0,0.0,,,,,,,-136.6406330301753,122.53066331562819,61.73632701707268,-5.465625321207012,4.901226532625127,2.469453080682907,7.745532918632654,,12.777856261046608,,,,,,,,,
LBP07_S02,LBP07,1,2,2,1,1,1716272161.04,2024-05-21 06:16:01.040000+00:00,2024-05-21 15:16:01.040000+09:00,2024,5,21,6,16,1,40,,,,,,,,,0.093262,0.002441,0.474365,114.624023,-12.817383,27.832031,,,,,,,,,,,0.0,1.0,1.0,2.0,0.0,0.0,0.0,10.0,0.0,,,,,,,-70.3205452080819,88.09039782826343,38.4927322007075,-8.278447129530289,8.424842445755665,4.009162368711207,12.473333155613403,,12.973403333707127,,,,,,,,,
LBP07_S02,LBP07,2,3,2,2,2,1716272161.08,2024-05-21 06:16:01.080000+00:00,2024-05-21 15:16:01.080000+09:00,2024,5,21,6,16,1,80,,,,,,,,,0.570801,0.305908,1.494141,-162.841797,107.543945,-17.333984,,,,,,,,,,,0.0,1.0,1.0,2.0,0.0,0.0,0.0,10.0,0.0,,,,,,,-10.053134085940616,57.56625412074425,18.048547707136706,-8.680572492967913,10.727492610585436,4.731104276996676,14.58817275040478,,13.222363037394178,,,,,,,,,
LBP07_S02,LBP07,3,4,2,3,3,1716272161.12,2024-05-21 06:16:01.120000+00:00,2024-05-21 15:16:01.120000+09:00,2024,5,21,6,16,1,120,,,,,,,,,-0.218262,-0.464111,1.758545,310.913086,-14.526367,-76.721191,,,,,,,,,,,0.0,1.0,1.0,2.0,0.0,0.0,0.0,10.0,0.0,,,,,,,39.07521483551152,33.99492751489102,2.5228002472407427,-7.117563899547452,12.087289711181077,4.832016286886305,14.836127184103658,,13.631973873078387,,,,,,,,,
LBP07_S02,LBP07,4,5,2,4,4,1716272161.16,2024-05-21 06:16:01.160000+00:00,2024-05-21 15:16:01.160000+09:00,2024,5,21,6,16,1,160,,,,,,,,,-0.253418,0.501709,2.036133,4.516602,-115.112305,11.413574,,,,,,,,,,,0.0,1.0,1.0,2.0,0.0,0.0,0.0,10.0,0.0,,,,,,,73.90439262226916,18.864957780265616,-7.00079888448498,-4.161388194656686,12.841888022391702,4.551984331506906,14.246115296478541,,14.199580922694672,,,,,,,,,
LBP07_S02,LBP07,5,6,2,5,5,1716272161.2,2024-05-21 06:16:01.200000+00:00,2024-05-21 15:16:01.200000+09:00,2024,5,21,6,16,1,200,,,,,,,,,0.5271,0.891357,1.822021,131.286621,16.967773,-14.343262,,,,,,,,,,,0.0,1.0,1.0,2.0,0.0,0.0,0.0,10.0,0.0,,,,,,,93.48901806473347,11.940092283391117,-10.578144268070478,-0.42182747206734694,13.319491713727347,4.128858560784087,13.951138697009727,,14.870715858594872,,,,,,,,,
LBP07_S02,LBP07,6,7,2,6,6,1716272161.24,2024-05-21 06:16:01.240000+00:00,2024-05-21 15:16:01.240000+09:00,2024,5,21,6,16,1,240,,,,,,,,,-0.637695,0.446045,-0.036377,-58.837891,196.411133,29.11377,,,,,,,,,,,0.0,1.0,1.0,2.0,0.0,0.0,0.0,10.0,0.0,,,,,,,98.82613154940645,11.564628167038892,-9.183294209118914,3.5312177899089114,13.782076840408902,3.76152679241933,14.716121259516484,,16.36775175378625,,,,,,,,,
LBP07_S02,LBP07,7,8,2,7,7,1716272161.28,2024-05-21 06:16:01.280000+00:00,2024-05-21 15:16:01.280000+09:00,2024,5,21,6,16,1,280,,,,,,,,,0.193604,-0.213867,0.246338,80.810547,-14.343262,19.65332,,,,,,,,,,,0.0,1.0,1.0,2.0,0.0,0.0,0.0,10.0,0.0,,,,,,,92.232783488343,15.309141509169317,-4.284250674992589,7.220529129442632,14.394442500775675,3.5901567654196267,16.499249722867855,,17.528471790387016,,,,,,,,,
LBP07_S02,LBP07,8,9,2,8,8,1716272161.32,2024-05-21 06:16:01.320000+00:00,2024-05-21 15:16:01.320000+09:00,2024,5,21,6,16,1,320,,,,,,,,,0.619629,0.791992,0.884521,101.379395,-24.169922,45.471191,,,,,,,,,,,0.0,1.0,1.0,2.0,0.0,0.0,0.0,10.0,0.0,,,,,,,76.6824176511565,20.695474429647543,2.6020024600053775,10.287825835488892,15.222261477961577,3.694236863819842,18.740437319624938,,18.578942791773933,,,,,,,,,
LBP07_S02,LBP07,9,10,2,9,9,1716272161.36,2024-05-21 06:16:01.360000+00:00,2024-05-21 15:16:01.360000+09:00,2024,5,21,6,16,1,360,,,,,,,,,0.168213,-0.656006,1.787354,-55.603027,101.5625,-2.990723,,,,,,,,,,,0.0,1.0,1.0,2.0,0.0,0.0,0.0,10.0,0.0,,,,,,,55.338534860717765,25.759258663927245,10.219603644947794,12.501367229917603,16.252631824518666,4.103021009617754,20.910930281696682,,19.688929086583915,,,,,,,,,
LBP07_S02,LBP07,10,11,2,10,10,1716272161.4,2024-05-21 06:16:01.400000+00:00,2024-05-21 15:16:01.400000+09:00,2024,5,21,6,16,1,400,,,,,,,,,-0.203125,0.798584,1.599121,189.880371,-5.065918,-11.71875,,,,,,,,,,,0.0,1.0,1.0,2.0,0.0,0.0,0.0,10.0,0.0,,,,,,,31.344355425132704,29.336432865724014,17.682646425720865,13.755141446922911,17.426089139147628,4.810326866646588,22.715891870546432,,20.945196311073552,,,,,,,,,
LBP07_S02,LBP07,11,12,2,11,11,1716272161.44,2024-05-21 06:16:01.440000+00:00,2024-05-21 15:16:01.440000+09:00,2024,5,21,6,16,1,440,,,,,,,,,0.302979,0.226074,2.235107,119.506836,-34.667969,-10.375977,,,,,,,,,,,0.0,1.0,1.0,2.0,0.0,0.0,0.0,10.0,0.0,,,,,,,7.753492920065583,31.08421030029523,24.42103212777831,14.065281163725535,18.669457551159436,5.7871681517577205,24.080533521621053,,22.335354368378194,,,,,,,,,
LBP07_S02,LBP07,12,13,2,12,12,1716272161.48,2024-05-21 06:16:01.480000+00:00,2024-05-21 15:16:01.480000+09:00,2024,5,21,6,16,1,480,,,,,,,,,-0.030762,0.382568,0.994873,-93.322754,142.211914,6.896973,,,,,,,,,,,0.0,1.0,1.0,2.0,0.0,0.0,0.0,10.0,0.0,,,,,,,-12.58989602063053,31.306400164435974,30.068445596023775,13.561685322900313,19.921713557736876,6.989905975598671,25.092882764273956,,23.775190311919907,,,,,,,,,
LBP07_S02,LBP07,13,14,2,13,13,1716272161.52,2024-05-21 06:16:01.520000+00:00,2024-05-21 15:16:01.520000+09:00,2024,5,21,6,16,1,520,,,,,,,,,-0.31543,-0.192871,-0.127197,-67.810059,19.775391,72.143555,,,,,,,,,,,0.0,1.0,1.0,2.0,0.0,0.0,0.0,10.0,0.0,,,,,,,-27.34890700193463,30.66348824535236,34.39152077758621,12.467729042822928,21.14825308755097,8.36556680670212,25.93599013220347,,25.180852915675473,,,,,,,,,
LBP07_S02,LBP07,14,15,2,14,14,1716272161.56,2024-05-21 06:16:01.560000+00:00,2024-05-21 15:16:01.560000+09:00,2024,5,21,6,16,1,560,,,,,,,,,-0.076172,0.081543,0.518555,-52.55127,-58.349609,69.763184,,,,,,,,,,,0.0,1.0,1.0,2.0,0.0,0.0,0.0,10.0,0.0,,,,,,,-35.127369298344284,29.843654661915092,37.290689105932614,11.062634270889156,22.34199927402757,9.857194370939425,26.80878754137493,,26.515704309982333,,,,,,,,,
LBP07_S02,LBP07,15,16,2,15,15,1716272161.6,2024-05-21 06:16:01.600000+00:00,2024-05-21 15:16:01.600000+09:00,2024,5,21,6,16,1,600,,,,,,,,,0.679443,0.051514,0.851318,-109.985352,1.220703,76.171875,,,,,,,,,,,0.0,1.0,1.0,2.0,0.0,0.0,0.0,10.0,0.0,,,,,,,-35.84729820795859,29.278026366606124,38.8271126454753,9.628742342570812,23.513120328691816,11.410278876758436,27.85271927005613,,27.78543486349333,,,,,,,,,
LBP07_S02,LBP07,16,17,2,16,16,1716272161.64,2024-05-21 06:16:01.640000+00:00,2024-05-21 15:16:01.640000+09:00,2024,5,21,6,16,1,640,,,,,,,,,0.154785,-0.208984,1.209961,31.860352,60.852051,-15.014648,,,,,,,,,,,0.0,1.0,1.0,2.0,0.0,0.0,0.0,10.0,0.0,,,,,,,-30.861623748862456,28.99116462824802,39.207650582182346,8.394277392616313,24.672766913821736,12.97858490004573,29.114480694933594,,29.015130284475834,,,,,,,,,
LBP07_S02,LBP07,17,18,2,17,17,1716272161.68,2024-05-21 06:16:01.680000+00:00,2024-05-21 15:16:01.680000+09:00,2024,5,21,6,16,1,680,,,,,,,,,-0.387695,0.727051,1.356689,-78.552246,65.185547,14.282227,,,,,,,,,,,0.0,1.0,1.0,2.0,0.0,0.0,0.0,10.0,0.0,,,,,,,-22.70064041664969,28.639542284606545,38.707558713891025,7.4862517759503255,25.818348605205998,14.526887248601371,30.555875760423543,,30.22982988298968,,,,,,,,,
LBP07_S02,LBP07,18,19,2,18,18,1716272161.72,2024-05-21 06:16:01.720000+00:00,2024-05-21 15:16:01.720000+09:00,2024,5,21,6,16,1,720,,,,,,,,,-0.26416,-0.511475,1.899414,25.146484,-12.573242,6.530762,,,,,,,,,,,0.0,1.0,1.0,2.0,0.0,0.0,0.0,10.0,0.0,,,,,,,-14.492204592384795,27.70264990846587,37.58196339595548,6.906563592254933,26.926454601544634,16.03016578443959,32.08895126269357,,31.443227288137933,,,,,,,,,
LBP07_S02,LBP07,19,20,2,19,19,1716272161.76,2024-05-21 06:16:01.760000+00:00,2024-05-21 15:16:01.760000+09:00,2024,5,21,6,16,1,760,,,,,,,,,-0.322754,0.426514,0.438965,58.227539,129.333496,36.071777,,,,,,,,,,,0.0,1.0,1.0,2.0,0.0,0.0,0.0,10.0,0.0,,,,,,,-9.199573104762067,25.719649210414207,36.04171892317555,6.5385806680644505,27.9552405699612,17.47183454136661,33.608235816806605,,32.65471693467768,,,,,,,,,
LBP07_S02,LBP07,20,21,2,20,20,1716272161.8,2024-05-21 06:16:01.800000+00:00,2024-05-21 15:16:01.800000+09:00,2024,5,21,6,16,1,800,,,,,,,,,-0.436279,-0.084473,0.092529,-133.056641,-22.338867,89.172363,,,,,,,,,,,0.0,1.0,1.0,2.0,0.0,0.0,0.0,10.0,0.0,,,,,,,-8.8633874454259,22.46291305375923,34.31829304677094,6.184045170247415,28.85375709211157,18.84456626323745,35.0128460803715,,33.85315706846126,,,,,,,,,
LBP07_S02,LBP07,21,22,2,21,21,1716272161.84,2024-05-21 06:16:01.840000+00:00,2024-05-21 15:16:01.840000+09:00,2024,5,21,6,16,1,840,,,,,,,,,0.302734,-0.300049,0.88623,4.699707,-59.631348,105.163574,,,,,,,,,,,0.0,1.0,1.0,2.0,0.0,0.0,0.0,10.0,0.0,,,,,,,-14.025242141847338,17.997399310958286,32.754880545771655,5.623035484573521,29.5736530645499,20.154761485068317,36.22752950675947,,35.0235401439833,,,,,,,,,
LBP07_S02,LBP07,22,23,2,22,22,1716272161.88,2024-05-21 06:16:01.880000+00:00,2024-05-21 15:16:01.880000+09:00,2024,5,21,6,16,1,880,,,,,,,,,0.770264,0.289062,1.381836,206.359863,32.592773,40.466309,,,,,,,,,,,0.0,1.0,1.0,2.0,0.0,0.0,0.0,10.0,0.0,,,,,,,-23.482495336002764,12.645700363304496,31.8117835100628,4.68373567113341,30.079481079082083,21.427232825470828,37.226856815756534,,36.15227842989183,,,,,,,,,
LBP07_S02,LBP07,23,24,2,23,23,1716272161.92,2024-05-21 06:16:01.920000+00:00,2024-05-21 15:16:01.920000+09:00,2024,5,21,6,16,1,920,,,,,,,,,-0.435059,0.883301,1.480713,-60.974121,119.20166,-32.775879,,,,,,,,,,,0.0,1.0,1.0,2.0,0.0,0.0,0.0,10.0,0.0,,,,,,,-34.50159440055401,6.913305954150525,31.91728671780607,3.303671895111249,30.356013317248102,22.70392429418307,38.050886597600964,,37.22969714841934,,,,,,,,,
LBP07_S02,LBP07,24,25,2,24,24,1716272161.96,2024-05-21 06:16:01.960000+00:00,2024-05-21 15:16:01.960000+09:00,2024,5,21,6,16,1,960,,,,,,,,,-0.421143,0.890381,2.143555,-12.145996,-100.463867,-39.855957,,,,,,,,,,,0.0,1.0,1.0,2.0,0.0,0.0,0.0,10.0,0.0,,,,,,,-43.55841220424995,1.407283884244781,33.21668298486807,1.5613354069412513,30.412304672617893,24.032591613577793,38.79318887921067,,38.25178456708734,,,,,,,,,
LBP07_S02,LBP07,25,26,2,25,25,1716272162.0,2024-05-21 06:16:02+00:00,2024-05-21 15:16:02+09:00,2024,5,21,6,16,2,0,6.0,16.0,2.0,40.542465,141.505676,9.288,3.0,10.0,0.091309,0.302002,1.519531,-90.393066,2.929688,-27.709961,-247.0,-16.0,403.0,2477.0,0.0,1019.900024,24.790001,0.068377,-55.187038,3.958594,0.0,1.0,1.0,2.0,0.0,0.0,0.0,4.0,0.0,,,,,,,-47.507059951699375,-3.2538317884592907,35.38342531424693,-0.3389469911267238,30.28215140107952,25.44792862614767,39.5565500252765,,39.22309219521928,,,,,,,,,
LBP07_S02,LBP07,26,27,2,26,26,1716272162.04,2024-05-21 06:16:02.040000+00:00,2024-05-21 15:16:02.040000+09:00,2024,5,21,6,16,2,40,,,,,,,,,-0.801514,0.041992,-0.425049,-304.443359,25.634766,64.51416,,,,,,,,,,,0.0,1.0,1.0,2.0,0.0,0.0,0.0,4.0,0.0,,,,,,,-44.83247323280942,-6.539254035225344,37.65674277795965,-2.1322459204391007,30.020581239670506,26.954198337266057,40.40186355401892,,40.15981488937213,,,,,,,,,
LBP07_S02,LBP07,27,28,2,27,27,1716272162.08,2024-05-21 06:16:02.080000+00:00,2024-05-21 15:16:02.080000+09:00,2024,5,21,6,16,2,80,,,,,,,,,0.28125,-0.175049,0.54248,-172.119141,-59.448242,179.016113,,,,,,,,,,,0.0,1.0,1.0,2.0,0.0,0.0,0.0,4.0,0.0,,,,,,,-36.472799469955234,-8.09146358998463,39.136306601507656,-3.5911578992373103,29.69692269607112,28.51965060132636,41.330062945698664,,41.090885243739834,,,,,,,,,
LBP07_S02,LBP07,28,29,2,28,28,1716272162.12,2024-05-21 06:16:02.120000+00:00,2024-05-21 15:16:02.120000+09:00,2024,5,21,6,16,2,120,,,,,,,,,0.439453,-1.042725,1.449707,-78.552246,35.461426,76.721191,,,,,,,,,,,0.0,1.0,1.0,2.0,0.0,0.0,0.0,4.0,0.0,,,,,,,-25.766196178235703,-7.776576779226085,39.18536619486643,-4.621805746366738,29.385859624902075,30.087065249121018,42.309825449373626,,42.056710303872606,,,,,,,,,
LBP07_S02,LBP07,29,30,2,29,29,1716272162.16,2024-05-21 06:16:02.160000+00:00,2024-05-21 15:16:02.160000+09:00,2024,5,21,6,16,2,160,,,,,,,,,0.334717,1.010742,1.145264,347.229004,42.053223,2.01416,,,,,,,,,,,0.0,1.0,1.0,2.0,0.0,0.0,0.0,4.0,0.0,,,,,,,-17.426454034653233,-5.7024363977196035,37.70891187713759,-5.318863907752868,29.15776216899329,31.59542172420652,43.32131209812595,,43.10727546258444,,,,,,,,,
LBP07_S02,LBP07,30,31,2,30,30,1716272162.2,2024-05-21 06:16:02.200000+00:00,2024-05-21 15:16:02.200000+09:00,2024,5,21,6,16,2,200,,,,,,,,,-0.595703,-0.12793,1.831543,120.300293,-76.477051,5.249023,,,,,,,,,,,0.0,1.0,1.0,2.0,0.0,0.0,0.0,4.0,0.0,,,,,,,-15.937214775396697,-2.2203943766342067,35.155782331982586,-5.9563524987687355,29.068946393927924,33.00165301748582,44.38007302189999,,44.30111799192308,,,,,,,,,
LBP07_S02,LBP07,31,32,2,31,31,1716272162.24,2024-05-21 06:16:02.240000+00:00,2024-05-21 15:16:02.240000+09:00,2024,5,21,6,16,2,240,,,,,,,,,0.084961,0.92749,1.310547,21.179199,-39.306641,-37.536621,,,,,,,,,,,0.0,1.0,1.0,2.0,0.0,0.0,0.0,4.0,0.0,,,,,,,-24.068459841752514,2.0883598799115983,32.27633535791243,-6.919090892438836,29.152480789124386,34.292706431802316,45.53823305043655,,45.70406856784632,,,,,,,,,
LBP07_S02,LBP07,32,33,2,32,32,1716272162.28,2024-05-21 06:16:02.280000+00:00,2024-05-21 15:16:02.280000+09:00,2024,5,21,6,16,2,280,,,,,,,,,-0.720459,0.279297,-0.244629,-208.862305,116.271973,-2.807617,,,,,,,,,,,0.0,1.0,1.0,2.0,0.0,0.0,0.0,4.0,0.0,,,,,,,-42.1139589896326,6.467002461455275,29.8034316665349,-8.603649252024141,29.411160887582597,35.48484369846371,46.8851074170842,,47.383898880256496,,,,,,,,,
LBP07_S02,LBP07,33,34,2,33,33,1716272162.32,2024-05-21 06:16:02.320000+00:00,2024-05-21 15:16:02.320000+09:00,2024,5,21,6,16,2,320,,,,,,,,,0.154297,-0.202881,0.236572,-215.576172,-84.472656,114.990234,,,,,,,,,,,0.0,1.0,1.0,2.0,0.0,0.0,0.0,4.0,0.0,,,,,,,-67.99381408259921,10.10394842444271,28.221990486866712,-11.32340181532811,29.815318824560304,36.61372331793838,48.556538184719265,,49.39752917368408,1.4779676412481304,,,,,,,,
LBP07_S02,LBP07,34,35,2,34,34,1716272162.36,2024-05-21 06:16:02.360000+00:00,2024-05-21 15:16:02.360000+09:00,2024,5,21,6,16,2,360,,,,,,,,,0.343994,-0.188965,0.813232,-174.560547,1.342773,86.364746,,,,,,,,,,,0.0,1.0,1.0,2.0,0.0,0.0,0.0,4.0,0.0,,,,,,,-97.91780830595121,12.314373119824548,27.679707670995427,-15.240114147566159,30.307893749353287,37.720911624778196,50.73161417259716,,51.772642461876444,1.4479476062478298,,,,,,,,
LBP07_S02,LBP07,35,36,2,35,35,1716272162.4,2024-05-21 06:16:02.400000+00:00,2024-05-21 15:16:02.400000+09:00,2024,5,21,6,16,2,400,,,,,,,,,0.519287,-0.228271,1.192627,60.119629,78.00293,35.15625,,,,,,,,,,,0.0,1.0,1.0,2.0,0.0,0.0,0.0,4.0,0.0,,,,,,,-127.18150260868568,12.739606070805323,27.977428473047087,-20.327374251913586,30.8174779921855,38.84000876370008,53.586055784508865,,54.491510752702155,1.4465308328781632,,,,,,,,
LBP07_S02,LBP07,36,37,2,36,36,1716272162.44,2024-05-21 06:16:02.440000+00:00,2024-05-21 15:16:02.440000+09:00,2024,5,21,6,16,2,440,,,,,,,,,-0.392334,0.870361,1.286133,-41.687012,85.9375,-62.194824,,,,,,,,,,,0.0,1.0,1.0,2.0,0.0,0.0,0.0,4.0,0.0,,,,,,,-150.87973768608842,11.497207949245638,28.56239048323787,-26.362563759357123,31.277366310155323,39.98250438302959,57.200166678120695,,57.485617030825075,1.4529865105666964,,,,,,,,
LBP07_S02,LBP07,37,38,2,37,37,1716272162.48,2024-05-21 06:16:02.480000+00:00,2024-05-21 15:16:02.480000+09:00,2024,5,21,6,16,2,480,,,,,,,,,0.088623,0.796631,1.449951,-27.832031,-92.346191,-36.132812,,,,,,,,,,,0.0,1.0,1.0,2.0,0.0,0.0,0.0,4.0,0.0,0.02004232,0.21946934666666668,1.1031021866666666,-13.302408853333336,16.643066466666667,4.783528626666667,-164.6052150989659,9.205669694066847,28.536596122497286,-32.94677236331576,31.645593097917995,41.12396822792948,61.466365879974525,1.4779676412481304,60.64390411902683,1.4559655212577975,0.06858067999999999,0.5771616533333332,0.3468488133333334,0.9925911466666666,0.6768478285837007,0.6768478285837007,0.6768478285837007,0.6768478285837007
LBP07_S02,LBP07,38,39,2,38,38,1716272162.52,2024-05-21 06:16:02.520000+00:00,2024-05-21 15:16:02.520000+09:00,2024,5,21,6,16,2,520,,,,,,,,,0.093018,0.750732,0.120117,-374.633789,61.218262,-22.949219,,,,,,,,,,,0.0,1.0,1.0,2.0,0.0,0.0,0.0,4.0,0.0,0.03353516,0.22178054666666663,1.1209797866666666,-9.309082026666669,15.465494853333333,2.9248046666666663,-165.2634673938787,6.837625428970351,26.782462116156925,-39.557311059070905,31.91909811507681,42.19526671257576,66.06095833129729,1.4179275712475294,63.82974701163856,1.4556648196544568,0.05948284,0.5289514533333333,-1.0008627866666666,1.58929708,1.1336022962097758,0.9052250623967383,0.9052250623967383,0.9052250623967383
LBP07_S02,LBP07,39,40,2,39,39,1716272162.56,2024-05-21 06:16:02.560000+00:00,2024-05-21 15:16:02.560000+09:00,2024,5,21,6,16,2,560,,,,,,,,,-0.20752,-0.452393,-0.364258,-317.749023,-3.295898,114.257812,,,,,,,,,,,0.0,1.0,1.0,2.0,0.0,0.0,0.0,4.0,0.0,0.028916013333333337,0.23084956,1.1337271866666667,-11.022135400000003,16.313476626666667,1.2548827999999999,-151.9182913305925,5.429026399243416,22.283125759443386,-45.6340427122946,32.13625917104655,43.086591742953495,70.50999500638295,1.4436972861388295,66.89813455562486,1.4600230164850545,-0.23643601333333336,-0.68324256,-1.4979851866666667,2.41766376,1.6633346036408556,1.1579282428114441,1.1579282428114441,1.1579282428114441
LBP07_S02,LBP07,40,41,2,40,40,1716272162.6,2024-05-21 06:16:02.600000+00:00,2024-05-21 15:16:02.600000+09:00,2024,5,21,6,16,2,600,,,,,,,,,-0.014648,-0.187744,-0.067139,-310.913086,-21.54541,131.286621,,,,,,,,,,,0.0,1.0,1.0,2.0,0.0,0.0,0.0,4.0,0.0,0.022213533333333334,0.2294400533333333,1.1331477600000002,-9.567871080000003,14.17887376,0.8902994666666664,-126.29983266372226,5.740665956135973,14.567320873072378,-50.686036018843495,32.36588580929199,43.66928457787639,74.32113580312925,1.472353543632296,69.7075381753471,1.4547077715628631,-0.036861533333333335,-0.4171840533333333,-1.2002867600000002,1.6543323466666668,1.2712551330187862,1.1862599653632797,1.1862599653632797,1.1862599653632797
LBP07_S02,LBP07,41,42,2,41,41,1716272162.64,2024-05-21 06:16:02.640000+00:00,2024-05-21 15:16:02.640000+09:00,2024,5,21,6,16,2,640,,,,,,,,,0.469971,-0.852539,0.905273,-69.580078,-57.739258,69.946289,,,,,,,,,,,0.0,1.0,1.0,2.0,0.0,0.0,0.0,4.0,0.0,0.02387044,0.23619459999999998,1.1154882533333332,-14.01367186666667,15.183105533333334,1.8326822799999998,-92.56311254166249,7.991526796951736,4.056466138447912,-54.38856052051,32.685546881170055,43.83154322341431,77.12110393245406,1.4678815640222027,72.12758399523167,1.4481464890929776,0.44610056000000003,-1.0887336,-0.21021525333333324,1.7450494133333334,1.1952142126561545,1.1880508148218545,1.1880508148218545,1.1880508148218545
LBP07_S02,LBP07,42,43,2,42,42,1716272162.68,2024-05-21 06:16:02.680000+00:00,2024-05-21 15:16:02.680000+09:00,2024,5,21,6,16,2,680,,,,,,,,,0.418701,-0.317139,1.366455,208.068848,48.339844,-67.993164,,,,,,,,,,,0.0,1.0,1.0,2.0,0.0,0.0,0.0,4.0,0.0,0.026357413333333333,0.22989902666666664,1.08321612,-11.976725253333337,15.669759186666667,2.14436848,-56.19689852596421,11.764030599888066,-7.920517557765256,-56.63643646154857,33.15610810516558,43.5147225211037,78.74353634320155,1.454161311637752,74.04805731340039,1.4465306364280042,0.39234358666666663,-0.5470380266666667,0.2832388800000001,1.2226204933333333,0.7303481058792987,1.1117670299980953,1.1117670299980953,1.1117670299980953
LBP07_S02,LBP07,43,44,2,43,43,1716272162.72,2024-05-21 06:16:02.720000+00:00,2024-05-21 15:16:02.720000+09:00,2024,5,21,6,16,2,720,,,,,,,,,0.088135,0.922852,1.282471,252.380371,26.977539,-119.750977,,,,,,,,,,,0.0,1.0,1.0,2.0,0.0,0.0,0.0,4.0,0.0,0.01808592,0.2176366666666667,1.05872068,-11.858723946666668,13.896484453333333,2.2338867066666666,-22.469137730704592,16.128137940498743,-19.510593838708132,-57.535201970776754,33.80123362278553,42.73429876755537,79.24041362458227,1.4861721974686406,75.39291233068681,1.444571961077772,0.07004908000000001,0.7052153333333333,0.22375031999999995,0.9990147333333332,0.7431687195229582,1.059110128501647,1.059110128501647,1.059110128501647
LBP07_S02,LBP07,44,45,2,44,44,1716272162.76,2024-05-21 06:16:02.760000+00:00,2024-05-21 15:16:02.760000+09:00,2024,5,21,6,16,2,760,,,,,,,,,0.205566,0.652832,1.698975,-67.871094,-13.85498,-57.861328,,,,,,,,,,,0.0,1.0,1.0,2.0,0.0,0.0,0.0,4.0,0.0,0.03309893333333334,0.21860346666666666,1.0624804399999999,-9.572753893333337,9.231770906666668,2.17854816,4.9015774755989945,19.951584495191153,-28.948094652911127,-57.339138871752795,34.599297002593175,41.57637498143893,78.82565036981951,1.4175010571075235,76.13657980325732,1.446902842718948,0.17246706666666667,0.43422853333333333,0.63649456,1.2431901600000002,0.7895724369271104,1.02541791705483,1.02541791705483,1.02541791705483
LBP07_S02,LBP07,45,46,2,45,45,1716272162.8,2024-05-21 06:16:02.800000+00:00,2024-05-21 15:16:02.800000+09:00,2024,5,21,6,16,2,800,,,,,,,,,0.280273,0.531982,1.619629,-108.886719,57.067871,-73.669434,,,,,,,,,,,0.0,1.0,1.0,2.0,0.0,0.0,0.0,4.0,0.0,0.038219373333333334,0.22038406666666666,1.0693847333333333,-11.551106760000003,9.1105144,1.3802083199999997,24.28876494392336,22.289432884960775,-35.09537047635063,-56.36758827399586,35.490874317991604,40.172560162384904,77.78651398335464,1.3956562293338932,76.315052269961,1.4507494202747444,0.24205362666666666,0.3115979333333333,0.5502442666666667,1.1038958266666667,0.6770908234791166,0.9867149066575285,0.9867149066575285,0.9867149066575285
LBP07_S02,LBP07,46,47,2,46,46,1716272162.84,2024-05-21 06:16:02.840000+00:00,2024-05-21 15:16:02.840000+09:00,2024,5,21,6,16,2,840,,,,,,,,,-0.143799,0.282471,0.850342,-48.278809,139.648438,-30.578613,,,,,,,,,,,0.0,1.0,1.0,2.0,0.0,0.0,0.0,4.0,0.0,0.029020160000000003,0.21164057333333333,1.07383136,-11.97998046666667,10.051269613333332,-0.3157552133333335,35.83284616891927,22.71129326211863,-37.67573182538853,-54.93427442723909,36.39932604847635,38.665530889369364,76.40489985980794,1.4319879624432428,76.02490808785947,1.451970043867637,-0.17281916000000003,0.0708304266666667,-0.22348935999999997,0.46713894666666667,0.2912574555922942,0.9171691615510051,0.9171691615510051,0.9171691615510051
LBP07_S02,LBP07,47,48,2,47,47,1716272162.88,2024-05-21 06:16:02.880000+00:00,2024-05-21 15:16:02.880000+09:00,2024,5,21,6,16,2,880,,,,,,,,,0.03833,0.009277,0.309082,26.794434,-31.066895,65.795898,,,,,,,,,,,0.0,1.0,1.0,2.0,0.0,0.0,0.0,4.0,0.0,0.024811173333333335,0.22450841333333335,1.06956052,-10.407714840000002,8.566080813333333,-0.8691406266666668,40.6294439074251,21.437859547433018,-37.15161939915955,-53.30909667094208,37.256840430373664,37.17946611340298,74.9149160528386,1.4583808877458098,75.40841092946224,1.449322179261615,0.013518826666666667,-0.21523141333333334,-0.7604785199999999,0.9892287599999999,0.7904649893203987,0.9056506004391317,0.9056506004391317,0.9056506004391317
LBP07_S02,LBP07,48,49,2,48,48,1716272162.92,2024-05-21 06:16:02.920000+00:00,2024-05-21 15:16:02.920000+09:00,2024,5,21,6,16,2,920,,,,,,,,,0.30835,-0.062744,1.048828,-108.093262,-11.779785,12.695312,,,,,,,,,,,0.0,1.0,1.0,2.0,0.0,0.0,0.0,4.0,0.0,0.027343720000000005,0.21399734666666664,1.0644140400000002,-12.394205720000002,9.430338626666666,-1.0180664133333335,39.956656276459086,19.224190545333517,-34.38540009672236,-51.71083041988372,38.025808052187,35.80405010953409,73.49763305700239,1.4412363876592909,74.62863438061797,1.4435482597641234,0.28100628,-0.2767413466666666,-0.015586040000000079,0.5733336666666666,0.39470650741684027,0.8630719260206074,0.8630719260206074,0.8630719260206074
LBP07_S02,LBP07,49,50,2,49,49,1716272162.96,2024-05-21 06:16:02.960000+00:00,2024-05-21 15:16:02.960000+09:00,2024,5,21,6,16,2,960,,,,,,,,,0.290283,0.187256,1.502686,244.018555,-7.507324,-80.688477,,,,,,,,,,,0.0,1.0,1.0,2.0,0.0,0.0,0.0,4.0,0.0,0.01810542666666667,0.20777664,1.0343163866666667,-12.801920560000003,10.432129,-0.4166666666666667,34.88475227119317,17.03817997485639,-30.2944987080651,-50.315440329035994,38.707335251181256,34.59227016121149,72.29471967341988,1.482163061696794,73.84225135647503,1.4384198926551677,0.27217757333333337,-0.020520640000000007,0.46836961333333327,0.7610678266666666,0.5420994583890005,0.8383817362027917,0.8383817362027917,0.8383817362027917
LBP07_S02,LBP07,50,51,2,50,50,1716272163.0,2024-05-21 06:16:03+00:00,2024-05-21 15:16:03+09:00,2024,5,21,6,16,3,0,6.0,16.0,3.0,40.542431,141.505615,9.222,3.0,10.0,-0.433594,0.547607,1.704102,-4.882812,11.71875,-57.373047,-252.0,33.0,386.0,2385.0,0.0,1020.200012,24.84,0.07135,-57.669693,3.958594,0.0,1.0,1.0,2.0,0.0,0.0,0.0,4.0,0.0,0.017578093333333333,0.20746089333333334,1.0202083199999998,-11.48600258666667,7.84016936,0.3784179599999999,26.305787993743884,15.682786166634617,-25.649991460328113,-49.26320880928624,39.334646697846644,33.56627050279836,71.41969398211383,1.48455977956122,73.17763151027376,1.4440122437694327,-0.4511720933333333,0.3401461066666666,0.6838936800000002,1.47521188,0.8871111526901327,0.8418624088090302,0.8418624088090302,0.8418624088090302
LBP07_S02,LBP07,51,52,2,51,51,1716272163.04,2024-05-21 06:16:03.040000+00:00,2024-05-21 15:16:03.040000+09:00,2024,5,21,6,16,3,40,,,,,,,,,0.079346,0.484131,1.884033,69.030762,-67.932129,-23.31543,,,,,,,,,,,0.0,1.0,1.0,2.0,0.0,0.0,0.0,4.0,0.0,0.02673825333333334,0.20966792,1.02553384,-11.116536440000003,5.979003986666666,0.4248046799999997,15.187466741565991,15.530398691197112,-21.03252501547432,-48.6557101396236,39.95586264549453,32.72496950217939,70.95613234848182,1.4414029179619845,72.72259097386885,1.4496454438839572,0.05260774666666666,0.27446307999999997,0.85849916,1.1855699866666667,0.9028390582009266,0.8459275187684899,0.8459275187684899,0.8459275187684899
LBP07_S02,LBP07,52,53,2,52,52,1716272163.08,2024-05-21 06:16:03.080000+00:00,2024-05-21 15:16:03.080000+09:00,2024,5,21,6,16,3,80,,,,,,,,,0.186523,0.539795,1.599609,7.507324,97.53418,-47.302246,,,,,,,,,,,0.0,1.0,1.0,2.0,0.0,0.0,0.0,4.0,0.0,0.03574541333333334,0.20685541333333332,1.0276529733333333,-9.544270813333336,5.76497404,-0.26774089333333356,2.792144769368468,16.468515026533534,-16.86191108176861,-48.544024348848865,40.614603246555866,32.05049305890865,70.9457708547587,1.3964221166628346,72.52171529087785,1.4499816889690704,0.15077758666666666,0.3329395866666667,0.5719560266666668,1.0556732000000002,0.6787608897477195,0.8354796044546918,0.8354796044546918,0.8354796044546918
LBP07_S02,LBP07,53,54,2,53,53,1716272163.12,2024-05-21 06:16:03.120000+00:00,2024-05-21 15:16:03.120000+09:00,2024,5,21,6,16,3,120,,,,,,,,,-0.55542,-0.389893,0.358643,-17.150879,59.204102,30.151367,,,,,,,,,,,0.0,1.0,1.0,2.0,0.0,0.0,0.0,4.0,0.0,0.028356093333333342,0.2116112666666667,1.0294368266666667,-7.193196586666669,6.571451906666666,-1.1995442800000002,-9.304698016514411,18.04590987637688,-13.417326483843778,-48.916212269509444,41.336439641610944,31.513799999554898,71.37658338315303,1.4348885263790832,72.58016074984451,1.447599433581669,-0.5837760933333334,-0.6015042666666667,-0.6707938266666666,1.8560741866666668,1.0735763912548764,0.8494852977958791,0.8494852977958791,0.8494852977958791
LBP07_S02,LBP07,54,55,2,54,54,1716272163.16,2024-05-21 06:16:03.160000+00:00,2024-05-21 15:16:03.160000+09:00,2024,5,21,6,16,3,160,,,,,,,,,0.523926,0.868652,0.813721,-154.846191,6.774902,40.83252,,,,,,,,,,,0.0,1.0,1.0,2.0,0.0,0.0,0.0,4.0,0.0,0.021136040000000005,0.2212304,1.0339485466666667,-7.137044253333337,6.101888106666666,-2.1834310000000006,-19.40851456187174,19.715724616987252,-10.830657298510337,-49.69255285198432,42.125068626290435,31.080573707614484,72.17945190780678,1.473424568250175,72.87040646427778,1.4444086700675227,0.50278996,0.6474215999999999,-0.22022754666666666,1.3704391066666664,0.8487948187484301,0.8494469378487987,0.8494469378487987,0.8494469378487987
LBP07_S02,LBP07,55,56,2,55,55,1716272163.2,2024-05-21 06:16:03.200000+00:00,2024-05-21 15:16:03.200000+09:00,2024,5,21,6,16,3,200,,,,,,,,,0.211426,-0.279297,1.961182,158.874512,23.620605,-39.978027,,,,,,,,,,,0.0,1.0,1.0,2.0,0.0,0.0,0.0,4.0,0.0,0.025784480000000005,0.22078117333333333,1.0365657466666667,-7.792968733333336,5.23518888,-2.941080746666667,-26.014234320758717,21.04430969037915,-9.091621844343376,-50.733122224814664,42.9668410139056,30.716908833840748,73.23610861930545,1.451988230479138,73.33986999652026,1.4353517044650363,0.18564152,-0.5000781733333334,0.9246162533333333,1.6103359466666667,1.0674531227742436,0.8609209475817168,0.8609209475817168,0.8609209475817168
LBP07_S02,LBP07,56,57,2,56,56,1716272163.24,2024-05-21 06:16:03.240000+00:00,2024-05-21 15:16:03.240000+09:00,2024,5,21,6,16,3,240,,,,,,,,,-0.722412,0.791016,1.868652,-122.98584,35.217285,-40.283203,,,,,,,,,,,0.0,1.0,1.0,2.0,0.0,0.0,0.0,4.0,0.0,0.030172493333333338,0.2266828666666667,1.0219303333333334,-9.42708330666667,6.632487053333333,-3.5514323066666673,-28.109540821814786,21.80449392313375,-8.10134001462643,-51.857503857687256,43.83902077083095,30.39285523325569,74.39614302989796,1.4353504132943742,73.91895356729455,1.427117213035807,-0.7525844933333334,0.5643331333333333,0.8467216666666666,2.1636392933333335,1.2656195659780176,0.8811558785015319,0.8811558785015319,0.8811558785015319
LBP07_S02,LBP07,57,58,2,57,57,1716272163.28,2024-05-21 06:16:03.280000+00:00,2024-05-21 15:16:03.280000+09:00,2024,5,21,6,16,3,280,,,,,,,,,-0.127686,0.562256,2.069092,-39.916992,-48.522949,-29.35791,,,,,,,,,,,0.0,1.0,1.0,2.0,0.0,0.0,0.0,4.0,0.0,0.029703746666666676,0.22167309333333335,1.0167512933333334,-10.590006480000001,4.855143306666667,-2.9931640666666666,-25.390887616473115,21.955282013216166,-7.759523730718014,-52.87313936234618,44.717232051359595,30.082474284026972,75.49937064250514,1.4345583338717958,74.529736959604,1.4195957082916246,-0.15738974666666666,0.34058290666666663,1.0523407066666666,1.5503133599999999,1.1172238860573167,0.8923972121946645,0.8923972121946645,0.8923972121946645
LBP07_S02,LBP07,58,59,2,58,58,1716272163.32,2024-05-21 06:16:03.320000+00:00,2024-05-21 15:16:03.320000+09:00,2024,5,21,6,16,3,320,,,,,,,,,0.311768,-0.09375,1.530518,-70.983887,43.273926,-7.751465,,,,,,,,,,,0.0,1.0,1.0,2.0,0.0,0.0,0.0,4.0,0.0,0.035618453333333334,0.22375317333333333,1.0181282533333333,-10.690917933333337,4.701334706666667,-3.0021158800000003,-18.345388474854754,21.566169006944083,-8.026064743268497,-53.60695490134037,45.57987881163736,29.76143169429623,76.40009020133516,1.4093287525178284,75.09510725154038,1.413585065020547,0.27614954666666663,-0.31750317333333333,0.5123897466666667,1.1060424666666666,0.6630309869757771,0.881971474684715,0.881971474684715,0.881971474684715
LBP07_S02,LBP07,59,60,2,59,59,1716272163.36,2024-05-21 06:16:03.360000+00:00,2024-05-21 15:16:03.360000+09:00,2024,5,21,6,16,3,360,,,,,,,,,-0.565186,0.056152,0.14209,74.829102,72.937012,8.911133,,,,,,,,,,,0.0,1.0,1.0,2.0,0.0,0.0,0.0,4.0,0.0,0.03917314666666667,0.22114249333333333,1.0168457066666665,-11.390787720000002,4.2187500799999995,-3.08186848,-8.1673628165068,20.74759842745474,-8.910671723574794,-53.93364941400065,46.409782748735545,29.405004825353238,76.98935499584479,1.391593405671929,75.54740362763022,1.4046184062244558,-0.6043591466666667,-0.16499049333333332,-0.8747557066666665,1.6441053466666664,1.0759504576865688,0.8904053435108826,0.8904053435108826,0.8904053435108826
LBP07_S02,LBP07,60,61,2,60,60,1716272163.4,2024-05-21 06:16:03.400000+00:00,2024-05-21 15:16:03.400000+09:00,2024,5,21,6,16,3,400,,,,,,,,,0.221924,0.588623,0.512695,-10.681152,-30.273438,50.720215,,,,,,,,,,,0.0,1.0,1.0,2.0,0.0,0.0,0.0,4.0,0.0,0.036035120000000004,0.2163736133333333,1.01208008,-12.237955680000004,4.068196706666667,-3.4008789066666667,3.488149804155875,19.614334697383047,-10.404946569417783,-53.79412342183441,47.194356136630866,28.988806962576525,77.2105296898566,1.4022148652689264,75.83546079547243,1.3891769695021428,0.18588888,0.37224938666666674,-0.49938508000000004,1.0575233466666667,0.6500074920398767,0.8803887663662574,0.8803887663662574,0.8803887663662574
LBP07_S02,LBP07,61,62,2,61,61,1716272163.44,2024-05-21 06:16:03.440000+00:00,2024-05-21 15:16:03.440000+09:00,2024,5,21,6,16,3,440,,,,,,,,,0.522217,-0.72876,1.618896,-82.519531,32.958984,-10.681152,,,,,,,,,,,0.0,1.0,1.0,2.0,0.0,0.0,0.0,4.0,0.0,0.042109346666666665,0.20695629333333335,1.0105957066666666,-9.919433546666669,3.172200613333333,-3.573404946666667,14.854439386026973,18.273011063800006,-12.422604462922447,-53.199945846393334,47.925276579182864,28.49190278405963,77.06396627157638,1.3661878705201627,75.9293769154869,1.3787088678328012,0.4801076533333334,-0.9357162933333333,0.6083002933333332,2.02412424,1.2149475656455846,0.8937711183374304,0.8937711183374304,0.8937711183374304
LBP07_S02,LBP07,62,63,2,62,62,1716272163.48,2024-05-21 06:16:03.480000+00:00,2024-05-21 15:16:03.480000+09:00,2024,5,21,6,16,3,480,,,,,,,,,0.062256,1.020752,1.484863,231.323242,46.936035,-83.068848,,,,,,,,,,,0.0,1.0,1.0,2.0,0.0,0.0,0.0,4.0,0.0,0.047386040000000004,0.20214834666666667,1.0012532533333334,-6.782226520000002,3.9461263866666667,-3.4415690133333334,24.404004265611672,16.81811356385993,-14.806584383997917,-52.223785675768866,48.59800112173726,27.899639408699713,76.59947377412254,1.3363156839520591,75.82286794050955,1.3718803091372576,0.014869959999999995,0.8186036533333334,0.4836097466666667,1.31708336,0.9509003333851973,0.9047332185294904,0.8959683958392677,0.8959683958392677
LBP07_S02,LBP07,63,64,2,63,63,1716272163.52,2024-05-21 06:16:03.520000+00:00,2024-05-21 15:16:03.520000+09:00,2024,5,21,6,16,3,520,,,,,,,,,-0.028564,0.276123,2.048096,-6.164551,-57.556152,-19.348145,,,,,,,,,,,0.0,1.0,1.0,2.0,0.0,0.0,0.0,4.0,0.0,0.04565101333333333,0.20277985333333334,0.9987207066666667,-6.066080693333336,4.471842519999999,-3.5164388,31.100132597877813,15.335600002391903,-17.399590905365805,-50.97978037185376,49.21142512183294,27.20365577248508,75.89954714405137,1.3452219384181694,75.53317589233129,1.3620923593399226,-0.07421501333333333,0.07334314666666666,1.0493752933333336,1.1969334533333336,1.0545499474303979,0.9015711245783151,0.9018417866389391,0.9018417866389391
LBP07_S02,LBP07,64,65,2,64,64,1716272163.56,2024-05-21 06:16:03.560000+00:00,2024-05-21 15:16:03.560000+09:00,2024,5,21,6,16,3,560,,,,,,,,,0.078369,0.553223,2.199951,-79.467773,-4.394531,-19.65332,,,,,,,,,,,0.0,1.0,1.0,2.0,0.0,0.0,0.0,4.0,0.0,0.05114581333333334,0.20254873333333334,1.0060905066666668,-1.8806965866666694,4.7086589199999995,-4.342447906666667,34.483940604206914,13.923781175026132,-20.113213978576827,-49.60042274768548,49.768376368833984,26.39912721334201,75.06002358622892,1.3190102010270441,75.09825193779531,1.3506627789054697,0.027223186666666656,0.3506742666666667,1.1938604933333332,1.5717579466666667,1.244594882175161,0.8848215357196874,0.9140829686223756,0.9140829686223756
LBP07_S02,LBP07,65,66,2,65,65,1716272163.6,2024-05-21 06:16:03.600000+00:00,2024-05-21 15:16:03.600000+09:00,2024,5,21,6,16,3,600,,,,,,,,,-0.112061,0.665039,1.150879,35.705566,159.057617,-60.180664,,,,,,,,,,,0.0,1.0,1.0,2.0,0.0,0.0,0.0,4.0,0.0,0.046455053333333336,0.2085708666666667,0.99914716,2.3925781599999976,4.33268236,-6.923828106666667,34.605511776351534,12.7305941140399,-22.928625925898732,-48.216202276631414,50.27760013339558,25.481982176306058,74.17526981945016,1.347307213785724,74.57087874739369,1.3421537693701393,-0.15851605333333332,0.45646813333333336,0.15173183999999995,0.7667160266666666,0.5064711711272217,0.8542301772440248,0.9000273893984049,0.9000273893984049
LBP07_S02,LBP07,66,67,2,66,66,1716272163.64,2024-05-21 06:16:03.640000+00:00,2024-05-21 15:16:03.640000+09:00,2024,5,21,6,16,3,640,,,,,,,,,0.008301,0.191162,0.186523,124.023438,-67.260742,63.110352,,,,,,,,,,,0.0,1.0,1.0,2.0,0.0,0.0,0.0,4.0,0.0,0.04580401333333334,0.2273046,0.9834505466666666,3.299967479999998,1.714681053333333,-7.109374973333334,31.884642417082244,11.977491296069184,-25.82100627114128,-46.94081657994813,50.75669978523835,24.449141925460406,73.33105328012446,1.3670648263389358,74.00992970447835,1.3295102889020676,-0.037503013333333335,-0.0361426,-0.7969275466666667,0.87057316,0.7986277469384546,0.8383667186153169,0.8966474013164064,0.8966474013164064
LBP07_S02,LBP07,67,68,2,67,67,1716272163.68,2024-05-21 06:16:03.680000+00:00,2024-05-21 15:16:03.680000+09:00,2024,5,21,6,16,3,680,,,,,,,,,0.582031,0.12915,0.947266,-124.816895,8.117676,19.775391,,,,,,,,,,,0.0,1.0,1.0,2.0,0.0,0.0,0.0,4.0,0.0,0.048756480000000005,0.20874991999999998,0.9818392133333333,-3.2975260133333357,1.3069661999999995,-7.520345026666667,26.99532895576255,11.922833022182107,-28.668989708557866,-45.861003421717626,51.23361310612563,23.30238233711809,72.60245016072251,1.336678835898448,73.4699416531135,1.3229095841486946,0.53327452,-0.07959991999999999,-0.0345732133333333,0.6474476533333332,0.5402898925812225,0.8307643900833938,0.8851519978088198,0.8851519978088198
LBP07_S02,LBP07,68,69,2,68,68,1716272163.72,2024-05-21 06:16:03.720000+00:00,2024-05-21 15:16:03.720000+09:00,2024,5,21,6,16,3,720,,,,,,,,,0.254639,0.137207,1.531738,194.274902,32.653809,-93.383789,,,,,,,,,,,0.0,1.0,1.0,2.0,0.0,0.0,0.0,4.0,0.0,0.060406866666666684,0.21836581333333333,0.9725879066666666,-2.0442708000000027,2.408040426666666,-8.379720026666666,20.80273710051796,12.746223816882866,-31.232792136651362,-45.02889393769691,51.743462058800944,22.053070651652035,72.05085065597551,1.295032948173299,72.99101734842579,1.3209720518768904,0.19423213333333333,-0.08115881333333333,0.5591500933333334,0.8345410400000001,0.5974627197370294,0.8249361500919566,0.8761617078690764,0.8761617078690764
LBP07_S02,LBP07,69,70,2,69,69,1716272163.76,2024-05-21 06:16:03.760000+00:00,2024-05-21 15:16:03.760000+09:00,2024,5,21,6,16,3,760,,,,,,,,,-0.605957,0.371094,1.972412,-32.653809,27.709961,-81.90918,,,,,,,,,,,0.0,1.0,1.0,2.0,0.0,0.0,0.0,4.0,0.0,0.056188119999999994,0.21214837333333333,0.9730696799999998,-1.991373666666669,3.024088613333333,-8.514811173333333,14.314534065028063,14.393036710316268,-33.23537551144401,-44.45631257509579,52.319183527213596,20.723655631194276,71.71562309182852,1.3065033103186268,72.59118009570616,1.3193260017822113,-0.6621451199999999,0.15894562666666665,0.9993423200000002,1.8204330666666668,1.2092910918051354,0.8417248962870777,0.8862565376853206,0.8862565376853206
LBP07_S02,LBP07,70,71,2,70,70,1716272163.8,2024-05-21 06:16:03.800000+00:00,2024-05-21 15:16:03.800000+09:00,2024,5,21,6,16,3,800,,,,,,,,,-0.131104,0.642822,1.871338,9.58252,-87.524414,-32.592773,,,,,,,,,,,0.0,1.0,1.0,2.0,0.0,0.0,0.0,4.0,0.0,0.06491533333333332,0.21822910666666667,0.9953645999999999,1.4217122799999975,1.773274813333333,-9.169108053333332,8.593552662240786,16.454795069890103,-34.49312451930504,-44.11257046860616,52.9773753300092,19.343930650422074,71.60103926070312,1.275780060588207,72.26256298139006,1.312723533775109,-0.19601933333333332,0.42459289333333333,0.8759734,1.4965856266666666,0.9929914912108642,0.8543609229963475,0.8893958010243073,0.8893958010243073
LBP07_S02,LBP07,71,72,2,71,71,1716272163.84,2024-05-21 06:16:03.840000+00:00,2024-05-21 15:16:03.840000+09:00,2024,5,21,6,16,3,840,,,,,,,,,0.266357,0.43457,1.654541,-48.950195,21.42334,-41.015625,,,,,,,,,,,0.0,1.0,1.0,2.0,0.0,0.0,0.0,4.0,0.0,0.06018225333333334,0.2218489066666667,0.99574872,3.650716186666664,3.9713542399999997,-10.276692680000002,4.615935940895631,18.157930241028467,-34.99536923403151,-43.92793303097033,53.70369253965034,17.944115881060814,71.66408575792792,1.300180822986434,71.97174590738774,1.307666327491718,0.2061747466666667,0.2127210933333333,0.65879228,1.07768812,0.7223334118671177,0.8716039612473405,0.8846225899055303,0.8846225899055303
LBP07_S02,LBP07,72,73,2,72,72,1716272163.88,2024-05-21 06:16:03.880000+00:00,2024-05-21 15:16:03.880000+09:00,2024,5,21,6,16,3,880,,,,,,,,,-0.478027,-0.156738,0.62207,-33.081055,158.02002,-15.50293,,,,,,,,,,,0.0,1.0,1.0,2.0,0.0,0.0,0.0,4.0,0.0,0.05682288,0.22421544000000002,0.98731448,4.662272173333331,3.1396485199999997,-9.778645800000001,3.116499134607272,18.49781267280492,-34.87262908629893,-43.80327306558604,54.44360504656254,16.549210717608858,71.8102307272453,1.3169403612340154,71.66383349930743,1.3027826069097035,-0.53484988,-0.38095344,-0.36524448,1.2810478,0.7513943357214762,0.8700411351033835,0.8809218050670844,0.8809218050670844
LBP07_S02,LBP07,73,74,2,73,73,1716272163.92,2024-05-21 06:16:03.920000+00:00,2024-05-21 15:16:03.920000+09:00,2024,5,21,6,16,3,920,,,,,,,,,0.29834,0.61499,0.053711,131.896973,-90.820312,10.498047,,,,,,,,,,,0.0,1.0,1.0,2.0,0.0,0.0,0.0,4.0,0.0,0.05430334666666667,0.2253352266666667,0.9820540666666666,3.7133789466666642,1.1385091866666666,-8.90136716,4.487740537551627,16.493199298302436,-34.28258996687169,-43.62376344408398,55.10333301849464,15.177907118933991,71.90117461685522,1.3287614374713774,71.26967249334153,1.2993546471542106,0.24403665333333333,0.3896547733333333,-0.9283430666666667,1.5620344933333334,1.0359563600749098,0.8956911292097064,0.8851119281754041,0.8851119281754041
LBP07_S02,LBP07,74,75,2,74,74,1716272163.96,2024-05-21 06:16:03.960000+00:00,2024-05-21 15:16:03.960000+09:00,2024,5,21,6,16,3,960,,,,,,,,,0.280029,0.032227,1.02124,-121.765137,2.624512,7.873535,,,,,,,,,,,0.0,1.0,1.0,2.0,0.0,0.0,0.0,4.0,0.0,0.06800452,0.21092767999999998,0.9828255466666665,6.983235719999998,0.27913418666666645,-7.800292946666667,8.762090876920915,11.48216666295272,-33.30424416546518,-43.27327980900714,55.56261968501275,13.845737352315384,71.77385244306795,1.252985520956024,70.71553438382125,1.3031126091370446,0.21202447999999996,-0.17870067999999997,0.038414453333333376,0.4291396133333333,0.2799356772128762,0.8852045779626614,0.8691862373606006,0.8691862373606006
LBP07_S02,LBP07,75,76,2,75,75,1716272164.0,2024-05-21 06:16:04+00:00,2024-05-21 15:16:04+09:00,2024,5,21,6,16,4,0,6.0,16.0,4.0,40.542423,141.505539,9.659,3.0,10.0,0.352295,-0.016357,1.456543,162.04834,33.569336,-76.965332,-248.0,31.0,390.0,2605.0,0.0,1020.099976,24.9,0.070359,-56.841873,3.958594,0.0,1.0,1.0,2.0,0.0,0.0,0.0,6.0,0.0,0.05905921333333333,0.21463536,0.9831054933333333,8.705240919999998,2.806803453333333,-8.03792316,15.647858091643135,3.3749684410410032,-31.921248880417416,-42.64736548534142,55.69761842265439,12.568887397098687,71.26709907942687,1.2967351509518137,69.93420459984605,1.3069513930670418,0.2932357866666667,-0.23099236,0.4734375066666666,0.9976656533333333,0.6028994689657128,0.8738361106136846,0.8623583715043214,0.8623583715043214
LBP07_S02,LBP07,76,77,2,76,76,1716272164.04,2024-05-21 06:16:04.040000+00:00,2024-05-21 15:16:04.040000+09:00,2024,5,21,6,16,4,40,,,,,,,,,-0.253174,0.682617,1.43042,-13.85498,50.78125,-97.412109,,,,,,,,,,,0.0,1.0,1.0,2.0,0.0,0.0,0.0,6.0,0.0,0.05636389333333334,0.22338536,1.0040462533333334,14.896647173333331,-0.01139316000000008,-8.021647119999999,24.568639428786653,-7.197958281835514,-30.10277790404576,-41.66461990818995,55.40970009138097,11.364776280936857,70.2519291993214,1.3182276205187908,68.87577726806038,1.3149765343361213,-0.30953789333333337,0.45923164000000005,0.4263737466666666,1.19514328,0.6989291655331737,0.8656797149069745,0.8582726413550429,0.8582726413550429
LBP07_S02,LBP07,77,78,2,77,77,1716272164.08,2024-05-21 06:16:04.080000+00:00,2024-05-21 15:16:04.080000+09:00,2024,5,21,6,16,4,80,,,,,,,,,0.068115,0.200195,1.450684,-53.771973,-52.55127,-44.677734,,,,,,,,,,,0.0,1.0,1.0,2.0,0.0,0.0,0.0,6.0,0.0,0.06390621333333334,0.23807612,1.02547204,15.352376333333329,0.6282552666666668,-10.483398413333335,34.688959684805624,-18.89793113597965,-27.90502015382605,-40.27706152079772,54.653782845941784,10.248575474783815,68.66084010106361,1.3023992383435163,67.51607988835744,1.32559766880157,0.0042087866666666585,-0.03788111999999999,0.42521196000000017,0.46730186666666684,0.4269167413731882,0.855605948971993,0.8477517657457292,0.8477517657457292
LBP07_S02,LBP07,78,79,2,78,78,1716272164.12,2024-05-21 06:16:04.120000+00:00,2024-05-21 15:16:04.120000+09:00,2024,5,21,6,16,4,120,,,,,,,,,-0.093994,0.04248,0.434082,-22.521973,60.791016,-6.04248,,,,,,,,,,,0.0,1.0,1.0,2.0,0.0,0.0,0.0,6.0,0.0,0.056826133333333334,0.24002923999999998,1.0237988666666669,14.764811226666664,1.5917969333333333,-11.272786426666666,44.963749382905576,-29.898672093168983,-25.490709150334308,-38.4785115454815,53.45783596221502,9.228947108770443,66.5094695607725,1.3326125680016394,65.86104792592295,1.3346706538717488,-0.15082013333333333,-0.19754924,-0.5897168666666668,0.9380862400000001,0.6399518713734754,0.8382609681767371,0.8428041492130566,0.8428041492130566
LBP07_S02,LBP07,79,80,2,79,79,1716272164.16,2024-05-21 06:16:04.160000+00:00,2024-05-21 15:16:04.160000+09:00,2024,5,21,6,16,4,160,,,,,,,,,-0.066895,0.029541,-0.384277,157.287598,-78.613281,34.790039,,,,,,,,,,,0.0,1.0,1.0,2.0,0.0,0.0,0.0,6.0,0.0,0.05384110666666667,0.24028314666666664,1.0252799866666666,10.576985706666663,2.676595106666667,-9.519042933333333,54.27000215489824,-38.31302444799554,-23.02960433068607,-36.30771145928557,51.9253149842952,8.307762935543,63.90232525207662,1.3448911496185987,63.94650627508746,1.3432612310371388,-0.12073610666666668,-0.21074214666666663,-1.4095569866666666,1.74103524,1.430328758885702,0.8615223257822281,0.8564675122286994,0.8564675122286994
LBP07_S02,LBP07,80,81,2,80,80,1716272164.2,2024-05-21 06:16:04.200000+00:00,2024-05-21 15:16:04.200000+09:00,2024,5,21,6,16,4,200,,,,,,,,,-0.093262,-0.02832,-0.015137,140.136719,-116.027832,-7.629395,,,,,,,,,,,0.0,1.0,1.0,2.0,0.0,0.0,0.0,6.0,0.0,0.05023760000000001,0.23600254666666667,1.0297070666666666,15.625813826666667,1.86848964,-8.068033813333333,61.62033071801646,-42.72787365280974,-20.549044058163965,-33.84289823056491,50.216200038182805,7.485801173216442,61.01676594284634,1.3560314732790033,61.83409637706579,1.3609156715671418,-0.1434996,-0.26432254666666666,-1.0448440666666665,1.4526662133333332,1.0872707425131285,0.8623150305717835,0.8617130401897093,0.8617130401897093
LBP07_S02,LBP07,81,82,2,81,81,1716272164.24,2024-05-21 06:16:04.240000+00:00,2024-05-21 15:16:04.240000+09:00,2024,5,21,6,16,4,240,,,,,,,,,0.488281,0.518555,0.245605,112.609863,-153.442383,24.963379,,,,,,,,,,,0.0,1.0,1.0,2.0,0.0,0.0,0.0,6.0,0.0,0.04005205333333333,0.2480923866666667,1.0335319333333333,8.922526066666665,4.02669276,-7.140299426666667,66.3564912021602,-42.65853416425222,-17.859902784934032,-31.188638582478504,48.50985867161272,6.77140506181908,58.067111960898615,1.406392167640921,59.604824257507026,1.3715601766836198,0.4482289466666667,0.2704626133333333,-0.7879269333333333,1.5066184933333333,0.9459852356739384,0.8495296573596203,0.8635857556449144,0.8635857556449144
LBP07_S02,LBP07,82,83,2,82,82,1716272164.28,2024-05-21 06:16:04.280000+00:00,2024-05-21 15:16:04.280000+09:00,2024,5,21,6,16,4,280,,,,,,,,,0.577637,-0.080322,0.76416,-67.565918,-23.4375,-40.222168,,,,,,,,,,,0.0,1.0,1.0,2.0,0.0,0.0,0.0,6.0,0.0,0.039199200000000003,0.24443353333333334,1.0439713866666667,11.177571639999998,2.84179692,-6.67561844,68.19240150970742,-38.71234055551849,-14.642961870718588,-28.460942522090207,46.96136504939198,6.185686586990337,55.25991110290035,1.407670211935803,57.35162658442683,1.3792709857804055,0.5384378,-0.32475553333333335,-0.2798113866666667,1.14300472,0.6882411154586601,0.8323703465356741,0.8597739156408654,0.8597739156408654
LBP07_S02,LBP07,83,84,2,83,83,1716272164.32,2024-05-21 06:16:04.320000+00:00,2024-05-21 15:16:04.320000+09:00,2024,5,21,6,16,4,320,,,,,,,,,-0.070312,0.13623,1.218018,69.213867,46.386719,-81.726074,,,,,,,,,,,0.0,1.0,1.0,2.0,0.0,0.0,0.0,6.0,0.0,0.03731118666666666,0.2431933066666667,1.0464876666666667,11.57307945333333,3.3048503066666663,-6.518554626666667,67.07821265527883,-32.34932842194101,-10.67247586368747,-25.777814015879052,45.66739191251434,5.758787552442838,52.75575810850036,1.4146672091252783,55.17175093260278,1.3886109178504777,-0.10762318666666666,-0.1069633066666667,0.17153033333333334,0.3861168266666667,0.22901212748411384,0.8150095921560074,0.846353452063062,0.846353452063062
LBP07_S02,LBP07,84,85,2,84,84,1716272164.36,2024-05-21 06:16:04.360000+00:00,2024-05-21 15:16:04.360000+09:00,2024,5,21,6,16,4,360,,,,,,,,,-0.147461,0.309082,1.467041,62.316895,-9.82666,-44.494629,,,,,,,,,,,0.0,1.0,1.0,2.0,0.0,0.0,0.0,6.0,0.0,0.032968746666666666,0.23772781333333332,1.0362109733333333,10.488281279999997,1.9938151466666667,-5.8365884800000005,62.997414925397486,-25.320362791845433,-6.048696171034987,-23.25791741886315,44.65457740084052,5.516839705601439,50.64975346285129,1.4295299262560526,53.15920093757958,1.3937061165856113,-0.18042974666666667,0.07135418666666671,0.4308300266666667,0.6826139600000001,0.4725048415780094,0.7908717675116651,0.8385649393446234,0.8385649393446234
LBP07_S02,LBP07,85,86,2,85,85,1716272164.4,2024-05-21 06:16:04.400000+00:00,2024-05-21 15:16:04.400000+09:00,2024,5,21,6,16,4,400,,,,,,,,,-0.013184,0.010254,1.213135,40.893555,59.753418,-22.888184,,,,,,,,,,,0.0,1.0,1.0,2.0,0.0,0.0,0.0,6.0,0.0,0.039300133333333334,0.23812169333333336,1.03855472,6.9384765866666624,2.02962244,-5.611979093333333,55.85292518764728,-19.033689593079302,-1.2784809667472217,-21.02380041135726,43.89322981711735,5.465700466931549,48.97437788383923,1.4031802021165964,51.39736355778433,1.3967468909714968,-0.052484133333333335,-0.22786769333333334,0.17458028000000003,0.4549321066666667,0.29181594213079515,0.776544105515302,0.8274067965443412,0.8274067965443412
LBP07_S02,LBP07,86,87,2,86,86,1716272164.44,2024-05-21 06:16:04.440000+00:00,2024-05-21 15:16:04.440000+09:00,2024,5,21,6,16,4,440,,,,,,,,,-0.389893,-0.240479,-0.022217,88.928223,40.466309,34.729004,,,,,,,,,,,0.0,1.0,1.0,2.0,0.0,0.0,0.0,6.0,0.0,0.039811200000000005,0.22972976000000003,1.0478678666666668,9.46126305333333,2.4487305066666667,-5.822753826666666,45.52380836453334,-14.136598303755434,2.8861429901142377,-19.20284807677593,43.327765884967135,5.5811461865361185,47.719952468519345,1.3953357114866463,49.95204367617294,1.3992536390564259,-0.4297042,-0.47020876,-1.0700848666666667,1.9699978266666667,1.2453206813296709,0.7777590301426653,0.8357650742400479,0.8357650742400479
LBP07_S02,LBP07,87,88,2,87,87,1716272164.48,2024-05-21 06:16:04.480000+00:00,2024-05-21 15:16:04.480000+09:00,2024,5,21,6,16,4,480,,,,,,,,,-0.070312,0.358887,-0.063232,5.371094,-52.185059,66.52832,,,,,,,,,,,0.0,1.0,1.0,2.0,0.0,0.0,0.0,6.0,0.0,0.04185221333333334,0.24283848000000002,1.04382164,9.318033879999996,2.231445346666667,-5.443522053333333,32.06921303820244,-10.483537812925507,5.8001628737866975,-17.92007955524783,42.90842437245011,5.813152701487587,46.86208358282306,1.395798559044238,48.86516583317806,1.3944774965715663,-0.11216421333333335,0.11604851999999999,-1.10705364,1.3352663733333332,1.1187563772261258,0.7844732718963024,0.8446032452128963,0.8413139233182063
LBP07_S02,LBP07,88,89,2,88,88,1716272164.52,2024-05-21 06:16:04.520000+00:00,2024-05-21 15:16:04.520000+09:00,2024,5,21,6,16,4,520,,,,,,,,,0.371582,-0.027344,0.272217,-40.100098,-119.812012,75.622559,,,,,,,,,,,0.0,1.0,1.0,2.0,0.0,0.0,0.0,6.0,0.0,0.044231773333333335,0.23932612,1.0430045733333333,9.026692733333329,1.9360351866666667,-5.350748613333334,15.996175332689415,-7.464524951593928,7.288857836366917,-17.280232541940254,42.60984337438636,6.104707014942264,46.383969610540596,1.3835645553529758,48.14955356936304,1.389382614802344,0.3273502266666667,-0.26667012,-0.7707875733333334,1.36480792,0.8788541443292062,0.7774454397722548,0.839508282175285,0.8420358506453408
LBP07_S02,LBP07,89,90,2,89,89,1716272164.56,2024-05-21 06:16:04.560000+00:00,2024-05-21 15:16:04.560000+09:00,2024,5,21,6,16,4,560,,,,,,,,,0.599365,-0.129395,0.67749,65.368652,-74.401855,17.822266,,,,,,,,,,,0.0,1.0,1.0,2.0,0.0,0.0,0.0,6.0,0.0,0.047093093333333336,0.24398757333333332,1.0426465066666666,7.2656250266666635,2.92561852,-5.980631426666667,-1.5064860880046826,-4.487874447085165,7.808966886264731,-17.340491985460442,42.43032839650295,6.417065690392853,46.283951454124136,1.3752988934774537,47.785834998264036,1.3829427752937262,0.5522719066666667,-0.37338257333333336,-0.36515650666666655,1.2908109866666666,0.7601039924400219,0.7580658041828492,0.8214436699512683,0.8404899665282594
LBP07_S02,LBP07,90,91,2,90,90,1716272164.6,2024-05-21 06:16:04.600000+00:00,2024-05-21 15:16:04.600000+09:00,2024,5,21,6,16,4,600,,,,,,,,,0.125244,0.408203,0.985107,66.345215,61.706543,6.286621,,,,,,,,,,,0.0,1.0,1.0,2.0,0.0,0.0,0.0,6.0,0.0,0.04410156,0.23531244,1.0372331066666665,6.167806013333331,3.7158203333333337,-5.64371736,-18.473197056398696,-1.348271113509543,8.284077854812603,-18.07941986771639,42.37639755196257,6.748428804585357,46.5635671267324,1.3810989541282936,47.72314094315495,1.374259742173606,0.08114244,0.17289055999999997,-0.052126106666666505,0.30615910666666646,0.19797063494996395,0.7457257827357588,0.799977979989892,0.8285914603879206
LBP07_S02,LBP07,91,92,2,91,91,1716272164.64,2024-05-21 06:16:04.640000+00:00,2024-05-21 15:16:04.640000+09:00,2024,5,21,6,16,4,640,,,,,,,,,-0.386719,0.512451,1.54834,36.071777,25.634766,-88.806152,,,,,,,,,,,0.0,1.0,1.0,2.0,0.0,0.0,0.0,6.0,0.0,0.05041341333333334,0.23997065333333334,1.0341634399999997,7.46175133333333,1.6935221466666666,-5.382486893333333,-32.31781153800399,1.6910855187263825,9.661368200956936,-19.37213232923655,42.444040972711626,7.134883532623634,47.19833353094979,1.3586307427923252,47.88473738562506,1.368299469172162,-0.4371324133333333,0.27248034666666665,0.5141765600000003,1.2237893200000003,0.7278102918753244,0.7428930845332338,0.7906299015742754,0.8267590755058734
LBP07_S02,LBP07,92,93,2,92,92,1716272164.68,2024-05-21 06:16:04.680000+00:00,2024-05-21 15:16:04.680000+09:00,2024,5,21,6,16,4,680,,,,,,,,,-0.039062,0.693359,1.552979,-127.746582,0.183105,-42.541504,,,,,,,,,,,0.0,1.0,1.0,2.0,0.0,0.0,0.0,6.0,0.0,0.04908528,0.2310611466666667,1.0363704666666669,8.833007839999997,1.3484700666666665,-5.5688475733333345,-40.310638306773434,4.084907725024356,12.39787181867622,-20.984557861507486,42.6074372817126,7.630798405370683,48.10378846475022,1.3567213942435785,48.17793221252801,1.3646835548379612,-0.08814728,0.4622978533333333,0.5166085333333332,1.0670536666666666,0.6988373379269487,0.7492349823470628,0.7899996862152282,0.8244747587633926
LBP07_S02,LBP07,93,94,2,93,93,1716272164.72,2024-05-21 06:16:04.720000+00:00,2024-05-21 15:16:04.720000+09:00,2024,5,21,6,16,4,720,,,,,,,,,0.064941,-0.068848,0.801758,-97.412109,92.224121,-39.245605,,,,,,,,,,,0.0,1.0,1.0,2.0,0.0,0.0,0.0,6.0,0.0,0.053460280000000006,0.24478836,1.0301497599999998,9.560546893333331,1.6373698133333332,-6.207682213333334,-40.31316749766475,5.300290117019871,16.142945395002496,-22.597084561414075,42.819448886393396,8.276516221170784,49.11857239751027,1.350268814039102,48.505728827691335,1.361156487950288,0.011480719999999993,-0.31363636,-0.22839175999999983,0.5535088399999999,0.38815250776166,0.7408625738680479,0.7828993619800022,0.8168199824300288
LBP07_S02,LBP07,94,95,2,94,94,1716272164.76,2024-05-21 06:16:04.760000+00:00,2024-05-21 15:16:04.760000+09:00,2024,5,21,6,16,4,760,,,,,,,,,-0.35791,0.050781,0.050537,-28.991699,-3.967285,77.941895,,,,,,,,,,,0.0,1.0,1.0,2.0,0.0,0.0,0.0,6.0,0.0,0.05512694666666667,0.24370762666666668,1.02805016,10.671386733333332,1.703287786666667,-6.8969725733333345,-31.539846497919253,5.039656655724076,19.79699995202797,-23.858678421330843,43.02103515262236,9.068396219251902,50.02281291176046,1.342699595054852,48.7770683114015,1.3582230554560395,-0.4130369466666667,-0.19292662666666668,-0.97751316,1.5834767333333333,1.0785880495174642,0.7356344521765411,0.7886796742318093,0.8213332249660191
LBP07_S02,LBP07,95,96,2,95,95,1716272164.8,2024-05-21 06:16:04.800000+00:00,2024-05-21 15:16:04.800000+09:00,2024,5,21,6,16,4,800,,,,,,,,,0.007324,0.071533,0.195801,-140.625,-33.874512,88.500977,,,,,,,,,,,0.0,1.0,1.0,2.0,0.0,0.0,0.0,6.0,0.0,0.05416341333333334,0.24023757333333337,1.02799808,10.620117199999997,1.9091797066666663,-7.12402336,-15.03440185357225,3.2960076899525896,21.933675383503402,-24.460054495473734,43.152875460220464,9.945743234592038,50.59034230854023,1.3435774721021543,48.91358382905584,1.3545862490498495,-0.04683941333333334,-0.16870457333333339,-0.8321970799999999,1.0477410666666667,0.8504158651304191,0.7299314271333234,0.7921461750648355,0.8218261510705005
LBP07_S02,LBP07,96,97,2,96,96,1716272164.84,2024-05-21 06:16:04.840000+00:00,2024-05-21 15:16:04.840000+09:00,2024,5,21,6,16,4,840,,,,,,,,,0.569336,-0.49585,0.790039,-47.790527,-95.825195,99.182129,,,,,,,,,,,0.0,1.0,1.0,2.0,0.0,0.0,0.0,6.0,0.0,0.05103189333333334,0.24383784,1.0272624,10.35807293333333,1.9807942933333333,-7.378743413333333,6.3833869281816,0.2648610135096545,21.3812926370705,-24.20471901834647,43.16346990076085,10.800994940074858,50.65190073754897,1.3591765681446388,48.85310106213998,1.3495617622935414,0.5183041066666666,-0.73968784,-0.23722339999999986,1.4952153466666664,0.9338373461898796,0.7383915845062339,0.8049977728767871,0.82369300432249
LBP07_S02,LBP07,97,98,2,97,97,1716272164.88,2024-05-21 06:16:04.880000+00:00,2024-05-21 15:16:04.880000+09:00,2024,5,21,6,16,4,880,,,,,,,,,0.534912,-0.068604,1.024414,142.822266,21.30127,16.540527,,,,,,,,,,,0.0,1.0,1.0,2.0,0.0,0.0,0.0,6.0,0.0,0.05061197333333334,0.24340490666666667,1.0280762,8.854166679999999,1.68050132,-7.377115813333333,28.7570772486202,-3.77428297488155,17.684329894746842,-23.054435928401663,43.01249858176559,11.508368135864732,50.1400497344563,1.3605278901675064,48.55218586320171,1.3475805340563438,0.4843000266666667,-0.3120089066666667,-0.003662200000000171,0.7999711333333336,0.5761158610709332,0.731380445520212,0.8007107903117979,0.8196343626298417
LBP07_S02,LBP07,98,99,2,98,98,1716272164.92,2024-05-21 06:16:04.920000+00:00,2024-05-21 15:16:04.920000+09:00,2024,5,21,6,16,4,920,,,,,,,,,0.020508,0.177002,1.369385,112.915039,52.001953,-45.715332,,,,,,,,,,,0.0,1.0,1.0,2.0,0.0,0.0,0.0,6.0,0.0,0.05109374666666667,0.23806962666666667,1.0288346666666666,7.609863293333332,1.4990234666666666,-7.194824146666667,48.04137920859108,-8.496546398760657,11.250292102495216,-21.13278076005802,42.67263672581517,11.95837981996454,49.09736444764223,1.3542302304104903,47.99000074374218,1.3447819350180947,-0.03058574666666667,-0.06106762666666668,0.3405503333333335,0.43220370666666685,0.34733164621050794,0.703835456965636,0.7997632930876712,0.8120165768811427
LBP07_S02,LBP07,99,100,2,99,99,1716272164.96,2024-05-21 06:16:04.960000+00:00,2024-05-21 15:16:04.960000+09:00,2024,5,21,6,16,4,960,,,,,,,,,-0.025391,0.529785,1.442871,223.144531,-42.419434,-29.968262,,,,,,,,,,,0.0,1.0,1.0,2.0,0.0,0.0,0.0,6.0,0.0,0.05378580000000001,0.23319333333333334,1.0350163200000002,9.21956381333333,0.6518555066666666,-7.319335866666667,61.191078662339194,-13.47255971686384,3.169849598046399,-18.68513761356445,42.133734337140616,12.085173803886395,47.64910663066753,1.3389308294155537,47.173146146857704,1.340744724002003,-0.0791768,0.2965916666666666,0.4078546799999998,0.7836231466666663,0.5104713727450868,0.7130568847869244,0.7991307313747928,0.8072301450694593
LBP07_S02,LBP07,100,101,2,100,100,1716272165.0,2024-05-21 06:16:05+00:00,2024-05-21 15:16:05+09:00,2024,5,21,6,16,5,0,6.0,16.0,5.0,40.542446,141.505493,10.478,3.0,10.0,-0.038818,0.349365,1.32959,-36.682129,42.358398,-33.325195,-237.0,13.0,400.0,2189.0,0.0,1019.799988,25.0,0.067386,-54.35902,3.958594,0.0,1.0,1.0,2.0,0.0,0.0,0.0,4.0,0.0,0.056236973333333336,0.23535478666666668,1.03766932,9.025065119999997,0.49560550666666653,-7.488606693333335,66.88782607564465,-18.09661362098212,-5.14414194702131,-16.009624570538662,41.40986979230133,11.879408126005542,45.958739457573806,1.3308540865652123,46.138235651971364,1.3381220559061806,-0.09505497333333333,0.1140102133333333,0.29192068000000004,0.5009858666666667,0.3274926871112931,0.7020406135127476,0.787938362063216,0.7997342472888629
LBP07_S02,LBP07,101,102,2,101,101,1716272165.04,2024-05-21 06:16:05.040000+00:00,2024-05-21 15:16:05.040000+09:00,2024,5,21,6,16,5,40,,,,,,,,,-0.389404,0.024658,0.127686,9.460449,43.395996,2.563477,,,,,,,,,,,0.0,1.0,1.0,2.0,0.0,0.0,0.0,4.0,0.0,0.056083973333333335,0.24350582666666667,1.0376725733333334,9.493815119999997,0.6355794666666666,-7.610676999999999,65.6654995510893,-21.615876968794726,-12.311162007168257,-13.38300458849509,40.54523471354954,11.386961645718811,44.1891815415671,1.338818460420351,44.94866087895708,1.3376597539025212,-0.4454879733333333,-0.2188478266666667,-0.9099865733333334,1.5743223733333334,1.0365468968012523,0.7155453227634707,0.7906125188352227,0.8033775188198228
LBP07_S02,LBP07,102,103,2,102,102,1716272165.08,2024-05-21 06:16:05.080000+00:00,2024-05-21 15:16:05.080000+09:00,2024,5,21,6,16,5,80,,,,,,,,,-0.070557,0.276611,0.021729,148.376465,-87.646484,-14.587402,,,,,,,,,,,0.0,1.0,1.0,2.0,0.0,0.0,0.0,4.0,0.0,0.05972654666666667,0.24828772000000002,1.0404232266666669,8.257649746666663,1.18733728,-8.635253826666666,59.4633987306358,-23.31461343181557,-17.215387557255138,-11.004468639269659,39.612650176276915,10.698346143428605,42.48193727015488,1.328735403861085,43.68483377902843,1.3365812870519185,-0.13028354666666667,0.02832327999999998,-1.0186942266666668,1.1773010533333335,1.027382079932292,0.739563936305835,0.7975849426389141,0.8067715273215269
LBP07_S02,LBP07,103,104,2,103,103,1716272165.12,2024-05-21 06:16:05.120000+00:00,2024-05-21 15:16:05.120000+09:00,2024,5,21,6,16,5,120,,,,,,,,,0.390625,0.362305,0.272461,-10.498047,-160.888672,62.805176,,,,,,,,,,,0.0,1.0,1.0,2.0,0.0,0.0,0.0,4.0,0.0,0.06236001333333333,0.2391178,1.0511654133333332,6.133626319999997,1.1612956133333332,-8.477376226666667,50.84203542181832,-22.797576878655885,-19.11185104286511,-8.970787222396925,38.70074710113068,9.933872101714,40.95002642866554,1.3098967038781861,42.43078091557893,1.3313496737585306,0.32826498666666665,0.1231872,-0.7787044133333332,1.2301566,0.8539985661931274,0.7481258040986211,0.7931933861376791,0.8074764084987149
LBP07_S02,LBP07,104,105,2,104,104,1716272165.16,2024-05-21 06:16:05.160000+00:00,2024-05-21 15:16:05.160000+09:00,2024,5,21,6,16,5,160,,,,,,,,,0.556152,-0.380859,1.024414,-147.583008,11.474609,-28.808594,,,,,,,,,,,0.0,1.0,1.0,2.0,0.0,0.0,0.0,4.0,0.0,0.059469386666666665,0.23377925333333338,1.07290696,4.4726562666666645,3.325195346666667,-9.186197853333333,42.15589376427272,-20.21901177537205,-17.674195528756215,-7.284551471826017,37.891986630115795,9.226904280563751,39.67370796289707,1.3164729140966291,41.26169010706788,1.3289013340293976,0.4966826133333333,-0.6146382533333334,-0.04849296000000014,1.1598138266666669,0.7917230374429192,0.7225815752409096,0.792051950511569,0.8072447412773062
LBP07_S02,LBP07,105,106,2,105,105,1716272165.2,2024-05-21 06:16:05.200000+00:00,2024-05-21 15:16:05.200000+09:00,2024,5,21,6,16,5,200,,,,,,,,,0.278076,0.593262,1.137695,214.294434,6.103516,-59.204102,,,,,,,,,,,0.0,1.0,1.0,2.0,0.0,0.0,0.0,4.0,0.0,0.05485350666666666,0.23757807999999997,1.0816048666666667,6.7366536666666645,3.3341471599999997,-9.343261666666667,34.927605050271914,-16.295342835670287,-13.044576640605472,-5.887447269815141,37.240172916688984,8.705121214939533,38.69459457839738,1.3389544520655585,40.23614901508234,1.3285795475606166,0.22322249333333333,0.35568392,0.056090133333333236,0.6349965466666665,0.42365721466047,0.6960370341268033,0.7791760323492933,0.8016855017611201
LBP07_S02,LBP07,106,107,2,106,106,1716272165.24,2024-05-21 06:16:05.240000+00:00,2024-05-21 15:16:05.240000+09:00,2024,5,21,6,16,5,240,,,,,,,,,-0.231445,0.461182,1.34668,25.146484,6.896973,-47.668457,,,,,,,,,,,0.0,1.0,1.0,2.0,0.0,0.0,0.0,4.0,0.0,0.054293600000000004,0.24587559999999997,1.0837468,5.6429036666666645,2.800292986666667,-8.291015573333334,29.55880928701408,-12.052743596244012,-5.875049790954369,-4.705094898334577,36.75806317283922,8.470119223301358,38.013629738262466,1.348391899638612,39.39448934805365,1.3248929237662952,-0.2857386,0.2153064,0.2629332000000002,0.7639782000000002,0.4440014201251615,0.6759576815048522,0.7627436694322363,0.7965757291663207
LBP07_S02,LBP07,107,108,2,107,107,1716272165.28,2024-05-21 06:16:05.280000+00:00,2024-05-21 15:16:05.280000+09:00,2024,5,21,6,16,5,280,,,,,,,,,-0.065918,0.735352,1.42749,47.119141,22.460938,-51.879883,,,,,,,,,,,0.0,1.0,1.0,2.0,0.0,0.0,0.0,4.0,0.0,0.06359048,0.2420344533333333,1.0794206266666666,6.507975279999998,3.33902996,-7.84830724,25.377521864756314,-8.419605264006607,2.720750039395429,-3.6899940237443247,36.421278962278954,8.578949224877176,37.59952109996127,1.3082117572336294,38.7624544044782,1.3217194287073972,-0.12950848,0.4933175466666667,0.3480693733333333,0.9708954000000001,0.6174843616592963,0.6731274113528777,0.7527488789442759,0.7940533155394611
LBP07_S02,LBP07,108,109,2,108,108,1716272165.32,2024-05-21 06:16:05.320000+00:00,2024-05-21 15:16:05.320000+09:00,2024,5,21,6,16,5,320,,,,,,,,,-0.200684,0.068604,0.265381,-48.400879,80.383301,31.921387,,,,,,,,,,,0.0,1.0,1.0,2.0,0.0,0.0,0.0,4.0,0.0,0.057275386666666664,0.23848302666666668,1.0581803866666666,5.9082031333333305,5.44677736,-7.8507486533333335,20.932018119748804,-5.8611311921326275,11.383068794627642,-2.8527132989543724,36.18683371459365,9.034271976662282,37.40645636253169,1.3297468331191586,38.358018129774,1.3242534700878228,-0.2579593866666667,-0.16987902666666668,-0.7927993866666666,1.2206378,0.8508424039560438,0.698000622411755,0.7565051072838813,0.7948420528785805
LBP07_S02,LBP07,109,110,2,109,109,1716272165.36,2024-05-21 06:16:05.360000+00:00,2024-05-21 15:16:05.360000+09:00,2024,5,21,6,16,5,360,,,,,,,,,0.092041,-0.011475,0.180664,-98.693848,-61.035156,123.718262,,,,,,,,,,,0.0,1.0,1.0,2.0,0.0,0.0,0.0,4.0,0.0,0.054160160000000006,0.23129553333333333,1.0443848133333333,6.306966146666665,4.359537773333332,-6.460774693333333,14.451858383570688,-4.22333555683319,18.86926559096291,-2.2746389636115447,36.01790029232032,9.789042600300798,37.39369571081216,1.3357129647277441,38.198185135590585,1.3318758836743683,0.03788083999999999,-0.24277053333333334,-0.8637208133333334,1.1443721866666667,0.8979900518821196,0.7150200308239192,0.7529458991677923,0.7962550391663001
LBP07_S02,LBP07,110,111,2,110,110,1716272165.4,2024-05-21 06:16:05.400000+00:00,2024-05-21 15:16:05.400000+09:00,2024,5,21,6,16,5,400,,,,,,,,,0.330322,-0.144287,0.798096,-11.047363,-72.08252,100.952148,,,,,,,,,,,0.0,1.0,1.0,2.0,0.0,0.0,0.0,4.0,0.0,0.06510090666666668,0.23429032000000002,1.05424484,7.447916666666663,1.4135742266666664,-6.538085893333333,4.441566250040677,-2.841919663917357,24.41830824939789,-2.0969763136099178,35.904223505763625,10.765774930276713,37.54214278728699,1.2939878486219967,38.30204437131582,1.3360391620493468,0.2652210933333333,-0.37857732,-0.25614883999999993,0.8999472533333333,0.5284649882448758,0.7244859926684825,0.7505150490918922,0.7926362546943889
LBP07_S02,LBP07,111,112,2,111,111,1716272165.44,2024-05-21 06:16:05.440000+00:00,2024-05-21 15:16:05.440000+09:00,2024,5,21,6,16,5,440,,,,,,,,,0.635254,-0.210205,1.343994,203.552246,21.484375,20.385742,,,,,,,,,,,0.0,1.0,1.0,2.0,0.0,0.0,0.0,4.0,0.0,0.06329426666666667,0.23980138666666667,1.07168624,7.310384106666664,3.098144533333333,-7.50244136,-9.669902137238012,-0.8454679992220312,27.91767858466006,-2.483772399099438,35.87040478579474,11.882482073663116,37.86883210581256,1.3070835098313738,38.6877914535374,1.3410750404696006,0.5719597333333333,-0.4500063866666667,0.2723077599999999,1.29427388,0.7770425990586004,0.7057548693776396,0.7417569497601525,0.7924283392859118
LBP07_S02,LBP07,112,113,2,112,112,1716272165.48,2024-05-21 06:16:05.480000+00:00,2024-05-21 15:16:05.480000+09:00,2024,5,21,6,16,5,480,,,,,,,,,-0.582275,1.074707,1.470947,101.318359,97.229004,-53.955078,,,,,,,,,,,0.0,1.0,1.0,2.0,0.0,0.0,0.0,4.0,0.0,0.0528418,0.2458007333333333,1.0835579866666665,7.2037760399999975,2.757161453333333,-8.342285106666667,-27.04146716226663,2.4867417388843713,29.7626030386389,-3.5654310855901032,35.969874455350116,13.072986195208673,38.43757452311289,1.3540758176653382,39.365369567659904,1.3442271959256735,-0.6351168,0.8289062666666668,0.38738901333333353,1.8514120800000005,1.1137904633336044,0.7055562328219388,0.7450147523591206,0.7982542410825773
LBP07_S02,LBP07,113,114,2,113,113,1716272165.52,2024-05-21 06:16:05.520000+00:00,2024-05-21 15:16:05.520000+09:00,2024,5,21,6,16,5,520,,,,,,,,,-0.109131,1.406982,1.690674,89.72168,-150.146484,-21.728516,,,,,,,,,,,0.0,1.0,1.0,2.0,0.0,0.0,0.0,4.0,0.0,0.04661458666666667,0.25610346666666667,1.0895964,4.1569010399999975,1.630859373333333,-8.054199173333332,-45.401961385764565,7.437659028739301,30.485137319238813,-5.3815095410206855,36.26738081649969,14.292391687978226,39.35169648683136,1.3861208397436433,40.32946131238979,1.3499418531913674,-0.15574558666666669,1.1508785333333333,0.6010776,1.90770172,1.3076973531652454,0.7227099611753804,0.7500777004738177,0.8005755085086502
LBP07_S02,LBP07,114,115,2,114,114,1716272165.56,2024-05-21 06:16:05.560000+00:00,2024-05-21 15:16:05.560000+09:00,2024,5,21,6,16,5,560,,,,,,,,,0.358154,0.649414,1.242676,-283.569336,44.677734,-70.373535,,,,,,,,,,,0.0,1.0,1.0,2.0,0.0,0.0,0.0,4.0,0.0,0.05220704,0.2475845866666667,1.0934863733333335,1.7390950399999985,2.1207682266666668,-7.066243453333334,-61.67382457852819,13.710952678391934,30.38250713966109,-7.848462524161813,36.81581892363537,15.50769197356467,40.71230032014947,1.3581056978464123,41.55648293809344,1.3510408191618348,0.30594696,0.40182941333333333,0.14918962666666635,0.8569659999999997,0.5266193734168843,0.713370576414455,0.7357181902986519,0.7854193054389972
LBP07_S02,LBP07,115,116,2,115,115,1716272165.6,2024-05-21 06:16:05.600000+00:00,2024-05-21 15:16:05.600000+09:00,2024,5,21,6,16,5,600,,,,,,,,,-0.545654,-0.04126,-0.192627,-354.980469,50.720215,72.08252,,,,,,,,,,,0.0,1.0,1.0,2.0,0.0,0.0,0.0,4.0,0.0,0.04318686666666667,0.24095048,1.0791243866666667,1.4998372266666649,4.1902669333333336,-6.493326786666667,-73.04640105354174,20.47189433587647,29.37204139314016,-10.770318566303484,37.63469469707043,16.682573629290278,42.552065400613095,1.3893132362680967,43.00574168578391,1.3531991493129805,-0.5888408666666667,-0.28221048,-1.2717513866666668,2.1428027333333333,1.4295901198480532,0.7626353558103784,0.7541805692730688,0.7875304385967208
LBP07_S02,LBP07,116,117,2,116,116,1716272165.64,2024-05-21 06:16:05.640000+00:00,2024-05-21 15:16:05.640000+09:00,2024,5,21,6,16,5,640,,,,,,,,,0.246094,-0.833496,1.016357,-383.666992,23.620605,201.477051,,,,,,,,,,,0.0,1.0,1.0,2.0,0.0,0.0,0.0,4.0,0.0,0.046328146666666674,0.24569332,1.0759473066666667,4.2765299333333315,2.0874023466666665,-6.46321612,-77.96095381325004,26.566974475344743,27.139324767956285,-13.888756718833486,38.69737367608422,17.76814662000853,44.78941087948756,1.379913454199343,44.62268550882471,1.3621594051952655,0.19976585333333333,-1.07918932,-0.05959030666666676,1.33854548,1.099139203744769,0.7774885122851561,0.760190798409195,0.7862494384779023
LBP07_S02,LBP07,117,118,2,117,117,1716272165.68,2024-05-21 06:16:05.680000+00:00,2024-05-21 15:16:05.680000+09:00,2024,5,21,6,16,5,680,,,,,,,,,0.148438,-0.638184,1.698486,586.730957,-12.268066,40.83252,,,,,,,,,,,0.0,1.0,1.0,2.0,0.0,0.0,0.0,4.0,0.0,0.05027997333333333,0.24717118666666668,1.0885319333333334,3.4529622266666653,1.7976888,-6.490071586666667,-76.46427423406935,30.858220093735373,23.44086792528558,-16.94732768819626,39.93170247983363,18.705781337019953,47.24043854726011,1.3653583298905676,46.34210372036891,1.370725154170579,0.09815802666666665,-0.8853551866666667,0.6099540666666665,1.5934672799999998,1.0795984291392178,0.792718955933647,0.770976969140355,0.7909061094547012
LBP07_S02,LBP07,118,119,2,118,118,1716272165.72,2024-05-21 06:16:05.720000+00:00,2024-05-21 15:16:05.720000+09:00,2024,5,21,6,16,5,720,,,,,,,,,-0.675781,1.82959,1.569336,-250.366211,188.842773,-50.170898,,,,,,,,,,,0.0,1.0,1.0,2.0,0.0,0.0,0.0,4.0,0.0,0.056735053333333334,0.24804031999999998,1.0957584933333333,2.1972656133333315,2.754720053333333,-7.348632773333334,-69.80148227870616,32.56149062047153,18.328896762999108,-19.739386979344506,41.23416210465249,19.43893720753992,49.67667261956818,1.3407364928238328,48.090399725468046,1.3753311087990046,-0.7325160533333333,1.5815496800000002,0.47357750666666676,2.7876432400000004,1.8061436303682392,0.8494386008379102,0.7951505873529792,0.8050791082659716
LBP07_S02,LBP07,119,120,2,119,119,1716272165.76,2024-05-21 06:16:05.760000+00:00,2024-05-21 15:16:05.760000+09:00,2024,5,21,6,16,5,760,,,,,,,,,0.141602,0.378418,2.481934,101.257324,-102.722168,-23.010254,,,,,,,,,,,0.0,1.0,1.0,2.0,0.0,0.0,0.0,4.0,0.0,0.05117841333333334,0.24139644,1.1018652666666666,3.1542968666666646,4.288736986666666,-8.924153613333335,-59.628034114650156,31.477328810034518,12.157935036934209,-22.12450834393051,42.493255257053875,19.925254609017287,51.886283187716884,1.3572962662392003,49.788064179732736,1.3773687139928157,0.09042358666666667,0.13702156,1.3800687333333332,1.60751388,1.3897989213029232,0.8618870357093285,0.7987607439429348,0.813082128057649
LBP07_S02,LBP07,120,121,2,120,120,1716272165.8,2024-05-21 06:16:05.800000+00:00,2024-05-21 15:16:05.800000+09:00,2024,5,21,6,16,5,800,,,,,,,,,0.138672,0.438965,1.80835,-79.223633,91.796875,-61.889648,,,,,,,,,,,0.0,1.0,1.0,2.0,0.0,0.0,0.0,4.0,0.0,0.04511070666666667,0.2436295066666667,1.1084570666666667,3.9192708266666645,5.06184896,-9.240722626666667,-47.38816487011857,28.043357668151906,5.4213519215141615,-24.020034938735254,43.61498956377995,20.142108685877854,53.71158101769499,1.3835904074448477,51.355029066813856,1.3803705338664476,0.09356129333333332,0.1953354933333333,0.6998929333333332,0.9887897199999999,0.7326389210900008,0.8571759579477117,0.7935536925405176,0.8138227693591276
LBP07_S02,LBP07,121,122,2,121,121,1716272165.84,2024-05-21 06:16:05.840000+00:00,2024-05-21 15:16:05.840000+09:00,2024,5,21,6,16,5,840,,,,,,,,,-0.469482,-0.127441,0.07959,-129.638672,41.320801,20.568848,,,,,,,,,,,0.0,1.0,1.0,2.0,0.0,0.0,0.0,4.0,0.0,0.04356448,0.24793289333333335,1.1021582266666667,4.374186199999999,5.04801432,-8.69954424,-34.14610556136437,23.199081337260584,-1.4209934790094252,-25.385879161189827,44.542952817270375,20.085268946717477,55.06301422125454,1.3927409995845057,52.72043159677709,1.3774869348394325,-0.51304648,-0.3753738933333334,-1.0225682266666667,1.9109886,1.2040631331557439,0.8679849894263464,0.80318828696629,0.8259935117266402
LBP07_S02,LBP07,122,123,2,122,122,1716272165.88,2024-05-21 06:16:05.880000+00:00,2024-05-21 15:16:05.880000+09:00,2024,5,21,6,16,5,880,,,,,,,,,0.513184,0.038818,0.484863,-239.440918,-28.381348,82.641602,,,,,,,,,,,0.0,1.0,1.0,2.0,0.0,0.0,0.0,4.0,0.0,0.04093753333333333,0.24328119999999998,1.083737,4.959309893333332,5.963541666666666,-8.12174476,-20.76737585805209,18.112186445955434,-8.006059334783737,-26.21657419551191,45.26744027510859,19.76502657332613,55.92053457410428,1.4001353639495973,53.83424054183685,1.3749243095078352,0.47224646666666664,-0.20446319999999998,-0.5988739999999999,1.2755836666666664,0.7896024273705033,0.8765244520783293,0.8039524487992706,0.8259820109006416
LBP07_S02,LBP07,123,124,2,123,123,1716272165.92,2024-05-21 06:16:05.920000+00:00,2024-05-21 15:16:05.920000+09:00,2024,5,21,6,16,5,920,,,,,,,,,0.34668,-0.692139,1.747314,81.115723,19.65332,-3.112793,,,,,,,,,,,0.0,1.0,1.0,2.0,0.0,0.0,0.0,4.0,0.0,0.03983728,0.24644200000000002,1.0664648666666667,6.582845039999998,4.2472330666666664,-7.723795533333334,-8.14204512765003,13.850729212890476,-14.032191951287908,-26.54225600061791,45.82146944362421,19.20373889527461,56.328341029478295,1.4064968916817553,54.675312793370026,1.37806496357228,0.30684272,-0.938581,0.6808491333333333,1.9262728533333333,1.1994341543989606,0.9106085524058674,0.8072220046857517,0.8367117128604032
LBP07_S02,LBP07,124,125,2,124,124,1716272165.96,2024-05-21 06:16:05.960000+00:00,2024-05-21 15:16:05.960000+09:00,2024,5,21,6,16,5,960,,,,,,,,,0.443359,1.17041,1.199219,233.276367,-23.803711,-52.246094,,,,,,,,,,,0.0,1.0,1.0,2.0,0.0,0.0,0.0,4.0,0.0,0.04506189333333333,0.25030593333333334,1.0690755466666666,6.4396158666666645,1.9702148266666666,-7.353515586666666,2.7863599255259013,11.098814873070296,-19.219543878566668,-26.430801603596876,46.26542203854702,18.434957140131946,56.3819491909607,1.3881238965827307,55.25234033939639,1.3856424364861408,0.3982971066666667,0.9201040666666667,0.13014345333333344,1.4485446266666668,1.0110239349892272,0.9306306548956329,0.8218437698412786,0.8429640392150729
LBP07_S02,LBP07,125,126,2,125,125,1716272166.0,2024-05-21 06:16:06+00:00,2024-05-21 15:16:06+09:00,2024,5,21,6,16,6,0,6.0,16.0,6.0,40.542473,141.505432,9.868,3.0,10.0,-0.255127,0.28418,1.642822,-26.733398,-10.437012,-50.415039,-243.0,28.0,391.0,2423.0,0.0,1019.900024,25.07,0.068377,-55.187038,3.958594,0.0,1.0,1.0,2.0,0.0,0.0,0.0,4.0,0.0,0.052001986666666666,0.24978183999999998,1.0760351733333335,7.291666639999999,1.1018880133333333,-8.09651688,11.18305071940624,10.004828134656353,-23.335514217786052,-25.983479574820628,46.665615163933275,17.501536571420505,56.20609070024537,1.3604772459979448,55.59850653209536,1.3898337032004613,-0.30712898666666666,0.03439816000000001,0.5667868266666665,0.9083139733333332,0.6455685515459602,0.9433536894730196,0.8226971514928837,0.8397434711998173
LBP07_S02,LBP07,126,127,2,126,126,1716272166.04,2024-05-21 06:16:06.040000+00:00,2024-05-21 15:16:06.040000+09:00,2024,5,21,6,16,6,40,,,,,,,,,0.293945,0.83374,1.857178,-63.049316,6.286621,-70.556641,,,,,,,,,,,0.0,1.0,1.0,2.0,0.0,0.0,0.0,4.0,0.0,0.05315433333333333,0.24757481333333337,1.0847721466666664,8.720703106666665,2.5203450533333336,-9.26513668,16.49504493837138,10.209877513086616,-26.26433092861301,-25.323677777285774,47.07401026445674,16.450963334275986,55.927500330085095,1.3542872008833706,55.763102522137636,1.392843237441094,0.24079066666666668,0.5861651866666666,0.7724058533333336,1.599361706666667,0.9990898725727037,0.9418554085038777,0.8287003656336742,0.841026815391441
LBP07_S02,LBP07,127,128,2,127,127,1716272166.08,2024-05-21 06:16:06.080000+00:00,2024-05-21 15:16:06.080000+09:00,2024,5,21,6,16,6,80,,,,,,,,,-0.037842,-0.11084,1.193604,-74.829102,156.799316,-22.033691,,,,,,,,,,,0.0,1.0,1.0,2.0,0.0,0.0,0.0,4.0,0.0,0.04307621333333333,0.25121089333333335,1.09282228,9.815266919999997,3.459472653333333,-10.193684866666667,18.499277793911066,11.033728114464832,-28.04461853802876,-24.58370666552933,47.51535938903533,15.329178592754836,55.651161062591974,1.3967648705350142,55.802983273509675,1.3957719251529757,-0.08091821333333332,-0.36205089333333335,0.10078172000000007,0.5437508266666667,0.3844288772955044,0.9161372803984063,0.8278506083521207,0.8371023885587447
LBP07_S02,LBP07,128,129,2,128,128,1716272166.12,2024-05-21 06:16:06.120000+00:00,2024-05-21 15:16:06.120000+09:00,2024,5,21,6,16,6,120,,,,,,,,,-0.082031,-0.040527,0.128418,79.89502,-92.468262,49.743652,,,,,,,,,,,0.0,1.0,1.0,2.0,0.0,0.0,0.0,4.0,0.0,0.03917648,0.2586099866666666,1.0998926,10.812174466666663,1.4029947866666665,-10.567220026666666,17.263303515544127,11.731205242827413,-28.830593414768344,-23.893174524907565,47.984607598748426,14.175954856164102,55.44694807983176,1.416511221962441,55.775378165520294,1.392795437793259,-0.12120748,-0.2991369866666666,-0.9714746,1.3918190666666665,1.0236879839311994,0.922924857107929,0.835525330603275,0.836437209794429
LBP07_S02,LBP07,129,130,2,129,129,1716272166.16,2024-05-21 06:16:06.160000+00:00,2024-05-21 15:16:06.160000+09:00,2024,5,21,6,16,6,160,,,,,,,,,0.424316,0.200439,0.979248,-52.001953,-19.104004,26.855469,,,,,,,,,,,0.0,1.0,1.0,2.0,0.0,0.0,0.0,4.0,0.0,0.04470708,0.26511389333333335,1.1032975466666666,9.105631506666663,0.9806315066666663,-10.390624973333333,13.136893631315582,11.721105812189165,-28.81412072275093,-23.36769877965494,48.453451831235995,13.023390027254065,55.347945114706604,1.3992089333824078,55.73268580240409,1.3907775920587284,0.37960892,-0.06467489333333334,-0.12404954666666657,0.5683333599999999,0.4045665136902089,0.9074385961578207,0.8150100856993652,0.8305141657269861
LBP07_S02,LBP07,130,131,2,130,130,1716272166.2,2024-05-21 06:16:06.200000+00:00,2024-05-21 15:16:06.200000+09:00,2024,5,21,6,16,6,200,,,,,,,,,0.539551,0.750244,1.494629,213.439941,45.288086,-87.890625,,,,,,,,,,,0.0,1.0,1.0,2.0,0.0,0.0,0.0,4.0,0.0,0.039475960000000004,0.25568356,1.0988379066666667,10.415852866666667,2.830403653333333,-10.101725226666666,6.807288667942977,10.739451286379898,-28.19097685846795,-23.095407232937223,48.88302988269119,11.895750952915346,55.3575409181177,1.413685749851171,55.71964092521809,1.395420057704839,0.50007504,0.49456044000000005,0.3957910933333333,1.3904265733333334,0.8070413025403289,0.922773959673015,0.8094054968999091,0.8270420081238673
LBP07_S02,LBP07,131,132,2,131,131,1716272166.24,2024-05-21 06:16:06.240000+00:00,2024-05-21 15:16:06.240000+09:00,2024,5,21,6,16,6,240,,,,,,,,,-0.597412,0.709961,1.711182,-39.672852,40.161133,-91.97998,,,,,,,,,,,0.0,1.0,1.0,2.0,0.0,0.0,0.0,4.0,0.0,0.03811854666666666,0.26135738666666664,1.0920605600000002,13.410644533333333,0.7788086,-8.490397106666666,-0.6779211864631747,8.92080786878478,-27.21036263415662,-23.12252408039575,49.239862197442584,10.807336447549082,55.46182173497495,1.4220278767033236,55.77298705260459,1.4054923868658238,-0.6355305466666668,0.4486036133333333,0.6191214399999998,1.7032555999999999,0.9942110616513118,0.9447823453340611,0.8103700134194566,0.8234232280661778
LBP07_S02,LBP07,132,133,2,132,132,1716272166.28,2024-05-21 06:16:06.280000+00:00,2024-05-21 15:16:06.280000+09:00,2024,5,21,6,16,6,280,,,,,,,,,-0.199951,0.302002,2.065186,-43.762207,-33.081055,-46.386719,,,,,,,,,,,0.0,1.0,1.0,2.0,0.0,0.0,0.0,4.0,0.0,0.050882213333333336,0.2567740533333333,1.1128873866666666,12.258300786666666,2.064615893333333,-8.86637368,-8.041846414534279,6.8116226726080535,-26.247467827744043,-23.44419793697712,49.51232710434691,9.75743773443932,55.64448349421053,1.3703704903524307,55.92298142450892,1.4153177224827975,-0.2508332133333333,0.045227946666666685,0.9522986133333335,1.2483597733333336,0.985817182355531,0.9595156581619103,0.816321534757394,0.8216711386834874
LBP07_S02,LBP07,133,134,2,133,133,1716272166.32,2024-05-21 06:16:06.320000+00:00,2024-05-21 15:16:06.320000+09:00,2024,5,21,6,16,6,320,,,,,,,,,0.076904,0.17627,1.475342,-90.637207,48.64502,-26.855469,,,,,,,,,,,0.0,1.0,1.0,2.0,0.0,0.0,0.0,4.0,0.0,0.04997401333333334,0.27544268,1.1257714933333334,15.122884119999998,3.2535807466666666,-10.244140613333332,-14.075719316914128,5.292522280799045,-25.78666427245502,-24.007226709653683,49.72402799557887,8.725971163541118,55.90141739831623,1.3863184343364485,56.195060132449555,1.4232963050702507,0.026929986666666662,-0.09917267999999999,0.34957050666666656,0.4756731733333332,0.3643624346326597,0.940056459388975,0.819028540900365,0.8176888913189124
LBP07_S02,LBP07,134,135,2,134,134,1716272166.36,2024-05-21 06:16:06.360000+00:00,2024-05-21 15:16:06.360000+09:00,2024,5,21,6,16,6,360,,,,,,,,,-0.59668,0.023682,0.203125,-37.963867,50.415039,9.033203,,,,,,,,,,,0.0,1.0,1.0,2.0,0.0,0.0,0.0,4.0,0.0,0.03867518666666667,0.29099606666666666,1.1388639466666668,14.939778639999998,3.7581380400000004,-11.909993479999999,-17.965393951509302,5.385785901200045,-26.259979395390527,-24.725842467714056,49.93945943162687,7.675571987725497,56.251500419100594,1.434548553043838,56.60984552123157,1.4279928717170312,-0.6353551866666667,-0.2673140666666667,-0.9357389466666668,1.8384082000000002,1.162213577519618,0.9506254004144751,0.8328227156191972,0.8188390662500198
LBP07_S02,LBP07,135,136,2,135,135,1716272166.4,2024-05-21 06:16:06.400000+00:00,2024-05-21 15:16:06.400000+09:00,2024,5,21,6,16,6,400,,,,,,,,,0.258057,0.188477,0.56958,-104.003906,-43.884277,64.39209,,,,,,,,,,,0.0,1.0,1.0,2.0,0.0,0.0,0.0,4.0,0.0,0.031142640000000003,0.29184568000000005,1.1526041866666665,11.835937493333333,2.6196289199999994,-12.185058573333333,-19.452271763814284,7.9593145971960135,-27.807643953643087,-25.503933338266627,50.257832015514715,6.5632662295797735,56.73955197411049,1.4612005376077917,57.18090911136255,1.4300105547259192,0.22691435999999998,-0.10336868000000005,-0.5830241866666666,0.9133072266666666,0.6341075721180753,0.954851103769403,0.8396685482189428,0.8186270673177292
LBP07_S02,LBP07,136,137,2,136,136,1716272166.44,2024-05-21 06:16:06.440000+00:00,2024-05-21 15:16:06.440000+09:00,2024,5,21,6,16,6,440,,,,,,,,,0.724121,-1.094482,2.08252,38.208008,-30.578613,-20.019531,,,,,,,,,,,0.0,1.0,1.0,2.0,0.0,0.0,0.0,4.0,0.0,0.03334316,0.28921546666666664,1.1530208533333335,9.368489573333331,3.170572933333333,-11.101888,-18.72510807299301,13.391366187015935,-30.112660283123585,-26.252937661186348,50.793486662995356,5.35875981825483,57.42744404912835,1.4525405570531067,57.911478067146575,1.4296493091676876,0.69077784,-1.3836974666666666,0.9294991466666667,3.0039744533333335,1.804372845935362,0.9959443136444734,0.8508495915110565,0.8264860710549261
LBP07_S02,LBP07,137,138,2,137,137,1716272166.48,2024-05-21 06:16:06.480000+00:00,2024-05-21 15:16:06.480000+09:00,2024,5,21,6,16,6,480,,,,,,,,,0.246094,1.182861,1.683838,216.73584,35.217285,-95.76416,,,,,,,,,,,0.0,1.0,1.0,2.0,0.0,0.0,0.0,4.0,0.0,0.02585618666666667,0.28176104,1.1353222933333333,7.057291666666665,4.363606786666667,-9.798990866666667,-16.12165525951385,21.31043608258403,-32.43985609892137,-26.8978038715669,51.645904106298715,4.061165574297975,58.37194814199835,1.4765506964095474,58.792102728348695,1.4323457300564313,0.22023781333333334,0.9010999599999999,0.5485157066666666,1.6698534799999998,1.0776619659215418,0.994499173747991,0.8500277032849648,0.8281762261554106
LBP07_S02,LBP07,138,139,2,138,138,1716272166.52,2024-05-21 06:16:06.520000+00:00,2024-05-21 15:16:06.520000+09:00,2024,5,21,6,16,6,520,,,,,,,,,-0.040039,0.887451,2.04834,28.991699,-47.058105,-28.503418,,,,,,,,,,,0.0,1.0,1.0,2.0,0.0,0.0,0.0,4.0,0.0,0.029378320000000003,0.28098630666666663,1.1242903866666665,8.771158853333333,3.088378933333333,-8.8354492,-11.870761093963953,30.536875409421224,-33.8925326714185,-27.37263431532546,52.867379122675565,2.7054642674412355,59.5948019676519,1.4634768884302465,59.80060017232569,1.442048648912571,-0.06941732,0.6064646933333333,0.9240496133333336,1.5999316266666668,1.107468228202218,0.9864900087494698,0.8545999849624252,0.8288818032323684
LBP07_S02,LBP07,139,140,2,139,139,1716272166.56,2024-05-21 06:16:06.560000+00:00,2024-05-21 15:16:06.560000+09:00,2024,5,21,6,16,6,560,,,,,,,,,0.351562,0.911865,2.40625,-172.180176,36.987305,-96.496582,,,,,,,,,,,0.0,1.0,1.0,2.0,0.0,0.0,0.0,4.0,0.0,0.04170253333333334,0.2813671733333334,1.1375032666666667,8.400878906666666,2.194824253333333,-8.404134106666667,-6.098702045356818,39.29849065362054,-33.76860412683425,-27.616582397139734,54.439318748820384,1.3547201023678654,61.05858101601637,1.4193857634712879,60.904190486326755,1.4505070761827563,0.30985946666666664,0.6304978266666666,1.2687467333333333,2.2091040266666666,1.450261587389787,1.023435697308386,0.8684031368614203,0.8316240259685633
LBP07_S02,LBP07,140,141,2,140,140,1716272166.6,2024-05-21 06:16:06.600000+00:00,2024-05-21 15:16:06.600000+09:00,2024,5,21,6,16,6,600,,,,,,,,,0.085449,-0.022705,1.956543,-123.596191,157.104492,-48.339844,,,,,,,,,,,0.0,1.0,1.0,2.0,0.0,0.0,0.0,4.0,0.0,0.04465176,0.28337238666666664,1.1554329466666666,8.886718746666666,3.3821614933333333,-8.935546866666668,0.8799470098165947,45.684440701825736,-31.843056131742088,-27.58138451674707,56.266696376893414,0.08099785709818197,62.66323047595791,1.4100732942688547,62.062873252278266,1.4539930257932665,0.04079724,-0.3060773866666666,0.8011100533333333,1.14798468,0.8585598983018307,1.0005944884465372,0.8816149221284577,0.8363185423308915
LBP07_S02,LBP07,141,142,2,141,141,1716272166.64,2024-05-21 06:16:06.640000+00:00,2024-05-21 15:16:06.640000+09:00,2024,5,21,6,16,6,640,,,,,,,,,-0.208496,-0.209229,1.817139,-0.549316,95.031738,9.94873,,,,,,,,,,,0.0,1.0,1.0,2.0,0.0,0.0,0.0,4.0,0.0,0.03469408,0.29196288,1.1717220133333333,8.920084639999999,5.459798213333333,-10.625,8.221918381807662,48.18825903953219,-28.451767389263296,-27.252507781474765,58.194226738474704,-1.0570728384723498,64.26806834699626,1.4489920855907608,63.233191235762526,1.4546844379404869,-0.24319007999999998,-0.5011918799999999,0.6454169866666668,1.3897989466666667,0.8525830178148173,0.990732241009339,0.8841103766472476,0.8370379459425763
LBP07_S02,LBP07,142,143,2,142,142,1716272166.68,2024-05-21 06:16:06.680000+00:00,2024-05-21 15:16:06.680000+09:00,2024,5,21,6,16,6,680,,,,,,,,,0.23584,0.414062,1.599609,44.98291,8.789062,7.995605,,,,,,,,,,,0.0,1.0,1.0,2.0,0.0,0.0,0.0,4.0,0.0,0.030130280000000002,0.2994466,1.1816536533333335,8.927408866666665,4.587402386666666,-10.34342448,14.475374896423059,46.13556451387016,-24.360311749502106,-26.673492785617842,60.03964931902951,-2.0314853084524342,65.72945793398046,1.4673996789138293,64.37209601812476,1.4527444222024022,0.20570971999999998,0.11461539999999998,0.41795534666666656,0.7382804666666665,0.4797289345316705,0.9667374612250371,0.8797282085793421,0.8362304665019157
LBP07_S02,LBP07,143,144,2,143,143,1716272166.72,2024-05-21 06:16:06.720000+00:00,2024-05-21 15:16:06.720000+09:00,2024,5,21,6,16,6,720,,,,,,,,,0.212646,0.759521,1.692383,112.243652,-7.385254,-14.465332,,,,,,,,,,,0.0,1.0,1.0,2.0,0.0,0.0,0.0,4.0,0.0,0.02851569333333333,0.2930663866666667,1.1801399866666666,5.304361986666664,5.7641602,-9.795735666666666,17.894482029259247,39.8427142853555,-20.500951935667473,-25.957713504447472,61.633357890443726,-2.8515233858791333,66.93732053832684,1.470902707038299,65.44086665878028,1.4468293426976717,0.18413030666666666,0.4664546133333333,0.5122430133333333,1.1628279333333333,0.7168519936792557,0.9231657957574778,0.886302198297694,0.8378223234878119
LBP07_S02,LBP07,144,145,2,144,144,1716272166.76,2024-05-21 06:16:06.760000+00:00,2024-05-21 15:16:06.760000+09:00,2024,5,21,6,16,6,760,,,,,,,,,0.091309,0.083008,1.647949,32.226562,68.115234,-48.706055,,,,,,,,,,,0.0,1.0,1.0,2.0,0.0,0.0,0.0,4.0,0.0,0.02768886666666667,0.27987628000000003,1.1611002666666668,5.519205746666664,6.869303426666667,-9.130859359999999,17.02139553263099,30.481122924588067,-17.697667372174454,-25.276857683142232,62.852602807427246,-3.5594300807661114,67.8383280786157,1.4694080491489407,66.40856605708655,1.4460091532725348,0.06362013333333333,-0.19686828000000003,0.48684873333333334,0.7473371466666667,0.5289861342074863,0.8887332842736604,0.8753101599914944,0.8287515907198433
LBP07_S02,LBP07,145,146,2,145,145,1716272166.8,2024-05-21 06:16:06.800000+00:00,2024-05-21 15:16:06.800000+09:00,2024,5,21,6,16,6,800,,,,,,,,,-0.604736,0.376465,0.27832,-35.400391,70.556641,-32.775879,,,,,,,,,,,0.0,1.0,1.0,2.0,0.0,0.0,0.0,4.0,0.0,0.02732428,0.27258461333333334,1.1386653733333332,8.84521485333333,5.216471386666667,-7.760416653333333,11.271698259917068,19.731236693079556,-16.466871397709895,-24.82598975274555,63.64185227515043,-4.218104936674507,68.44273180895321,1.4681146590799963,67.25381478085849,1.4555633442548874,-0.63206028,0.10388038666666666,-0.8603453733333332,1.5962860399999999,1.072606868197182,0.9023320021579475,0.8797539800528297,0.8298131290796609
LBP07_S02,LBP07,146,147,2,146,146,1716272166.84,2024-05-21 06:16:06.840000+00:00,2024-05-21 15:16:06.840000+09:00,2024,5,21,6,16,6,840,,,,,,,,,0.032715,-0.104492,0.619873,-19.042969,-60.119629,63.232422,,,,,,,,,,,0.0,1.0,1.0,2.0,0.0,0.0,0.0,4.0,0.0,0.03820645333333334,0.28404945333333337,1.1412890666666666,12.092285173333332,2.52197268,-7.98990884,1.300622527118022,9.343748485214658,-16.927144897748246,-24.77396485166083,64.01560221455901,-4.895190732584437,68.81649187275067,1.4331403996722596,67.96378462046866,1.4614939837047998,-0.00549145333333334,-0.38854145333333334,-0.5214160666666666,0.9154489733333333,0.6502840391676769,0.8801808383984249,0.8740829139123857,0.8288524707770016
LBP07_S02,LBP07,147,148,2,147,147,1716272166.88,2024-05-21 06:16:06.880000+00:00,2024-05-21 15:16:06.880000+09:00,2024,5,21,6,16,6,880,,,,,,,,,0.342529,0.067871,1.361572,52.490234,-62.927246,-21.30127,,,,,,,,,,,0.0,1.0,1.0,2.0,0.0,0.0,0.0,4.0,0.0,0.042513093333333335,0.28284502666666667,1.1591862,12.027994813333331,4.357096373333333,-10.108235666666666,-10.952657300199636,0.7202479416006093,-18.821837665314526,-25.212071143668815,64.04441213222303,-5.648064239197018,69.05965454855354,1.417399901362241,68.53077629365995,1.4630238620467522,0.30001590666666667,-0.21497402666666665,0.20238580000000006,0.7173757333333334,0.42093157215388677,0.8654340041897602,0.8709792281340447,0.8244463005961006
LBP07_S02,LBP07,148,149,2,148,148,1716272166.92,2024-05-21 06:16:06.920000+00:00,2024-05-21 15:16:06.920000+09:00,2024,5,21,6,16,6,920,,,,,,,,,0.162842,1.02832,1.361816,121.582031,35.522461,-61.828613,,,,,,,,,,,0.0,1.0,1.0,2.0,0.0,0.0,0.0,4.0,0.0,0.03189786666666666,0.28267901333333334,1.17129232,14.693196626666664,5.362141946666666,-12.512207013333333,-22.56083951576004,-5.3770852755200265,-21.64639109612581,-26.114504724299216,63.82932872120223,-6.513919883042051,69.27179595071452,1.4552749941788794,68.94843241279213,1.4649272872616719,0.13094413333333332,0.7456409866666666,0.19052367999999986,1.0671087999999997,0.780657491921009,0.8486829376906421,0.8796457450482547,0.8210423156873817
LBP07_S02,LBP07,149,150,2,149,149,1716272166.96,2024-05-21 06:16:06.960000+00:00,2024-05-21 15:16:06.960000+09:00,2024,5,21,6,16,6,960,,,,,,,,,-0.503906,0.482178,1.911621,-129.760742,-22.949219,-55.114746,,,,,,,,,,,0.0,1.0,1.0,2.0,0.0,0.0,0.0,4.0,0.0,0.01594734666666667,0.29384111999999996,1.1790722666666669,12.09472657333333,3.7687174666666663,-12.722167946666668,-30.221943992949814,-8.901085268521841,-24.840959885298506,-27.32338248401721,63.47328531046136,-7.507558278453991,69.51106825373576,1.514927673294814,69.20971843495755,1.4616059901748417,-0.5198533466666666,0.18833688000000004,0.7325487333333331,1.4407389599999998,0.9177940559389882,0.8449537425286325,0.8877921987121327,0.8295470940703966
LBP07_S02,LBP07,150,151,2,150,150,1716272167.0,2024-05-21 06:16:07+00:00,2024-05-21 15:16:07+09:00,2024,5,21,6,16,7,0,6.0,16.0,7.0,40.542515,141.505402,11.917,3.0,10.0,-0.114746,0.756348,1.909424,-66.467285,-50.90332,-55.358887,-241.0,19.0,396.0,2499.0,0.0,1019.799988,25.15,0.067386,-54.35902,3.958594,0.0,1.0,1.0,2.0,0.0,0.0,0.0,6.0,0.0,0.028844480000000002,0.29191404,1.1787988266666665,9.322102879999997,1.656901053333333,-11.99218748,-31.093686196285624,-10.369438605272954,-27.964020292530048,-28.567129931868635,63.058507766250436,-8.626119090155193,69.76292887205977,1.469379688767977,69.30699268056912,1.4590278099131078,-0.14359048,0.46443396000000003,0.7306251733333335,1.3386496133333337,0.8775706655627658,0.8542338270893047,0.8987937582811621,0.8332093766916907
LBP07_S02,LBP07,151,152,2,151,151,1716272167.04,2024-05-21 06:16:07.040000+00:00,2024-05-21 15:16:07.040000+09:00,2024,5,21,6,16,7,40,,,,,,,,,0.16626,0.043701,1.722168,-195.19043,87.524414,-23.31543,,,,,,,,,,,0.0,1.0,1.0,2.0,0.0,0.0,0.0,6.0,0.0,0.028440840000000005,0.2731249866666667,1.1677115866666665,8.369140639999998,5.663248706666666,-11.614583306666667,-23.6190763126058,-10.572084369824768,-30.75685218288685,-29.511892984372867,62.63562439145745,-9.856393177470666,69.93798507890905,1.464290869010285,69.23256273689995,1.4585236603605989,0.13781916,-0.2294239866666667,0.5544564133333334,0.9216995600000001,0.6156715039756158,0.8388970923454212,0.8903762504246495,0.8320992745375899
LBP07_S02,LBP07,152,153,2,152,152,1716272167.08,2024-05-21 06:16:07.080000+00:00,2024-05-21 15:16:07.080000+09:00,2024,5,21,6,16,7,80,,,,,,,,,-0.608398,-0.297363,0.373535,-71.716309,102.661133,-1.708984,,,,,,,,,,,0.0,1.0,1.0,2.0,0.0,0.0,0.0,6.0,0.0,0.021774173333333334,0.2640820133333333,1.1555338533333335,13.93066408,4.969075533333333,-9.225260386666667,-8.02450667244089,-10.280431631448613,-33.06997899504381,-29.832873251270502,62.2244071261995,-11.179192337272418,69.90601912530228,1.486433931063028,68.97804458224816,1.4579214222041637,-0.6301721733333333,-0.5614450133333333,-0.7819988533333335,1.97361604,1.1505910123302598,0.8695435777468115,0.8928404290726089,0.8417482648170176
LBP07_S02,LBP07,153,154,2,153,153,1716272167.12,2024-05-21 06:16:07.120000+00:00,2024-05-21 15:16:07.120000+09:00,2024,5,21,6,16,7,120,,,,,,,,,0.141602,0.398193,0.195801,185.72998,-96.923828,-3.78418,,,,,,,,,,,0.0,1.0,1.0,2.0,0.0,0.0,0.0,6.0,0.0,0.034742920000000004,0.26594074666666667,1.1730110666666664,16.057128933333335,5.450846359999999,-9.029947893333334,13.744338195263701,-10.096729162880811,-34.714399729289,-29.283099723459955,61.820537959684266,-12.567768326443979,69.550180759981,1.4376897361699976,68.5328063665075,1.4594414868161334,0.10685908,0.13225225333333335,-0.9772100666666664,1.2163213999999998,0.9918916452339243,0.8682717241989204,0.8955982906534247,0.8464407951351568
LBP07_S02,LBP07,154,155,2,154,154,1716272167.16,2024-05-21 06:16:07.160000+00:00,2024-05-21 15:16:07.160000+09:00,2024,5,21,6,16,7,160,,,,,,,,,0.229492,0.140381,0.55957,95.52002,-100.341797,32.775879,,,,,,,,,,,0.0,1.0,1.0,2.0,0.0,0.0,0.0,6.0,0.0,0.03500333333333334,0.28134438666666667,1.1775097733333333,24.631347679999998,5.714518239999999,-11.669108053333332,38.62870590911977,-10.491003030258048,-35.35838093014015,-27.737951487095163,61.400897838473945,-13.982103563649584,68.81107053473141,1.4436262465316,67.88406612584797,1.460634186187434,0.19448866666666667,-0.14096338666666666,-0.6179397733333333,0.9533918266666666,0.6629827156944329,0.8786083722790893,0.8930234842184549,0.8362095145592733
LBP07_S02,LBP07,155,156,2,155,155,1716272167.2,2024-05-21 06:16:07.200000+00:00,2024-05-21 15:16:07.200000+09:00,2024,5,21,6,16,7,200,,,,,,,,,0.390869,0.036865,0.526855,45.959473,-44.250488,-72.021484,,,,,,,,,,,0.0,1.0,1.0,2.0,0.0,0.0,0.0,6.0,0.0,0.030859440000000002,0.29405272,1.1754817866666667,14.776204453333333,6.787109386666666,-11.800944000000001,63.323034758399935,-11.929254833006434,-34.572726806974295,-25.205030096759167,60.92372764515369,-15.365012635928556,67.69843237226135,1.4630731635549068,67.02152679785328,1.451702494193655,0.36000956,-0.25718772,-0.6486267866666667,1.2658240666666667,0.7851554718600117,0.8777329390518767,0.9002534493624459,0.832181310950565
LBP07_S02,LBP07,156,157,2,156,156,1716272167.24,2024-05-21 06:16:07.240000+00:00,2024-05-21 15:16:07.240000+09:00,2024,5,21,6,16,7,240,,,,,,,,,0.071533,0.020264,0.703613,184.387207,-38.391113,-93.200684,,,,,,,,,,,0.0,1.0,1.0,2.0,0.0,0.0,0.0,6.0,0.0,0.03908209333333334,0.27734373333333334,1.1801790533333334,17.583007839999997,3.9249674666666663,-10.997721346666665,85.03369152604994,-14.91100314373115,-32.03599984167952,-21.80368243571717,60.32728751940444,-16.646452629595736,66.27131032623294,1.4271180181079075,65.94678449740348,1.4459496955213376,0.03245090666666666,-0.25707973333333334,-0.47656605333333335,0.7660966933333333,0.5424557620893486,0.8596627270693982,0.9022225362017297,0.8268009179694371
LBP07_S02,LBP07,157,158,2,157,157,1716272167.28,2024-05-21 06:16:07.280000+00:00,2024-05-21 15:16:07.280000+09:00,2024,5,21,6,16,7,280,,,,,,,,,0.122559,0.087158,1.258545,-10.192871,34.545898,-63.964844,,,,,,,,,,,0.0,1.0,1.0,2.0,0.0,0.0,0.0,6.0,0.0,0.03761073333333334,0.27788409333333336,1.1632747466666669,17.178548213333332,6.134440119999999,-10.73567708,101.8885781431063,-19.798749321158777,-27.795541431163684,-17.72813930999292,59.53533754655809,-17.758274286842283,64.60727239114688,1.4326005474819379,64.68365213995611,1.4440641658704805,0.08494826666666666,-0.19072609333333335,0.09527025333333317,0.3709446133333332,0.22949743322761582,0.8294099371042816,0.8944627976330959,0.8206843355396899
LBP07_S02,LBP07,158,159,2,158,158,1716272167.32,2024-05-21 06:16:07.320000+00:00,2024-05-21 15:16:07.320000+09:00,2024,5,21,6,16,7,320,,,,,,,,,-0.186279,0.458984,0.745605,103.33252,45.349121,-41.137695,,,,,,,,,,,0.0,1.0,1.0,2.0,0.0,0.0,0.0,6.0,0.0,0.028346413333333337,0.28074216,1.1375976533333334,16.416829466666666,5.531412773333333,-9.071451826666667,112.9699051622753,-26.49582718733712,-22.417928901464645,-13.209343103501908,58.4755044590646,-18.65499144290087,62.784393544119084,1.4672019878918854,63.283296972847936,1.4422358197052256,-0.21462541333333335,0.17824183999999998,-0.39199265333333344,0.7848599066666668,0.4811366353151636,0.8340809051315817,0.8870686822602784,0.824045995644104
LBP07_S02,LBP07,159,160,2,159,159,1716272167.36,2024-05-21 06:16:07.360000+00:00,2024-05-21 15:16:07.360000+09:00,2024,5,21,6,16,7,360,,,,,,,,,-0.344482,-0.039795,0.085449,106.201172,58.837891,-1.159668,,,,,,,,,,,0.0,1.0,1.0,2.0,0.0,0.0,0.0,6.0,0.0,0.03841150666666667,0.26970049333333335,1.1486425733333334,16.30045577333333,4.546712253333332,-7.100423186666667,118.10186660030905,-34.177344711618794,-16.905067636616362,-8.485268439489545,57.10841067059985,-19.331194148365523,60.885674973789044,1.4256107533570237,61.82006455818272,1.4433612228174526,-0.38289350666666666,-0.30949549333333337,-1.0631935733333333,1.7555825733333332,1.1716550141651945,0.8344585625974048,0.8925419815059398,0.8333679979452664
LBP07_S02,LBP07,160,161,2,160,160,1716272167.4,2024-05-21 06:16:07.400000+00:00,2024-05-21 15:16:07.400000+09:00,2024,5,21,6,16,7,400,,,,,,,,,-0.095703,0.247314,-0.082275,162.658691,-68.969727,6.958008,,,,,,,,,,,0.0,1.0,1.0,2.0,0.0,0.0,0.0,6.0,0.0,0.04367517333333333,0.28015948,1.1554264266666667,24.67773441333333,4.110514346666665,-7.246907573333335,117.56822174319353,-41.29365206870185,-12.376705814384529,-3.782539569761803,55.456664587851776,-19.826262380940904,59.015505867561785,1.4118517020448036,60.37905354107606,1.4457388516428638,-0.13937817333333333,-0.03284548000000001,-1.2377014266666668,1.4099250800000003,1.2459574319899014,0.8589325569922778,0.9068918303808405,0.8460898844767212
LBP07_S02,LBP07,161,162,2,161,161,1716272167.44,2024-05-21 06:16:07.440000+00:00,2024-05-21 15:16:07.440000+09:00,2024,5,21,6,16,7,440,,,,,,,,,0.001953,0.049316,0.173584,78.186035,-130.310059,62.5,,,,,,,,,,,0.0,1.0,1.0,2.0,0.0,0.0,0.0,6.0,0.0,0.036451866666666666,0.2986686,1.1517480533333333,20.764160186666665,6.118977893333333,-6.57063804,111.8840420863137,-45.93165994174004,-9.648786298067455,0.6928221136907453,53.619398190182174,-20.2122138328636,57.306661504435354,1.4454355725017156,59.04107896598263,1.4467627081114398,-0.03449886666666666,-0.2493526,-0.9781640533333333,1.26201552,1.0100355469791846,0.8271590650340308,0.9115516893392521,0.842952749352048
LBP07_S02,LBP07,162,163,2,162,162,1716272167.48,2024-05-21 06:16:07.480000+00:00,2024-05-21 15:16:07.480000+09:00,2024,5,21,6,16,7,480,,,,,,,,,0.450195,0.31958,0.45874,69.274902,-117.30957,10.803223,,,,,,,,,,,0.0,1.0,1.0,2.0,0.0,0.0,0.0,6.0,0.0,0.029137413333333338,0.2916048,1.1579654933333332,18.607584666666664,6.0481771066666665,-5.626627613333334,101.67114111405279,-46.41620695015695,-8.898621388147467,4.759667758252857,51.7627499121759,-20.5681586883895,55.90246745422057,1.468150469410478,57.87123838845813,1.4491939636835116,0.42105758666666665,0.027975199999999978,-0.6992254933333333,1.1482582799999999,0.8166935738891551,0.8167203293527352,0.905609751550363,0.838925245307555
LBP07_S02,LBP07,163,164,2,163,163,1716272167.52,2024-05-21 06:16:07.520000+00:00,2024-05-21 15:16:07.520000+09:00,2024,5,21,6,16,7,520,,,,,,,,,0.458008,-0.192871,0.92749,67.077637,-13.427734,-12.023926,,,,,,,,,,,0.0,1.0,1.0,2.0,0.0,0.0,0.0,6.0,0.0,0.03452478666666667,0.2904719866666667,1.1622558666666667,18.93473309333333,6.530761746666665,-4.812825533333334,87.64077508969345,-41.894197423174795,-9.57439955417134,8.265298761840596,50.08698201524891,-20.951134670556353,54.91785661332878,1.4489437672922683,56.91389958134594,1.4511149465004987,0.4234832133333334,-0.48334298666666664,-0.23476586666666666,1.1415920666666666,0.6841589631706436,0.7997879587514725,0.8931389837504711,0.8363293095587743
LBP07_S02,LBP07,164,165,2,164,164,1716272167.56,2024-05-21 06:16:07.560000+00:00,2024-05-21 15:16:07.560000+09:00,2024,5,21,6,16,7,560,,,,,,,,,-0.156494,0.143311,1.28125,147.460938,-3.967285,-51.818848,,,,,,,,,,,0.0,1.0,1.0,2.0,0.0,0.0,0.0,6.0,0.0,0.028548226666666673,0.28331053333333334,1.1468001333333333,17.195638040000002,8.046061226666666,-3.592936200000001,70.65964386506829,-32.658572199539115,-10.595255697492572,11.091684516443326,48.78063912726734,-21.374944898456057,54.40096036366478,1.4674025347857114,56.192686454839475,1.4538294118654522,-0.18504222666666667,-0.13999953333333334,0.1344498666666667,0.4594916266666667,0.26817393913278303,0.7525044528211922,0.8879700750647891,0.8297702421813443
LBP07_S02,LBP07,165,166,2,165,165,1716272167.6,2024-05-21 06:16:07.600000+00:00,2024-05-21 15:16:07.600000+09:00,2024,5,21,6,16,7,600,,,,,,,,,-0.167236,0.963135,1.515381,141.113281,-92.529297,-21.728516,,,,,,,,,,,0.0,1.0,1.0,2.0,0.0,0.0,0.0,6.0,0.0,0.026907600000000004,0.2835384,1.1337304666666668,15.398763039999997,6.008300813333332,-1.974283866666667,51.83664409744963,-20.105894151694933,-10.754375630246571,13.165150280341312,47.976403361199544,-21.80511992366592,54.318686621327124,1.4733117282406656,55.71211826157314,1.457758842365323,-0.1941436,0.6795966,0.3816505333333333,1.2553907333333334,0.8032436776882453,0.7502918039966486,0.8754431462215929,0.8378405494178548
LBP07_S02,LBP07,166,167,2,166,166,1716272167.64,2024-05-21 06:16:07.640000+00:00,2024-05-21 15:16:07.640000+09:00,2024,5,21,6,16,7,640,,,,,,,,,0.028076,1.000244,1.803711,-91.918945,-6.04248,-75.561523,,,,,,,,,,,0.0,1.0,1.0,2.0,0.0,0.0,0.0,6.0,0.0,0.031829466666666674,0.2726594933333333,1.1484472666666667,13.318684906666666,7.039388053333334,-1.6495768266666668,32.54122486015284,-6.369184980329429,-9.150300118649586,14.466799274747425,47.721635961986365,-22.171131928411903,54.572904550987836,1.4514305738286286,55.45868615961639,1.4621002152213973,-0.0037534666666666737,0.7275845066666666,0.6552637333333333,1.3866017066666667,0.9791648804340014,0.7553550785014161,0.8730436597553775,0.8411919439319704
LBP07_S02,LBP07,167,168,2,167,167,1716272167.68,2024-05-21 06:16:07.680000+00:00,2024-05-21 15:16:07.680000+09:00,2024,5,21,6,16,7,680,,,,,,,,,-0.431396,-0.013916,1.218506,-29.47998,138.916016,-20.874023,,,,,,,,,,,0.0,1.0,1.0,2.0,0.0,0.0,0.0,6.0,0.0,0.03306320000000001,0.2847818933333333,1.15116536,18.353678399999996,7.376302119999999,-2.56022136,14.300323744248791,6.242555825306417,-5.472350520159404,15.038812224517377,47.97133819499862,-22.39002594921828,55.03388432002501,1.4518103756518066,55.40170403875644,1.4641646445062526,-0.4644592,-0.2986978933333333,0.06734064000000006,0.8304977333333334,0.5563070570665278,0.7584182034028103,0.8625778323139237,0.8392915401871648
LBP07_S02,LBP07,168,169,2,168,168,1716272167.72,2024-05-21 06:16:07.720000+00:00,2024-05-21 15:16:07.720000+09:00,2024,5,21,6,16,7,720,,,,,,,,,-0.036865,0.356689,0.293457,127.197266,-61.645508,81.604004,,,,,,,,,,,0.0,1.0,1.0,2.0,0.0,0.0,0.0,6.0,0.0,0.020966840000000004,0.28174153333333335,1.1520898400000001,13.176269546666665,7.96875004,-1.8920898533333335,-1.3963002138753213,15.826151855479997,-0.04901844361713711,14.982960215962365,48.604384269217825,-22.391986686962966,55.57226227905453,1.4943466415414215,55.49598244269414,1.461175210102099,-0.05783184000000001,0.07494746666666663,-0.8586328400000001,0.9914121466666668,0.8638356315897153,0.7642975489192287,0.8437316723383532,0.8456339818382056
LBP07_S02,LBP07,169,170,2,169,169,1716272167.76,2024-05-21 06:16:07.760000+00:00,2024-05-21 15:16:07.760000+09:00,2024,5,21,6,16,7,760,,,,,,,,,0.599365,-0.292969,1.612549,-115.41748,92.468262,49.743652,,,,,,,,,,,0.0,1.0,1.0,2.0,0.0,0.0,0.0,6.0,0.0,0.02921228,0.2829264266666667,1.1511816266666666,13.926595066666666,6.451009146666667,-0.4687500133333335,-13.306952563176482,21.312863181384586,6.311542084342775,14.450682113435306,49.456898796473205,-22.139525003589256,56.07999304112569,1.4649050583557297,55.68795862162889,1.4591892872412011,0.5701527200000001,-0.5758954266666667,0.46136737333333344,1.6074155200000002,0.9325178388403517,0.7804388171045434,0.8345860506891019,0.8436863790291774
LBP07_S02,LBP07,170,171,2,170,170,1716272167.8,2024-05-21 06:16:07.800000+00:00,2024-05-21 15:16:07.800000+09:00,2024,5,21,6,16,7,800,,,,,,,,,-0.060791,1.47168,1.162109,74.21875,55.297852,-14.831543,,,,,,,,,,,0.0,1.0,1.0,2.0,0.0,0.0,0.0,6.0,0.0,0.032089879999999994,0.2849023333333333,1.14087888,13.140462253333332,7.3014323333333335,-0.2718099066666668,-20.614887996373113,22.621996374058305,12.571508917839825,13.626086593580382,50.361778651435536,-21.636664646875662,56.48118484799428,1.4552654306055484,55.924729320518836,1.4570672688415736,-0.09288088,1.1867776666666667,0.02123012000000002,1.3008886666666668,1.1905959877152144,0.7851583818852648,0.8437451920216061,0.8482221139969747
LBP07_S02,LBP07,171,172,2,171,171,1716272167.84,2024-05-21 06:16:07.840000+00:00,2024-05-21 15:16:07.840000+09:00,2024,5,21,6,16,7,840,,,,,,,,,-0.278076,0.670654,1.771973,-61.523438,-57.983398,-25.756836,,,,,,,,,,,0.0,1.0,1.0,2.0,0.0,0.0,0.0,6.0,0.0,0.02907556,0.28539386666666666,1.1196353866666668,11.43961589333333,7.08170576,0.39794921333333316,-23.056451851228896,20.519165719779306,17.68814890170046,12.703828519531227,51.182545280226705,-20.929138690807644,56.73684029583577,1.4660798653502667,56.1632003550969,1.456272224510329,-0.30715156,0.3852601333333333,0.6523376133333332,1.3447493066666665,0.8175034023879538,0.7918471564140757,0.8360139974062503,0.8466709947462824
LBP07_S02,LBP07,172,173,2,172,172,1716272167.88,2024-05-21 06:16:07.880000+00:00,2024-05-21 15:16:07.880000+09:00,2024,5,21,6,16,7,880,,,,,,,,,-0.030029,-0.004883,2.054932,-89.96582,-64.086914,-4.089355,,,,,,,,,,,0.0,1.0,1.0,2.0,0.0,0.0,0.0,6.0,0.0,0.03648441333333334,0.28202472,1.1216991866666668,9.181315106666666,5.944010453333333,2.035319013333333,-20.977872098563264,16.265694335533905,20.776131902440532,11.864713635588696,51.83317305364806,-20.09809341471002,56.84525149359762,1.4382561253689419,56.3761519285222,1.4584318072710731,-0.06651341333333334,-0.28690772000000003,0.9332328133333332,1.2866539466666667,0.9786028601178811,0.8141540079326355,0.8397940060611979,0.8520374880669083
LBP07_S02,LBP07,173,174,2,173,173,1716272167.92,2024-05-21 06:16:07.920000+00:00,2024-05-21 15:16:07.920000+09:00,2024,5,21,6,16,7,920,,,,,,,,,0.185547,-0.020264,1.400635,-72.143555,93.322754,35.522461,,,,,,,,,,,0.0,1.0,1.0,2.0,0.0,0.0,0.0,6.0,0.0,0.037451200000000004,0.26980141333333335,1.1248762666666665,9.518229159999999,5.72428388,1.8929036533333332,-15.268894107742026,11.20907838745314,21.2401474878119,11.253957871279015,52.28153618914619,-19.248487515197546,56.83761840267624,1.4290845386832893,56.55373372867033,1.4619842268464134,0.1480958,-0.29006541333333336,0.27575873333333356,0.7139199466666669,0.42674721908816476,0.7999975970193218,0.8243402673549819,0.8530963623719438
LBP07_S02,LBP07,174,175,2,174,174,1716272167.96,2024-05-21 06:16:07.960000+00:00,2024-05-21 15:16:07.960000+09:00,2024,5,21,6,16,7,960,,,,,,,,,-0.586914,-0.029297,0.115479,49.804688,47.058105,67.749023,,,,,,,,,,,0.0,1.0,1.0,2.0,0.0,0.0,0.0,6.0,0.0,0.03541669333333334,0.29227210666666664,1.10732092,11.964518226666666,5.938313826666666,2.74739584,-7.129719228412746,6.449630382968902,18.903857352741248,10.968769102142504,52.53952140446494,-18.492333221087897,56.76866735256427,1.4461823507894371,56.701204893893895,1.4648328416736924,-0.6223306933333334,-0.32156910666666666,-0.99184192,1.9357417200000002,1.2142703885446733,0.8118566503235491,0.8284051964260908,0.8624803492492716
LBP07_S02,LBP07,175,176,2,175,175,1716272168.0,2024-05-21 06:16:08+00:00,2024-05-21 15:16:08+09:00,2024,5,21,6,16,8,0,6.0,16.0,8.0,40.542591,141.505402,15.322,3.0,10.0,0.225342,0.29126,0.502197,91.85791,-53.283691,38.94043,-229.0,-2.0,399.0,2014.0,0.0,1019.799988,25.219999,0.067386,-54.35902,3.958594,0.0,1.0,1.0,2.0,0.0,0.0,0.0,4.0,0.0,0.02822593333333334,0.2747363066666667,1.1057519066666666,7.815755199999999,6.888020853333333,3.2869466133333334,2.2935901689328406,2.6411363691835303,14.098911986833969,11.060512708899818,52.64516685923228,-17.92837674161454,56.70339696710779,1.4653612849282196,56.8349122521539,1.4690031852672694,0.19711606666666665,0.01652369333333331,-0.6035549066666666,0.8171946666666665,0.6351427410755164,0.8021595333440592,0.8281966802166819,0.8665823499687946
LBP07_S02,LBP07,176,177,2,176,176,1716272168.04,2024-05-21 06:16:08.040000+00:00,2024-05-21 15:16:08.040000+09:00,2024,5,21,6,16,8,40,,,,,,,,,0.534912,0.053223,1.118652,-18.310547,-23.620605,34.912109,,,,,,,,,,,0.0,1.0,1.0,2.0,0.0,0.0,0.0,4.0,0.0,0.02627281333333334,0.27617185333333333,1.0950585466666667,10.079752599999999,6.319173186666665,2.9695637999999995,12.258242475837832,-0.07990426487210514,7.6377530534851035,11.550842407933331,52.6419706886374,-17.622866619475136,56.70242028524075,1.4730264014360714,56.9781550154751,1.4734137222736596,0.5086391866666667,-0.22294885333333334,0.023593453333333292,0.7551814933333334,0.5558566941719499,0.7997669409519126,0.8193320166486668,0.8601731472670705
LBP07_S02,LBP07,177,178,2,177,177,1716272168.08,2024-05-21 06:16:08.080000+00:00,2024-05-21 15:16:08.080000+09:00,2024,5,21,6,16,8,80,,,,,,,,,0.150635,0.427002,1.366455,184.814453,1.403809,-54.443359,,,,,,,,,,,0.0,1.0,1.0,2.0,0.0,0.0,0.0,4.0,0.0,0.02176110666666667,0.26800779999999996,1.0767512533333332,9.191080733333333,6.677246093333332,3.7044270799999994,22.561314033028435,-2.0436630338452115,0.6280911561700979,12.453294969254468,52.56022416728359,-17.597742973228332,56.809702321506386,1.4873345714052055,57.15743032137269,1.4774547916483476,0.12887389333333332,0.15899420000000003,0.28970374666666676,0.5775718400000001,0.35470536625379046,0.7679315151088538,0.8187375464278326,0.8512041244180237
LBP07_S02,LBP07,178,179,2,178,178,1716272168.12,2024-05-21 06:16:08.120000+00:00,2024-05-21 15:16:08.120000+09:00,2024,5,21,6,16,8,120,,,,,,,,,-0.356201,1.006592,1.494141,-7.995605,-5.065918,-63.903809,,,,,,,,,,,0.0,1.0,1.0,2.0,0.0,0.0,0.0,4.0,0.0,0.012002000000000006,0.25745116,1.0484342,8.472493493333333,5.394694013333333,4.283854173333333,33.343653591737954,-3.866498339868186,-5.822318134549334,13.787041112923987,52.405564233688864,-17.830635698610305,57.04697393129018,1.5228327898142153,57.39860966468289,1.4883777884701477,-0.368203,0.7491408399999999,0.44570679999999996,1.56305064,0.9462769145081927,0.7661069258798245,0.8171893250393726,0.8524345023955581
LBP07_S02,LBP07,179,180,2,179,179,1716272168.16,2024-05-21 06:16:08.160000+00:00,2024-05-21 15:16:08.160000+09:00,2024,5,21,6,16,8,160,,,,,,,,,0.213867,0.18042,1.769287,-147.033691,-53.955078,-7.69043,,,,,,,,,,,0.0,1.0,1.0,2.0,0.0,0.0,0.0,4.0,0.0,0.016718800000000006,0.26884765333333327,1.0264322399999999,8.898111973333332,2.574869799999999,4.252115893333333,44.62194858845139,-6.157456626465116,-10.883487657253857,15.571919056462043,52.15926596863026,-18.26597520490046,57.417066623725695,1.5066084942914963,57.722633895294074,1.4959136741735277,0.1971482,-0.08842765333333327,0.7428547600000002,1.0284306133333334,0.7736407803961332,0.7705332484678926,0.824570810373491,0.8521934056349342
LBP07_S02,LBP07,180,181,2,180,180,1716272168.2,2024-05-21 06:16:08.200000+00:00,2024-05-21 15:16:08.200000+09:00,2024,5,21,6,16,8,200,,,,,,,,,0.156982,0.114746,1.02417,-57.434082,94.360352,-18.127441,,,,,,,,,,,0.0,1.0,1.0,2.0,0.0,0.0,0.0,4.0,0.0,0.018072960000000006,0.26070964,1.0182063333333333,5.704752599999998,2.8906250133333327,4.958496106666667,55.80298999727816,-9.188775759619599,-14.135192361245673,17.80403865635317,51.79171493824548,-18.831382899350288,57.91361248120635,1.4993708006694528,58.14134700580907,1.50414843354381,0.13890904,-0.14596364,0.0059636666666667,0.2908363466666667,0.2015853936074792,0.7471904453377912,0.8124616921948339,0.8492324480208944
LBP07_S02,LBP07,181,182,2,181,181,1716272168.24,2024-05-21 06:16:08.240000+00:00,2024-05-21 15:16:08.240000+09:00,2024,5,21,6,16,8,240,,,,,,,,,-0.293457,-0.528076,-0.081299,41.259766,89.782715,2.197266,,,,,,,,,,,0.0,1.0,1.0,2.0,0.0,0.0,0.0,4.0,0.0,0.015589240000000004,0.2493034,1.0115787200000002,5.733235679999999,3.7898763199999985,4.913736986666666,65.50860294474538,-12.658602385499986,-15.50792186042008,20.424382774142988,51.28537084282548,-19.451699773767093,58.52959335481167,1.506490559097146,58.65511845448374,1.5133743777837085,-0.30904624,-0.7773794,-1.0928777200000002,2.1793033600000005,1.3763030265442624,0.7805443359159878,0.8201035314926931,0.8616631361064824
LBP07_S02,LBP07,182,183,2,182,182,1716272168.28,2024-05-21 06:16:08.280000+00:00,2024-05-21 15:16:08.280000+09:00,2024,5,21,6,16,8,280,,,,,,,,,-0.093262,0.188477,-0.255127,296.569824,-101.501465,50.90332,,,,,,,,,,,0.0,1.0,1.0,2.0,0.0,0.0,0.0,4.0,0.0,0.005882200000000005,0.26066081333333335,1.0038410933333333,6.82291668,2.505696639999999,4.740397146666666,71.89309356718935,-15.674142922633704,-15.098321192580926,23.30010651683056,50.65840512592013,-20.05563262147033,59.25704492669953,1.5474860935869441,59.253696385271404,1.5211082807722405,-0.0991442,-0.07218381333333335,-1.2589680933333334,1.4302961066666668,1.264927166018799,0.8219615252276351,0.8256857311659584,0.8702957068312757
LBP07_S02,LBP07,183,184,2,183,183,1716272168.32,2024-05-21 06:16:08.320000+00:00,2024-05-21 15:16:08.320000+09:00,2024,5,21,6,16,8,320,,,,,,,,,0.615479,0.928467,0.462158,195.129395,-121.704102,14.709473,,,,,,,,,,,0.0,1.0,1.0,2.0,0.0,0.0,0.0,4.0,0.0,0.016653680000000004,0.25854491999999996,1.0176627066666666,5.6168619999999985,0.08544923999999905,4.88525392,73.32448344144132,-17.00196795308043,-12.990756943308234,26.233085854488213,49.978326407796914,-20.57526289920266,60.0778607087881,1.504443395717087,59.92013113347779,1.5203722762766787,0.59882532,0.6699220800000001,-0.5555047066666665,1.8242521066666666,1.0563961549880083,0.8449719060145491,0.8395264055730653,0.8730364235117017
LBP07_S02,LBP07,184,185,2,184,184,1716272168.36,2024-05-21 06:16:08.360000+00:00,2024-05-21 15:16:08.360000+09:00,2024,5,21,6,16,8,360,,,,,,,,,0.415039,-0.101807,1.522949,-103.515625,76.599121,-35.15625,,,,,,,,,,,0.0,1.0,1.0,2.0,0.0,0.0,0.0,4.0,0.0,0.010546906666666673,0.2572981733333333,1.012490186666667,5.179850279999999,1.8391927333333327,3.7630208399999994,69.05877218758063,-15.497518556627421,-9.199742586431606,28.995436741991437,49.35842566553182,-20.943252602659925,60.95579845771425,1.5285299444922622,60.63579143975669,1.5149538605564852,0.4044920933333333,-0.3591051733333333,0.5104588133333332,1.2740560799999998,0.7437328681681482,0.827855020174667,0.8311567913860359,0.8709796610621823
LBP07_S02,LBP07,185,186,2,185,185,1716272168.4,2024-05-21 06:16:08.400000+00:00,2024-05-21 15:16:08.400000+09:00,2024,5,21,6,16,8,400,,,,,,,,,-0.46582,-0.156738,1.706055,188.842773,3.295898,-79.345703,,,,,,,,,,,0.0,1.0,1.0,2.0,0.0,0.0,0.0,4.0,0.0,0.0033463866666666718,0.26274738666666664,0.9907095866666666,6.816406279999999,1.129557319999999,4.858398453333334,59.55852183395708,-10.538268036607029,-3.7577901370488966,31.37777761534972,48.93689494406754,-21.09356420814188,61.84111145385446,1.557620727327204,61.38390158881837,1.5154272053243818,-0.46916638666666666,-0.4194853866666666,0.7153454133333335,1.6039971866666667,0.9527875672896748,0.816128225586658,0.8375303912894679,0.8766372954494462
