file_name,test_id,_program_index,program_index,session_id,index,_index,unixtime,datetime_utc,datetime_jst,rtc_year,rtc_month,rtc_day,rtc_hour,rtc_min,rtc_sec,rtc_msec,gps_hour,gps_min,gps_sec,latitude,longitude,altitude,fix_type,SIV,acc_x,acc_y,acc_z,gyro_x,gyro_y,gyro_z,mag_x,mag_y,mag_z,illuminance,atmopress,water_pressure,water_temp,depth,alt_wps,battery_level,behavior_class,camera_command,camera_recording,camera_count,play_audio,speaker_on,audio_file,prev_sd_write_time_ms,delay_occurred_counter,acc_x_ma,acc_y_ma,acc_z_ma,gyro_x_ma,gyro_y_ma,gyro_z_ma,gyro_x_lowpass,gyro_y_lowpass,gyro_z_lowpass,angle_x,angle_y,angle_z,combined_angle_change,gravity_adjusted_angle,smoothed_angle_change,smoothed_gravity_angle,acc_x_dy,acc_y_dy,acc_z_dy,ODBA,VeDBA,smoothed_VeDBA_1s,smoothed_VeDBA_2s,smoothed_VeDBA_3s
LBP03_S00,LBP03,-1625,1,0,0,-1625,1715716432.0,2024-05-14 19:53:52+00:00,2024-05-15 04:53:52+09:00,2024,5,14,19,53,52,0,19.0,53.0,50.0,40.549015,141.555664,13.329,3.0,14.0,0.067871,-0.101807,1.567383,30.883789,-41.259766,48.156738,-259.0,23.0,365.0,864.0,0.0,1014.0,16.73,0.00991,-6.238727,0.0,0.0,1.0,1.0,0.0,0.0,0.0,0.0,15.0,0.0,,,,,,,31.692989169403887,-41.09856944565842,47.533513725274055,1.2677195667761556,-1.643942777826337,1.9013405490109623,2.8150944282684023,,5.1323648022244,,,,,,,,,
LBP03_S00,LBP03,-1624,2,0,1,-1624,1715716432.04,2024-05-14 19:53:52.040000+00:00,2024-05-15 04:53:52.040000+09:00,2024,5,14,19,53,52,40,,,,,,,,,0.220215,-0.294434,1.022949,90.087891,178.222656,36.499023,,,,,,,,,,,0.0,1.0,1.0,0.0,0.0,0.0,0.0,15.0,0.0,,,,,,,24.41252236095375,-29.53433197500942,28.06228925016508,2.2442204612143057,-2.825316056826714,3.023832119017565,4.707706127563408,,5.248311785488695,,,,,,,,,
LBP03_S00,LBP03,-1623,3,0,2,-1623,1715716432.08,2024-05-14 19:53:52.080000+00:00,2024-05-15 04:53:52.080000+09:00,2024,5,14,19,53,52,80,,,,,,,,,-0.512451,0.17627,-0.196045,109.802246,27.770996,-65.185547,,,,,,,,,,,0.0,1.0,1.0,0.0,0.0,0.0,0.0,15.0,0.0,,,,,,,16.663879297761135,-19.116053669738726,11.257447160477792,2.910775633124751,-3.5899582036162627,3.474130005436677,5.781867690009859,,5.2690685110024535,,,,,,,,,
LBP03_S00,LBP03,-1622,4,0,3,-1622,1715716432.12,2024-05-14 19:53:52.120000+00:00,2024-05-15 04:53:52.120000+09:00,2024,5,14,19,53,52,120,,,,,,,,,0.12915,-0.003906,0.154541,21.179199,-69.152832,-58.044434,,,,,,,,,,,0.0,1.0,1.0,0.0,0.0,0.0,0.0,15.0,0.0,,,,,,,8.507766164083582,-10.550263232109726,-0.9866597495317507,3.2510862796880944,-4.011968732900652,3.434663615455407,6.201803710460517,,5.236897224149242,,,,,,,,,
LBP03_S00,LBP03,-1621,5,0,4,-1621,1715716432.16,2024-05-14 19:53:52.160000+00:00,2024-05-15 04:53:52.160000+09:00,2024,5,14,19,53,52,160,,,,,,,,,0.341797,-0.056641,0.640869,1.77002,-103.088379,-48.76709,,,,,,,,,,,0.0,1.0,1.0,0.0,0.0,0.0,0.0,15.0,0.0,,,,,,,0.49671601978900676,-4.196171794462661,-7.93090240486325,3.270954920479655,-4.179815604679158,3.117427519260877,6.155352054819812,,5.190221754428592,,,,,,,,,
LBP03_S00,LBP03,-1620,6,0,5,-1620,1715716432.2,2024-05-14 19:53:52.200000+00:00,2024-05-15 04:53:52.200000+09:00,2024,5,14,19,53,52,200,,,,,,,,,0.677979,0.077881,1.275146,-6.225586,16.784668,16.784668,,,,,,,,,,,0.0,1.0,1.0,0.0,0.0,0.0,0.0,15.0,0.0,,,,,,,-6.50102664688028,-0.16588398062676785,-10.047202003334954,3.0109138546044436,-4.186450963904228,2.715539439127479,5.8280467018101705,,5.16035018752604,,,,,,,,,
LBP03_S00,LBP03,-1619,7,0,6,-1619,1715716432.24,2024-05-14 19:53:52.240000+00:00,2024-05-15 04:53:52.240000+09:00,2024,5,14,19,53,52,240,,,,,,,,,0.093018,-0.428711,1.895264,-202.697754,11.962891,74.584961,,,,,,,,,,,0.0,1.0,1.0,0.0,0.0,0.0,0.0,15.0,0.0,,,,,,,-11.679598585637,1.5498779631286073,-8.678485253920867,2.5437299111789637,-4.124455845379084,2.3684000289706444,5.393608864085009,,5.403306325734205,,,,,,,,,
LBP03_S00,LBP03,-1618,8,0,7,-1618,1715716432.28,2024-05-14 19:53:52.280000+00:00,2024-05-15 04:53:52.280000+09:00,2024,5,14,19,53,52,280,,,,,,,,,-0.271729,-0.307617,1.893066,27.282715,-25.512695,16.845703,,,,,,,,,,,0.0,1.0,1.0,0.0,0.0,0.0,0.0,15.0,0.0,,,,,,,-14.648899808847647,1.0541750009255175,-5.479434028055905,1.9577739188250578,-4.082288845342063,2.149222667848408,5.011698216176757,,5.514938850814484,,,,,,,,,
LBP03_S00,LBP03,-1617,9,0,8,-1617,1715716432.32,2024-05-14 19:53:52.320000+00:00,2024-05-15 04:53:52.320000+09:00,2024,5,14,19,53,52,320,,,,,,,,,0.553955,-0.501465,1.710938,-3.723145,4.821777,43.640137,,,,,,,,,,,0.0,1.0,1.0,0.0,0.0,0.0,0.0,15.0,0.0,,,,,,,-15.556495611434832,-1.37899173209033,-1.8915279226456574,1.3355140943676647,-4.137448514625676,2.073561550942582,4.8168179966633895,,5.591961227406005,,,,,,,,,
LBP03_S00,LBP03,-1616,10,0,9,-1616,1715716432.36,2024-05-14 19:53:52.360000+00:00,2024-05-15 04:53:52.360000+09:00,2024,5,14,19,53,52,360,,,,,,,,,-0.567871,0.124756,-0.035645,80.566406,200.439453,-36.010742,,,,,,,,,,,0.0,1.0,1.0,0.0,0.0,0.0,0.0,15.0,0.0,,,,,,,-14.923814438938798,-5.2165212159342715,1.1508899392330476,0.7385615168101127,-4.346109363263047,2.119597148511904,4.891506085403082,,5.7073758707937055,,,,,,,,,
LBP03_S00,LBP03,-1615,11,0,10,-1615,1715716432.4,2024-05-14 19:53:52.400000+00:00,2024-05-15 04:53:52.400000+09:00,2024,5,14,19,53,52,400,,,,,,,,,0.108154,-0.301758,0.27832,-33.26416,-119.934082,-34.240723,,,,,,,,,,,0.0,1.0,1.0,0.0,0.0,0.0,0.0,15.0,0.0,,,,,,,-13.325665668471117,-9.685203903116912,3.234964971246592,0.20553489007126802,-4.733517519387724,2.2489957473617674,5.24465581035004,,5.910205936777138,,,,,,,,,
LBP03_S00,LBP03,-1614,12,0,11,-1614,1715716432.44,2024-05-14 19:53:52.440000+00:00,2024-05-15 04:53:52.440000+09:00,2024,5,14,19,53,52,440,,,,,,,,,0.113525,0.01416,0.459717,68.786621,-118.95752,-50.90332,,,,,,,,,,,0.0,1.0,1.0,0.0,0.0,0.0,0.0,15.0,0.0,,,,,,,-11.126611314269256,-13.950536951932936,4.3018675624777165,-0.23952956249950225,-5.291538997465041,2.421070449860876,5.8240313783661986,,6.228197615666384,,,,,,,,,
LBP03_S00,LBP03,-1613,13,0,12,-1613,1715716432.48,2024-05-14 19:53:52.480000+00:00,2024-05-15 04:53:52.480000+09:00,2024,5,14,19,53,52,480,,,,,,,,,0.704834,0.002197,1.209717,-14.709473,-37.414551,-1.220703,,,,,,,,,,,0.0,1.0,1.0,0.0,0.0,0.0,0.0,15.0,0.0,,,,,,,-8.426272643883479,-17.378766606220122,4.458834776567569,-0.5765804682548414,-5.9866896617138465,2.5994238409235786,6.552091455925071,,6.670555086311779,,,,,,,,,
LBP03_S00,LBP03,-1612,14,0,13,-1612,1715716432.52,2024-05-14 19:53:52.520000+00:00,2024-05-15 04:53:52.520000+09:00,2024,5,14,19,53,52,520,,,,,,,,,0.266602,0.036865,1.585693,-161.315918,22.949219,70.19043,,,,,,,,,,,0.0,1.0,1.0,0.0,0.0,0.0,0.0,15.0,0.0,,,,,,,-5.216294858358549,-19.713621671787134,3.8875205683706615,-0.7852322625891834,-6.775234528585332,2.754924663658405,7.355950144337522,,7.229201830533157,,,,,,,,,
LBP03_S00,LBP03,-1611,15,0,14,-1611,1715716432.56,2024-05-14 19:53:52.560000+00:00,2024-05-15 04:53:52.560000+09:00,2024,5,14,19,53,52,560,,,,,,,,,-0.243164,-0.680908,2.049805,-10.803223,-50.78125,23.803711,,,,,,,,,,,0.0,1.0,1.0,0.0,0.0,0.0,0.0,15.0,0.0,,,,,,,-1.610628565563066,-21.043757446111012,2.8546508776904718,-0.8496574052117061,-7.616984826429773,2.8691106987660238,8.183652714654144,,7.87998334920529,,,,,,,,,
LBP03_S00,LBP03,-1610,16,0,15,-1610,1715716432.6,2024-05-14 19:53:52.600000+00:00,2024-05-15 04:53:52.600000+09:00,2024,5,14,19,53,52,600,,,,,,,,,0.334961,-0.50708,1.723633,-2.197266,-3.295898,20.690918,,,,,,,,,,,0.0,1.0,1.0,0.0,0.0,0.0,0.0,15.0,0.0,,,,,,,2.0361910612862975,-21.585951580860737,1.7385837685537044,-0.7682097627602542,-8.480422889664203,2.938654049508172,9.007963490702629,,8.586949362376703,,,,,,,,,
LBP03_S00,LBP03,-1609,17,0,16,-1609,1715716432.64,2024-05-14 19:53:52.640000+00:00,2024-05-15 04:53:52.640000+09:00,2024,5,14,19,53,52,640,,,,,,,,,-0.22876,-0.088379,0.319824,113.40332,195.556641,-5.126953,,,,,,,,,,,0.0,1.0,1.0,0.0,0.0,0.0,0.0,15.0,0.0,,,,,,,5.2198477379123185,-21.437501104398116,0.9788569797417668,-0.5594158532437614,-9.337922933840128,2.9778083286978427,9.817183570538962,,9.31045387819309,,,,,,,,,
LBP03_S00,LBP03,-1608,18,0,17,-1608,1715716432.68,2024-05-14 19:53:52.680000+00:00,2024-05-15 04:53:52.680000+09:00,2024,5,14,19,53,52,680,,,,,,,,,-0.128662,0.200928,-0.053711,44.067383,-125.671387,-52.124023,,,,,,,,,,,0.0,1.0,1.0,0.0,0.0,0.0,0.0,15.0,0.0,,,,,,,7.516311308240361,-20.475342754453184,0.9321542431878831,-0.25876340091414696,-10.156936644018256,3.0150944984253583,10.598165658390528,,10.015545877865819,,,,,,,,,
LBP03_S00,LBP03,-1607,19,0,18,-1607,1715716432.72,2024-05-14 19:53:52.720000+00:00,2024-05-15 04:53:52.720000+09:00,2024,5,14,19,53,52,720,,,,,,,,,0.22583,0.013672,0.33374,17.39502,-94.482422,-52.124023,,,,,,,,,,,0.0,1.0,1.0,0.0,0.0,0.0,0.0,15.0,0.0,,,,,,,8.770887116782841,-18.48538458438788,1.7116768248038068,0.09207208375716669,-10.896352027393771,3.0835615714175106,11.32463318338473,,10.677056702642323,,,,,,,,,
LBP03_S00,LBP03,-1606,20,0,19,-1606,1715716432.76,2024-05-14 19:53:52.760000+00:00,2024-05-15 04:53:52.760000+09:00,2024,5,14,19,53,52,760,,,,,,,,,0.796387,-0.050537,1.06958,6.04248,-135.498047,0.12207,,,,,,,,,,,0.0,1.0,1.0,0.0,0.0,0.0,0.0,15.0,0.0,,,,,,,9.103652945305221,-15.435127843068095,3.1245767713607737,0.45621820156937554,-11.513757141116495,3.2085446422719417,11.961166217117219,,11.28058927270391,,,,,,,,,
LBP03_S00,LBP03,-1605,21,0,20,-1605,1715716432.8,2024-05-14 19:53:52.800000+00:00,2024-05-15 04:53:52.800000+09:00,2024,5,14,19,53,52,800,,,,,,,,,0.201904,0.119873,1.240723,-132.568359,65.612793,68.725586,,,,,,,,,,,0.0,1.0,1.0,0.0,0.0,0.0,0.0,15.0,0.0,,,,,,,8.73876426404628,-11.674218157082201,4.771237886428112,0.8057687721312268,-11.980725867399782,3.3993941577290663,12.479700968513894,,11.82020045968977,,,,,,,,,
LBP03_S00,LBP03,-1604,22,0,21,-1604,1715716432.84,2024-05-14 19:53:52.840000+00:00,2024-05-15 04:53:52.840000+09:00,2024,5,14,19,53,52,840,,,,,,,,,0.167969,-0.843994,2.135498,-25.390625,-23.31543,48.583984,,,,,,,,,,,0.0,1.0,1.0,0.0,0.0,0.0,0.0,15.0,0.0,,,,,,,7.806805853560077,-7.8836378497042645,6.259960303682378,1.11804100627363,-12.296071381387952,3.6497925698763614,12.874951375093495,,12.294453603070806,,,,,,,,,
LBP03_S00,LBP03,-1603,23,0,22,-1603,1715716432.88,2024-05-14 19:53:52.880000+00:00,2024-05-15 04:53:52.880000+09:00,2024,5,14,19,53,52,880,,,,,,,,,0.093018,-0.451416,1.795166,41.564941,4.577637,39.611816,,,,,,,,,,,0.0,1.0,1.0,0.0,0.0,0.0,0.0,15.0,0.0,,,,,,,6.293511348476386,-4.777305704313044,7.400990834272062,1.3697814602126854,-12.487163609560474,3.9458322032472437,13.167199703690104,,12.703116230597072,,,,,,,,,
LBP03_S00,LBP03,-1602,24,0,23,-1602,1715716432.92,2024-05-14 19:53:52.920000+00:00,2024-05-15 04:53:52.920000+09:00,2024,5,14,19,53,52,920,,,,,,,,,-0.141846,-0.064697,0.546875,117.858887,236.572266,-3.051758,,,,,,,,,,,0.0,1.0,1.0,0.0,0.0,0.0,0.0,15.0,0.0,,,,,,,4.189304097164837,-2.7419494366393176,8.2489873009557,1.537353624099279,-12.596841587026047,4.275791695285472,13.391275844953395,,13.046242239037895,,,,,,,,,
LBP03_S00,LBP03,-1601,25,0,24,-1601,1715716432.96,2024-05-14 19:53:52.960000+00:00,2024-05-15 04:53:52.960000+09:00,2024,5,14,19,53,52,960,,,,,,,,,-0.237549,0.224854,-0.147949,60.974121,-88.195801,-62.255859,,,,,,,,,,,0.0,1.0,1.0,0.0,0.0,0.0,0.0,15.0,0.0,,,,,,,1.7180132927711265,-1.6547596980865322,8.966528758246673,1.606074155810124,-12.663031974949508,4.634452845615339,13.579764584512757,,13.325695492023248,,,,,,,,,
LBP03_S00,LBP03,-1600,26,0,25,-1600,1715716433.0,2024-05-14 19:53:53+00:00,2024-05-15 04:53:53+09:00,2024,5,14,19,53,53,0,19.0,53.0,51.0,40.549103,141.555679,12.965,3.0,14.0,0.169189,-0.071289,0.326904,-40.527344,-92.834473,-42.114258,-264.0,24.0,368.0,926.0,0.0,1014.099976,16.77,0.010901,-7.070072,0.0,0.0,1.0,1.0,0.0,0.0,0.0,0.0,8.0,0.0,,,,,,,-0.5642372943841586,-1.0123118026903057,9.610514023577734,1.5835046640347576,-12.70352444705712,5.018873406558448,13.750494924512985,,13.547492854641144,,,,,,,,,
LBP03_S00,LBP03,-1599,27,0,26,-1599,1715716433.04,2024-05-14 19:53:53.040000+00:00,2024-05-15 04:53:53.040000+09:00,2024,5,14,19,53,53,40,,,,,,,,,0.604004,-0.128906,0.885254,-9.216309,-122.070312,-12.451172,,,,,,,,,,,0.0,1.0,1.0,0.0,0.0,0.0,0.0,8.0,0.0,,,,,,,-1.9270913572698893,-0.2957200692257809,10.005136361063613,1.506421009743962,-12.715353249826151,5.419078861000993,13.903809845801629,,13.722849655602818,,,,,,,,,
LBP03_S00,LBP03,-1598,28,0,27,-1598,1715716433.08,2024-05-14 19:53:53.080000+00:00,2024-05-15 04:53:53.080000+09:00,2024,5,14,19,53,53,80,,,,,,,,,0.228516,0.31958,1.143311,-68.17627,85.510254,69.458008,,,,,,,,,,,0.0,1.0,1.0,0.0,0.0,0.0,0.0,8.0,0.0,,,,,,,-1.8202861121310505,0.6736633539072777,9.8112878613738,1.43360956525872,-12.68840671566986,5.811530375455945,14.029425742798754,,13.866730499030567,,,,,,,,,
LBP03_S00,LBP03,-1597,29,0,28,-1597,1715716433.12,2024-05-14 19:53:53.120000+00:00,2024-05-15 04:53:53.120000+09:00,2024,5,14,19,53,53,120,,,,,,,,,-0.092285,-1.039795,2.217773,-121.398926,-41.381836,64.39209,,,,,,,,,,,0.0,1.0,1.0,0.0,0.0,0.0,0.0,8.0,0.0,,,,,,,-0.21245594630151987,1.626959022593038,8.764246658896058,1.4251113274066591,-12.623328354766139,6.162100241811787,14.119165713238246,,13.994418010050717,,,,,,,,,
LBP03_S00,LBP03,-1596,30,0,29,-1596,1715716433.16,2024-05-14 19:53:53.160000+00:00,2024-05-15 04:53:53.160000+09:00,2024,5,14,19,53,53,160,,,,,,,,,-0.002441,-0.266602,1.67334,24.475098,-25.939941,46.75293,,,,,,,,,,,0.0,1.0,1.0,0.0,0.0,0.0,0.0,8.0,0.0,,,,,,,2.311333416860965,2.0516219533079023,6.9244228058057935,1.5175646640810978,-12.541263476633823,6.439077154044019,14.179139843296161,,14.118043961207439,,,,,,,,,
LBP03_S00,LBP03,-1595,31,0,30,-1595,1715716433.2,2024-05-14 19:53:53.200000+00:00,2024-05-15 04:53:53.200000+09:00,2024,5,14,19,53,53,200,,,,,,,,,0.170898,-0.238037,0.917725,98.022461,183.044434,26.306152,,,,,,,,,,,0.0,1.0,1.0,0.0,0.0,0.0,0.0,8.0,0.0,,,,,,,4.78717751994189,1.5678315693542377,4.761706560510461,1.7090517648787733,-12.478550213859654,6.629545416464437,14.233268978130663,,14.2451117820623,,,,,,,,,
LBP03_S00,LBP03,-1594,32,0,31,-1594,1715716433.24,2024-05-14 19:53:53.240000+00:00,2024-05-15 04:53:53.240000+09:00,2024,5,14,19,53,53,240,,,,,,,,,-0.599854,0.241211,-0.215576,106.506348,108.581543,-69.641113,,,,,,,,,,,0.0,1.0,1.0,0.0,0.0,0.0,0.0,8.0,0.0,,,,,,,6.332959682711669,0.23420888013144897,2.9925247255518532,1.96237015218724,-12.469181858654396,6.749246405486511,14.313759809370978,,14.379648168901607,,,,,,,,,
LBP03_S00,LBP03,-1593,33,0,32,-1593,1715716433.28,2024-05-14 19:53:53.280000+00:00,2024-05-15 04:53:53.280000+09:00,2024,5,14,19,53,53,280,,,,,,,,,0.143555,-0.105225,0.174072,8.605957,-122.314453,-53.710938,,,,,,,,,,,0.0,1.0,1.0,0.0,0.0,0.0,0.0,8.0,0.0,,,,,,,6.56866249129614,-1.4269258946235897,2.24579595722818,2.2251166518390857,-12.52625889443934,6.8390782437756386,14.444074813891596,,14.524888682407555,,,,,,,,,
LBP03_S00,LBP03,-1592,34,0,33,-1592,1715716433.32,2024-05-14 19:53:53.320000+00:00,2024-05-15 04:53:53.320000+09:00,2024,5,14,19,53,53,320,,,,,,,,,0.337646,-0.067627,0.628662,1.89209,-153.625488,-39.489746,,,,,,,,,,,0.0,1.0,1.0,0.0,0.0,0.0,0.0,8.0,0.0,,,,,,,5.749017572442911,-2.724180235605737,2.7477670539779244,2.4550773547368023,-12.63522610386357,6.9489889259347555,14.627535356520616,,14.685547839304439,-0.9771926556060903,,,,,,,,
LBP03_S00,LBP03,-1591,35,0,34,-1591,1715716433.36,2024-05-14 19:53:53.360000+00:00,2024-05-15 04:53:53.360000+09:00,2024,5,14,19,53,53,360,,,,,,,,,0.595459,0.130371,1.154297,-3.479004,-0.305176,7.446289,,,,,,,,,,,0.0,1.0,1.0,0.0,0.0,0.0,0.0,8.0,0.0,,,,,,,4.539899349187254,-3.2250050092053,4.211592288583143,2.6366733287042923,-12.764226304231782,7.117452617478081,14.850442793061381,,14.86809281034821,-0.9851983301019969,,,,,,,,
LBP03_S00,LBP03,-1590,36,0,35,-1590,1715716433.4,2024-05-14 19:53:53.400000+00:00,2024-05-15 04:53:53.400000+09:00,2024,5,14,19,53,53,400,,,,,,,,,0.167969,-0.529053,1.927002,-210.083008,-7.8125,88.378906,,,,,,,,,,,0.0,1.0,1.0,0.0,0.0,0.0,0.0,8.0,0.0,,,,,,,3.587947245020307,-3.0221236407350274,5.995393293840644,2.7801912185051045,-12.885111249861183,7.357268349231707,15.095858792906045,,15.078747161534832,-0.9867328865706329,,,,,,,,
LBP03_S00,LBP03,-1589,37,0,36,-1589,1715716433.44,2024-05-14 19:53:53.440000+00:00,2024-05-15 04:53:53.440000+09:00,2024,5,14,19,53,53,440,,,,,,,,,-0.192871,-0.423828,1.844482,49.499512,7.263184,39.18457,,,,,,,,,,,0.0,1.0,1.0,0.0,0.0,0.0,0.0,8.0,0.0,,,,,,,3.1521833880301395,-2.656596270265299,7.430278904022033,2.90627855402631,-12.991375100671794,7.6544795053925885,15.35621498086112,,15.320537291070476,-0.9742667543196968,,,,,,,,
LBP03_S00,LBP03,-1588,38,0,37,-1588,1715716433.48,2024-05-14 19:53:53.480000+00:00,2024-05-15 04:53:53.480000+09:00,2024,5,14,19,53,53,480,,,,,,,,,0.363525,-0.380859,1.455811,44.799805,70.43457,53.649902,,,,,,,,,,,0.0,1.0,1.0,0.0,0.0,0.0,0.0,8.0,0.0,0.10944658666666666,-0.16337566666666667,0.9971126266666666,2.91666664,-3.6393228666666673,5.55908196,3.0172428513676315,-2.7553827913957267,8.12301986188211,3.0269682680810153,-13.101590412327623,7.979400299867873,15.636017311767597,-0.9771926556060903,15.591530254712671,-0.963403920051074,0.2540784133333333,-0.21748333333333333,0.4586983733333334,0.93026012,0.5676786398116527,0.5676786398116527,0.5676786398116527,0.5676786398116527
LBP03_S00,LBP03,-1587,39,0,38,-1587,1715716433.52,2024-05-14 19:53:53.520000+00:00,2024-05-15 04:53:53.520000+09:00,2024,5,14,19,53,53,520,,,,,,,,,-0.537354,0.008301,-0.011963,91.491699,196.044922,-29.11377,,,,,,,,,,,0.0,1.0,1.0,0.0,0.0,0.0,0.0,8.0,0.0,0.10404294666666666,-0.16088867999999998,0.9739257733333333,3.10221352,-3.8411457733333334,4.1495767599999995,2.717629784295816,-3.626137431465108,8.067621436708478,3.135673459452848,-13.246635909586226,8.302105157336213,15.944615423675945,-0.9932040045979036,15.88571341481969,-0.9645713288755701,-0.6413969466666667,0.16918967999999998,-0.9858887733333332,1.7964753999999998,1.188272638916057,0.8779756393638548,0.8779756393638548,0.8779756393638548
LBP03_S00,LBP03,-1586,40,0,39,-1586,1715716433.56,2024-05-14 19:53:53.560000+00:00,2024-05-15 04:53:53.560000+09:00,2024,5,14,19,53,53,560,,,,,,,,,0.141357,-0.006104,0.206543,31.188965,-124.084473,-44.73877,,,,,,,,,,,0.0,1.0,1.0,0.0,0.0,0.0,0.0,8.0,0.0,0.10234046666666667,-0.15704101333333334,0.9630371066666666,2.88411456,-7.018229106666667,2.7734374400000004,1.8966791733911517,-5.074115165166987,7.531271999017638,3.211540626388494,-13.449600516192906,8.603356037296917,16.285683355162398,-0.9898019995079046,16.196112937575133,-0.9725468732814598,0.03901653333333334,0.15093701333333334,-0.7564941066666666,0.9464476533333332,0.772390837134113,0.8427807052872742,0.8427807052872742,0.8427807052872742
LBP03_S00,LBP03,-1585,41,0,40,-1585,1715716433.6,2024-05-14 19:53:53.600000+00:00,2024-05-15 04:53:53.600000+09:00,2024,5,14,19,53,53,600,,,,,,,,,0.117188,0.001221,0.509521,22.705078,-111.51123,-54.626465,,,,,,,,,,,0.0,1.0,1.0,0.0,0.0,0.0,0.0,8.0,0.0,0.11710609333333333,-0.16028321333333334,0.9744238266666666,1.4868163866666668,-9.351399680000002,3.31787104,0.5503829713631302,-6.5585194787410686,6.822967678491921,3.233555945243019,-13.711941295342548,8.876274744436595,16.65117027348708,-0.9368683575668889,16.51820000549306,-0.9763209000193542,8.19066666666729e-05,0.16150421333333334,-0.4649028266666666,0.6264889466666665,0.49215673913477764,0.7551247137491501,0.7551247137491501,0.7551247137491501
LBP03_S00,LBP03,-1584,42,0,41,-1584,1715716433.64,2024-05-14 19:53:53.640000+00:00,2024-05-15 04:53:53.640000+09:00,2024,5,14,19,53,53,640,,,,,,,,,0.792236,-0.01001,1.065918,-28.381348,-77.880859,6.958008,,,,,,,,,,,0.0,1.0,1.0,0.0,0.0,0.0,0.0,8.0,0.0,0.12003903999999999,-0.15847657333333334,0.98819336,0.6502278533333335,-7.652180933333334,4.42464188,-0.9915650375117597,-7.572240368391618,6.113911990210832,3.1938933437425487,-14.014830910078214,9.120831224045029,17.023689445792925,-0.9199525829765824,16.85156339256449,-0.9792193700458312,0.6721969600000001,0.14846657333333335,0.0777246399999999,0.8983881733333333,0.6927713880449403,0.7426540486083082,0.7426540486083082,0.7426540486083082
LBP03_S00,LBP03,-1583,43,0,42,-1583,1715716433.68,2024-05-14 19:53:53.680000+00:00,2024-05-15 04:53:53.680000+09:00,2024,5,14,19,53,53,680,,,,,,,,,0.15625,-0.118408,1.531494,-143.493652,41.687012,67.626953,,,,,,,,,,,0.0,1.0,1.0,0.0,0.0,0.0,0.0,8.0,0.0,0.11410153333333334,-0.16787109333333333,1.0059049466666667,-1.3907877733333331,-6.079915306666668,6.040039013333334,-2.3056222026797593,-7.97401981093186,5.420606702551758,3.1016684556353584,-14.333791702515487,9.3376554921471,17.38590641496181,-0.9704083729980504,17.199065833898842,-0.9828771820971559,0.04214846666666666,0.04946309333333333,0.5255890533333332,0.6172006133333332,0.5295912988600573,0.707143590316933,0.707143590316933,0.707143590316933
LBP03_S00,LBP03,-1582,44,0,43,-1582,1715716433.72,2024-05-14 19:53:53.720000+00:00,2024-05-15 04:53:53.720000+09:00,2024,5,14,19,53,53,720,,,,,,,,,-0.133057,-0.699951,2.029541,-7.324219,-48.461914,48.095703,,,,,,,,,,,0.0,1.0,1.0,0.0,0.0,0.0,0.0,8.0,0.0,0.10578772,-0.17397461333333333,1.0110709733333332,-0.9269205866666665,-6.586914000000001,6.429036413333333,-3.148041951898034,-8.049571704498042,4.729218175346177,2.9757467775594373,-14.655774570695408,9.526824219160947,17.731530584075056,-1.020400139716799,17.56421463457498,-0.9817123762071327,-0.23884472,-0.5259763866666667,1.0184700266666669,1.7832911333333334,1.1708881905720983,0.7733928189248137,0.7733928189248137,0.7733928189248137
LBP03_S00,LBP03,-1581,45,0,44,-1581,1715716433.76,2024-05-14 19:53:53.760000+00:00,2024-05-15 04:53:53.760000+09:00,2024,5,14,19,53,53,760,,,,,,,,,0.040039,-0.442139,1.634033,24.780273,33.996582,33.26416,,,,,,,,,,,0.0,1.0,1.0,0.0,0.0,0.0,0.0,8.0,0.0,0.10853185333333333,-0.17152344000000003,1.0012695333333332,2.7449544133333337,-5.170898386666667,6.04736324,-3.5645274787285914,-8.279386520572743,4.1319837604394225,2.8331656784102934,-14.986950031518319,9.692103569578524,18.071313472240632,-1.0027390871846151,17.948347819310868,-0.9750402696085043,-0.06849285333333333,-0.27061556,0.6327634666666668,0.9718718800000001,0.6916022390217321,0.7631689964369285,0.7631689964369285,0.7631689964369285
LBP03_S00,LBP03,-1580,46,0,45,-1580,1715716433.8,2024-05-14 19:53:53.800000+00:00,2024-05-15 04:53:53.800000+09:00,2024,5,14,19,53,53,800,,,,,,,,,-0.14624,-0.179932,0.483154,72.631836,202.270508,-6.835938,,,,,,,,,,,0.0,1.0,1.0,0.0,0.0,0.0,0.0,8.0,0.0,0.10506506666666666,-0.16590494666666666,0.9742252666666666,3.9379882666666663,-2.8393554266666676,4.8616536,-3.767012322676218,-8.984767601013647,3.8430727882760767,2.6824851855032446,-15.346340735558865,9.845826481109567,18.429492663620344,-1.0024071302576456,18.34909095170126,-0.9718480955129525,-0.2513050666666667,-0.014027053333333345,-0.4910712666666667,0.7564033866666667,0.5518169838842932,0.7396854394866357,0.7396854394866357,0.7396854394866357
LBP03_S00,LBP03,-1579,47,0,46,-1579,1715716433.84,2024-05-14 19:53:53.840000+00:00,2024-05-15 04:53:53.840000+09:00,2024,5,14,19,53,53,840,,,,,,,,,-0.216064,0.088623,-0.033691,19.226074,-88.562012,-60.791016,,,,,,,,,,,0.0,1.0,1.0,0.0,0.0,0.0,0.0,8.0,0.0,0.09789058666666667,-0.15923828,0.95289388,4.413248693333333,-4.042154906666667,3.5156249466666667,-3.8839497985068556,-10.09201595101996,4.061791898687788,2.52712719356297,-15.750021373599663,10.008298157057078,18.831239394204616,-1.0157974905590785,18.760601050827997,-0.9809093968512788,-0.31395458666666665,0.24786128000000002,-0.98658488,1.5484007466666667,1.0645902601737864,0.7721759215553508,0.7721759215553508,0.7721759215553508
LBP03_S00,LBP03,-1578,48,0,47,-1578,1715716433.88,2024-05-14 19:53:53.880000+00:00,2024-05-15 04:53:53.880000+09:00,2024,5,14,19,53,53,880,,,,,,,,,0.241699,0.05835,0.271973,30.761719,-108.276367,-60.852051,,,,,,,,,,,0.0,1.0,1.0,0.0,0.0,0.0,0.0,8.0,0.0,0.11125971999999999,-0.16199218666666668,0.9624544266666667,2.890625,-8.898111933333334,3.4619140133333333,-3.7814043055018725,-11.168127208123773,4.778455427354599,2.3758710213428955,-16.196746461924615,10.199436374151261,19.287505318528996,-0.9655445967058592,19.17499712131701,-0.9934842179832983,0.13043928,0.22034218666666666,-0.6904814266666667,1.0412628933333332,0.7364303670840862,0.7689263256943267,0.7689263256943267,0.7689263256943267
LBP03_S00,LBP03,-1577,49,0,48,-1577,1715716433.92,2024-05-14 19:53:53.920000+00:00,2024-05-15 04:53:53.920000+09:00,2024,5,14,19,53,53,920,,,,,,,,,0.603027,-0.127686,0.980713,5.981445,-95.214844,-6.530762,,,,,,,,,,,0.0,1.0,1.0,0.0,0.0,0.0,0.0,8.0,0.0,0.11707026666666666,-0.15670246666666668,0.9758919333333334,3.29996744,-6.947428333333334,3.942057253333334,-3.099147571639074,-11.68886410495653,5.678750770468591,2.2519051184773327,-16.664301026122875,10.426586404970005,19.785947271034804,-0.9264829386116191,19.58369488553232,-0.9988444330230317,0.48595673333333333,0.029016466666666685,0.004821066666666596,0.5197942666666666,0.4868461201382082,0.7454196418979836,0.7454196418979836,0.7454196418979836
LBP03_S00,LBP03,-1576,50,0,49,-1576,1715716433.96,2024-05-14 19:53:53.960000+00:00,2024-05-15 04:53:53.960000+09:00,2024,5,14,19,53,53,960,,,,,,,,,0.347412,0.273438,1.205078,-107.299805,66.711426,73.486328,,,,,,,,,,,0.0,1.0,1.0,0.0,0.0,0.0,0.0,8.0,0.0,0.11524084,-0.1649967333333333,0.9962011733333332,-0.28076172000000005,-5.058593693333334,5.5330403200000005,-1.4969494869237867,-11.336744659794174,6.24759466400936,2.1920271390003814,-17.117770812514642,10.676490191530378,20.293114679066317,-0.9578802585523858,19.977549998830803,-0.999842899743592,0.23217116,0.4384347333333333,0.20887682666666685,0.8794827200000002,0.5382917347007601,0.7294867259597356,0.7294867259597356,0.7294867259597356
LBP03_S00,LBP03,-1575,51,0,50,-1575,1715716434.0,2024-05-14 19:53:54+00:00,2024-05-15 04:53:54+09:00,2024,5,14,19,53,54,0,19.0,53.0,52.0,40.549194,141.555679,12.908,3.0,14.0,-0.199463,-1.009521,2.218018,-72.814941,-67.016602,60.48584,-258.0,23.0,364.0,660.0,0.0,1013.900024,16.82,0.008919,-5.407315,0.0,0.0,1.0,1.0,0.0,0.0,0.0,0.0,4.0,0.0,0.10351232,-0.17299477333333332,1.006403,-0.058593746666666724,-4.833170506666667,5.964355426666667,1.0407558105213486,-10.125765008388452,6.034887111823686,2.233657371421235,-17.522801412850182,10.917885676003326,20.766271264754476,-1.0274813709501518,20.34582476387214,-1.000671993049225,-0.30297532,-0.8365262266666665,1.2116149999999999,2.3511165466666664,1.503190300878526,0.7847512670253635,0.7847512670253635,0.7847512670253635
LBP03_S00,LBP03,-1574,52,0,51,-1574,1715716434.04,2024-05-14 19:53:54.040000+00:00,2024-05-15 04:53:54.040000+09:00,2024,5,14,19,53,54,40,,,,,,,,,-0.009277,-0.401367,1.672119,-6.713867,4.150391,39.733887,,,,,,,,,,,0.0,1.0,1.0,0.0,0.0,0.0,0.0,4.0,0.0,0.10316726666666666,-0.17995114666666667,1.0077506666666667,2.39095052,-4.706217386666667,5.5639648,4.050656446760016,-8.299144843420107,4.921308144900289,2.3956836292916357,-17.854767206586985,11.114738001799338,21.167650150683052,-1.0457007942967782,20.675309577799084,-0.9974503318907321,-0.11244426666666665,-0.2214158533333333,0.6643683333333332,0.9982284533333332,0.7092629805295378,0.7797187145923083,0.7797187145923083,0.7797187145923083
LBP03_S00,LBP03,-1573,53,0,52,-1573,1715716434.08,2024-05-14 19:53:54.080000+00:00,2024-05-15 04:53:54.080000+09:00,2024,5,14,19,53,54,80,,,,,,,,,0.012939,-0.069824,0.772705,85.81543,182.739258,24.414062,,,,,,,,,,,0.0,1.0,1.0,0.0,0.0,0.0,0.0,4.0,0.0,0.10320958666666666,-0.17116534666666666,0.98450196,3.8289388,-1.4477538400000003,5.066731719999999,6.7173747212046955,-6.110391634184891,3.2069576273310303,2.6643786181398235,-18.09918287195438,11.24301630689258,21.472884057114914,-1.0240105233953845,20.951238007279393,-0.9925346434247947,-0.09027058666666665,0.10134134666666667,-0.21179696000000003,0.40340889333333335,0.25154880167991117,0.7467080950352836,0.7467080950352836,0.7467080950352836
LBP03_S00,LBP03,-1572,54,0,53,-1572,1715716434.12,2024-05-14 19:53:54.120000+00:00,2024-05-15 04:53:54.120000+09:00,2024,5,14,19,53,54,120,,,,,,,,,-0.31543,0.067627,-0.158447,60.668945,-31.37207,-80.078125,,,,,,,,,,,0.0,1.0,1.0,0.0,0.0,0.0,0.0,4.0,0.0,0.09708328,-0.16329425333333333,0.9617610666666667,3.8248698000000005,-3.113606706666667,4.090169213333334,8.233934248985017,-3.667935024676794,1.4545793284971968,2.9937359880992243,-18.24590027294145,11.301199480032468,21.670081717059848,-1.0303848069224013,21.160473623313656,-1.0004562353643873,-0.41251328,0.23092125333333335,-1.1202080666666667,1.7636426,1.2158774379198207,0.7743062916755504,0.7743062916755504,0.7743062916755504
LBP03_S00,LBP03,-1571,55,0,54,-1571,1715716434.16,2024-05-14 19:53:54.160000+00:00,2024-05-15 04:53:54.160000+09:00,2024,5,14,19,53,54,160,,,,,,,,,0.15332,-0.016602,0.173584,67.749023,-86.914062,-76.904297,,,,,,,,,,,0.0,1.0,1.0,0.0,0.0,0.0,0.0,4.0,0.0,0.10126948,-0.16301430666666666,0.9620149733333333,2.6293945466666666,-6.715494733333333,3.44482416,8.188911259975965,-0.9693448902907313,0.17888055657158253,3.3212924384982627,-18.28467406855308,11.30835470229533,21.754061122654043,-1.0110300202409437,21.295777689128226,-1.0145820031680473,0.05205052000000002,0.14641230666666666,-0.7884309733333333,0.9868938,0.8035976728979943,0.7759335906323529,0.7759335906323529,0.7759335906323529
LBP03_S00,LBP03,-1570,56,0,55,-1570,1715716434.2,2024-05-14 19:53:54.200000+00:00,2024-05-15 04:53:54.200000+09:00,2024,5,14,19,53,54,200,,,,,,,,,0.513672,-0.015381,0.59668,30.639648,-139.587402,-15.441895,,,,,,,,,,,0.0,1.0,1.0,0.0,0.0,0.0,0.0,4.0,0.0,0.11270177333333331,-0.16577798666666665,0.97544596,2.2794596533333333,-6.5413410800000005,4.1756184266666665,6.747863770582754,1.9013953818145395,-0.4230671415536698,3.591206989321573,-18.2086182532805,11.291432016633184,21.724340802889756,-0.9701905186727193,21.3591427269549,-1.0242843508606339,0.4009702266666667,0.15039698666666665,-0.37876595999999996,0.9301331733333333,0.5717167381896853,0.7651853352406336,0.7651853352406336,0.7651853352406336
LBP03_S00,LBP03,-1569,57,0,56,-1569,1715716434.24,2024-05-14 19:53:54.240000+00:00,2024-05-15 04:53:54.240000+09:00,2024,5,14,19,53,54,240,,,,,,,,,0.288818,0.195312,1.163818,-67.260742,80.932617,35.217285,,,,,,,,,,,0.0,1.0,1.0,0.0,0.0,0.0,0.0,4.0,0.0,0.11188797333333333,-0.16324869333333333,0.9889648399999998,0.6209310000000001,-4.34000644,5.77555332,4.524162017427648,4.588375134620445,-0.5303719143087033,3.7721734700186786,-18.02508324789568,11.270217140060836,21.590523689007714,-0.9666406058997041,21.362627529190576,-1.027737199448678,0.17693002666666668,0.35856069333333335,0.17485316000000017,0.7103438800000003,0.43639847926171077,0.7487459924416874,0.7487459924416874,0.7487459924416874
LBP03_S00,LBP03,-1568,58,0,57,-1568,1715716434.28,2024-05-14 19:53:54.280000+00:00,2024-05-15 04:53:54.280000+09:00,2024,5,14,19,53,54,280,,,,,,,,,-0.200439,-0.823486,2.022217,-151.550293,37.231445,55.908203,,,,,,,,,,,0.0,1.0,1.0,0.0,0.0,0.0,0.0,4.0,0.0,0.1004394,-0.17471353333333337,1.0055533866666666,-0.09114581333333328,-2.6253254533333332,6.373697853333334,2.2303589349417408,6.473783136276425,-0.5162982489974203,3.8613878274163485,-17.76613192244462,11.24956521010094,21.379861478871614,-1.0447605161017868,21.326375565382087,-1.027464454219145,-0.3008784,-0.6487724666666667,1.0166636133333333,1.9663144799999999,1.242995747284479,0.772281695053249,0.772281695053249,0.772281695053249
LBP03_S00,LBP03,-1567,59,0,58,-1567,1715716434.32,2024-05-14 19:53:54.320000+00:00,2024-05-15 04:53:54.320000+09:00,2024,5,14,19,53,54,320,,,,,,,,,0.067139,-0.418701,1.830322,29.663086,-33.38623,38.574219,,,,,,,,,,,0.0,1.0,1.0,0.0,0.0,0.0,0.0,4.0,0.0,0.09876622666666668,-0.18148436,1.01233072,1.8668619999999998,-3.4578449866666663,5.856933533333334,0.3388783996688576,6.9196128591400425,-0.654522981457559,3.874942963403103,-17.48934740807902,11.223384290842638,21.138987929180548,-1.0677406166482175,21.274860437129643,-1.025995459853011,-0.031627226666666675,-0.23721663999999998,0.81799128,1.0868351466666666,0.8522803235529686,0.7759179963486907,0.7759179963486907,0.7759179963486907
LBP03_S00,LBP03,-1566,60,0,59,-1566,1715716434.36,2024-05-14 19:53:54.360000+00:00,2024-05-15 04:53:54.360000+09:00,2024,5,14,19,53,54,360,,,,,,,,,0.189941,-0.392578,1.341553,33.813477,70.739746,30.029297,,,,,,,,,,,0.0,1.0,1.0,0.0,0.0,0.0,0.0,4.0,0.0,0.09664382666666665,-0.1721354,0.9942024666666669,3.481445333333333,-0.6982421199999999,5.488281199999999,-1.0373021830388616,5.605491259788662,-0.908998690099429,3.8334508760815487,-17.265127757687473,11.187024343238662,20.926765057333046,-1.0549037354782516,21.23318405474161,-1.0213343187389636,0.09329717333333334,-0.2204426,0.3473505333333331,0.6610903066666665,0.4218432119327049,0.7605234405045174,0.7605234405045174,0.7605234405045174
LBP03_S00,LBP03,-1565,61,0,60,-1565,1715716434.4,2024-05-14 19:53:54.400000+00:00,2024-05-15 04:53:54.400000+09:00,2024,5,14,19,53,54,400,,,,,,,,,-0.489014,0.171143,-0.138428,102.233887,194.091797,-42.236328,,,,,,,,,,,0.0,1.0,1.0,0.0,0.0,0.0,0.0,4.0,0.0,0.08999668,-0.16292315999999998,0.9666048133333334,3.64827476,-1.1881509733333333,3.969726519999999,-2.00193051172576,2.7569618761582406,-0.9397391096932116,3.7533736556125183,-17.154849282641145,11.149434778850933,20.801119287111216,-1.062009856830594,21.22485109940414,-1.0257739981018645,-0.57901068,0.33406616,-1.1050328133333334,2.018109653333333,1.2914918061507745,0.7826471224064449,0.7826471224064449,0.7826471224064449
LBP03_S00,LBP03,-1564,62,0,61,-1564,1715716434.44,2024-05-14 19:53:54.440000+00:00,2024-05-15 04:53:54.440000+09:00,2024,5,14,19,53,54,440,,,,,,,,,0.104004,-0.251221,0.309326,-12.939453,-152.282715,-48.64502,,,,,,,,,,,0.0,1.0,1.0,0.0,0.0,0.0,0.0,4.0,0.0,0.09444329333333333,-0.16352862666666668,0.9637206933333332,2.38281252,-6.027831973333334,3.1567382399999997,-2.6202895791130283,-0.8905025510726653,-0.31486094284752525,3.648562072447997,-17.19046938468405,11.136840341137033,20.805130512598158,-1.0429733420014462,21.27103704772029,-1.0372190826537109,0.009560706666666668,-0.08769237333333335,-0.6543946933333332,0.7516477733333332,0.6603133908347051,0.7777537731435753,0.7777537731435753,0.7777537731435753
LBP03_S00,LBP03,-1563,63,0,62,-1563,1715716434.48,2024-05-14 19:53:54.480000+00:00,2024-05-15 04:53:54.480000+09:00,2024,5,14,19,53,54,480,,,,,,,,,0.306396,-0.032715,0.552734,41.931152,-96.313477,-58.47168,,,,,,,,,,,0.0,1.0,1.0,0.0,0.0,0.0,0.0,4.0,0.0,0.10453769333333333,-0.16767252000000002,0.9752831866666666,1.5641276266666666,-6.449381453333333,3.6596679199999995,-2.766949224578843,-4.404400229832399,1.2099613284038604,3.5378841034648434,-17.366645393877345,11.185238794273188,20.95773277459049,-1.009320579734046,21.39015340878943,-1.0449345970905772,0.20185830666666665,0.13495752000000003,-0.42254918666666663,0.7593650133333333,0.4873480515273924,0.7745405496122048,0.7665843223121835,0.7665843223121835
LBP03_S00,LBP03,-1562,64,0,63,-1562,1715716434.52,2024-05-14 19:53:54.520000+00:00,2024-05-15 04:53:54.520000+09:00,2024,5,14,19,53,54,520,,,,,,,,,0.599609,0.078369,1.109863,-14.099121,-53.222656,-4.699707,,,,,,,,,,,0.0,1.0,1.0,0.0,0.0,0.0,0.0,4.0,0.0,0.10761712000000001,-0.16299478666666667,0.9866113199999998,1.6381836133333336,-4.52636712,4.8079426666666665,-2.1951769781631643,-7.0814917791359,3.5224130357901737,3.450077024338317,-17.64990506504278,11.326135315704795,21.25331789317953,-0.9837733957819276,21.596554016190613,-1.0468028708187769,0.49199187999999994,0.24136378666666666,0.1232516800000002,0.8566073466666668,0.5616969504304158,0.7494775220727792,0.7589959011313774,0.7589959011313774
LBP03_S00,LBP03,-1561,65,0,64,-1561,1715716434.56,2024-05-14 19:53:54.560000+00:00,2024-05-15 04:53:54.560000+09:00,2024,5,14,19,53,54,560,,,,,,,,,0.24292,-0.063965,1.57251,-184.753418,20.690918,74.707031,,,,,,,,,,,0.0,1.0,1.0,0.0,0.0,0.0,0.0,4.0,0.0,0.09681958666666667,-0.17263997333333334,1.0032128799999998,-0.02685543999999974,-2.3689778,5.8732096,-0.773687163249646,-8.732477644580571,6.198056934849422,3.419129537808331,-17.999204170826005,11.574057593098772,21.670731569279358,-1.055426813869952,21.898324588529015,-1.0459296092604693,0.14610041333333335,0.10867497333333334,0.5692971200000003,0.824072506666667,0.5977079482870093,0.7424902065188951,0.7532356171012214,0.7532356171012214
LBP03_S00,LBP03,-1560,66,0,65,-1560,1715716434.6,2024-05-14 19:53:54.600000+00:00,2024-05-15 04:53:54.600000+09:00,2024,5,14,19,53,54,600,,,,,,,,,-0.081055,-0.623535,1.974854,24.414062,-19.958496,45.959473,,,,,,,,,,,0.0,1.0,1.0,0.0,0.0,0.0,0.0,4.0,0.0,0.09427401333333334,-0.1804362,1.0095019333333333,1.184082066666667,-3.595377546666666,5.437011679999999,1.2937746571584403,-9.656265451793743,8.721038486989475,3.4708805240946687,-18.385454788897754,11.922899132578351,22.186200286051253,-1.084641364191182,22.295194811017293,-1.040287699739579,-0.17532901333333334,-0.44309879999999996,0.9653520666666668,1.5837798800000003,1.0765599946568167,0.7658663367397766,0.7643847335686557,0.7643847335686557
LBP03_S00,LBP03,-1559,67,0,66,-1559,1715716434.64,2024-05-14 19:53:54.640000+00:00,2024-05-15 04:53:54.640000+09:00,2024,5,14,19,53,54,640,,,,,,,,,0.065674,-0.315918,1.518799,6.835938,32.226562,43.457031,,,,,,,,,,,0.0,1.0,1.0,0.0,0.0,0.0,0.0,4.0,0.0,0.09787426666666667,-0.16981770666666668,0.99314452,3.8281250399999998,-1.1938476,5.135904906666666,3.453310481085468,-10.340399541562096,10.730897597663153,3.6090129433380875,-18.79907077056024,12.352135036484878,22.781687299699104,-1.0437957502683701,22.77789110813268,-1.030978444831203,-0.03220026666666667,-0.1461002933333333,0.52565448,0.70395504,0.5465297660965603,0.7600166718618414,0.7571229013195858,0.7571229013195858
LBP03_S00,LBP03,-1558,68,0,67,-1558,1715716434.68,2024-05-14 19:53:54.680000+00:00,2024-05-15 04:53:54.680000+09:00,2024,5,14,19,53,54,680,,,,,,,,,-0.227539,0.011719,0.254395,120.788574,226.318359,18.554688,,,,,,,,,,,0.0,1.0,1.0,0.0,0.0,0.0,0.0,4.0,0.0,0.08964834666666667,-0.16284178666666668,0.9672818933333334,4.366862013333334,-0.14485672000000002,3.514811146666666,5.040330797962308,-11.09577369144252,12.13741638120974,3.81062617525658,-19.24290171821794,12.837631691733268,23.443867552883418,-1.0634432533837797,23.32962652557175,-1.029555413533362,-0.31718734666666665,0.1745607866666667,-0.7128868933333334,1.2046350266666668,0.7995542532021058,0.7708151900355233,0.7584916546061187,0.7584916546061187
LBP03_S00,LBP03,-1557,69,0,68,-1557,1715716434.72,2024-05-14 19:53:54.720000+00:00,2024-05-15 04:53:54.720000+09:00,2024,5,14,19,53,54,720,,,,,,,,,0.0,0.126709,0.143311,33.081055,-147.705078,-46.386719,,,,,,,,,,,0.0,1.0,1.0,0.0,0.0,0.0,0.0,4.0,0.0,0.08946932,-0.1608138,0.9565885333333334,3.75244144,-4.06249996,2.5284830266666667,5.6361828716138405,-11.866594916087065,13.044208467689039,4.036073490121134,-19.717565514861423,13.35940003044083,24.15669365256457,-1.059008001065144,23.929342066222112,-1.0356469736294152,-0.08946932,0.28752279999999997,-0.8132775333333334,1.1902696533333335,0.8672338012127143,0.758669014461148,0.7618898466875749,0.7618898466875749
LBP03_S00,LBP03,-1556,70,0,69,-1556,1715716434.76,2024-05-14 19:53:54.760000+00:00,2024-05-15 04:53:54.760000+09:00,2024,5,14,19,53,54,760,,,,,,,,,0.137451,0.141113,0.337402,27.404785,-111.877441,-65.612793,,,,,,,,,,,0.0,1.0,1.0,0.0,0.0,0.0,0.0,4.0,0.0,0.10491204,-0.1642089866666667,0.9692285066666667,2.5415039333333334,-7.368164026666666,3.109537706666666,5.3101242646201845,-12.332041779176373,13.55670356362022,4.248478460705941,-20.210847186028477,13.901668172985637,24.89546728221584,-0.9984846402693482,24.555372443325503,-1.0435305877222947,0.03253895999999999,0.30532198666666666,-0.6318265066666667,0.9696874533333334,0.7024848994722699,0.7591043208791696,0.7600896967719596,0.7600896967719596
LBP03_S00,LBP03,-1555,71,0,70,-1555,1715716434.8,2024-05-14 19:53:54.800000+00:00,2024-05-15 04:53:54.800000+09:00,2024,5,14,19,53,54,800,,,,,,,,,0.751953,-0.047852,1.074707,-5.493164,-118.835449,4.577637,,,,,,,,,,,0.0,1.0,1.0,0.0,0.0,0.0,0.0,4.0,0.0,0.10863273333333331,-0.15924153333333335,0.9831119733333334,2.6350911733333335,-5.099283826666667,4.216308546666666,4.585582443610206,-12.201608750978258,13.62992061796542,4.4319017584503495,-20.69891153606761,14.446864997704253,25.62808225826506,-0.9689173077468328,25.187946882024086,-1.0442233614460126,0.6433202666666666,0.11138953333333335,0.09159502666666663,0.8463048266666666,0.6592861613520765,0.7634030879778808,0.7571248869066689,0.7571248869066689
LBP03_S00,LBP03,-1554,72,0,71,-1554,1715716434.84,2024-05-14 19:53:54.840000+00:00,2024-05-15 04:53:54.840000+09:00,2024,5,14,19,53,54,840,,,,,,,,,0.172852,0.15625,1.279297,-99.731445,89.782715,72.814941,,,,,,,,,,,0.0,1.0,1.0,0.0,0.0,0.0,0.0,4.0,0.0,0.10175122666666667,-0.17050781333333334,1.0030371066666668,0.32633466666666666,-2.568359346666667,5.59895828,4.147682069822926,-11.45961058417412,13.079443694744475,4.597809041243266,-21.157295959434574,14.970042745494032,26.32248468698887,-1.028743029023037,25.809619576039115,-1.0425212033803488,0.07110077333333334,0.3267578133333333,0.2762598933333331,0.6741184799999997,0.4337574405212251,0.7381697751917784,0.7478858170099419,0.7478858170099419
LBP03_S00,LBP03,-1553,73,0,72,-1553,1715716434.88,2024-05-14 19:53:54.880000+00:00,2024-05-15 04:53:54.880000+09:00,2024,5,14,19,53,54,880,,,,,,,,,-0.116699,-0.758545,2.149658,-57.739258,-10.314941,58.105469,,,,,,,,,,,0.0,1.0,1.0,0.0,0.0,0.0,0.0,4.0,0.0,0.0955468,-0.1765201866666667,1.0110644533333335,0.83251956,-2.4975585600000003,6.154785106666666,4.4707079754250465,-10.36767577703427,11.752833027698815,4.776637360260268,-21.572002990515944,15.440156066601984,26.954888181094148,-1.0702361806945777,26.404066947417732,-1.0394132018506401,-0.21224579999999998,-0.5820248133333333,1.1385935466666666,1.9328641599999998,1.2962239110062428,0.7605615169486646,0.7631174307320614,0.7631174307320614
LBP03_S00,LBP03,-1552,74,0,73,-1552,1715716434.92,2024-05-14 19:53:54.920000+00:00,2024-05-15 04:53:54.920000+09:00,2024,5,14,19,53,54,920,,,,,,,,,0.172852,-0.429688,1.775146,15.441895,-16.540527,51.940918,,,,,,,,,,,0.0,1.0,1.0,0.0,0.0,0.0,0.0,4.0,0.0,0.09660800000000001,-0.17527018666666666,1.00202148,4.228515653333333,-0.882161426666667,5.512695266666666,5.589762315359251,-9.236924618298739,9.730032781919654,5.000227852874638,-21.941479975247894,15.82935737787877,27.513621664213396,-1.0626095367107211,26.95480342818569,-1.032013493368721,0.07624399999999999,-0.25441781333333335,0.7731245199999999,1.1037863333333333,0.8174736048965404,0.7737866163389979,0.7645865165202905,0.7645865165202905
LBP03_S00,LBP03,-1551,75,0,74,-1551,1715716434.96,2024-05-14 19:53:54.960000+00:00,2024-05-15 04:53:54.960000+09:00,2024,5,14,19,53,54,960,,,,,,,,,0.00293,-0.124268,0.756836,79.406738,169.494629,17.63916,,,,,,,,,,,0.0,1.0,1.0,0.0,0.0,0.0,0.0,4.0,0.0,0.09137037333333334,-0.16557292,0.9738899733333333,4.729817733333333,0.12776694666666646,4.2089843333333326,7.143068137234043,-8.153595114323435,7.390056755789162,5.285950578364,-22.26762377982083,16.124959648110337,27.9964759562652,-1.0623545511071337,27.44532970505919,-1.0274722274236325,-0.08844037333333334,0.04130492000000001,-0.21705397333333332,0.34679926666666666,0.2379920658159283,0.7617746295836046,0.7507287678175442,0.7507287678175442
LBP03_S00,LBP03,-1550,76,0,75,-1550,1715716435.0,2024-05-14 19:53:55+00:00,2024-05-15 04:53:55+09:00,2024,5,14,19,53,55,0,19.0,53.0,53.0,40.549282,141.555695,12.628,3.0,14.0,-0.337402,0.084717,-0.171631,44.799805,-56.396484,-57.556152,-259.0,30.0,365.0,914.0,0.0,1014.299988,16.889999,0.012883,-8.733069,0.0,0.0,1.0,1.0,0.0,0.0,0.0,0.0,4.0,0.0,0.08834304000000001,-0.16209310666666668,0.9571874933333333,4.755859399999999,-1.8473307066666667,2.8450520399999992,8.632402953407134,-6.867396606916181,5.271620247853867,5.631246696500285,-22.54231964409748,16.335824458024494,28.402927226201523,-1.0676197835345436,27.860994116872167,-1.0357081109385338,-0.42574504,0.2468101066666667,-1.1288184933333334,1.80137364,1.2314240775333045,0.7509039806497958,0.7630542885794868,0.7630542885794868
LBP03_S00,LBP03,-1549,77,0,76,-1549,1715716435.04,2024-05-14 19:53:55.040000+00:00,2024-05-15 04:53:55.040000+09:00,2024,5,14,19,53,55,40,,,,,,,,,0.092529,-0.005859,0.206299,73.730469,-60.058594,-66.711426,,,,,,,,,,,0.0,1.0,1.0,0.0,0.0,0.0,0.0,4.0,0.0,0.10200841333333333,-0.16484376000000003,0.9672656133333334,3.3585612266666667,-6.341959613333334,2.8426106399999997,9.710863151578062,-4.941019284338157,3.8012202134383015,6.019681222563407,-22.739960415471003,16.487873266562026,28.726161013485275,-1.0127157349712825,28.191475624516254,-1.0466175345750472,-0.009479413333333325,0.15898476000000003,-0.7609666133333334,0.9294307866666667,0.7774549503330754,0.7536316594419372,0.7634143051233264,0.7634143051233264
LBP03_S00,LBP03,-1548,78,0,77,-1548,1715716435.08,2024-05-14 19:53:55.080000+00:00,2024-05-15 04:53:55.080000+09:00,2024,5,14,19,53,55,80,,,,,,,,,0.594971,-0.066895,0.657959,5.004883,-147.216797,-24.353027,,,,,,,,,,,0.0,1.0,1.0,0.0,0.0,0.0,0.0,4.0,0.0,0.10483393333333334,-0.16075521333333334,0.9800585866666668,2.6277669599999998,-3.873697893333334,3.6865234133333327,10.303478028124433,-2.082645185004665,3.0621697297913246,6.4318203436883845,-22.82326622287119,16.61036005575368,28.95123236056307,-0.9894461685645903,28.432418073947844,-1.051417437581676,0.4901370666666667,0.09386021333333334,-0.3220995866666668,0.9060968666666669,0.5939631533171237,0.7673282335074257,0.7592813502012239,0.7592813502012239
LBP03_S00,LBP03,-1547,79,0,78,-1547,1715716435.12,2024-05-14 19:53:55.120000+00:00,2024-05-15 04:53:55.120000+09:00,2024,5,14,19,53,55,120,,,,,,,,,0.349121,0.131592,1.187256,-41.564941,58.288574,24.963379,,,,,,,,,,,0.0,1.0,1.0,0.0,0.0,0.0,0.0,4.0,0.0,0.10403314666666667,-0.16841797333333333,0.9988346399999999,-0.4817708000000001,-1.8538411333333336,5.42887368,10.49369394258323,1.5547578234498864,2.762192004114183,6.851568101391714,-22.761075909933194,16.720847735918248,29.061956421299513,-1.0135953416142578,28.585496881177455,-1.0502378552950098,0.24508785333333333,0.30000997333333335,0.1884213600000002,0.7335191866666668,0.43078608247627803,0.735924579289684,0.7514600343030109,0.7514600343030109
LBP03_S00,LBP03,-1546,80,0,79,-1546,1715716435.16,2024-05-14 19:53:55.160000+00:00,2024-05-15 04:53:55.160000+09:00,2024,5,14,19,53,55,160,,,,,,,,,-0.103516,-0.76123,1.969238,-151.306152,14.831543,72.387695,,,,,,,,,,,0.0,1.0,1.0,0.0,0.0,0.0,0.0,4.0,0.0,0.09033197333333334,-0.17110677333333332,1.00938152,0.5110677466666665,-0.7080078000000001,5.783691386666666,10.280840001676664,5.317750342292865,2.4310063767276437,7.2628017014587805,-22.548365896241478,16.818087990987355,29.052111400345613,-1.08084347541836,28.657317595822814,-1.0469686963326716,-0.19384797333333334,-0.5901232266666666,0.95985648,1.7438276799999999,1.14330526178047,0.7495128828449831,0.760572714011789,0.760572714011789
LBP03_S00,LBP03,-1545,81,0,80,-1545,1715716435.2,2024-05-14 19:53:55.200000+00:00,2024-05-15 04:53:55.200000+09:00,2024,5,14,19,53,55,200,,,,,,,,,0.054443,-0.379883,1.662598,28.564453,-21.240234,45.959473,,,,,,,,,,,0.0,1.0,1.0,0.0,0.0,0.0,0.0,4.0,0.0,0.09367506666666667,-0.17633138666666667,1.0104199333333335,2.759602893333333,-0.5387369733333335,5.371907533333333,9.417922324692498,8.295699386271112,1.7264847297375119,7.63951859444648,-22.216537920790632,16.887147380176856,28.932897334705967,-1.0780115441119704,28.658175033855866,-1.038328634379258,-0.03923206666666667,-0.20355161333333335,0.6521780666666666,0.8949617466666666,0.6843308008460612,0.7540174453512382,0.7588399432580225,0.7588399432580225
LBP03_S00,LBP03,-1544,82,0,81,-1544,1715716435.24,2024-05-14 19:53:55.240000+00:00,2024-05-15 04:53:55.240000+09:00,2024,5,14,19,53,55,240,,,,,,,,,0.298828,-0.244873,1.160156,72.692871,118.164062,45.959473,,,,,,,,,,,0.0,1.0,1.0,0.0,0.0,0.0,0.0,4.0,0.0,0.08903965333333333,-0.16700196,0.9823307466666668,4.6142578400000005,2.43570964,4.378255186666667,7.49364162121857,9.731329170616474,0.6542675087708445,7.939264259295223,-21.827284753965973,16.913318080527688,28.731909181304722,-1.0767420590893253,28.601476567716947,-1.0309502477683175,0.20978834666666665,-0.07787104,0.1778252533333332,0.4654846399999999,0.2858266432488043,0.7479945719107218,0.748328536591151,0.748328536591151
LBP03_S00,LBP03,-1543,83,0,82,-1543,1715716435.28,2024-05-14 19:53:55.280000+00:00,2024-05-15 04:53:55.280000+09:00,2024,5,14,19,53,55,280,,,,,,,,,-0.531738,0.11377,-0.135254,116.760254,149.353027,-72.08252,,,,,,,,,,,0.0,1.0,1.0,0.0,0.0,0.0,0.0,4.0,0.0,0.09004877333333333,-0.16163086666666668,0.9638476800000001,4.8844401333333325,0.8789062533333332,3.0761718533333333,4.239976934244702,9.368549184567765,-0.43762844912647164,8.108863336665012,-21.452542786583262,16.895812942562628,28.48567625339027,-1.0584403578279122,28.503823362591596,-1.0349447679950772,-0.6217867733333333,0.2754008666666667,-1.0991016800000002,1.9962893200000003,1.2924739578930988,0.7499737003350667,0.7601577848803238,0.7601577848803238
LBP03_S00,LBP03,-1542,84,0,83,-1542,1715716435.32,2024-05-14 19:53:55.320000+00:00,2024-05-15 04:53:55.320000+09:00,2024,5,14,19,53,55,320,,,,,,,,,0.015869,-0.001465,0.111084,31.921387,-85.388184,-57.312012,,,,,,,,,,,0.0,1.0,1.0,0.0,0.0,0.0,0.0,4.0,0.0,0.09458653333333333,-0.15883789333333334,0.9651204666666668,4.296061226666666,-3.664550786666667,2.464192693333333,-0.14212651161682818,7.5396324542987525,-1.0791884422759872,8.103178276200339,-21.15095748841131,16.852645404871588,28.231828810666997,-1.0299179470873414,28.385016061141506,-1.0443472394572813,-0.07871753333333334,0.15737289333333335,-0.8540364666666669,1.0901268933333337,0.8719753230491526,0.7507615003149141,0.7625368814371073,0.7625368814371073
LBP03_S00,LBP03,-1541,85,0,84,-1541,1715716435.36,2024-05-14 19:53:55.360000+00:00,2024-05-15 04:53:55.360000+09:00,2024,5,14,19,53,55,360,,,,,,,,,0.434814,-0.081787,0.681396,-33.630371,-163.757324,-40.039062,,,,,,,,,,,0.0,1.0,1.0,0.0,0.0,0.0,0.0,4.0,0.0,0.10735670666666666,-0.15980794666666664,0.9820215066666667,3.698730506666666,-2.804361986666667,3.4391275999999995,-4.886376619221205,4.943353031582961,-0.9642077940369413,7.907723211431491,-20.95322336714799,16.81407709311011,28.005050336595705,-0.9759539315729936,28.26713973800319,-1.0489169149122086,0.3274572933333333,0.07802094666666665,-0.30062550666666665,0.7061037466666666,0.451321661716503,0.751940638306266,0.7560532310262614,0.7560532310262614
LBP03_S00,LBP03,-1540,86,0,85,-1540,1715716435.4,2024-05-14 19:53:55.400000+00:00,2024-05-15 04:53:55.400000+09:00,2024,5,14,19,53,55,400,,,,,,,,,0.543945,0.094971,1.286133,-2.563477,26.367188,1.77002,,,,,,,,,,,0.0,1.0,1.0,0.0,0.0,0.0,0.0,4.0,0.0,0.10523432,-0.16291993333333332,1.0016732,0.7071940399999994,-0.9383138133333337,5.32877604,-8.896696458711675,2.2625549807405143,-0.11684083796135135,7.551855353083024,-20.86272116791837,16.809403459591657,27.835942564812314,-0.9938359174251421,28.172388805565493,-1.0459433525470516,0.43871068,0.25789093333333335,0.28445980000000004,0.9810614133333334,0.5830027204547508,0.723601074878425,0.7525215879533735,0.7525215879533735
LBP03_S00,LBP03,-1539,87,0,86,-1539,1715716435.44,2024-05-14 19:53:55.440000+00:00,2024-05-15 04:53:55.440000+09:00,2024,5,14,19,53,55,440,,,,,,,,,-0.023682,-0.60791,1.98291,-199.768066,22.705078,68.42041,,,,,,,,,,,0.0,1.0,1.0,0.0,0.0,0.0,0.0,4.0,0.0,0.09517898666666667,-0.16850261333333333,1.0143066666666665,0.6640625333333329,0.05533853333333288,5.928548173333333,-11.198805671389426,-0.12715435816028425,1.1547898729907584,7.103903126227447,-20.86780734224478,16.855595054511287,27.74962896223181,-1.0526609372388798,28.12003473680566,-1.0415361643052854,-0.11886098666666667,-0.4394073866666666,0.9686033333333335,1.5268717066666668,1.0702332469854634,0.7399978691244553,0.7588758211340152,0.7588758211340152
LBP03_S00,LBP03,-1538,88,0,87,-1538,1715716435.48,2024-05-14 19:53:55.480000+00:00,2024-05-15 04:53:55.480000+09:00,2024,5,14,19,53,55,480,,,,,,,,,-0.174805,-0.597656,1.974854,1.953125,-20.507812,31.12793,,,,,,,,,,,0.0,1.0,1.0,0.0,0.0,0.0,0.0,4.0,0.0,0.09433914666666667,-0.17999025333333332,1.0211621333333334,1.90917972,-0.44921876000000055,5.367838533333333,-11.351467795968322,-2.1902152599736144,2.4638192024932,6.649844414388714,-20.955415952643726,16.954147822611016,27.763159346062146,-1.0834708831866304,28.12351695505081,-1.03156752396221,-0.26914414666666664,-0.41766574666666667,0.9536918666666667,1.64050176,1.0753657164749597,0.763518575722358,0.7690295626672814,0.7650815053563867
LBP03_S00,LBP03,-1537,89,0,88,-1537,1715716435.52,2024-05-14 19:53:55.520000+00:00,2024-05-15 04:53:55.520000+09:00,2024,5,14,19,53,55,520,,,,,,,,,0.240723,-0.484863,1.686768,22.399902,32.470703,40.161133,,,,,,,,,,,0.0,1.0,1.0,0.0,0.0,0.0,0.0,4.0,0.0,0.09232417333333333,-0.16603192,0.99544924,4.0755208666666665,3.309733066666666,4.418131493333333,-9.585831547880078,-4.034040953037508,3.5558401236460946,6.266411152473511,-21.116777590765228,17.09638142755686,27.883193189916398,-1.0592920961635304,28.18872618177219,-1.0236265029315568,0.14839882666666665,-0.31883108,0.69131876,1.1585486666666667,0.7756269059657146,0.77207577394377,0.7607766480082746,0.7652843015219507
LBP03_S00,LBP03,-1536,90,0,89,-1536,1715716435.56,2024-05-14 19:53:55.560000+00:00,2024-05-15 04:53:55.560000+09:00,2024,5,14,19,53,55,560,,,,,,,,,-0.23999,-0.021973,0.306152,97.045898,193.603516,-13.48877,,,,,,,,,,,0.0,1.0,1.0,0.0,0.0,0.0,0.0,4.0,0.0,0.09169917333333333,-0.16174806666666666,0.9751041866666667,4.3579101866666665,1.9376627466666658,3.1518554533333334,-6.613753997987508,-5.659434787483255,4.386175468009107,6.00186099255401,-21.343154982264558,17.271828446277226,28.10460207596857,-1.05110785176679,28.314019708062382,-1.0235322518753034,-0.33168917333333336,0.13977506666666667,-0.6689521866666667,1.1404164266666668,0.7596392597900243,0.7785530264038906,0.7605216164613927,0.7651777913005936
LBP03_S00,LBP03,-1535,91,0,90,-1535,1715716435.6,2024-05-14 19:53:55.600000+00:00,2024-05-15 04:53:55.600000+09:00,2024,5,14,19,53,55,600,,,,,,,,,-0.124512,0.083252,0.018066,-2.502441,-128.234863,-52.55127,,,,,,,,,,,0.0,1.0,1.0,0.0,0.0,0.0,0.0,4.0,0.0,0.09407548,-0.15944338666666666,0.9685482,4.1772461199999995,-1.695149760000001,2.16227212,-3.2501710501830217,-6.8530616344341455,5.029618414957013,5.87185415054669,-21.617277447641925,17.473013182875505,28.409356647107685,-1.0339396616943082,28.491695565883532,-1.0312665472694191,-0.21858748,0.24269538666666668,-0.9504821999999999,1.4117650666666666,1.0050362926973697,0.7756920783255127,0.7707792075326446,0.769619615400534
LBP03_S00,LBP03,-1534,92,0,91,-1534,1715716435.64,2024-05-14 19:53:55.640000+00:00,2024-05-15 04:53:55.640000+09:00,2024,5,14,19,53,55,640,,,,,,,,,0.085205,-0.067383,0.338867,23.742676,-74.584961,-53.527832,,,,,,,,,,,0.0,1.0,1.0,0.0,0.0,0.0,0.0,4.0,0.0,0.10708004,-0.15977216,0.9850423333333334,3.453776066666666,-2.4812825733333344,3.214518213333333,-0.08761246377258401,-7.306723969122475,5.511562670565738,5.8683496519957865,-21.909546406406825,17.693475689698133,28.766731363756158,-0.9770556556585728,28.710146033368773,-1.035295388037206,-0.02187504,0.09238916,-0.6461753333333333,0.7604395333333334,0.6531131874866344,0.7799554151811157,0.7699860435214785,0.7675013167111903
LBP03_S00,LBP03,-1533,93,0,92,-1533,1715716435.68,2024-05-14 19:53:55.680000+00:00,2024-05-15 04:53:55.680000+09:00,2024,5,14,19,53,55,680,,,,,,,,,0.72876,-0.006348,0.953613,17.822266,-112.609863,2.685547,,,,,,,,,,,0.0,1.0,1.0,0.0,0.0,0.0,0.0,4.0,0.0,0.10635413333333334,-0.15932944000000002,1.0025455866666668,0.35888674666666626,-0.4223633066666677,5.283203106666667,2.6100154790541805,-6.872370217239948,5.704942113320541,5.972750271157953,-22.184441215096424,17.921673374230956,29.137768520604066,-0.9790301475213795,28.9559181648438,-1.0335461412709477,0.6224058666666666,0.15298144000000002,-0.04893258666666678,0.8243198933333334,0.6427960655475802,0.7736850876749347,0.772250138855229,0.7652744372261259
LBP03_S00,LBP03,-1532,94,0,93,-1532,1715716435.72,2024-05-14 19:53:55.720000+00:00,2024-05-15 04:53:55.720000+09:00,2024,5,14,19,53,55,720,,,,,,,,,0.164795,0.203369,1.347656,-106.994629,70.617676,67.871094,,,,,,,,,,,0.0,1.0,1.0,0.0,0.0,0.0,0.0,4.0,0.0,0.09938148,-0.16650066666666669,1.0226204533333334,-0.1660155866666671,1.3151041333333322,5.9651692533333325,4.790380779601987,-5.743984962468068,5.386440899163458,6.164365502342033,-22.414200613595145,18.137131010197493,29.484764073568932,-1.0289754365248065,29.21520681641325,-1.0274293331360504,0.06541352,0.36986966666666665,0.32503554666666656,0.7603187333333332,0.4967198461062335,0.7588645294706754,0.7587667719659116,0.7605629531713908
LBP03_S00,LBP03,-1531,95,0,94,-1531,1715716435.76,2024-05-14 19:53:55.760000+00:00,2024-05-15 04:53:55.760000+09:00,2024,5,14,19,53,55,760,,,,,,,,,-0.062256,-0.9104,2.313721,-47.363281,-6.896973,44.98291,,,,,,,,,,,0.0,1.0,1.0,0.0,0.0,0.0,0.0,4.0,0.0,0.09925453333333334,-0.17606772,1.0321679866666666,0.7299805066666661,-0.331217480000001,5.708007800000001,6.4097472880285125,-4.405850850599507,4.421526018579195,6.420755393863174,-22.590434647619126,18.313992050940662,29.781808914807232,-1.053296885514153,29.474735410088396,-1.0180038022363722,-0.16151053333333334,-0.73433228,1.2815530133333335,2.177395826666667,1.4858356826417123,0.7901985607974531,0.7746514408383112,0.7730676554036378
LBP03_S00,LBP03,-1530,96,0,95,-1530,1715716435.8,2024-05-14 19:53:55.800000+00:00,2024-05-15 04:53:55.800000+09:00,2024,5,14,19,53,55,800,,,,,,,,,0.076416,-0.387939,1.749023,14.282227,3.173828,29.968262,,,,,,,,,,,0.0,1.0,1.0,0.0,0.0,0.0,0.0,4.0,0.0,0.09894528,-0.16778973333333333,1.0116927199999999,3.7329101999999996,1.689453093333332,4.7680664,7.3225849351076775,-3.365163307215636,2.942004667237306,6.7136587912674806,-22.725041179907752,18.431672237630153,30.02044723966471,-1.03412432510301,29.722463916565495,-1.007260969462833,-0.02252928,-0.22014926666666665,0.7373302800000001,0.9800088266666668,0.7698241421753854,0.7946200800303855,0.7790115840041331,0.773012680603159
LBP03_S00,LBP03,-1529,97,0,96,-1529,1715716435.84,2024-05-14 19:53:55.840000+00:00,2024-05-15 04:53:55.840000+09:00,2024,5,14,19,53,55,840,,,,,,,,,0.008789,-0.142822,0.775879,95.703125,183.654785,20.935059,,,,,,,,,,,0.0,1.0,1.0,0.0,0.0,0.0,0.0,4.0,0.0,0.0958626,-0.16293622666666668,0.9882031466666666,3.0403646266666664,0.7820637599999984,3.320312493333333,7.360315081893204,-2.8473695408620157,1.3729037609461499,7.008071394543209,-22.838935961542234,18.486588388068,30.20735027698213,-1.035168469576295,29.94873590926279,-1.003696912972982,-0.0870736,0.02011422666666668,-0.21232414666666666,0.31951197333333337,0.23036479155696996,0.7864843740718152,0.7623270746317969,0.7639685491190559
LBP03_S00,LBP03,-1528,98,0,97,-1528,1715716435.88,2024-05-14 19:53:55.880000+00:00,2024-05-15 04:53:55.880000+09:00,2024,5,14,19,53,55,880,,,,,,,,,-0.405518,0.239502,-0.274658,54.077148,-32.165527,-74.279785,,,,,,,,,,,0.0,1.0,1.0,0.0,0.0,0.0,0.0,4.0,0.0,0.09541989333333334,-0.15743492,0.9737988399999998,3.133951866666666,-1.2825521200000012,2.1866861866666665,6.539760238359246,-2.6651925624512454,0.2633682040893293,7.269661804077579,-22.945543664040283,18.497123116231574,30.356045861756634,-1.0223028018376592,30.147965987372366,-1.0104303887964847,-0.5009378933333333,0.39693692,-1.2484568399999998,2.146331653333333,1.4025484564816681,0.7907373558908323,0.7756494364197485,0.7744370721905741
LBP03_S00,LBP03,-1527,99,0,98,-1527,1715716435.92,2024-05-14 19:53:55.920000+00:00,2024-05-15 04:53:55.920000+09:00,2024,5,14,19,53,55,920,,,,,,,,,0.19165,-0.110107,0.330566,22.949219,-126.403809,-64.025879,,,,,,,,,,,0.0,1.0,1.0,0.0,0.0,0.0,0.0,4.0,0.0,0.1102376,-0.16024417333333332,0.9881185066666666,1.68538416,-5.341796906666668,2.609863266666667,5.225797849652166,-2.36445793917795,0.010843208915464957,7.478693718063665,-23.040121981607403,18.497556844588193,30.478479126667803,-0.9650367871667472,30.32009501135567,-1.0192854288506943,0.08141239999999998,0.050137173333333326,-0.6575525066666665,0.7891020799999998,0.664467466507754,0.7846171103552808,0.7792018633471394,0.7726633688731092
LBP03_S00,LBP03,-1526,100,0,99,-1526,1715716435.96,2024-05-14 19:53:55.960000+00:00,2024-05-15 04:53:55.960000+09:00,2024,5,14,19,53,55,960,,,,,,,,,0.519531,-0.085938,0.719238,-0.427246,-119.812012,-24.536133,,,,,,,,,,,0.0,1.0,1.0,0.0,0.0,0.0,0.0,4.0,0.0,0.11062170666666667,-0.15349286666666667,1.0009700666666668,0.6380208799999997,-2.203776066666668,4.2716471333333335,4.089847637448277,-1.5600101336857912,0.6490297164135063,7.642287623561597,-23.102522386954835,18.523518033244734,30.581887140739614,-0.9436795240313989,30.47064971774551,-1.0220828269775128,0.4089092933333333,0.06755486666666667,-0.2817320666666667,0.7581962266666666,0.5011421231277493,0.7951431126477537,0.7784588711156792,0.768353507829532
LBP03_S00,LBP03,-1525,101,0,100,-1525,1715716436.0,2024-05-14 19:53:56+00:00,2024-05-15 04:53:56+09:00,2024,5,14,19,53,56,0,19.0,53.0,54.0,40.549377,141.555695,12.452,3.0,15.0,0.400146,0.279541,1.176514,-34.973145,51.391602,44.006348,-260.0,23.0,366.0,630.0,0.0,1014.200012,16.950001,0.011892,-7.901858,0.0,0.0,1.0,1.0,0.0,0.0,0.0,0.0,4.0,0.0,0.10521806666666667,-0.16448570666666668,1.0227474133333334,-1.6967772933333336,-1.3321940266666679,5.92285156,3.843178310032109,-0.22698140604790087,1.8396677137329225,7.796014755962881,-23.11160164319675,18.597104741794052,30.672076574080606,-0.9982990967958001,30.608796971877204,-1.021295554305362,0.29492793333333334,0.44402670666666666,0.15376658666666665,0.8927212266666666,0.554784972100574,0.7680775484304445,0.75949076454012,0.765016499458767
LBP03_S00,LBP03,-1524,102,0,101,-1524,1715716436.04,2024-05-14 19:53:56.040000+00:00,2024-05-15 04:53:56.040000+09:00,2024,5,14,19,53,56,40,,,,,,,,,-0.205811,-0.852295,2.130371,-134.094238,39.733887,67.443848,,,,,,,,,,,0.0,1.0,1.0,0.0,0.0,0.0,0.0,4.0,0.0,0.09841468,-0.17089521333333332,1.03043296,-1.3818358933333335,-0.48990888000000116,6.472167959999999,4.881619582184566,1.2649003664580118,3.078477311627497,7.991279539250264,-23.061005628538428,18.72024383425915,30.759032144852,-1.0443904138935973,30.743940240569962,-1.017854473571831,-0.30422568,-0.6813997866666667,1.0999380399999998,2.0855635066666665,1.3291811860991272,0.7901465978610865,0.7718891286515118,0.773695956176311
LBP03_S00,LBP03,-1523,103,0,102,-1523,1715716436.08,2024-05-14 19:53:56.080000+00:00,2024-05-15 04:53:56.080000+09:00,2024,5,14,19,53,56,80,,,,,,,,,0.037598,-0.265137,1.61499,22.644043,-6.469727,36.743164,,,,,,,,,,,0.0,1.0,1.0,0.0,0.0,0.0,0.0,4.0,0.0,0.09444332000000001,-0.17328453333333332,1.01885092,2.0092773866666667,1.7578124799999986,5.69091796,7.052723043050849,2.3985238026759417,3.983281249403928,8.273388460972297,-22.96506467643139,18.87957508423531,30.859058760437023,-1.067580548063476,30.88235948348619,-1.010830922766154,-0.05684532000000001,-0.09185246666666669,0.5961390799999999,0.7448368666666666,0.6058465719486245,0.7906219346063466,0.7789750840568861,0.7711527836880128
LBP03_S00,LBP03,-1522,104,0,103,-1522,1715716436.12,2024-05-14 19:53:56.120000+00:00,2024-05-15 04:53:56.120000+09:00,2024,5,14,19,53,56,120,,,,,,,,,0.177734,-0.243408,0.990967,76.904297,138.73291,41.809082,,,,,,,,,,,0.0,1.0,1.0,0.0,0.0,0.0,0.0,4.0,0.0,0.09119137333333334,-0.16305341333333334,0.98982096,2.30712896,1.4892577866666652,4.27246092,9.696881984480191,2.864017016296889,4.479642057462888,8.661263740351504,-22.850503995779512,19.058760766533826,30.99031113746734,-1.0569494177929906,31.025419212682845,-1.0082266595322342,0.08654262666666666,-0.08035458666666667,0.0011460400000000703,0.16804325333333342,0.11810080116755554,0.7781145233539977,0.7570195513218408,0.7614057391727821
LBP03_S00,LBP03,-1521,105,0,104,-1521,1715716436.16,2024-05-14 19:53:56.160000+00:00,2024-05-15 04:53:56.160000+09:00,2024,5,14,19,53,56,160,,,,,,,,,-0.619385,0.256592,-0.266357,64.880371,52.734375,-74.829102,,,,,,,,,,,0.0,1.0,1.0,0.0,0.0,0.0,0.0,4.0,0.0,0.09181312,-0.15978844,0.9726074133333334,2.7343750533333333,0.12776690666666507,2.8165689999999994,11.948454368828534,2.780783065452036,4.773239062810111,9.139201915104646,-22.73927267316143,19.24969032904623,31.163281456124203,-1.0454241587926447,31.169867121516056,-1.0175480817952827,-0.7111981199999999,0.41638043999999996,-1.2389644133333335,2.3665429733333334,1.4880215906405858,0.7919031765084023,0.7707080296766926,0.7720912664002498
LBP03_S00,LBP03,-1520,106,0,105,-1520,1715716436.2,2024-05-14 19:53:56.200000+00:00,2024-05-15 04:53:56.200000+09:00,2024,5,14,19,53,56,200,,,,,,,,,0.157471,-0.085938,0.115723,51.940918,-110.778809,-47.668457,,,,,,,,,,,0.0,1.0,1.0,0.0,0.0,0.0,0.0,4.0,0.0,0.10223304,-0.16036786666666666,0.9786197733333334,1.1474609999999998,-5.257975280000001,2.16227212,13.12008725893653,2.638449223536435,5.1448708893203055,9.664005405462108,-22.63373470421997,19.455485164619045,31.371879926592285,-0.9997135177676985,31.309476314324616,-1.0301577924342005,0.05523796,0.07442986666666666,-0.8628967733333334,0.9925646,0.86786051800163,0.799244365194625,0.7766309052729315,0.7734792265683857
LBP03_S00,LBP03,-1519,107,0,106,-1519,1715716436.24,2024-05-14 19:53:56.240000+00:00,2024-05-15 04:53:56.240000+09:00,2024,5,14,19,53,56,240,,,,,,,,,0.55835,-0.013428,0.732422,15.686035,-139.343262,-26.062012,,,,,,,,,,,0.0,1.0,1.0,0.0,0.0,0.0,0.0,4.0,0.0,0.11056637333333331,-0.16068037333333335,0.9933886533333335,0.06754562666666668,-2.963867213333335,2.9850260266666666,12.951180423324264,2.994581645331415,5.721449844739699,10.182052622395078,-22.513951438406714,19.684343158408634,31.591542706144423,-0.9649329615195286,31.436751742963434,-1.037173268516447,0.4477836266666667,0.14725237333333335,-0.26096665333333346,0.8560026533333336,0.5387921973405446,0.8093629873582947,0.7786787796345083,0.7701265547222738
LBP03_S00,LBP03,-1518,108,0,107,-1518,1715716436.28,2024-05-14 19:53:56.280000+00:00,2024-05-15 04:53:56.280000+09:00,2024,5,14,19,53,56,280,,,,,,,,,0.422607,0.267334,1.215332,15.625,47.851562,29.296875,,,,,,,,,,,0.0,1.0,1.0,0.0,0.0,0.0,0.0,4.0,0.0,0.1087988,-0.16941409333333332,1.0144921733333332,-2.8914387466666667,-1.1930338800000015,4.8160807199999995,11.604331053162138,4.135354902255042,6.38379871002019,10.646225864521563,-22.348537242316514,19.93969510680944,31.786643153723176,-0.9962601694984614,31.54391485260631,-1.0386060495570397,0.3138082,0.4367480933333333,0.2008398266666669,0.9513961200000002,0.5740741410245186,0.7806269946835513,0.7653003475093091,0.7673652531208969
LBP03_S00,LBP03,-1517,109,0,108,-1517,1715716436.32,2024-05-14 19:53:56.320000+00:00,2024-05-15 04:53:56.320000+09:00,2024,5,14,19,53,56,320,,,,,,,,,-0.178467,-0.912598,2.123047,-171.264648,36.193848,64.208984,,,,,,,,,,,0.0,1.0,1.0,0.0,0.0,0.0,0.0,4.0,0.0,0.09812497333333332,-0.17612633333333336,1.02644204,-2.72623692,-0.15625002666666812,5.233561186666667,9.460881839492188,5.929156994982328,6.8660237048568105,11.024661138101251,-22.11137096251722,20.214336055003713,31.922958214999948,-1.0582510097972295,31.623300077104414,-1.0368675832326988,-0.2765919733333333,-0.7364716666666666,1.09660496,2.1096686,1.3496058957383843,0.7997322175911207,0.7752468589530175,0.7754519287128064
LBP03_S00,LBP03,-1516,110,0,109,-1516,1715716436.36,2024-05-14 19:53:56.360000+00:00,2024-05-15 04:53:56.360000+09:00,2024,5,14,19,53,56,360,,,,,,,,,0.130127,-0.320557,1.756348,34.484863,5.004883,49.133301,,,,,,,,,,,0.0,1.0,1.0,0.0,0.0,0.0,0.0,4.0,0.0,0.10013994666666667,-0.18491214666666667,1.0302311066666667,-1.2068684400000003,-0.702311226666668,4.735514319999999,6.887511592547472,7.954322935365759,6.961086387603105,11.30016160180315,-21.79319804510259,20.492779510507837,31.97797906882515,-1.069776630420577,31.66786050805347,-1.0308145610393866,0.02998705333333332,-0.13564485333333332,0.7261168933333333,0.8917487999999999,0.7392864751823133,0.811250810129753,0.7815957242180095,0.7749565115411559
LBP03_S00,LBP03,-1515,111,0,110,-1515,1715716436.4,2024-05-14 19:53:56.400000+00:00,2024-05-15 04:53:56.400000+09:00,2024,5,14,19,53,56,400,,,,,,,,,0.247559,-0.435303,1.248779,44.616699,113.342285,40.222168,,,,,,,,,,,0.0,1.0,1.0,0.0,0.0,0.0,0.0,4.0,0.0,0.09408850666666667,-0.17305668000000002,0.9993880133333335,1.1686198399999996,2.4633788666666656,3.4057617066666666,4.142537179573945,9.78457696188933,6.675044038245903,11.465863088986108,-21.401814966627015,20.759781272037674,31.94483086046881,-1.0684538576182647,31.67234535768474,-1.0269569420835132,0.15347049333333335,-0.26224632,0.2493909866666666,0.6651077999999999,0.39309310463056024,0.8036544254967855,0.7636277501876052,0.7697961952315532
LBP03_S00,LBP03,-1514,112,0,111,-1514,1715716436.44,2024-05-14 19:53:56.440000+00:00,2024-05-15 04:53:56.440000+09:00,2024,5,14,19,53,56,440,,,,,,,,,-0.585693,0.303467,-0.265381,87.097168,83.007812,-58.59375,,,,,,,,,,,0.0,1.0,1.0,0.0,0.0,0.0,0.0,4.0,0.0,0.09347326666666668,-0.16795901333333332,0.97976888,1.1718750399999998,1.5738931866666654,2.244466133333333,1.459777860872108,11.220600153339115,6.216650275034837,11.524254203420993,-20.95299096049345,21.008447283039068,31.8306632412807,-1.0587182242995274,31.635041228193124,-1.0339316822763736,-0.6791662666666667,0.47142601333333334,-1.24514988,2.39574216,1.4946262166472635,0.8206301442832574,0.7803140067038565,0.779460595517096
LBP03_S00,LBP03,-1513,113,0,112,-1513,1715716436.48,2024-05-14 19:53:56.480000+00:00,2024-05-15 04:53:56.480000+09:00,2024,5,14,19,53,56,480,,,,,,,,,0.136475,-0.119873,0.203125,46.75293,-77.697754,-48.64502,,,,,,,,,,,0.0,1.0,1.0,0.0,0.0,0.0,0.0,4.0,0.0,0.09531896,-0.16788738666666664,0.9765820266666668,0.07161462666666628,-2.133789106666668,1.4282226399999995,-0.8141095710450696,12.31171657630979,5.834288846967754,11.49168982057919,-20.46052229744106,21.24181883691778,31.652911005418144,-1.050195884820065,31.559262505422396,-1.0471019377864375,0.04115604000000002,0.048014386666666645,-0.7734570266666668,0.8626274533333335,0.7760379971724959,0.808657035511159,0.7860878056167584,0.7822387202819072
LBP03_S00,LBP03,-1512,114,0,113,-1512,1715716436.52,2024-05-14 19:53:56.520000+00:00,2024-05-15 04:53:56.520000+09:00,2024,5,14,19,53,56,520,,,,,,,,,0.487549,-0.197998,0.743896,-13.305664,-141.052246,-29.296875,,,,,,,,,,,0.0,1.0,1.0,0.0,0.0,0.0,0.0,4.0,0.0,0.10780918666666667,-0.16796225333333334,0.9947493466666667,-0.7470702666666671,-1.682942760000001,2.31933592,-2.2092326213424736,13.170255033955803,5.627254810812275,11.40332051572549,-19.93371209608283,21.46690902935027,31.435915446957875,-0.9964191958598704,31.453606580712773,-1.0555503057581213,0.37973981333333334,-0.03003574666666667,-0.2508533466666667,0.6606289066666667,0.45610511227361383,0.7958761637634748,0.7839759688536225,0.7724764865933413
LBP03_S00,LBP03,-1511,115,0,114,-1511,1715716436.56,2024-05-14 19:53:56.560000+00:00,2024-05-15 04:53:56.560000+09:00,2024,5,14,19,53,56,560,,,,,,,,,0.353271,0.300537,1.166016,-23.620605,61.035156,18.554688,,,,,,,,,,,0.0,1.0,1.0,0.0,0.0,0.0,0.0,4.0,0.0,0.10694330666666668,-0.17051434666666665,1.015472,-4.0763345866666665,-0.4524740133333346,4.08121744,-2.327971021113148,13.740779007116263,5.478152410496745,11.310201674880965,-19.384080935798178,21.68603512577014,31.208129952436927,-1.0068479692339118,31.33057291298126,-1.057419484352747,0.24632769333333332,0.47105134666666665,0.150544,0.86792304,0.5524764245064225,0.7875896503521308,0.7830713383780108,0.7695442944249721
LBP03_S00,LBP03,-1510,116,0,115,-1510,1715716436.6,2024-05-14 19:53:56.600000+00:00,2024-05-15 04:53:56.600000+09:00,2024,5,14,19,53,56,600,,,,,,,,,0.057129,-0.573486,1.917725,-210.510254,39.978027,76.049805,,,,,,,,,,,0.0,1.0,1.0,0.0,0.0,0.0,0.0,4.0,0.0,0.09515945333333334,-0.17538088000000002,1.0323925733333335,-3.741861933333334,0.7104491599999989,4.6557617066666666,-1.1446942479931939,13.72553891303629,5.161597771888796,11.264413904961238,-18.835059379276725,21.89249903664569,30.998838631676133,-1.0694609196963012,31.204080659261137,-1.057922969698384,-0.03803045333333334,-0.39810512000000003,0.8853324266666664,1.3214679999999999,0.9714666786145789,0.7862468657888192,0.7809694720571659,0.775935093618036
LBP03_S00,LBP03,-1509,117,0,116,-1509,1715716436.64,2024-05-14 19:53:56.640000+00:00,2024-05-15 04:53:56.640000+09:00,2024,5,14,19,53,56,640,,,,,,,,,-0.235352,-0.21167,1.856934,46.081543,8.056641,33.569336,,,,,,,,,,,0.0,1.0,1.0,0.0,0.0,0.0,0.0,4.0,0.0,0.09399734666666668,-0.18528648,1.0393912666666667,-3.0891926666666674,-0.030924533333334326,4.62972004,0.8138585814538465,12.745088867813607,4.550269852138735,11.296968248219391,-18.32525582456418,22.07450983073124,30.833755478437112,-1.0966355166201671,31.086985694217464,-1.0516516778702205,-0.3293493466666667,-0.026383519999999994,0.8175427333333334,1.1732756000000002,0.8817841023195465,0.7953937023821357,0.7876745587816256,0.7784552631416976
LBP03_S00,LBP03,-1508,118,0,117,-1508,1715716436.68,2024-05-14 19:53:56.680000+00:00,2024-05-15 04:53:56.680000+09:00,2024,5,14,19,53,56,680,,,,,,,,,0.406982,-0.510254,1.609375,25.146484,54.382324,36.743164,,,,,,,,,,,0.0,1.0,1.0,0.0,0.0,0.0,0.0,4.0,0.0,0.09254878666666666,-0.1753288,1.0156608,0.17089847999999924,2.1118163466666653,3.4903971333333335,2.5926728419598195,10.631489039566242,3.7634755725961355,11.400675161897784,-17.89999626298153,22.225048853635087,30.73008390662694,-1.080743849215299,30.989492421518356,-1.0431645761745263,0.31443321333333335,-0.3349252,0.5937142,1.2430726133333332,0.7506928043639458,0.7997095719347904,0.7866973298048624,0.7814032832150827
LBP03_S00,LBP03,-1507,119,0,118,-1507,1715716436.72,2024-05-14 19:53:56.720000+00:00,2024-05-15 04:53:56.720000+09:00,2024,5,14,19,53,56,720,,,,,,,,,-0.480713,-0.000244,-0.077148,131.774902,174.621582,-26.428223,,,,,,,,,,,0.0,1.0,1.0,0.0,0.0,0.0,0.0,4.0,0.0,0.09112301333333334,-0.17103192,0.99466144,-0.04475906666666745,0.8170572266666654,2.150065093333333,3.229466592933282,7.651177386222666,3.1405235456746903,11.529853825615115,-17.593949167532625,22.350669795462075,30.692621537684822,-1.076942795743485,30.918650530306216,-1.042641694312067,-0.5718360133333333,0.17078792,-1.07180944,1.8144333733333333,1.226760129542854,0.8289111832722551,0.7938878563714653,0.7821482424013595
LBP03_S00,LBP03,-1506,120,0,119,-1506,1715716436.76,2024-05-14 19:53:56.760000+00:00,2024-05-15 04:53:56.760000+09:00,2024,5,14,19,53,56,760,,,,,,,,,0.115723,-0.039307,0.247803,45.043945,-82.763672,-64.39209,,,,,,,,,,,0.0,1.0,1.0,0.0,0.0,0.0,0.0,4.0,0.0,0.08897782666666666,-0.16609377333333333,0.98199868,-0.2579752133333342,-2.2485352133333345,0.6136067599999997,2.2487018342668508,4.487281358373435,3.0432212788973416,11.61980189898579,-17.414457913197687,22.472398646617968,30.71305653162388,-1.0748114838769505,30.878551956210703,-1.0514986060510272,0.026745173333333344,0.12678677333333332,-0.73419568,0.8877276266666667,0.7455424110803962,0.7992994524098025,0.7947490066036278,0.782867444695475
LBP03_S00,LBP03,-1505,121,0,120,-1505,1715716436.8,2024-05-14 19:53:56.800000+00:00,2024-05-15 04:53:56.800000+09:00,2024,5,14,19,53,56,800,,,,,,,,,0.194092,0.029541,0.578613,28.503418,-138.48877,-52.734375,,,,,,,,,,,0.0,1.0,1.0,0.0,0.0,0.0,0.0,4.0,0.0,0.10562170666666666,-0.16800458666666665,0.9955403466666667,-1.8123372000000006,-5.890299533333335,1.414388013333333,-0.07010416087769429,1.9514570723350602,3.6137556294675046,11.616997732550681,-17.336399630304285,22.61694887179667,30.7738812100321,-1.0057409393366297,30.870743919295023,-1.0574833927740521,0.08847029333333332,0.19754558666666666,-0.41692734666666664,0.7029432266666666,0.46976554153372124,0.7872971083841359,0.7909585942072606,0.781773425464134
LBP03_S00,LBP03,-1504,122,0,121,-1504,1715716436.84,2024-05-14 19:53:56.840000+00:00,2024-05-15 04:53:56.840000+09:00,2024,5,14,19,53,56,840,,,,,,,,,0.741699,0.015869,1.233887,-25.57373,-24.047852,12.329102,,,,,,,,,,,0.0,1.0,1.0,0.0,0.0,0.0,0.0,4.0,0.0,0.11119462666666666,-0.16476890666666666,1.0099316266666667,-3.2519530933333343,-4.108886773333335,2.8214518133333333,-2.8224405863304027,0.5751198533131452,4.652010836912984,11.504100109097465,-17.31339483617176,22.80302930527319,30.85573051428961,-0.9738472073425843,30.89457858556571,-1.056165447751123,0.6305043733333333,0.18063790666666665,0.22395537333333326,1.0350976533333331,0.6930525430025111,0.8058046184419575,0.7961444962568865,0.7768195892351837
LBP03_S00,LBP03,-1503,123,0,122,-1503,1715716436.88,2024-05-14 19:53:56.880000+00:00,2024-05-15 04:53:56.880000+09:00,2024,5,14,19,53,56,880,,,,,,,,,0.08252,-0.175049,1.74585,-193.603516,31.677246,80.871582,,,,,,,,,,,0.0,1.0,1.0,0.0,0.0,0.0,0.0,4.0,0.0,0.10148109333333334,-0.17656578666666667,1.0295442666666665,-3.8248697600000012,-1.7480469333333342,3.986002586666667,-4.94082834036222,0.3296548896260905,5.699927042029347,11.306466975482977,-17.300208640586717,23.031026386954363,30.944492093296773,-1.0449670661954713,30.947437938941363,-1.0516183006957824,-0.018961093333333345,0.0015167866666666585,0.7163057333333334,0.7367836133333334,0.7165582511620335,0.7783650102291721,0.7845511830600023,0.7765546276895564
LBP03_S00,LBP03,-1502,124,0,123,-1502,1715716436.92,2024-05-14 19:53:56.920000+00:00,2024-05-15 04:53:56.920000+09:00,2024,5,14,19,53,56,920,,,,,,,,,-0.151123,-0.546387,1.928223,2.746582,-20.690918,38.452148,,,,,,,,,,,0.0,1.0,1.0,0.0,0.0,0.0,0.0,4.0,0.0,0.09486,-0.18164392,1.0335091066666666,-2.949218706666667,-1.9995117866666676,4.332682266666667,-5.72520178034371,0.6521385408895599,6.279662676946635,11.077458904269228,-17.274123098951137,23.282212894032227,31.03492970600274,-1.084988313249473,31.024948667739,-1.0441990645044146,-0.245983,-0.36474308,0.8947138933333334,1.5054399733333335,0.9970246243802496,0.7916672965440719,0.7881422034496763,0.7833570077461168
LBP03_S00,LBP03,-1501,125,0,124,-1501,1715716436.96,2024-05-14 19:53:56.960000+00:00,2024-05-15 04:53:56.960000+09:00,2024,5,14,19,53,56,960,,,,,,,,,0.284424,-0.588135,1.719238,-13.916016,28.869629,31.433105,,,,,,,,,,,0.0,1.0,1.0,0.0,0.0,0.0,0.0,4.0,0.0,0.09652016000000001,-0.17679366666666668,1.0186523333333335,0.8056641066666657,0.08463534666666533,3.4912109200000003,-5.145477817621028,0.7578031082103036,6.129607311749262,10.871639791564387,-17.243810974622725,23.5273971865022,31.13004958328009,-1.0666958364641579,31.12142929110825,-1.0334755521685457,0.18790384,-0.4113413333333333,0.7005856666666666,1.2998308399999998,0.8338643906139461,0.8049761872435198,0.8000596499456367,0.787297976491626
LBP03_S00,LBP03,-1500,126,0,125,-1500,1715716437.0,2024-05-14 19:53:57+00:00,2024-05-15 04:53:57+09:00,2024,5,14,19,53,57,0,19.0,53.0,55.0,40.549469,141.555679,12.73,3.0,13.0,-0.350586,0.037354,0.289551,89.660645,214.904785,-10.742188,-260.0,31.0,365.0,772.0,0.0,1014.0,17.01,0.00991,-6.238727,0.0,0.0,1.0,1.0,0.0,0.0,0.0,0.0,4.0,0.0,0.09242510666666667,-0.16503910666666669,0.9889029733333334,1.5177409333333325,0.7234699733333323,1.920572893333333,-3.772146606348683,0.049469239964462904,5.293377944107088,10.72075392731044,-17.241832205024146,23.739132304266484,31.237185294383018,-1.056281469467014,31.230735821180065,-1.0257692399667806,-0.44301110666666665,0.20239310666666668,-0.6993519733333334,1.3447561866666669,0.8522411588637555,0.8168744347140471,0.7924759915722457,0.7786186545980958
LBP03_S00,LBP03,-1499,127,0,126,-1499,1715716437.04,2024-05-14 19:53:57.040000+00:00,2024-05-15 04:53:57.040000+09:00,2024,5,14,19,53,57,40,,,,,,,,,-0.056152,-0.080078,0.14624,14.465332,-98.754883,-55.236816,,,,,,,,,,,0.0,1.0,1.0,0.0,0.0,0.0,0.0,4.0,0.0,0.09088863999999999,-0.16033208,0.9690234133333335,1.9401042133333324,-1.0847982533333342,0.39632158666666667,-2.421450908298911,-1.611807172481369,4.027757474022815,10.623895890978483,-17.3063044919234,23.900242603227397,31.36234901219364,-1.0511640460667584,31.34736542496335,-1.0297250006422043,-0.14704064,0.08025407999999999,-0.8227834133333335,1.0500781333333336,0.8396631541426044,0.7972937134357863,0.7937201556484363,0.7803573235796033
LBP03_S00,LBP03,-1498,128,0,127,-1498,1715716437.08,2024-05-14 19:53:57.080000+00:00,2024-05-15 04:53:57.080000+09:00,2024,5,14,19,53,57,80,,,,,,,,,0.191162,0.103027,0.281006,72.265625,-89.72168,-49.804688,,,,,,,,,,,0.0,1.0,1.0,0.0,0.0,0.0,0.0,4.0,0.0,0.10010413333333334,-0.15944014666666667,0.97319008,0.6518555199999991,-5.685221440000001,0.1725260133333334,-1.7528886293701471,-3.914518875469416,2.620188028383136,10.553780345803677,-17.462885246942175,24.00505012436272,31.5051911946033,-1.00655148730162,31.467415128979678,-1.0381290256544267,0.09105786666666665,0.26246714666666665,-0.69218408,1.0457090933333333,0.7458547705597065,0.8028940413802295,0.7967579879932879,0.7869480698313339
LBP03_S00,LBP03,-1497,129,0,128,-1497,1715716437.12,2024-05-14 19:53:57.120000+00:00,2024-05-15 04:53:57.120000+09:00,2024,5,14,19,53,57,120,,,,,,,,,0.659912,0.042969,1.078613,6.408691,-90.332031,-1.159668,,,,,,,,,,,0.0,1.0,1.0,0.0,0.0,0.0,0.0,4.0,0.0,0.1085514,-0.15938806666666666,0.9873307066666667,0.47770186666666586,-3.398437586666668,1.04166664,-2.0429823503411924,-6.336444932178835,1.257494783419297,10.47206105179003,-17.71634304422933,24.055349915699495,31.657427771377357,-0.9697076723847984,31.589007171246134,-1.0391402496064264,0.5513606000000001,0.20235706666666667,0.09128229333333338,0.8449999600000001,0.5943730736990789,0.8219449322814905,0.8000297278177441,0.7786613449750573
LBP03_S00,LBP03,-1496,130,0,129,-1496,1715716437.16,2024-05-14 19:53:57.160000+00:00,2024-05-15 04:53:57.160000+09:00,2024,5,14,19,53,57,160,,,,,,,,,0.098877,0.016602,1.486328,-164.367676,67.504883,78.24707,,,,,,,,,,,0.0,1.0,1.0,0.0,0.0,0.0,0.0,4.0,0.0,0.10630530666666668,-0.1660482266666667,1.0059863066666666,-3.1420898000000013,-2.038574306666668,2.76285804,-3.214225284139058,-8.42246811026761,0.03229989935235638,10.343492040424469,-18.053241768640035,24.056641911673587,31.80612183234202,-0.9977483618592998,31.712026664324533,-1.0341009540847341,-0.007428306666666676,0.1826502266666667,0.48034169333333354,0.6704202266666669,0.5139498296484327,0.7829820618418043,0.7874426191751033,0.7747993737317299
LBP03_S00,LBP03,-1495,131,0,130,-1495,1715716437.2,2024-05-14 19:53:57.200000+00:00,2024-05-15 04:53:57.200000+09:00,2024,5,14,19,53,57,200,,,,,,,,,-0.009277,-0.553223,2.102295,-8.728027,-9.277344,35.705566,,,,,,,,,,,0.0,1.0,1.0,0.0,0.0,0.0,0.0,4.0,0.0,0.09759110666666668,-0.16984705333333333,1.0161653466666667,-2.336425746666668,-0.44270842666666754,3.1038411066666667,-5.02554744098145,-9.919241042798232,-0.946283260757184,10.14247014278521,-18.450011410351966,24.0187905812433,31.94017724786494,-1.0452985460908664,31.83732915989346,-1.0290127722555762,-0.10686810666666668,-0.3833759466666667,1.0861296533333331,1.5763737066666665,1.1567521482820196,0.7945377270530198,0.7968910461238226,0.7825998458662944
LBP03_S00,LBP03,-1494,132,0,131,-1494,1715716437.24,2024-05-14 19:53:57.240000+00:00,2024-05-15 04:53:57.240000+09:00,2024,5,14,19,53,57,240,,,,,,,,,0.279297,-0.522217,1.879883,-0.061035,-42.541504,15.930176,,,,,,,,,,,0.0,1.0,1.0,0.0,0.0,0.0,0.0,4.0,0.0,0.09923824,-0.17804041333333334,1.0178580533333332,-0.6770832933333341,-0.7934571333333343,2.7547200133333334,-7.243387608976866,-10.733385542815101,-1.462456373327805,9.852734638426137,-18.87934683206457,23.96029232631019,32.05622755445294,-1.0578874574648067,31.96586233890481,-1.0205073045587199,0.18005876,-0.34417658666666673,0.8620249466666667,1.3862602933333334,0.9454975878012195,0.8108059426714469,0.8100844650148707,0.7893878339801544
LBP03_S00,LBP03,-1493,133,0,132,-1493,1715716437.28,2024-05-14 19:53:57.280000+00:00,2024-05-15 04:53:57.280000+09:00,2024,5,14,19,53,57,280,,,,,,,,,-0.223633,-0.202637,0.486572,73.669434,188.781738,-14.587402,,,,,,,,,,,0.0,1.0,1.0,0.0,0.0,0.0,0.0,4.0,0.0,0.09263668,-0.16495773333333333,0.9858137733333334,1.6031901466666658,2.3258462533333324,1.7415364266666666,-9.66986069426972,-10.820485708070334,-1.2362694981710467,9.465940210655347,-19.312166260387382,23.910841546383345,32.16041251596127,-1.0550793057154693,32.09822839276787,-1.0106145185982034,-0.31626968,-0.03767926666666668,-0.4992417733333334,0.8531907200000001,0.5921896536286764,0.8115305631756132,0.7960787789295822,0.7807104193980772
LBP03_S00,LBP03,-1492,134,0,133,-1492,1715716437.32,2024-05-14 19:53:57.320000+00:00,2024-05-15 04:53:57.320000+09:00,2024,5,14,19,53,57,320,,,,,,,,,-0.164062,-0.054688,0.068604,-22.277832,-101.44043,-70.007324,,,,,,,,,,,0.0,1.0,1.0,0.0,0.0,0.0,0.0,4.0,0.0,0.09361649333333334,-0.15890630666666666,0.9647167733333333,1.6886393599999991,0.3808592799999985,0.641276,-12.052891284813116,-10.144298384618727,-0.10261186285682591,8.983824559262823,-19.71793819577213,23.906737071869074,32.26512463678674,-1.0345953580325493,32.23495196685496,-1.0116041536654676,-0.25767849333333337,0.10421830666666666,-0.8961127733333333,1.2580095733333332,0.9382311889412769,0.7950755749037289,0.7974038962474248,0.7818564309365879
LBP03_S00,LBP03,-1491,135,0,134,-1491,1715716437.36,2024-05-14 19:53:57.360000+00:00,2024-05-15 04:53:57.360000+09:00,2024,5,14,19,53,57,360,,,,,,,,,0.156738,0.02002,0.26123,40.83252,-84.106445,-54.992676,,,,,,,,,,,0.0,1.0,1.0,0.0,0.0,0.0,0.0,4.0,0.0,0.09556961333333334,-0.1553939466666667,0.9574674266666666,0.6005859733333325,-3.483886813333335,-0.45491541333333335,-14.011395803356727,-8.766971346401165,1.790175609776915,8.423368727128555,-20.068617049628177,23.97834409626015,32.383074538969396,-1.0158140181725797,32.37723698669879,-1.0204223843334566,0.061168386666666644,0.1754139466666667,-0.6962374266666667,0.93281976,0.7205957108559564,0.7943279443306747,0.8027893772302138,0.7858397975888979
LBP03_S00,LBP03,-1490,136,0,135,-1490,1715716437.4,2024-05-14 19:53:57.400000+00:00,2024-05-15 04:53:57.400000+09:00,2024,5,14,19,53,57,400,,,,,,,,,0.622314,-0.039551,0.935547,-6.408691,-110.351562,-10.498047,,,,,,,,,,,0.0,1.0,1.0,0.0,0.0,0.0,0.0,4.0,0.0,0.10965165333333333,-0.16160162666666666,0.9723892933333333,0.04313154666666579,-4.8600261466666685,0.37109369333333336,-15.09437536806018,-6.997093225415592,3.920728811510944,7.819593712406148,-20.3485007786448,24.13517324872059,32.52251708449652,-0.9712267924984506,32.52756882061759,-1.0226215515644728,0.5126623466666667,0.12205062666666666,-0.03684229333333333,0.6715552666666667,0.5282768135528559,0.7997352926875665,0.801694859092176,0.7756635976875923
LBP03_S00,LBP03,-1489,137,0,136,-1489,1715716437.44,2024-05-14 19:53:57.440000+00:00,2024-05-15 04:53:57.440000+09:00,2024,5,14,19,53,57,440,,,,,,,,,0.132812,0.255127,1.273193,-91.491699,83.068848,75.98877,,,,,,,,,,,0.0,1.0,1.0,0.0,0.0,0.0,0.0,4.0,0.0,0.10897782666666667,-0.15403978666666668,0.9831249733333334,-0.9847004933333342,-1.9531250933333346,1.8074543733333333,-14.983093025991609,-5.432271449313008,5.559877553880684,7.220269991366483,-20.565791636617323,24.35756835087582,32.686009550824245,-0.952236186461596,32.68938878356285,-1.0209639549098157,0.023834173333333347,0.40916678666666667,0.29006802666666665,0.7230689866666666,0.5021204907429121,0.7600350636513924,0.7903326039673249,0.7735543590197018
LBP03_S00,LBP03,-1488,138,0,137,-1488,1715716437.48,2024-05-14 19:53:57.480000+00:00,2024-05-15 04:53:57.480000+09:00,2024,5,14,19,53,57,480,,,,,,,,,-0.098877,-0.857178,2.186035,-133.178711,-30.944824,65.368652,,,,,,,,,,,0.0,1.0,1.0,0.0,0.0,0.0,0.0,4.0,0.0,0.10173173333333335,-0.16569993333333333,1.0022721066666667,-3.134765600000001,-0.7771810800000015,3.078613226666667,-13.721900766470469,-4.779277467630357,6.10014629692501,6.671393960707665,-20.75696273532254,24.60157420275282,32.872426935474174,-1.0164478379742605,32.865451868082985,-1.0174781766661656,-0.20060873333333334,-0.6914780666666667,1.1837628933333333,2.0758496933333332,1.3855253040647002,0.7844145559270805,0.7965357957191198,0.7855300557201992
LBP03_S00,LBP03,-1487,139,0,138,-1487,1715716437.52,2024-05-14 19:53:57.520000+00:00,2024-05-15 04:53:57.520000+09:00,2024,5,14,19,53,57,520,,,,,,,,,0.089355,-0.402344,1.686279,9.521484,9.94873,36.499023,,,,,,,,,,,0.0,1.0,1.0,0.0,0.0,0.0,0.0,4.0,0.0,0.09686845333333334,-0.17374029333333332,1.0074185866666667,-2.613932266666667,-1.453450613333335,3.201497333333333,-11.805419298360569,-5.496379431259196,5.367821210003938,6.199177188773242,-20.976817912572905,24.816287051152976,33.080277969815626,-1.0578899790646867,33.055380796342895,-1.0091619489356105,-0.007513453333333336,-0.22860370666666666,0.6788604133333334,0.9149775733333334,0.7163571507801368,0.7948246374673416,0.7953504006154081,0.7875921917248622
LBP03_S00,LBP03,-1486,140,0,139,-1486,1715716437.56,2024-05-14 19:53:57.560000+00:00,2024-05-15 04:53:57.560000+09:00,2024,5,14,19,53,57,560,,,,,,,,,-0.054932,-0.243164,0.703857,69.580078,189.27002,16.113281,,,,,,,,,,,0.0,1.0,1.0,0.0,0.0,0.0,0.0,4.0,0.0,0.09983069333333333,-0.16382166666666664,0.9897200266666666,0.09358726666666542,0.572102773333332,2.7270507200000003,-10.012332240718791,-7.451718448004253,3.7288603686431596,5.798683899144491,-21.274886650493077,24.965441465898703,33.309440171530056,-1.0197400341694633,33.25380425825896,-0.999754397313246,-0.15476269333333334,-0.07934233333333335,-0.28586302666666663,0.5199680533333333,0.3346107695839937,0.7861100112704443,0.7868498308112877,0.7840842293421553
LBP03_S00,LBP03,-1485,141,0,140,-1485,1715716437.6,2024-05-14 19:53:57.600000+00:00,2024-05-15 04:53:57.600000+09:00,2024,5,14,19,53,57,600,,,,,,,,,-0.324951,0.143799,-0.202393,46.75293,-40.100098,-60.424805,,,,,,,,,,,0.0,1.0,1.0,0.0,0.0,0.0,0.0,4.0,0.0,0.09395829333333333,-0.15733077333333334,0.96377928,0.5704752933333321,0.8886717866666651,1.38427728,-9.040978876463607,-9.824115131778127,1.9167891233334657,5.437044744085947,-21.6678512557642,25.04211303083204,33.55837687731757,-1.0287225795442934,33.45048396442773,-0.9986291776967864,-0.4189092933333333,0.30112977333333335,-1.16617228,1.8862113466666668,1.2751948569019622,0.7982591384019396,0.7922530020953793,0.7867326941720905
LBP03_S00,LBP03,-1484,142,0,141,-1484,1715716437.64,2024-05-14 19:53:57.640000+00:00,2024-05-15 04:53:57.640000+09:00,2024,5,14,19,53,57,640,,,,,,,,,0.112305,-0.071045,0.227783,38.879395,-69.885254,-65.734863,,,,,,,,,,,0.0,1.0,1.0,0.0,0.0,0.0,0.0,4.0,0.0,0.09353186666666667,-0.15458664,0.9516275866666668,0.3238932666666655,-2.087402426666668,-0.016276106666666408,-9.154113106930094,-11.366755367418063,0.6748511390030917,5.0708802198087435,-22.122521470460924,25.069107076392164,33.81685839965427,-1.0230296750283074,33.63278888112076,-1.007273184924792,0.01877313333333333,0.08354164,-0.7238445866666667,0.8261593600000001,0.7288913648793477,0.7921434289043318,0.7937685656432337,0.789164182155861
LBP03_S00,LBP03,-1483,143,0,142,-1483,1715716437.68,2024-05-14 19:53:57.680000+00:00,2024-05-15 04:53:57.680000+09:00,2024,5,14,19,53,57,680,,,,,,,,,0.553955,-0.031738,0.705322,1.77002,-177.612305,-30.517578,,,,,,,,,,,0.0,1.0,1.0,0.0,0.0,0.0,0.0,4.0,0.0,0.10808265333333333,-0.15951827999999998,0.9641210666666667,-0.5721028266666678,-4.932454506666668,0.5029296266666671,-10.055289305098501,-10.951626218361238,0.41203817349896416,4.668668647604804,-22.560586519195375,25.085588603332123,34.05970179856035,-0.9719170284099189,33.7895130631019,-1.0132124413750256,0.44587234666666664,0.12778027999999997,-0.25879906666666674,0.8324516933333334,0.5311373705421756,0.7833612115514609,0.7915353917431256,0.7855852903870619
LBP03_S00,LBP03,-1482,144,0,143,-1482,1715716437.72,2024-05-14 19:53:57.720000+00:00,2024-05-15 04:53:57.720000+09:00,2024,5,14,19,53,57,720,,,,,,,,,0.625,0.103271,1.250977,-47.912598,24.353027,15.319824,,,,,,,,,,,0.0,1.0,1.0,0.0,0.0,0.0,0.0,4.0,0.0,0.11236325333333333,-0.15492192000000002,0.9774804399999999,-1.1637369466666678,-2.575683666666668,1.2027994133333337,-11.080612970047367,-8.12610457267634,1.0581730878421554,4.225444128802909,-22.88563070210243,25.12791552684581,34.249359255947354,-0.9405198418089045,33.914303158008956,-1.0160216269471098,0.5126367466666667,0.25819292000000005,0.2734965600000001,1.0443262266666669,0.6358147421245786,0.7597233960547298,0.7943172896634926,0.7824997029325534
LBP03_S00,LBP03,-1481,145,0,144,-1481,1715716437.76,2024-05-14 19:53:57.760000+00:00,2024-05-15 04:53:57.760000+09:00,2024,5,14,19,53,57,760,,,,,,,,,0.004883,-0.513916,1.920166,-194.519043,20.935059,71.716309,,,,,,,,,,,0.0,1.0,1.0,0.0,0.0,0.0,0.0,4.0,0.0,0.10438473333333333,-0.16556318666666667,0.9944238,-3.737792933333335,-0.5615235066666681,2.4462890000000006,-11.591822595016804,-3.383837995986888,2.1775166896607776,3.761771225002237,-23.020984221941905,25.21501619443224,34.34987160065716,-1.0045618220079826,34.00726912897246,-1.0138554487380431,-0.09950173333333333,-0.34835281333333334,0.9257422000000001,1.3735967466666668,0.9941070859592673,0.7696659830498846,0.7844827177298437,0.7863879987523801
LBP03_S00,LBP03,-1480,146,0,145,-1480,1715716437.8,2024-05-14 19:53:57.800000+00:00,2024-05-15 04:53:57.800000+09:00,2024,5,14,19,53,57,800,,,,,,,,,-0.048584,-0.55127,1.970947,6.896973,-41.07666,35.888672,,,,,,,,,,,0.0,1.0,1.0,0.0,0.0,0.0,0.0,4.0,0.0,0.09647784000000001,-0.17295576,1.0007909866666667,-3.100585906666668,-1.2898763600000014,2.3885090533333337,-11.325359484425917,1.9881894580267778,3.2449548265514996,3.3087568456252,-22.941456643620835,25.344814387494303,34.34556625142675,-1.057666864778506,34.07446706802212,-1.0112520169317007,-0.14506184,-0.37831424,0.9701560133333333,1.4935320933333334,1.0513644904683581,0.7929299410072701,0.7901135246957032,0.7916157098072638
LBP03_S00,LBP03,-1479,147,0,146,-1479,1715716437.84,2024-05-14 19:53:57.840000+00:00,2024-05-15 04:53:57.840000+09:00,2024,5,14,19,53,57,840,,,,,,,,,0.323975,-0.502686,1.563477,14.221191,48.828125,35.461426,,,,,,,,,,,0.0,1.0,1.0,0.0,0.0,0.0,0.0,4.0,0.0,0.10359373333333334,-0.16696617333333333,0.9902083066666666,-0.36376950666666813,-0.5013021466666682,2.1761067200000004,-10.476184961849553,6.397788415317933,3.904567261044221,2.8897094471512177,-22.685545107008117,25.50099707793607,34.25325137063574,-1.011628750963933,34.126157252698235,-1.0038853431078363,0.2203812666666667,-0.33571982666666667,0.5732686933333334,1.1293697866666668,0.6999376397014299,0.7932053448752271,0.7995049816585922,0.7951647791296665
LBP03_S00,LBP03,-1478,148,0,147,-1478,1715716437.88,2024-05-14 19:53:57.880000+00:00,2024-05-15 04:53:57.880000+09:00,2024,5,14,19,53,57,880,,,,,,,,,-0.570557,0.130615,-0.163574,120.422363,227.111816,-41.625977,,,,,,,,,,,0.0,1.0,1.0,0.0,0.0,0.0,0.0,4.0,0.0,0.09360349333333333,-0.16264650666666666,0.9644433333333332,0.7145182533333319,1.3264973333333319,0.6787108800000003,-9.473615074721062,8.530620708874402,4.06693423123683,2.510764844162375,-22.344320278653143,25.663674447185542,34.12032788454466,-1.0445396936951021,34.175211266709795,-1.0016809615258517,-0.6641604933333333,0.29326150666666667,-1.1280173333333332,2.0854393333333334,1.3414673221877693,0.8182017077162564,0.7982833589727143,0.795768024612087
LBP03_S00,LBP03,-1477,149,0,148,-1477,1715716437.92,2024-05-14 19:53:57.920000+00:00,2024-05-15 04:53:57.920000+09:00,2024,5,14,19,53,57,920,,,,,,,,,0.126709,-0.047363,0.303711,15.686035,-83.251953,-35.15625,,,,,,,,,,,0.0,1.0,1.0,0.0,0.0,0.0,0.0,4.0,0.0,0.09104489333333333,-0.15510418666666667,0.9482291466666666,0.7625325733333319,-1.2695313066666682,-0.45003261333333305,-8.62026356316008,7.765061342818402,3.8245653109702986,2.165954301635972,-22.033717824940407,25.816657059624355,34.00993767945075,-1.036228196974022,34.23638941065965,-1.008605604191302,0.03566410666666665,0.10774118666666667,-0.6445181466666665,0.7879234399999998,0.6544339028437536,0.8044980788547966,0.7980826876994342,0.7935941619180498
LBP03_S00,LBP03,-1476,150,0,149,-1476,1715716437.96,2024-05-14 19:53:57.960000+00:00,2024-05-15 04:53:57.960000+09:00,2024,5,14,19,53,57,960,,,,,,,,,0.141357,-0.118896,0.517822,-3.112793,-108.581543,-43.579102,,,,,,,,,,,0.0,1.0,1.0,0.0,0.0,0.0,0.0,4.0,0.0,0.10374019999999999,-0.16063153333333333,0.9597428266666667,-0.6958007600000014,-4.256184946666669,-0.22460943999999974,-7.852777261060477,4.26000996161003,3.2855964370953727,1.8518432111935528,-21.863317426476005,25.948080917108168,33.98141956202663,-0.9937057161060365,34.32591408216001,-1.0168064097168885,0.03761680000000002,0.041735533333333324,-0.44192082666666666,0.52127316,0.4454782771657983,0.7889626343168707,0.7969694107801952,0.796360644736048
LBP03_S00,LBP03,-1475,151,0,150,-1475,1715716438.0,2024-05-14 19:53:58+00:00,2024-05-15 04:53:58+09:00,2024,5,14,19,53,58,0,19.0,53.0,56.0,40.549561,141.555664,13.151,3.0,13.0,0.599365,0.079102,1.190918,-16.601562,-22.583008,9.277344,-263.0,30.0,369.0,769.0,0.0,1014.200012,17.07,0.011892,-7.901858,0.0,0.0,1.0,1.0,0.0,0.0,0.0,0.0,4.0,0.0,0.11109696,-0.15805992,0.9727311066666666,-0.40445961333333474,-3.4667969200000015,0.347493426666667,-6.782429336564567,-1.2524311103009709,2.4645992819878515,1.5805460377309701,-21.913414670888045,26.04666488838768,34.075278724078636,-0.9550558413056492,34.45993185823623,-1.0193939523902407,0.48826804,0.23716192,0.2181868933333333,0.9436168533333333,0.5850273289394089,0.7782740811198968,0.797574257916972,0.7877420214214628
LBP03_S00,LBP03,-1474,152,0,151,-1474,1715716438.04,2024-05-14 19:53:58.040000+00:00,2024-05-15 04:53:58.040000+09:00,2024,5,14,19,53,58,40,,,,,,,,,0.027588,-0.197266,1.760498,-175.964355,32.226562,65.429688,,,,,,,,,,,0.0,1.0,1.0,0.0,0.0,0.0,0.0,4.0,0.0,0.10295242666666667,-0.16195966666666667,0.9861197866666664,-3.1298827866666676,-1.1694336400000016,1.7097981200000003,-4.970973762735671,-7.780525873341068,1.3065802262607495,1.3817070872215433,-22.224635705821687,26.09892809743811,34.30739853976991,-1.0009858592084642,34.650972768404095,-1.0162461868099224,-0.07536442666666666,-0.03530633333333333,0.7743782133333335,0.8850489733333334,0.7788375641079246,0.7758410575185095,0.786567385477148,0.7877604562717941
LBP03_S00,LBP03,-1473,153,0,152,-1473,1715716438.08,2024-05-14 19:53:58.080000+00:00,2024-05-15 04:53:58.080000+09:00,2024,5,14,19,53,58,80,,,,,,,,,-0.288818,-0.431885,1.927002,30.090332,-59.997559,18.737793,,,,,,,,,,,0.0,1.0,1.0,0.0,0.0,0.0,0.0,4.0,0.0,0.09714188,-0.16747724,0.9933300666666666,-1.224772120000001,-1.5812174933333352,1.7358397733333337,-2.240685445550704,-14.302036558266336,-0.19260406867752375,1.2920796693995151,-22.79671716815234,26.091223934691012,34.67148323805892,-1.0411634550644207,34.903188730780926,-1.0134052666603064,-0.38595988000000003,-0.26440776,0.9336719333333335,1.5840395733333335,1.0443274254812218,0.7877799637153702,0.7953370025477998,0.793765313233982
LBP03_S00,LBP03,-1472,154,0,153,-1472,1715716438.12,2024-05-14 19:53:58.120000+00:00,2024-05-15 04:53:58.120000+09:00,2024,5,14,19,53,58,120,,,,,,,,,0.261963,-0.611328,1.712158,7.385254,2.685547,23.010254,,,,,,,,,,,0.0,1.0,1.0,0.0,0.0,0.0,0.0,4.0,0.0,0.10197911999999999,-0.16848961333333334,0.9900748533333334,1.5901692933333325,-1.745605506666668,1.1930337733333336,1.1914231810330724,-19.850380211859353,-1.8837096142424297,1.339736596640838,-23.590732376626715,26.015875550121315,35.14460597095097,-1.0225278970647702,35.208674482279946,-1.003886222785348,0.15998388000000002,-0.44283838666666664,0.7220831466666666,1.3249054133333333,0.8620352366727392,0.7984864502343165,0.8102156912579035,0.7995153019566016
LBP03_S00,LBP03,-1471,155,0,154,-1471,1715716438.16,2024-05-14 19:53:58.160000+00:00,2024-05-15 04:53:58.160000+09:00,2024,5,14,19,53,58,160,,,,,,,,,-0.212158,-0.014404,0.189453,93.200684,175.537109,-13.061523,,,,,,,,,,,0.0,1.0,1.0,0.0,0.0,0.0,0.0,4.0,0.0,0.09958654666666666,-0.16759442666666668,0.9652115733333333,2.189941426666666,0.4760741733333316,0.19856762666666697,4.8290428525607965,-23.53581517381399,-3.4798116635888836,1.5328983107432699,-24.532164983579275,25.87668308357776,35.69004936141938,-1.0304372487415028,35.54715238125011,-0.995484056434716,-0.3117445466666667,0.15319042666666668,-0.7757585733333333,1.2406935466666666,0.8499725485560634,0.8119273589906219,0.7974547104162132,0.7956041991136096
LBP03_S00,LBP03,-1470,156,0,155,-1470,1715716438.2,2024-05-14 19:53:58.200000+00:00,2024-05-15 04:53:58.200000+09:00,2024,5,14,19,53,58,200,,,,,,,,,-0.05249,-0.057617,0.087646,12.390137,-118.347168,-54.56543,,,,,,,,,,,0.0,1.0,1.0,0.0,0.0,0.0,0.0,4.0,0.0,0.09526038666666665,-0.15866864,0.9448014133333333,2.254231799999999,-1.8896484800000015,-1.193033933333333,8.158578690643532,-24.62673384521691,-4.699375597527586,1.8592414583690111,-25.51723433738795,25.688708059676657,36.255975353105384,-1.026189208975322,35.88960141342091,-0.9980257422770868,-0.14775038666666665,0.10105164,-0.8571554133333333,1.10595744,0.875646625822013,0.8006831380922216,0.7976104325726208,0.7981550767799555
LBP03_S00,LBP03,-1469,157,0,156,-1469,1715716438.24,2024-05-14 19:53:58.240000+00:00,2024-05-15 04:53:58.240000+09:00,2024,5,14,19,53,58,240,,,,,,,,,0.137939,0.125488,0.210449,56.70166,-111.755371,-69.274902,,,,,,,,,,,0.0,1.0,1.0,0.0,0.0,0.0,0.0,4.0,0.0,0.10484697333333334,-0.15862632000000002,0.9521874800000001,0.4915364933333323,-6.139322960000001,-1.6243490266666663,10.867306166443928,-22.751014942594637,-5.444654466259978,2.293933705026768,-26.427274935091738,25.470921881026257,36.77541099440396,-0.9832195494677756,36.2043284419104,-1.0054489580262083,0.03309202666666666,0.28411432000000003,-0.7417384800000001,1.0589448266666668,0.7949792461257592,0.7946624044252032,0.802734173548325,0.8049437781516482
LBP03_S00,LBP03,-1468,158,0,157,-1468,1715716438.28,2024-05-14 19:53:58.280000+00:00,2024-05-15 04:53:58.280000+09:00,2024,5,14,19,53,58,280,,,,,,,,,0.716553,-0.029541,0.880371,0.183105,-123.779297,-12.023926,,,,,,,,,,,0.0,1.0,1.0,0.0,0.0,0.0,0.0,4.0,0.0,0.11348629333333332,-0.15953126666666667,0.9647851333333334,-0.5257161066666677,-6.066894573333335,-0.743001373333333,12.880201295163484,-18.13457198768699,-5.882651590812496,2.8091417568333075,-27.152657814599216,25.235615817393757,37.17518539953492,-0.9493492549455166,36.46297047842127,-1.0072029605195483,0.6030667066666666,0.12999026666666666,-0.08441413333333336,0.8174711066666667,0.6226657755363372,0.7958814493015096,0.8037060062385614,0.7960130023868913
LBP03_S00,LBP03,-1467,159,0,158,-1467,1715716438.32,2024-05-14 19:53:58.320000+00:00,2024-05-15 04:53:58.320000+09:00,2024,5,14,19,53,58,320,,,,,,,,,0.433838,0.241211,1.19043,-76.049805,48.217773,48.217773,,,,,,,,,,,0.0,1.0,1.0,0.0,0.0,0.0,0.0,4.0,0.0,0.11392900000000002,-0.16112632,0.9795833199999998,-3.266601520000001,-3.748372426666668,0.9985350800000004,14.217530038363554,-11.686753844264288,-6.3487921740710345,3.3778429583678498,-27.620127968369786,24.981664130430914,37.3947166691523,-0.9522065334677019,36.64444050214198,-1.0062721834562105,0.319909,0.40233732,0.21084668000000029,0.9330930000000003,0.5555838458889936,0.7805755555794183,0.7878255652415735,0.7917944493580893
LBP03_S00,LBP03,-1466,160,0,159,-1466,1715716438.36,2024-05-14 19:53:58.360000+00:00,2024-05-15 04:53:58.360000+09:00,2024,5,14,19,53,58,360,,,,,,,,,-0.293701,-0.966553,2.152344,-76.599121,13.305664,47.302246,,,,,,,,,,,0.0,1.0,1.0,0.0,0.0,0.0,0.0,4.0,0.0,0.10377601333333333,-0.17017254666666667,0.9890527200000001,-2.9451497066666676,-3.5750325733333352,1.2679035600000004,14.805675307174099,-4.79045086897624,-7.113761871779853,3.970069970654814,-27.811746003128835,24.697113655559722,37.405909883734715,-1.0191225745297452,36.73635434057205,-1.0036816222980496,-0.3974770133333333,-0.7963804533333333,1.1632912799999997,2.3571487466666663,1.4647376572969748,0.810341233437059,0.8023345888838668,0.8053066626324955
LBP03_S00,LBP03,-1465,161,0,160,-1465,1715716438.4,2024-05-14 19:53:58.400000+00:00,2024-05-15 04:53:58.400000+09:00,2024,5,14,19,53,58,400,,,,,,,,,0.047363,-0.285889,1.583496,63.110352,7.507324,27.770996,,,,,,,,,,,0.0,1.0,1.0,0.0,0.0,0.0,0.0,4.0,0.0,0.10431312,-0.17515952,0.9874804533333332,-0.003255173333334132,-3.1168620000000016,0.6355793466666669,14.412976780597555,1.1590549530693603,-8.160789426959452,4.5465890418787165,-27.76538380500606,24.370682078481344,37.22254900897353,-1.0292879987968633,36.734966352594576,-0.9967532217316503,-0.05695011999999999,-0.11072947999999999,0.5960155466666668,0.7636951466666668,0.6088832940535078,0.8135654926570851,0.8066503926723259,0.8056517369471456
LBP03_S00,LBP03,-1464,162,0,161,-1464,1715716438.44,2024-05-14 19:53:58.440000+00:00,2024-05-15 04:53:58.440000+09:00,2024,5,14,19,53,58,440,,,,,,,,,0.10083,-0.244141,0.868652,81.848145,179.016113,5.310059,,,,,,,,,,,0.0,1.0,1.0,0.0,0.0,0.0,0.0,4.0,0.0,0.10251298666666665,-0.16791017333333333,0.9645865733333335,1.3403320666666658,0.03336586666666486,-0.09928393333333309,12.794606604738675,5.246757971376562,-9.131437393861486,5.058373306068264,-27.555513486150996,24.005424582726885,36.89381890487866,-1.0185258841418643,36.64507459327336,-0.9897266887145285,-0.0016829866666666499,-0.07623082666666667,-0.09593457333333355,0.17384838666666685,0.1225455578103601,0.798382495339783,0.7792087794955875,0.7930159010914776
LBP03_S00,LBP03,-1463,163,0,162,-1463,1715716438.48,2024-05-14 19:53:58.480000+00:00,2024-05-15 04:53:58.480000+09:00,2024,5,14,19,53,58,480,,,,,,,,,-0.481934,0.283936,-0.256348,55.358887,27.404785,-86.669922,,,,,,,,,,,0.0,1.0,1.0,0.0,0.0,0.0,0.0,4.0,0.0,0.09391597333333333,-0.15848634666666667,0.9379524666666667,2.3331706133333325,-0.7836914266666685,-1.4868164799999999,9.964645582635805,7.3015009846953465,-9.496507431201428,5.456959129373696,-27.263453446763183,23.625564285478827,36.48618347526596,-1.0318556844310434,36.48045554548565,-0.9966344778442249,-0.5758499733333333,0.4424223466666667,-1.1943004666666668,2.2125727866666667,1.397746160537835,0.7988713295987084,0.7916429427628944,0.797314307012316
LBP03_S00,LBP03,-1462,164,0,163,-1462,1715716438.52,2024-05-14 19:53:58.520000+00:00,2024-05-15 04:53:58.520000+09:00,2024,5,14,19,53,58,520,,,,,,,,,0.125488,-0.131836,0.195801,54.077148,-103.149414,-74.157715,,,,,,,,,,,0.0,1.0,1.0,0.0,0.0,0.0,0.0,4.0,0.0,0.10164058666666667,-0.15842450666666666,0.9377831866666666,2.2778320666666656,-4.828287773333335,-2.111002666666667,6.393277975988585,7.78558852021877,-8.860094648569037,5.71269024841324,-26.952029905954433,23.271160499536066,36.06374435525165,-0.9966222854831603,36.26400791591753,-1.0091518674600364,0.023847413333333317,0.02658850666666665,-0.7419821866666666,0.7924181066666666,0.742841310873394,0.7999306960024387,0.7973776667348901,0.7968771657444184
LBP03_S00,LBP03,-1461,165,0,164,-1461,1715716438.56,2024-05-14 19:53:58.560000+00:00,2024-05-15 04:53:58.560000+09:00,2024,5,14,19,53,58,560,,,,,,,,,0.451172,0.044922,0.618652,0.427246,-151.428223,-30.273438,,,,,,,,,,,0.0,1.0,1.0,0.0,0.0,0.0,0.0,4.0,0.0,0.10947912,-0.15787112,0.9472395733333333,2.071940146666666,-4.868977880000002,-1.6430664799999997,2.9501392879219885,7.381811557079623,-7.208880929293194,5.830695819930119,-26.656757443671246,22.982805262364337,35.67616948164467,-0.9611532430775095,36.026178236482416,-1.0193898003634054,0.34169288000000003,0.20279312,-0.3285875733333333,0.8730735733333334,0.5156053404602376,0.8071704788374885,0.7966402450539664,0.7936233801533545
LBP03_S00,LBP03,-1460,166,0,165,-1460,1715716438.6,2024-05-14 19:53:58.600000+00:00,2024-05-15 04:53:58.600000+09:00,2024,5,14,19,53,58,600,,,,,,,,,0.509033,0.087158,1.078613,-15.563965,43.273926,12.634277,,,,,,,,,,,0.0,1.0,1.0,0.0,0.0,0.0,0.0,4.0,0.0,0.11013341333333332,-0.15699546666666667,0.9597363200000001,-0.1228840666666677,-2.3640950666666685,-0.10986334666666646,0.5679808949700568,6.541630416190854,-4.94406345131616,5.853415055728921,-26.39509222702361,22.78504272431169,35.357057759893216,-0.9559238788041063,35.80090572033186,-1.0247984551010452,0.39889958666666664,0.24415346666666665,0.11887667999999996,0.7619297333333332,0.48255928192918535,0.7754650558385774,0.7868620971202586,0.7866570200097787
LBP03_S00,LBP03,-1459,167,0,166,-1459,1715716438.64,2024-05-14 19:53:58.640000+00:00,2024-05-15 04:53:58.640000+09:00,2024,5,14,19,53,58,640,,,,,,,,,-0.083252,-0.566895,1.738037,-247.741699,27.404785,75.561523,,,,,,,,,,,0.0,1.0,1.0,0.0,0.0,0.0,0.0,4.0,0.0,0.0955338,-0.16913414666666668,0.9727050799999999,-1.3598632266666677,-1.3444010533333348,0.6835936800000002,-0.21390616178645586,5.28050572930426,-2.6689451705989944,5.844858809257463,-26.18387199785144,22.67828491748773,35.12922051652691,-1.0522974407647383,35.6197418644589,-1.025725297806876,-0.1787858,-0.39776085333333333,0.7653319200000002,1.3418785733333336,0.8808581080383993,0.7815437255649393,0.7868435772346356,0.789693618950469
LBP03_S00,LBP03,-1458,168,0,167,-1458,1715716438.68,2024-05-14 19:53:58.680000+00:00,2024-05-15 04:53:58.680000+09:00,2024,5,14,19,53,58,680,,,,,,,,,0.075195,-0.29126,1.717041,78.24707,7.080078,28.259277,,,,,,,,,,,0.0,1.0,1.0,0.0,0.0,0.0,0.0,4.0,0.0,0.09408849333333333,-0.17573571999999998,0.9779394533333332,1.0245768799999988,-2.779947933333335,-0.02278651999999975,0.4390094745290858,3.3290279247371344,-0.8618042088805858,5.8624191882386265,-26.050710880861956,22.643812749132508,35.01070910385369,-1.074523151103631,35.506022877088775,-1.0235723500740053,-0.01889349333333333,-0.11552428000000003,0.7391015466666668,0.8735193200000002,0.7483140514816718,0.7902307928025192,0.7867960021769902,0.7911005254295902
LBP03_S00,LBP03,-1457,169,0,168,-1457,1715716438.72,2024-05-14 19:53:58.720000+00:00,2024-05-15 04:53:58.720000+09:00,2024,5,14,19,53,58,720,,,,,,,,,0.28833,-0.411133,1.474609,17.456055,44.311523,41.687012,,,,,,,,,,,0.0,1.0,1.0,0.0,0.0,0.0,0.0,4.0,0.0,0.09571609333333334,-0.17044600000000001,0.9592057333333334,2.657063853333332,-0.09358725333333495,-0.21484379999999972,1.7025419435764726,0.5101499581569101,0.36397527963117315,5.930520865981685,-26.03030488253568,22.658371760317756,35.016419874801166,-1.0545858625013933,35.47119576194845,-1.0183882495579517,0.19261390666666664,-0.240687,0.5154032666666667,0.9487041733333333,0.6005588033665533,0.7888205552521983,0.7742719756534642,0.7924850448597278
LBP03_S00,LBP03,-1456,170,0,169,-1456,1715716438.76,2024-05-14 19:53:58.760000+00:00,2024-05-15 04:53:58.760000+09:00,2024,5,14,19,53,58,760,,,,,,,,,-0.557373,0.070801,-0.0896,123.657227,227.050781,-31.005859,,,,,,,,,,,0.0,1.0,1.0,0.0,0.0,0.0,0.0,4.0,0.0,0.085817,-0.15962568000000002,0.92952148,3.8907878133333322,0.874837226666665,-1.564941453333333,2.5026310151957274,-2.92258087533794,1.2672315609551337,6.030626106589514,-26.147208117549198,22.70906102275596,35.153184722229135,-1.0732091219061426,35.51440821949852,-1.025221530841669,-0.64319,0.23042668000000002,-1.01912148,1.89273816,1.2269467885581724,0.7981341433561545,0.7839000632030196,0.789033192938614
LBP03_S00,LBP03,-1455,171,0,170,-1455,1715716438.8,2024-05-14 19:53:58.800000+00:00,2024-05-15 04:53:58.800000+09:00,2024,5,14,19,53,58,800,,,,,,,,,0.149902,0.065918,0.166748,20.690918,-142.700195,-52.55127,,,,,,,,,,,0.0,1.0,1.0,0.0,0.0,0.0,0.0,4.0,0.0,0.09195958666666668,-0.15761721333333334,0.9260742133333334,3.6352539599999987,-3.417154960000001,-2.110188853333333,2.0641362466170334,-6.223859842998252,2.2537770446912657,6.113191556454195,-26.39616251126913,22.79921210454361,35.41091045024401,-1.03855642585517,35.62491902920529,-1.0385347683299735,0.05794241333333333,0.22353521333333334,-0.7593262133333334,1.0408038400000001,0.7936634129894162,0.7878261002569968,0.7903780206321335,0.7893510498828009
LBP03_S00,LBP03,-1454,172,0,171,-1454,1715716438.84,2024-05-14 19:53:58.840000+00:00,2024-05-15 04:53:58.840000+09:00,2024,5,14,19,53,58,840,,,,,,,,,0.155273,0.120605,0.232178,14.099121,-106.201172,-61.279297,,,,,,,,,,,0.0,1.0,1.0,0.0,0.0,0.0,0.0,4.0,0.0,0.10055333333333333,-0.15684246666666668,0.9348307200000001,3.9469401599999983,-3.476562506666668,-1.4298503199999997,0.2935945294492407,-8.443423277930144,3.561493698716476,6.124935337632165,-26.733899442386335,22.94167185249227,35.75662903117736,-0.9969964068131566,35.78582162214071,-1.0481589134109692,0.054719666666666666,0.2774474666666667,-0.7026527200000001,1.0348198533333335,0.7574247049068711,0.7901255828652144,0.7916654638702206,0.796378515394133
LBP03_S00,LBP03,-1453,173,0,172,-1453,1715716438.88,2024-05-14 19:53:58.880000+00:00,2024-05-15 04:53:58.880000+09:00,2024,5,14,19,53,58,880,,,,,,,,,0.650635,-0.226074,0.844482,12.268066,-135.375977,-12.329102,,,,,,,,,,,0.0,1.0,1.0,0.0,0.0,0.0,0.0,4.0,0.0,0.10259761333333334,-0.15408205333333333,0.9476660133333336,3.016764373333332,-1.507975266666668,-0.14973963999999967,-2.199957400968257,-8.901667248004921,5.054475513691129,6.0369370415934345,-27.089966132306532,23.143850873039916,36.13791232386271,-0.9800146792705086,35.977502220842986,-1.0497402836629346,0.5480373866666666,-0.07199194666666667,-0.1031840133333336,0.7232133466666668,0.5622941918398758,0.7589586576512987,0.7885801826837775,0.7851751251989091
LBP03_S00,LBP03,-1452,174,0,173,-1452,1715716438.92,2024-05-14 19:53:58.920000+00:00,2024-05-15 04:53:58.920000+09:00,2024,5,14,19,53,58,920,,,,,,,,,0.141113,0.457031,1.135742,-54.138184,91.61377,43.701172,,,,,,,,,,,0.0,1.0,1.0,0.0,0.0,0.0,0.0,4.0,0.0,0.09060542666666667,-0.16523765333333335,0.9621093733333334,0.5615234799999989,-0.177408866666668,0.797525986666667,-4.433459639703979,-7.55183126979307,6.259335907648432,5.859598656005275,-27.392039383098254,23.394224309345855,36.49586893075233,-1.0649550983203335,36.17989737465933,-1.0471801921161257,0.05050757333333332,0.6222686533333334,0.17363262666666668,0.8464088533333334,0.6480104790267426,0.7587017206986182,0.7815998997767075,0.7849556986991623
LBP03_S00,LBP03,-1451,175,0,174,-1451,1715716438.96,2024-05-14 19:53:58.960000+00:00,2024-05-15 04:53:58.960000+09:00,2024,5,14,19,53,58,960,,,,,,,,,-0.023926,-0.960449,2.155273,-161.682129,-31.616211,70.800781,,,,,,,,,,,0.0,1.0,1.0,0.0,0.0,0.0,0.0,4.0,0.0,0.08817378666666667,-0.17280601333333334,0.9674316399999999,2.3478190533333323,-1.1962890800000014,0.30110670666666695,-5.534992182577267,-4.99534131405087,6.627030837714871,5.638198968702184,-27.59185303566029,23.65930554285445,36.78127757871243,-1.0942856179605553,36.37352484965751,-1.042536139944072,-0.11209978666666667,-0.7876429866666667,1.1878413600000002,2.0875841333333334,1.4296555295393885,0.7980688107935617,0.7935157225552163,0.7973358774513175
LBP03_S00,LBP03,-1450,176,0,175,-1450,1715716439.0,2024-05-14 19:53:59+00:00,2024-05-15 04:53:59+09:00,2024,5,14,19,53,59,0,19.0,53.0,57.0,40.549648,141.555664,13.509,3.0,12.0,0.0354,-0.323486,1.5625,4.089355,0.671387,53.222656,-260.0,33.0,365.0,986.0,0.0,1014.0,17.129999,0.00991,-6.238727,0.0,0.0,1.0,1.0,0.0,0.0,0.0,0.0,4.0,0.0,0.09292964000000001,-0.16445314666666666,0.9514746133333334,5.216471399999998,1.0978189866666652,0.06103509333333364,-5.121539028292931,-2.1474894617899127,5.861587025806432,5.433337407570467,-27.677752614131887,23.89376902388671,36.96608368924732,-1.0521653296140627,36.54008775307137,-1.032587574209937,-0.05752964000000001,-0.15903285333333333,0.6110253866666666,0.8275878799999999,0.6339977374320989,0.8000276271332695,0.7891508541265831,0.7983920476557378
LBP03_S00,LBP03,-1449,177,0,176,-1449,1715716439.04,2024-05-14 19:53:59.040000+00:00,2024-05-15 04:53:59.040000+09:00,2024,5,14,19,53,59,40,,,,,,,,,0.016357,-0.108398,0.802979,68.969727,191.650391,31.860352,,,,,,,,,,,0.0,1.0,1.0,0.0,0.0,0.0,0.0,4.0,0.0,0.08478511999999999,-0.15572268,0.9271712266666666,6.328938853333332,1.7065429466666653,-1.32161464,-3.3754746693176134,0.2370125808416781,4.113701033424402,5.298318420797762,-27.66827211089822,24.058317065223683,37.04602650354969,-1.0681111432843917,36.66370984207308,-1.032497840726014,-0.06842812,0.04732468000000001,-0.12419222666666663,0.23994502666666662,0.14948492267871533,0.7748535214761012,0.7753472894973054,0.7826627641434657
LBP03_S00,LBP03,-1448,178,0,177,-1448,1715716439.08,2024-05-14 19:53:59.080000+00:00,2024-05-15 04:53:59.080000+09:00,2024,5,14,19,53,59,80,,,,,,,,,-0.402832,0.22168,-0.330566,58.410645,17.272949,-63.964844,,,,,,,,,,,0.0,1.0,1.0,0.0,0.0,0.0,0.0,4.0,0.0,0.08740882666666666,-0.15341148,0.9192773466666667,5.959472706666665,-1.8432617466666679,-2.2281901599999996,-0.8121371522450681,1.9009767258030879,1.920980098252982,5.2658329347079595,-27.592233041866095,24.135156269153804,37.03466064201718,-1.0489222356355423,36.733198384518595,-1.0424348860070674,-0.4902408266666667,0.37509148,-1.2498433466666667,2.1151756533333335,1.3939648767836086,0.7888390195281966,0.7883094916217834,0.7931710082079321
LBP03_S00,LBP03,-1447,179,0,178,-1447,1715716439.12,2024-05-14 19:53:59.120000+00:00,2024-05-15 04:53:59.120000+09:00,2024,5,14,19,53,59,120,,,,,,,,,0.145752,-0.037598,0.07959,58.410645,-84.472656,-63.232422,,,,,,,,,,,0.0,1.0,1.0,0.0,0.0,0.0,0.0,4.0,0.0,0.09756181333333334,-0.15600262666666664,0.9312434933333332,5.582682333333332,-3.4130859600000014,-1.877441453333333,2.0782354035074895,3.0968838587766703,-0.06536482443112974,5.348962350848259,-27.468357687515027,24.132541676176558,36.952694624782865,-1.0081453407808556,36.74457295104877,-1.0522403208114504,0.04819018666666665,0.11840462666666665,-0.8516534933333333,1.0182483066666665,0.8611943000356602,0.7888053820627134,0.7936459161485151,0.8030789215261736
LBP03_S00,LBP03,-1446,180,0,179,-1446,1715716439.16,2024-05-14 19:53:59.160000+00:00,2024-05-15 04:53:59.160000+09:00,2024,5,14,19,53,59,160,,,,,,,,,0.471924,-0.113281,0.670654,-2.319336,-160.644531,-35.888672,,,,,,,,,,,0.0,1.0,1.0,0.0,0.0,0.0,0.0,4.0,0.0,0.10263017333333334,-0.15200848,0.94439128,5.013834666666665,-1.9474284133333348,-0.8113607333333328,5.070322004939941,4.288231987162825,-1.3968133028298009,5.551775231045856,-27.296828408028514,24.076669144063366,36.81881375636782,-0.9737234645647941,36.70243503177622,-1.0544086194062694,0.36929382666666666,0.038727479999999995,-0.2737372800000001,0.6817585866666667,0.4613131762512956,0.7732590071705228,0.7925931830805724,0.789389476000983
LBP03_S00,LBP03,-1445,181,0,180,-1445,1715716439.2,2024-05-14 19:53:59.200000+00:00,2024-05-15 04:53:59.200000+09:00,2024,5,14,19,53,59,200,,,,,,,,,0.478516,0.258789,1.117676,7.568359,65.979004,4.821777,,,,,,,,,,,0.0,1.0,1.0,0.0,0.0,0.0,0.0,4.0,0.0,0.09447588,-0.16155601333333333,0.96182944,2.2273763333333316,0.674641906666665,0.5745442133333337,8.18828497509279,5.754820204023562,-1.9983871144995438,5.879306630049568,-27.06663559986757,23.996733659483386,36.64713134026108,-1.0376590910159378,36.61914701460232,-1.0532986592306144,0.38404012,0.4203450133333333,0.15584655999999986,0.9602316933333331,0.5903091514347784,0.7618455081950333,0.7812643231436275,0.785688791113425
LBP03_S00,LBP03,-1444,182,0,181,-1444,1715716439.24,2024-05-14 19:53:59.240000+00:00,2024-05-15 04:53:59.240000+09:00,2024,5,14,19,53,59,240,,,,,,,,,-0.040039,-0.811523,2.003174,-177.368164,11.71875,67.199707,,,,,,,,,,,0.0,1.0,1.0,0.0,0.0,0.0,0.0,4.0,0.0,0.08519853333333334,-0.16772137333333334,0.9687890666666665,3.295084666666665,0.18229165333333172,0.7722981200000004,11.485250461442037,7.368158914676976,-2.1106524951117804,6.3387166485072495,-26.77190924328049,23.912307559678915,36.451514455632534,-1.096366859623693,36.51191736550291,-1.051552954594538,-0.12523753333333335,-0.6438016266666666,1.0343849333333335,1.8034240933333334,1.2247927026893444,0.7790380464575768,0.78685022544139,0.7948354645180756
LBP03_S00,LBP03,-1443,183,0,182,-1443,1715716439.28,2024-05-14 19:53:59.280000+00:00,2024-05-15 04:53:59.280000+09:00,2024,5,14,19,53,59,280,,,,,,,,,-0.17041,-0.287109,1.692871,63.415527,-6.774902,24.963379,,,,,,,,,,,0.0,1.0,1.0,0.0,0.0,0.0,0.0,4.0,0.0,0.08777665333333333,-0.16520509333333333,0.95940756,6.901041693333331,1.5250650799999985,0.3995767600000005,14.805926262760293,8.662597451482469,-2.071516194934387,6.930953699017661,-26.42540534522119,23.82944691188154,36.251657989164464,-1.078069027314339,36.39898572151377,-1.0447067488272879,-0.25818665333333335,-0.12190390666666667,0.73346344,1.113554,0.7870765707583322,0.7856144782664565,0.790747963783983,0.7976754969145264
