file_name,test_id,_program_index,program_index,session_id,index,_index,unixtime,datetime_utc,datetime_jst,rtc_year,rtc_month,rtc_day,rtc_hour,rtc_min,rtc_sec,rtc_msec,gps_hour,gps_min,gps_sec,latitude,longitude,altitude,fix_type,SIV,acc_x,acc_y,acc_z,gyro_x,gyro_y,gyro_z,mag_x,mag_y,mag_z,illuminance,atmopress,water_pressure,water_temp,depth,alt_wps,battery_level,behavior_class,camera_command,camera_recording,camera_count,play_audio,speaker_on,audio_file,prev_sd_write_time_ms,delay_occurred_counter,acc_x_ma,acc_y_ma,acc_z_ma,gyro_x_ma,gyro_y_ma,gyro_z_ma,gyro_x_lowpass,gyro_y_lowpass,gyro_z_lowpass,angle_x,angle_y,angle_z,combined_angle_change,gravity_adjusted_angle,smoothed_angle_change,smoothed_gravity_angle,acc_x_dy,acc_y_dy,acc_z_dy,ODBA,VeDBA,smoothed_VeDBA_1s,smoothed_VeDBA_2s,smoothed_VeDBA_3s
LBP03_S11,LBP03,-1650,1,11,0,-1650,1715757616.0,2024-05-15 07:20:16+00:00,2024-05-15 16:20:16+09:00,2024,5,15,7,20,16,0,7.0,20.0,16.0,40.573238,141.519913,6.018,3.0,13.0,0.319336,-0.568115,1.576416,78.918457,5.859375,65.002441,-277.0,-9.0,367.0,1702.0,0.0,1020.299988,21.219999,0.072341,-58.496948,3.628125,0.0,1.0,1.0,11.0,0.0,0.0,0.0,4.0,0.0,,,,,,,76.78347192114016,5.8827339619888,64.26721011729018,3.0713388768456067,0.235309358479552,2.570688404691607,4.012098187311368,,9.680634451864623,,,,,,,,,
LBP03_S11,LBP03,-1649,2,11,1,-1649,1715757616.04,2024-05-15 07:20:16.040000+00:00,2024-05-15 16:20:16.040000+09:00,2024,5,15,7,20,16,40,,,,,,,,,0.014893,0.059814,0.64917,143.371582,182.189941,32.775879,,,,,,,,,,,0.0,1.0,1.0,11.0,0.0,0.0,0.0,4.0,0.0,,,,,,,74.56668855626478,12.862854976709057,36.90635426018843,6.054006419096198,0.7498235575479143,4.046942575099144,7.32058558423176,,10.754522181338226,,,,,,,,,
LBP03_S11,LBP03,-1648,3,11,2,-1648,1715757616.08,2024-05-15 07:20:16.080000+00:00,2024-05-15 16:20:16.080000+09:00,2024,5,15,7,20,16,80,,,,,,,,,-0.447998,-0.196777,0.156738,69.702148,70.007324,-89.172363,,,,,,,,,,,0.0,1.0,1.0,11.0,0.0,0.0,0.0,4.0,0.0,,,,,,,70.63059909679919,17.951477262571665,13.309678659321973,8.879230382968165,1.467882648050781,4.579329721472023,10.09780532394196,,11.692187581130087,,,,,,,,,
LBP03_S11,LBP03,-1647,4,11,3,-1647,1715757616.12,2024-05-15 07:20:16.120000+00:00,2024-05-15 16:20:16.120000+09:00,2024,5,15,7,20,16,120,,,,,,,,,0.242432,-0.149658,0.287598,58.898926,-65.979004,-93.811035,,,,,,,,,,,0.0,1.0,1.0,11.0,0.0,0.0,0.0,4.0,0.0,,,,,,,64.02441695307698,19.986503398548493,-3.686361645255466,11.440207061091245,2.2673427839927207,4.431875255661804,12.476405699660187,,12.492155920645981,,,,,,,,,
LBP03_S11,LBP03,-1646,5,11,4,-1646,1715757616.16,2024-05-15 07:20:16.160000+00:00,2024-05-15 16:20:16.160000+09:00,2024,5,15,7,20,16,160,,,,,,,,,0.511963,-0.020264,0.874268,160.644531,2.380371,-31.616211,,,,,,,,,,,0.0,1.0,1.0,11.0,0.0,0.0,0.0,4.0,0.0,,,,,,,54.6866779603406,18.506003239430406,-12.743956289560453,13.627674179504869,3.0075829135699372,3.9221170040793862,14.496277464177837,,13.16427772809034,,,,,,,,,
LBP03_S11,LBP03,-1645,6,11,5,-1645,1715757616.2,2024-05-15 07:20:16.200000+00:00,2024-05-15 16:20:16.200000+09:00,2024,5,15,7,20,16,200,,,,,,,,,-0.073975,-0.262207,1.2854,-40.100098,27.954102,54.931641,,,,,,,,,,,0.0,1.0,1.0,11.0,0.0,0.0,0.0,4.0,0.0,,,,,,,43.410585628479204,13.740719343047036,-14.115215264499167,15.364097604644037,3.5572116872918187,3.3575083934994194,16.12396082870624,,13.731246658843606,,,,,,,,,
LBP03_S11,LBP03,-1644,7,11,6,-1644,1715757616.24,2024-05-15 07:20:16.240000+00:00,2024-05-15 16:20:16.240000+09:00,2024,5,15,7,20,16,240,,,,,,,,,-0.084961,-0.914307,1.998047,-24.780273,-33.752441,53.405762,,,,,,,,,,,0.0,1.0,1.0,11.0,0.0,0.0,0.0,4.0,0.0,,,,,,,31.55300946683502,6.477358907726521,-9.254873923087947,16.62621798331744,3.8163060436008793,2.9873134365759015,17.31817997988125,,15.246266431755819,,,,,,,,,
LBP03_S11,LBP03,-1643,8,11,7,-1643,1715757616.28,2024-05-15 07:20:16.280000+00:00,2024-05-15 16:20:16.280000+09:00,2024,5,15,7,20,16,280,,,,,,,,,-0.12207,0.102295,1.562256,89.782715,-15.808105,55.908203,,,,,,,,,,,0.0,1.0,1.0,11.0,0.0,0.0,0.0,4.0,0.0,,,,,,,20.601051647768784,-2.1051206432937195,-0.19319179286926272,17.45026004922819,3.7321012178691304,2.979585764861131,18.09193429725724,,16.481550406087596,,,,,,,,,
LBP03_S11,LBP03,-1642,9,11,8,-1642,1715757616.32,2024-05-15 07:20:16.320000+00:00,2024-05-15 16:20:16.320000+09:00,2024,5,15,7,20,16,320,,,,,,,,,0.298828,-0.554688,1.30835,-54.199219,46.99707,11.535645,,,,,,,,,,,0.0,1.0,1.0,11.0,0.0,0.0,0.0,4.0,0.0,,,,,,,11.745797612366664,-10.590380637173073,11.031762168748411,17.920091953722856,3.3084859923822076,3.4208562516110677,18.541252187645217,,17.512879082320556,,,,,,,,,
LBP03_S11,LBP03,-1641,10,11,9,-1641,1715757616.36,2024-05-15 07:20:16.360000+00:00,2024-05-15 16:20:16.360000+09:00,2024,5,15,7,20,16,360,,,,,,,,,-0.355957,0.071777,0.105225,72.265625,131.103516,-5.249023,,,,,,,,,,,0.0,1.0,1.0,11.0,0.0,0.0,0.0,4.0,0.0,,,,,,,5.581273494841605,-17.505824937773102,22.6868398775938,18.14334289351652,2.6082529948712834,4.328329846714819,18.833967035623,,18.39573880330041,,,,,,,,,
LBP03_S11,LBP03,-1640,11,11,10,-1640,1715757616.4,2024-05-15 07:20:16.400000+00:00,2024-05-15 16:20:16.400000+09:00,2024,5,15,7,20,16,400,,,,,,,,,-0.022217,-0.079102,0.1875,-101.196289,-147.338867,-23.986816,,,,,,,,,,,0.0,1.0,1.0,11.0,0.0,0.0,0.0,4.0,0.0,,,,,,,1.9854944211974421,-21.587726874243465,33.39060204095129,18.222762670364418,1.7447439199015449,5.663953928352871,19.162295916433507,,19.16739298114586,,,,,,,,,
LBP03_S11,LBP03,-1639,12,11,11,-1639,1715757616.44,2024-05-15 07:20:16.440000+00:00,2024-05-15 16:20:16.440000+09:00,2024,5,15,7,20,16,440,,,,,,,,,0.311279,-0.406494,0.564941,7.019043,-100.646973,-2.319336,,,,,,,,,,,0.0,1.0,1.0,11.0,0.0,0.0,0.0,4.0,0.0,,,,,,,0.1941742537823114,-22.12630171170049,42.03186658571325,18.23052964051571,0.8596918514335253,7.345228591781401,19.673425327549495,,19.85342238546642,,,,,,,,,
LBP03_S11,LBP03,-1638,13,11,12,-1638,1715757616.48,2024-05-15 07:20:16.480000+00:00,2024-05-15 16:20:16.480000+09:00,2024,5,15,7,20,16,480,,,,,,,,,0.409668,0.03418,0.70459,122.741699,-52.978516,30.212402,,,,,,,,,,,0.0,1.0,1.0,11.0,0.0,0.0,0.0,4.0,0.0,,,,,,,-0.9574234537703012,-19.266277294736092,47.73401512392276,18.192232702364898,0.08904075964408165,9.254589196738312,20.41109208627158,,20.47317443423032,,,,,,,,,
LBP03_S11,LBP03,-1637,14,11,13,-1637,1715757616.52,2024-05-15 07:20:16.520000+00:00,2024-05-15 16:20:16.520000+09:00,2024,5,15,7,20,16,520,,,,,,,,,0.143066,0.059814,1.001953,-58.105469,10.742188,112.487793,,,,,,,,,,,0.0,1.0,1.0,11.0,0.0,0.0,0.0,4.0,0.0,,,,,,,-2.6919823181609077,-14.073340786786973,49.95748580135831,18.08455340963846,-0.47389287182739726,11.252888628792645,21.305002909458747,,21.042066301170046,,,,,,,,,
LBP03_S11,LBP03,-1636,15,11,14,-1636,1715757616.56,2024-05-15 07:20:16.560000+00:00,2024-05-15 16:20:16.560000+09:00,2024,5,15,7,20,16,560,,,,,,,,,0.172119,-0.696533,1.514648,-149.353027,-50.109863,121.643066,,,,,,,,,,,0.0,1.0,1.0,11.0,0.0,0.0,0.0,4.0,0.0,,,,,,,-5.94428401287163,-8.256209332919502,48.69205106913171,17.846782049123593,-0.8041412451441774,13.200570671557914,22.212819242632328,,21.571221918786453,,,,,,,,,
LBP03_S11,LBP03,-1635,16,11,15,-1635,1715757616.6,2024-05-15 07:20:16.600000+00:00,2024-05-15 16:20:16.600000+09:00,2024,5,15,7,20,16,600,,,,,,,,,0.134033,-0.335693,1.47168,216.97998,73.608398,61.279297,,,,,,,,,,,0.0,1.0,1.0,11.0,0.0,0.0,0.0,4.0,0.0,,,,,,,-11.098653238661859,-3.611256286915302,44.58339082670781,17.402835919577118,-0.9485914966207895,14.983906304626228,22.984254871911826,,22.065572395587637,,,,,,,,,
LBP03_S11,LBP03,-1634,17,11,16,-1634,1715757616.64,2024-05-15 07:20:16.640000+00:00,2024-05-15 16:20:16.640000+09:00,2024,5,15,7,20,16,640,,,,,,,,,0.060059,-0.212891,0.927246,-71.655273,84.960938,46.081543,,,,,,,,,,,0.0,1.0,1.0,11.0,0.0,0.0,0.0,4.0,0.0,,,,,,,-17.872315656269798,-1.409794700323334,38.84121763864303,16.687943293326327,-1.0049832846337228,16.53755501017195,23.51570046752024,,22.52207304564784,,,,,,,,,
LBP03_S11,LBP03,-1633,18,11,17,-1633,1715757616.68,2024-05-15 07:20:16.680000+00:00,2024-05-15 16:20:16.680000+09:00,2024,5,15,7,20,16,680,,,,,,,,,-0.244629,0.119141,0.130615,24.291992,105.834961,-18.493652,,,,,,,,,,,0.0,1.0,1.0,11.0,0.0,0.0,0.0,4.0,0.0,,,,,,,-25.398688797945596,-1.997030931617931,32.89381055307716,15.671995741408503,-1.08486452189844,17.853307432295036,23.780852966654525,,22.930490320739814,,,,,,,,,
LBP03_S11,LBP03,-1632,19,11,18,-1632,1715757616.72,2024-05-15 07:20:16.720000+00:00,2024-05-15 16:20:16.720000+09:00,2024,5,15,7,20,16,720,,,,,,,,,0.003662,0.009521,0.357422,-97.412109,-119.689941,-35.949707,,,,,,,,,,,0.0,1.0,1.0,11.0,0.0,0.0,0.0,4.0,0.0,,,,,,,-32.52926238065013,-4.79138315451337,27.911866959971665,14.370825246182498,-1.2765198480789748,18.969782110693902,23.832808363809292,,23.278515953500246,,,,,,,,,
LBP03_S11,LBP03,-1631,20,11,19,-1631,1715757616.76,2024-05-15 07:20:16.760000+00:00,2024-05-15 16:20:16.760000+09:00,2024,5,15,7,20,16,760,,,,,,,,,0.248535,-0.12207,0.395752,-112.792969,-101.379395,-43.029785,,,,,,,,,,,0.0,1.0,1.0,11.0,0.0,0.0,0.0,4.0,0.0,,,,,,,-38.275164635501014,-8.679220314677904,24.422957494130085,12.839818660762457,-1.623688660666091,19.946700410459105,23.777471803634818,,23.560241816409054,,,,,,,,,
LBP03_S11,LBP03,-1630,21,11,20,-1630,1715757616.8,2024-05-15 07:20:16.800000+00:00,2024-05-15 16:20:16.800000+09:00,2024,5,15,7,20,16,800,,,,,,,,,0.564941,-0.39917,1.010742,23.4375,-80.078125,23.071289,,,,,,,,,,,0.0,1.0,1.0,11.0,0.0,0.0,0.0,4.0,0.0,,,,,,,-42.21303480504952,-12.585224712421853,22.2144970159516,11.151297268560477,-2.127097649162965,20.83528029109717,23.72730241703555,,23.784791882516902,,,,,,,,,
LBP03_S11,LBP03,-1629,22,11,21,-1629,1715757616.84,2024-05-15 07:20:16.840000+00:00,2024-05-15 16:20:16.840000+09:00,2024,5,15,7,20,16,840,,,,,,,,,-0.117188,0.357178,0.894287,-78.186035,68.481445,118.896484,,,,,,,,,,,0.0,1.0,1.0,11.0,0.0,0.0,0.0,4.0,0.0,,,,,,,-44.67185581955666,-15.908835400188488,20.582664859336546,9.36442303577821,-2.763451065170505,21.658586885470633,23.757598078469254,,23.98152054370235,,,,,,,,,
LBP03_S11,LBP03,-1628,23,11,22,-1628,1715757616.88,2024-05-15 07:20:16.880000+00:00,2024-05-15 16:20:16.880000+09:00,2024,5,15,7,20,16,880,,,,,,,,,0.102051,-0.511475,1.705566,-219.665527,-69.580078,75.98877,,,,,,,,,,,0.0,1.0,1.0,11.0,0.0,0.0,0.0,4.0,0.0,,,,,,,-46.599745692369964,-18.6204839846093,18.79869748978896,7.500433208083411,-3.508270424554877,22.410534785062193,23.89134841387588,,24.19838999535996,,,,,,,,,
LBP03_S11,LBP03,-1627,24,11,23,-1627,1715757616.92,2024-05-15 07:20:16.920000+00:00,2024-05-15 16:20:16.920000+09:00,2024,5,15,7,20,16,920,,,,,,,,,0.152344,-1.003906,1.922119,92.590332,-25.817871,20.446777,,,,,,,,,,,0.0,1.0,1.0,11.0,0.0,0.0,0.0,4.0,0.0,,,,,,,-49.12615215434553,-21.018433593130514,16.543098445759753,5.53538712190959,-4.349007768280098,23.072258722892585,24.122261538546837,,24.491384463902868,,,,,,,,,
LBP03_S11,LBP03,-1626,25,11,24,-1626,1715757616.96,2024-05-15 07:20:16.960000+00:00,2024-05-15 16:20:16.960000+09:00,2024,5,15,7,20,16,960,,,,,,,,,0.007812,-0.447754,0.937012,14.343262,42.541504,27.22168,,,,,,,,,,,0.0,1.0,1.0,11.0,0.0,0.0,0.0,4.0,0.0,,,,,,,-52.959023056417784,-23.314324030975165,14.081766632816068,3.4170261996528786,-5.281580729519105,23.635529388205228,24.458319903710777,,24.907160533852338,,,,,,,,,
LBP03_S11,LBP03,-1625,26,11,25,-1625,1715757617.0,2024-05-15 07:20:17+00:00,2024-05-15 16:20:17+09:00,2024,5,15,7,20,17,0,7.0,20.0,17.0,40.573307,141.519913,6.823,3.0,13.0,-0.210449,0.514404,-0.155762,149.230957,155.944824,-20.263672,-260.0,0.0,357.0,1445.0,0.0,1019.900024,21.209999,0.068377,-55.187038,3.628125,0.0,1.0,1.0,11.0,0.0,0.0,0.0,5.0,0.0,,,,,,,-57.87369299635558,-25.282751530030392,12.106567789334822,1.1020784797986551,-6.29289079072032,24.11979209977862,24.95154148376631,,25.466643041924325,,,,,,,,,
LBP03_S11,LBP03,-1624,27,11,26,-1624,1715757617.04,2024-05-15 07:20:17.040000+00:00,2024-05-15 16:20:17.040000+09:00,2024,5,15,7,20,17,40,,,,,,,,,-0.061768,0.010742,-0.095459,-191.650391,-100.524902,-26.916504,,,,,,,,,,,0.0,1.0,1.0,11.0,0.0,0.0,0.0,5.0,0.0,,,,,,,-62.577912698473654,-26.184467020755164,11.336990100038548,-1.4010380281402912,-7.340269471550527,24.573271703780165,25.68439498409637,,26.15805668594482,,,,,,,,,
LBP03_S11,LBP03,-1623,28,11,27,-1623,1715757617.08,2024-05-15 07:20:17.080000+00:00,2024-05-15 16:20:17.080000+09:00,2024,5,15,7,20,17,80,,,,,,,,,0.159668,-0.239258,0.078125,-172.668457,-110.656738,-14.282227,,,,,,,,,,,0.0,1.0,1.0,11.0,0.0,0.0,0.0,5.0,0.0,,,,,,,-65.08316772791052,-25.047694776857835,12.086524497055937,-4.0043647372567115,-8.34217726262484,25.056732683662403,26.710797652083613,,26.942231012599507,,,,,,,,,
LBP03_S11,LBP03,-1622,29,11,28,-1622,1715757617.12,2024-05-15 07:20:17.120000+00:00,2024-05-15 16:20:17.120000+09:00,2024,5,15,7,20,17,120,,,,,,,,,0.390137,-0.593018,0.618896,-144.592285,-126.77002,-43.945312,,,,,,,,,,,0.0,1.0,1.0,11.0,0.0,0.0,0.0,5.0,0.0,,,,,,,-63.435904839635086,-21.18811588012062,14.00448080148423,-6.541800930842115,-9.189701897829666,25.616911915721772,27.990569063303965,,27.765964731745818,,,,,,,,,
LBP03_S11,LBP03,-1621,30,11,29,-1621,1715757617.16,2024-05-15 07:20:17.160000+00:00,2024-05-15 16:20:17.160000+09:00,2024,5,15,7,20,17,160,,,,,,,,,0.450684,0.073975,0.783203,101.44043,37.475586,24.902344,,,,,,,,,,,0.0,1.0,1.0,11.0,0.0,0.0,0.0,5.0,0.0,,,,,,,-56.471815579443586,-14.686318213634046,16.124618840032014,-8.800673554019859,-9.777154626375028,26.261896669323054,29.372296884354693,,28.576017474922548,,,,,,,,,
LBP03_S11,LBP03,-1620,31,11,30,-1620,1715757617.2,2024-05-15 07:20:17.200000+00:00,2024-05-15 16:20:17.200000+09:00,2024,5,15,7,20,17,200,,,,,,,,,0.072021,0.077148,1.156738,-105.102539,-15.258789,61.950684,,,,,,,,,,,0.0,1.0,1.0,11.0,0.0,0.0,0.0,5.0,0.0,,,,,,,-44.28818497345316,-6.553645768172063,17.219414496539514,-10.572200952957985,-10.03930045710191,26.950673249184636,30.641438857240512,,29.327958044398855,,,,,,,,,
LBP03_S11,LBP03,-1619,32,11,31,-1619,1715757617.24,2024-05-15 07:20:17.240000+00:00,2024-05-15 16:20:17.240000+09:00,2024,5,15,7,20,17,240,,,,,,,,,0.27417,-0.944824,1.642334,-209.472656,-62.927246,75.683594,,,,,,,,,,,0.0,1.0,1.0,11.0,0.0,0.0,0.0,5.0,0.0,,,,,,,-28.300637221419265,1.5098879340118116,16.319627593286622,-11.704226441814756,-9.978904939741438,27.6034583529161,31.599341345016125,,29.988494751192025,,,,,,,,,
LBP03_S11,LBP03,-1618,33,11,32,-1618,1715757617.28,2024-05-15 07:20:17.280000+00:00,2024-05-15 16:20:17.280000+09:00,2024,5,15,7,20,17,280,,,,,,,,,0.170654,-0.432129,1.30835,130.615234,99.67041,37.17041,,,,,,,,,,,0.0,1.0,1.0,11.0,0.0,0.0,0.0,5.0,0.0,,,,,,,-10.897235990980766,7.663700177448628,13.17182253569996,-12.140115881453987,-9.672356932643494,28.1303312543441,32.12868560533899,,30.534191389090125,,,,,,,,,
LBP03_S11,LBP03,-1617,34,11,33,-1617,1715757617.32,2024-05-15 07:20:17.320000+00:00,2024-05-15 16:20:17.320000+09:00,2024,5,15,7,20,17,320,,,,,,,,,0.068848,-0.151123,0.770264,34.912109,85.632324,43.273926,,,,,,,,,,,0.0,1.0,1.0,11.0,0.0,0.0,0.0,5.0,0.0,,,,,,,5.209364420237986,10.555073956985574,8.419459052654025,-11.931741304644467,-9.250153974364071,28.467109616450262,32.22278897031412,,30.951123218605336,-1.0547309755906087,,,,,,,,
LBP03_S11,LBP03,-1616,35,11,34,-1616,1715757617.36,2024-05-15 07:20:17.360000+00:00,2024-05-15 16:20:17.360000+09:00,2024,5,15,7,20,17,360,,,,,,,,,-0.203369,0.060059,0.234375,61.645508,95.64209,3.051758,,,,,,,,,,,0.0,1.0,1.0,11.0,0.0,0.0,0.0,5.0,0.0,,,,,,,17.744558290077155,9.769203040131046,3.4069807803147847,-11.22195897304138,-8.85938585275883,28.603388847662853,31.977725598473867,,31.237609239427307,-1.0510131712916766,,,,,,,,
LBP03_S11,LBP03,-1615,36,11,35,-1615,1715757617.4,2024-05-15 07:20:17.400000+00:00,2024-05-15 16:20:17.400000+09:00,2024,5,15,7,20,17,400,,,,,,,,,0.154053,0.040039,0.274902,-2.13623,-88.317871,-66.711426,,,,,,,,,,,0.0,1.0,1.0,11.0,0.0,0.0,0.0,5.0,0.0,,,,,,,25.498919234755142,5.905951999809044,-0.32997703716950244,-10.202002203651174,-8.623147772766469,28.590189766176074,31.556908551697994,,31.407775862922836,-1.042974123238209,,,,,,,,
LBP03_S11,LBP03,-1614,37,11,36,-1614,1715757617.44,2024-05-15 07:20:17.440000+00:00,2024-05-15 16:20:17.440000+09:00,2024,5,15,7,20,17,440,,,,,,,,,-0.015869,-0.411133,0.407227,58.166504,-32.653809,-80.932617,,,,,,,,,,,0.0,1.0,1.0,11.0,0.0,0.0,0.0,5.0,0.0,,,,,,,28.606177132768238,0.2531715302145831,-1.6815841021646287,-9.057755118340445,-8.613020911557886,28.52292640208949,31.141361363077394,,31.49217414520939,-1.0252980715071036,,,,,,,,
LBP03_S11,LBP03,-1613,38,11,37,-1613,1715757617.48,2024-05-15 07:20:17.480000+00:00,2024-05-15 16:20:17.480000+09:00,2024,5,15,7,20,17,480,,,,,,,,,0.398682,0.336182,0.382324,170.959473,-57.495117,-41.442871,,,,,,,,,,,0.0,1.0,1.0,11.0,0.0,0.0,0.0,5.0,0.0,0.11809245333333332,-0.21214198666666667,0.8874869733333333,-10.554199186666667,-4.618326826666666,13.19173176,28.384302241179874,-5.776375127365035,-0.41978654154154815,-7.92238302869325,-8.844075916652487,28.506134940427827,30.880115947235684,-1.0547309755906087,31.534049149087025,-1.023998859113814,0.2805895466666667,0.5483239866666667,-0.5051629733333333,1.3340765066666667,0.7966048692291595,0.7966048692291595,0.7966048692291595,0.7966048692291595
LBP03_S11,LBP03,-1612,39,11,38,-1612,1715757617.52,2024-05-15 07:20:17.520000+00:00,2024-05-15 16:20:17.520000+09:00,2024,5,15,7,20,17,520,,,,,,,,,0.066406,0.014648,0.611328,-102.905273,-25.817871,18.920898,,,,,,,,,,,0.0,1.0,1.0,11.0,0.0,0.0,0.0,5.0,0.0,0.11877604,-0.2095182933333333,0.8926302,-11.51529944,-4.040527346666667,12.410481760000001,26.793226969210902,-11.170873961462988,2.715862923855978,-6.850653949924814,-9.290910875111006,28.614769457382067,30.855429271523708,-1.0472953669927445,31.58252122619687,-1.0227896963809866,-0.05237003999999999,0.2241662933333333,-0.28130220000000006,0.5578385333333333,0.36348875619645743,0.5800468127128084,0.5800468127128084,0.5800468127128084
LBP03_S11,LBP03,-1611,40,11,39,-1611,1715757617.56,2024-05-15 07:20:17.560000+00:00,2024-05-15 16:20:17.560000+09:00,2024,5,15,7,20,17,560,,,,,,,,,0.063477,-0.280029,1.123535,-105.59082,-19.897461,68.603516,,,,,,,,,,,0.0,1.0,1.0,11.0,0.0,0.0,0.0,5.0,0.0,0.12309244,-0.20688808000000003,0.9053743333333332,-12.93619788,-4.427897133333334,12.156575506666666,25.690890027308562,-15.580319006870962,6.3447797240640655,-5.823018348832472,-9.914123635385845,28.86856064634463,31.07396311930993,-1.0268960271312737,31.684580291335074,-1.0180249256122889,-0.05961543999999999,-0.07314091999999994,0.21816066666666678,0.3509170266666667,0.23769238806761248,0.4659286711644098,0.4659286711644098,0.4659286711644098
LBP03_S11,LBP03,-1610,41,11,40,-1610,1715757617.6,2024-05-15 07:20:17.600000+00:00,2024-05-15 16:20:17.600000+09:00,2024,5,15,7,20,17,600,,,,,,,,,0.151855,-0.536133,1.380371,-28.198242,-33.14209,38.024902,,,,,,,,,,,0.0,1.0,1.0,11.0,0.0,0.0,0.0,5.0,0.0,0.13034504,-0.1934278,0.9093131333333334,-12.919108026666667,-3.6767578133333334,13.605957013333333,26.170864361283407,-19.232611271018694,9.032268151924658,-4.776183774381135,-10.683428086226593,29.229851372421617,31.485421680106093,-0.9722699163137878,31.87729444807992,-1.00855682091294,0.021509959999999995,-0.34270519999999993,0.4710578666666666,0.8352730266666666,0.5829279940393947,0.49517850188315604,0.49517850188315604,0.49517850188315604
LBP03_S11,LBP03,-1609,42,11,41,-1609,1715757617.64,2024-05-15 07:20:17.640000+00:00,2024-05-15 16:20:17.640000+09:00,2024,5,15,7,20,17,640,,,,,,,,,0.061768,-0.820312,1.458496,64.27002,-0.061035,64.575195,,,,,,,,,,,0.0,1.0,1.0,11.0,0.0,0.0,0.0,5.0,0.0,0.1329492,-0.21955735999999998,0.9329882533333334,-18.339029906666664,-7.180989586666667,14.862467426666665,28.263032525960444,-22.583211889617477,9.86764740788131,-3.6456624733427168,-11.586756561811292,29.62455726873687,32.01809138379249,-1.018802009540655,32.18145326361248,-1.0025342455285842,-0.07118119999999999,-0.6007546400000001,0.5255077466666667,1.1974435866666666,0.8013309506824551,0.5564089916430158,0.5564089916430158,0.5564089916430158
LBP03_S11,LBP03,-1608,43,11,42,-1608,1715757617.68,2024-05-15 07:20:17.680000+00:00,2024-05-15 16:20:17.680000+09:00,2024,5,15,7,20,17,680,,,,,,,,,-0.007324,0.073486,0.727783,154.785156,116.699219,51.208496,,,,,,,,,,,0.0,1.0,1.0,11.0,0.0,0.0,0.0,5.0,0.0,0.12907550666666667,-0.21185878666666666,0.9417447600000001,-16.31184892,-3.7190755199999987,15.058593733333334,31.110552417841312,-25.886574723478432,8.780779757509414,-2.4012403766290644,-12.62221955075043,29.975788459037243,32.61340637643744,-1.01674388271685,32.59827210479307,-1.0003356972684874,-0.13639950666666667,0.2853447866666666,-0.2139617600000001,0.6357060533333334,0.3818456591858197,0.5273151029001498,0.5273151029001498,0.5273151029001498
LBP03_S11,LBP03,-1607,44,11,43,-1607,1715757617.72,2024-05-15 07:20:17.720000+00:00,2024-05-15 16:20:17.720000+09:00,2024,5,15,7,20,17,720,,,,,,,,,-0.24292,-0.057129,0.114502,17.028809,-19.836426,-31.921387,,,,,,,,,,,0.0,1.0,1.0,11.0,0.0,0.0,0.0,5.0,0.0,0.14093098666666667,-0.21761725333333332,0.9539648133333335,-15.546874959999998,-4.632161466666666,14.60042316,33.48486412256475,-28.913971527771512,6.474009608105105,-1.0618458117264744,-13.77877841186129,30.234748843361448,33.24337962169614,-0.9894363010001027,33.11079553580121,-0.9924253227620585,-0.38385098666666667,0.16048825333333333,-0.8394628133333335,1.3838020533333335,0.9369076125170895,0.5858283185597125,0.5858283185597125,0.5858283185597125
LBP03_S11,LBP03,-1606,45,11,44,-1606,1715757617.76,2024-05-15 07:20:17.760000+00:00,2024-05-15 16:20:17.760000+09:00,2024,5,15,7,20,17,760,,,,,,,,,0.091309,-0.047363,0.254639,77.758789,-62.072754,-58.837891,,,,,,,,,,,0.0,1.0,1.0,11.0,0.0,0.0,0.0,5.0,0.0,0.14373371999999998,-0.19978521333333332,0.95399736,-13.583984346666668,-2.5268554799999996,14.250488266666668,34.34508467646084,-30.981449520488862,4.024891090614701,0.3119575753319592,-15.018036392680845,30.395744486986036,33.90486716592229,-0.9422800880174987,33.69027847485806,-0.985960086062272,-0.05242471999999998,0.15242221333333333,-0.69935836,0.9042052933333333,0.7176928298975824,0.6023113824769464,0.6023113824769464,0.6023113824769464
LBP03_S11,LBP03,-1605,46,11,45,-1605,1715757617.8,2024-05-15 07:20:17.800000+00:00,2024-05-15 16:20:17.800000+09:00,2024,5,15,7,20,17,800,,,,,,,,,0.177979,0.022949,0.365967,48.76709,-109.25293,-68.664551,,,,,,,,,,,0.0,1.0,1.0,11.0,0.0,0.0,0.0,5.0,0.0,0.14991210666666668,-0.21416997333333332,0.9620474933333333,-15.598958306666667,-1.7464192933333327,13.297526026666668,33.18086586676323,-31.292627690844878,2.366405305251379,1.6391922100024883,-16.26974150031464,30.49040069919609,34.59849670702371,-0.9543536424537362,34.30560206624778,-0.9809870559410205,0.028066893333333315,0.23711897333333332,-0.5960804933333332,0.8612663599999999,0.6421254648030622,0.6067351694020703,0.6067351694020703,0.6067351694020703
LBP03_S11,LBP03,-1604,47,11,46,-1604,1715757617.84,2024-05-15 07:20:17.840000+00:00,2024-05-15 16:20:17.840000+09:00,2024,5,15,7,20,17,840,,,,,,,,,0.317383,-0.205078,0.526611,13.977051,-103.637695,-30.761719,,,,,,,,,,,0.0,1.0,1.0,11.0,0.0,0.0,0.0,5.0,0.0,0.1440332,-0.21796227999999998,0.9719075199999999,-16.40869137333333,-1.5543619999999996,13.2918294,30.035952411298886,-29.41701022410883,1.9051672684753593,2.840630306454444,-17.446421909278996,30.566607389935104,35.30954977488318,-0.9805487629276157,34.93235341973643,-0.9837053643554553,0.17334980000000003,0.01288427999999997,-0.44529651999999986,0.6315305999999998,0.4780221214078577,0.5938638646026491,0.5938638646026491,0.5938638646026491
LBP03_S11,LBP03,-1603,48,11,47,-1603,1715757617.88,2024-05-15 07:20:17.880000+00:00,2024-05-15 16:20:17.880000+09:00,2024,5,15,7,20,17,880,,,,,,,,,0.161133,0.116943,0.891357,-23.681641,19.592285,42.724609,,,,,,,,,,,0.0,1.0,1.0,11.0,0.0,0.0,0.0,5.0,0.0,0.15067382666666668,-0.22559248,0.9987011333333333,-15.869140586666665,-1.6072591466666666,12.791341106666666,25.277887435662368,-25.636429222828866,2.4584944185179127,3.851745803880939,-18.47187907819215,30.66494716667582,36.00535025731713,-0.9756272305263207,35.55855739091125,-0.9833753484533121,0.010459173333333321,0.34253548,-0.10734413333333337,0.4603387866666667,0.35911378743614336,0.5725229484966031,0.5725229484966031,0.5725229484966031
LBP03_S11,LBP03,-1602,49,11,48,-1602,1715757617.92,2024-05-15 07:20:17.920000+00:00,2024-05-15 16:20:17.920000+09:00,2024,5,15,7,20,17,920,,,,,,,,,0.20459,-0.529297,1.396729,-93.933105,-71.228027,72.570801,,,,,,,,,,,0.0,1.0,1.0,11.0,0.0,0.0,0.0,5.0,0.0,0.15333983999999998,-0.2332324533333333,1.0224999600000002,-14.302571573333331,0.49560544,13.04687496,19.287579377979192,-20.961012114336587,3.5137222347597215,4.623248979000106,-19.310319562765613,30.805496056066207,36.6502586620922,-0.9826429999948799,36.18570287328002,-0.9787777681059214,0.05125016000000002,-0.2960645466666667,0.3742290399999999,0.7215437466666667,0.47992517028416626,0.5648064669789,0.5648064669789,0.5648064669789
LBP03_S11,LBP03,-1601,50,11,49,-1601,1715757617.96,2024-05-15 07:20:17.960000+00:00,2024-05-15 16:20:17.960000+09:00,2024,5,15,7,20,17,960,,,,,,,,,0.120361,-0.838379,1.619141,61.706543,1.525879,36.254883,,,,,,,,,,,0.0,1.0,1.0,11.0,0.0,0.0,0.0,5.0,0.0,0.15129557333333332,-0.22710941333333334,1.0368326533333334,-12.876790319999998,2.5561523200000003,13.068847613333332,12.260582911244201,-16.787088496608614,4.63766606974287,5.113672295449875,-19.981803102629957,30.991002698855922,37.22719903320714,-0.9771657259187579,36.825524522135716,-0.9757682379682004,-0.030934573333333326,-0.6112695866666666,0.5823083466666665,1.2245125066666664,0.8448020277015318,0.5863445870344871,0.5863445870344871,0.5863445870344871
LBP03_S11,LBP03,-1600,51,11,50,-1600,1715757618.0,2024-05-15 07:20:18+00:00,2024-05-15 16:20:18+09:00,2024,5,15,7,20,18,0,7.0,20.0,18.0,40.573406,141.519897,6.601,3.0,13.0,0.391357,0.053711,1.371582,84.594727,24.475098,31.37207,-253.0,3.0,350.0,1331.0,0.0,1020.5,21.25,0.074323,-60.15176,3.628125,0.0,1.0,1.0,11.0,0.0,0.0,0.0,4.0,0.0,0.1500944,-0.23692712,1.05180336,-12.209472613333332,3.561197893333334,11.756998653333333,4.22733778406773,-14.337660017882161,5.791935578100565,5.282765806812583,-20.555309503345242,31.222680121979945,37.752935214992554,-0.999453000458136,37.494252393025675,-0.9766064068946225,0.24126260000000002,0.29063812,0.31977864,0.85167936,0.49491063592950196,0.5798135905269881,0.5798135905269881,0.5798135905269881
LBP03_S11,LBP03,-1599,52,11,51,-1599,1715757618.04,2024-05-15 07:20:18.040000+00:00,2024-05-15 16:20:18.040000+09:00,2024,5,15,7,20,18,40,,,,,,,,,-0.035156,-0.124268,0.851318,-3.723145,114.624023,21.057129,,,,,,,,,,,0.0,1.0,1.0,11.0,0.0,0.0,0.0,4.0,0.0,0.14480144,-0.23707034666666663,1.0435742000000001,-10.568847613333334,2.69694008,8.93717444,-4.749054356621819,-14.125702980996069,7.3745900270874225,5.09280363254771,-21.120337622585083,31.517663723063443,38.28013109554072,-1.0155018505192237,38.20651749776983,-0.9786489181722962,-0.17995744,0.11280234666666662,-0.1922562000000001,0.48501598666666673,0.28648123160741346,0.5602580999323499,0.5602580999323499,0.5602580999323499
LBP03_S11,LBP03,-1598,53,11,52,-1598,1715757618.08,2024-05-15 07:20:18.080000+00:00,2024-05-15 16:20:18.080000+09:00,2024,5,15,7,20,18,80,,,,,,,,,-0.259766,-0.059326,0.178955,-33.26416,29.785156,-25.756836,,,,,,,,,,,0.0,1.0,1.0,11.0,0.0,0.0,0.0,4.0,0.0,0.14833009333333333,-0.2193848,1.0331477733333332,-8.299153613333331,2.7343749733333333,6.5275064799999996,-14.351128864538353,-15.690604006810647,9.96167904595603,4.518758477966176,-21.74796178285751,31.916130884901683,38.88486120012514,-0.9707680792429437,38.970766173361895,-0.9783156587262317,-0.4080960933333333,0.1600588,-0.8541927733333332,1.4223476666666666,0.9601075642167703,0.5852486914501261,0.5852486914501261,0.5852486914501261
LBP03_S11,LBP03,-1597,54,11,53,-1597,1715757618.12,2024-05-15 07:20:18.120000+00:00,2024-05-15 16:20:18.120000+09:00,2024,5,15,7,20,18,120,,,,,,,,,0.146729,-0.172852,0.321045,-3.479004,-106.628418,-55.725098,,,,,,,,,,,0.0,1.0,1.0,11.0,0.0,0.0,0.0,4.0,0.0,0.15135744,-0.21836917333333333,1.02445636,-16.872558559999998,0.6730143066666671,6.2638346,-23.91437521157227,-17.761419102944203,13.879652782148815,3.5621834695032852,-22.458418546975278,32.47131699618764,39.64159611025305,-0.9593409996228924,39.787109680857284,-0.9805146292221917,-0.0046284400000000114,0.04551717333333333,-0.70341136,0.7535569733333334,0.7048977066937727,0.5922868688173994,0.5922868688173994,0.5922868688173994
LBP03_S11,LBP03,-1596,55,11,54,-1596,1715757618.16,2024-05-15 07:20:18.160000+00:00,2024-05-15 16:20:18.160000+09:00,2024,5,15,7,20,18,160,,,,,,,,,0.157227,0.029541,0.437988,38.269043,-85.998535,-33.569336,,,,,,,,,,,0.0,1.0,1.0,11.0,0.0,0.0,0.0,4.0,0.0,0.15466146666666666,-0.21895836000000002,1.03115232,-18.18766273333333,0.05126950666666706,6.532389293333333,-32.530030954773316,-18.805583657548418,18.832949377218313,2.2609822313123527,-23.210641893277213,33.22463497127637,40.59214587482197,-0.9506617772817176,40.64759825854995,-0.9828629090019014,0.002565533333333342,0.24849936000000003,-0.5931643199999999,0.8442292133333332,0.6431192925132602,0.5951108923560584,0.5951108923560584,0.5951108923560584
LBP03_S11,LBP03,-1595,56,11,55,-1595,1715757618.2,2024-05-15 07:20:18.200000+00:00,2024-05-15 16:20:18.200000+09:00,2024,5,15,7,20,18,200,,,,,,,,,0.313477,-0.020264,0.596924,-101.867676,-68.481445,-3.601074,,,,,,,,,,,0.0,1.0,1.0,11.0,0.0,0.0,0.0,4.0,0.0,0.16115886666666665,-0.24091149333333334,1.0549739333333334,-20.07649736,-1.9889323199999998,6.79443356,-39.3150149243177,-17.7174931810236,23.801104246566414,0.6883816343396445,-23.919341620518157,34.17667914113903,41.72114775446519,-0.9747787552304727,41.538358831639805,-0.9863378144748337,0.15231813333333336,0.22064749333333333,-0.45804993333333344,0.8310155600000001,0.5307502910815082,0.5917234922889768,0.5917234922889768,0.5917234922889768
LBP03_S11,LBP03,-1594,57,11,56,-1594,1715757618.24,2024-05-15 07:20:18.240000+00:00,2024-05-15 16:20:18.240000+09:00,2024,5,15,7,20,18,240,,,,,,,,,0.326416,-0.131348,1.049561,-88.500977,-18.188477,78.24707,,,,,,,,,,,0.0,1.0,1.0,11.0,0.0,0.0,0.0,4.0,0.0,0.16219728,-0.24374026666666665,1.0721419066666669,-15.01871741333333,1.2027994400000004,7.451171840000001,-43.74798836683144,-14.3200016097429,27.302072217020193,-1.0615379003336132,-24.492141684907875,35.26876202981984,42.952036530803845,-0.9772161684669719,42.44272225778699,-0.9840089213625813,0.16421871999999998,0.11239226666666666,-0.0225809066666669,0.2991918933333335,0.20027407957795793,0.5721510216534258,0.5721510216534258,0.5721510216534258
LBP03_S11,LBP03,-1593,58,11,57,-1593,1715757618.28,2024-05-15 07:20:18.280000+00:00,2024-05-15 16:20:18.280000+09:00,2024,5,15,7,20,18,280,,,,,,,,,0.154541,-0.411865,1.48291,-168.762207,-35.27832,102.050781,,,,,,,,,,,0.0,1.0,1.0,11.0,0.0,0.0,0.0,4.0,0.0,0.15748700000000002,-0.2477018533333333,1.0806152133333333,-12.111816373333333,4.370930960000001,7.705891893333333,-45.91717879604253,-9.445965666724645,27.93952826126486,-2.8982250521753143,-24.86998031157686,36.386343160270435,44.168785332270986,-0.997616935485921,43.34417787544919,-0.9773225766128821,-0.002946000000000004,-0.16416314666666668,0.4022947866666666,0.5694039333333333,0.4345104291253322,0.5655967077235167,0.5655967077235167,0.5655967077235167
LBP03_S11,LBP03,-1592,59,11,58,-1592,1715757618.32,2024-05-15 07:20:18.320000+00:00,2024-05-15 16:20:18.320000+09:00,2024,5,15,7,20,18,320,,,,,,,,,0.276611,-0.956055,1.925781,16.784668,-18.615723,37.29248,,,,,,,,,,,0.0,1.0,1.0,11.0,0.0,0.0,0.0,4.0,0.0,0.14682294666666665,-0.23514325333333336,1.0631835733333335,-11.508789026666667,5.301106746666667,6.533203093333333,-46.52590645707819,-4.565464192541969,25.002061068425704,-4.759261310458442,-25.052598879278538,37.38642560300746,45.255144439018935,-1.006125797791978,44.2279842137664,-0.9747699686556086,0.12978805333333335,-0.7209117466666666,0.8625974266666665,1.7132972266666664,1.1316505669869985,0.5913264285991294,0.5913264285991294,0.5913264285991294
LBP03_S11,LBP03,-1591,60,11,59,-1591,1715757618.36,2024-05-15 07:20:18.360000+00:00,2024-05-15 16:20:18.360000+09:00,2024,5,15,7,20,18,360,,,,,,,,,0.086914,-0.133545,1.123047,14.831543,84.16748,59.448242,,,,,,,,,,,0.0,1.0,1.0,11.0,0.0,0.0,0.0,4.0,0.0,0.1517090266666667,-0.24654950666666664,1.0594075333333335,-11.853841106666668,2.640787746666667,3.8273111733333334,-46.603176837503526,-1.1184649396840705,18.84427224491219,-6.6233883839585825,-25.0973374768659,38.140196492803945,46.13480476410569,-1.0119147806480802,45.08103236656384,-0.9745984866662107,-0.06479502666666669,0.11300450666666664,0.06363946666666642,0.24143899999999974,0.14497722485041745,0.5719199414796202,0.5719199414796202,0.5719199414796202
LBP03_S11,LBP03,-1590,61,11,60,-1590,1715757618.4,2024-05-15 07:20:18.400000+00:00,2024-05-15 16:20:18.400000+09:00,2024,5,15,7,20,18,400,,,,,,,,,-0.027832,-0.14502,0.710693,32.104492,144.165039,42.907715,,,,,,,,,,,0.0,1.0,1.0,11.0,0.0,0.0,0.0,4.0,0.0,0.1562598,-0.23416669333333337,1.04769856,-8.173014293333335,2.59928384,2.363281213333333,-47.0375329210939,0.16123177250178145,10.870888061444665,-8.50488970080234,-25.09088820596583,38.57503201526173,46.79656947646437,-0.9761640693356108,45.89099149309364,-0.9775808486080898,-0.1840918,0.08914669333333336,-0.3370055599999999,0.6102440533333333,0.39422033335486506,0.5645157911410887,0.5645157911410887,0.5645157911410887
LBP03_S11,LBP03,-1589,62,11,61,-1589,1715757618.44,2024-05-15 07:20:18.440000+00:00,2024-05-15 16:20:18.440000+09:00,2024,5,15,7,20,18,440,,,,,,,,,-0.250977,0.247314,-0.10498,-41.07666,29.663086,-47.180176,,,,,,,,,,,0.0,1.0,1.0,11.0,0.0,0.0,0.0,4.0,0.0,0.15689781333333333,-0.22117516,1.03727864,-12.29166664,2.4755859200000003,3.0192056933333333,-48.1725628048211,-0.37941080418389866,3.1114972684201883,-10.431792212995184,-25.106064638133184,38.69949190599854,47.29468727216277,-0.9486384030222329,46.646680062802474,-0.9764826679222924,-0.4078748133333333,0.46848916,-1.14225864,2.018622613333333,1.3002302707766256,0.5939443703265103,0.5939443703265103,0.5939443703265103
LBP03_S11,LBP03,-1588,63,11,62,-1588,1715757618.48,2024-05-15 07:20:18.480000+00:00,2024-05-15 16:20:18.480000+09:00,2024,5,15,7,20,18,480,,,,,,,,,0.223633,-0.198486,0.335205,-111.26709,-93.078613,-66.52832,,,,,,,,,,,0.0,1.0,1.0,11.0,0.0,0.0,0.0,4.0,0.0,0.16149417333333335,-0.22602868,1.0521028533333334,-14.17887368,1.754557266666667,3.03059892,-49.673726807894894,-1.4374270581454034,-2.458944046999996,-12.418741285310979,-25.163561720459,38.60113414411854,47.722924583297186,-0.945241999670209,47.34080056220769,-0.9763506143026313,0.06213882666666665,0.027542680000000014,-0.7168978533333334,0.8065793600000001,0.7201127447247647,0.5908846853463344,0.5987970001110585,0.5987970001110585
LBP03_S11,LBP03,-1587,64,11,63,-1587,1715757618.52,2024-05-15 07:20:18.520000+00:00,2024-05-15 16:20:18.520000+09:00,2024,5,15,7,20,18,520,,,,,,,,,0.211914,-0.213379,0.563965,-46.875,-78.674316,-77.697754,,,,,,,,,,,0.0,1.0,1.0,11.0,0.0,0.0,0.0,4.0,0.0,0.16705081333333335,-0.24035485333333337,1.0803482933333333,-14.19433592,0.5509439866666666,3.223470013333333,-50.72266505126185,-1.3402811987073115,-4.5894168442066965,-14.447647887361454,-25.217172968407294,38.417557470350275,48.1720776382275,-0.9576261797289133,47.97405867558115,-0.9745471829245609,0.04486318666666664,0.026975853333333355,-0.5163832933333332,0.5882223333333332,0.5190299681277845,0.5971063338235875,0.5958426655931595,0.5958426655931595
LBP03_S11,LBP03,-1586,65,11,64,-1586,1715757618.56,2024-05-15 07:20:18.560000+00:00,2024-05-15 16:20:18.560000+09:00,2024,5,15,7,20,18,560,,,,,,,,,0.297852,-0.104248,0.801514,18.737793,-45.776367,-22.094727,,,,,,,,,,,0.0,1.0,1.0,11.0,0.0,0.0,0.0,4.0,0.0,0.16958012,-0.2568262,1.1073828000000001,-11.014811173333333,2.7514648133333335,3.4871418933333334,-50.43463889968075,1.1836438682361512,-3.1420465956454935,-16.465033443348684,-25.16982721367785,38.29187560652446,48.6917371401199,-0.9804853967005086,48.55807470426334,-0.970658753872898,0.12827188,0.1525782,-0.30586880000000016,0.5867188800000002,0.3650883524948646,0.6022021724006776,0.5876014401253632,0.5876014401253632
LBP03_S11,LBP03,-1585,66,11,65,-1585,1715757618.6,2024-05-15 07:20:18.600000+00:00,2024-05-15 16:20:18.600000+09:00,2024,5,15,7,20,18,600,,,,,,,,,0.179199,-0.040771,1.059326,-125.183105,3.295898,44.006348,,,,,,,,,,,0.0,1.0,1.0,11.0,0.0,0.0,0.0,4.0,0.0,0.16722009333333332,-0.24376956000000002,1.1116926933333333,-4.283040346666666,7.738443973333333,2.7457682,-48.31604692741817,6.417657981888418,0.9523372553095552,-18.397675320445412,-24.91312089440231,38.32996909673684,49.27803345155357,-0.9637969483724983,49.11472685621623,-0.964782814620408,0.011978906666666678,0.20299856000000002,-0.052366693333333325,0.26734416000000005,0.2099861427277279,0.587284498348211,0.5745802229737207,0.5745802229737207
LBP03_S11,LBP03,-1584,67,11,66,-1584,1715757618.64,2024-05-15 07:20:18.640000+00:00,2024-05-15 16:20:18.640000+09:00,2024,5,15,7,20,18,640,,,,,,,,,0.230469,-0.639404,1.661377,-224.853516,-24.841309,73.181152,,,,,,,,,,,0.0,1.0,1.0,11.0,0.0,0.0,0.0,4.0,0.0,0.15941736,-0.23853517333333335,1.1070019466666665,-4.4848632666666655,7.494303360000001,2.0906575199999997,-44.57492018604455,13.511199194179326,6.131673968448268,-20.180672127887195,-24.37267292663514,38.57523605547477,49.89324152485602,-0.9758956322703607,49.67141589677813,-0.9642529282867386,0.07105164,-0.4008688266666666,0.5543750533333336,1.0262955200000001,0.6878050970283196,0.5827434642020455,0.5783543854422072,0.5783543854422072
LBP03_S11,LBP03,-1583,68,11,67,-1583,1715757618.68,2024-05-15 07:20:18.680000+00:00,2024-05-15 16:20:18.680000+09:00,2024,5,15,7,20,18,680,,,,,,,,,0.279785,-0.55127,1.744385,43.457031,42.175293,36.92627,,,,,,,,,,,0.0,1.0,1.0,11.0,0.0,0.0,0.0,4.0,0.0,0.16150394666666665,-0.24376629333333336,1.1061881466666668,-6.219889306666666,5.799967426666666,0.4874674133333334,-40.133638721067314,20.818190778839995,10.820495828321617,-21.786017676729887,-23.53994529548154,39.008055888607636,50.50136646600553,-0.9795826217052176,50.25392219512103,-0.9679495151675725,0.11828105333333336,-0.3075037066666667,0.6381968533333333,1.0639816133333335,0.7182229185955781,0.5961985545784358,0.582866273608445,0.582866273608445
LBP03_S11,LBP03,-1582,69,11,68,-1582,1715757618.72,2024-05-15 07:20:18.720000+00:00,2024-05-15 16:20:18.720000+09:00,2024,5,15,7,20,18,720,,,,,,,,,0.177002,-0.269043,1.543945,0.061035,100.280762,39.672852,,,,,,,,,,,0.0,1.0,1.0,11.0,0.0,0.0,0.0,4.0,0.0,0.16564457333333335,-0.2433138133333333,1.1065527333333331,-3.527832013333332,6.44612628,-0.34342452000000007,-36.29091806744546,26.55736608694188,13.95759032351744,-23.237654399427704,-22.477650652003867,39.566359501548334,51.09530472584086,-0.9672415072753486,50.87975287464012,-0.9730436311145197,0.011357426666666642,-0.02572918666666668,0.43739226666666675,0.47447888000000005,0.43829553628439044,0.5762540715291279,0.5783484380670683,0.5783484380670683
LBP03_S11,LBP03,-1581,70,11,69,-1581,1715757618.76,2024-05-15 07:20:18.760000+00:00,2024-05-15 16:20:18.760000+09:00,2024,5,15,7,20,18,760,,,,,,,,,0.085693,-0.178955,0.971436,115.41748,157.531738,13.73291,,,,,,,,,,,0.0,1.0,1.0,11.0,0.0,0.0,0.0,4.0,0.0,0.16152998666666665,-0.22980143999999997,1.1085612000000002,-4.1943359199999986,7.6774088266666665,-0.6665039466666668,-34.153870546742716,29.50892118992114,15.239149375138037,-24.603809221297414,-21.297293804407023,40.17592547655386,51.70132628363457,-0.9531553881231809,51.55450105963602,-0.9793754609328225,-0.07583698666666665,0.050846439999999965,-0.13712520000000028,0.2638086266666669,0.16474200885746734,0.5541360386875233,0.5658149099092017,0.5658149099092017
LBP03_S11,LBP03,-1580,71,11,70,-1580,1715757618.8,2024-05-15 07:20:18.800000+00:00,2024-05-15 16:20:18.800000+09:00,2024,5,15,7,20,18,800,,,,,,,,,-0.279297,0.250488,0.128174,-24.963379,44.128418,-28.930664,,,,,,,,,,,0.0,1.0,1.0,11.0,0.0,0.0,0.0,4.0,0.0,0.16275394666666665,-0.24080729333333334,1.1264778666666666,-7.128906226666665,6.8701171599999995,-0.7039388400000001,-34.114186097015185,29.45079532656128,15.035112838691388,-25.96837666517802,-20.119261991344572,40.777329990101514,52.36345988208339,-0.9708652059989176,52.27192419741393,-0.9797404193931853,-0.44205094666666667,0.4912952933333333,-0.9983038666666666,1.9316501066666665,1.1972429640227584,0.5763407386563112,0.5843863232654827,0.5843863232654827
LBP03_S11,LBP03,-1579,72,11,71,-1579,1715757618.84,2024-05-15 07:20:18.840000+00:00,2024-05-15 16:20:18.840000+09:00,2024,5,15,7,20,18,840,,,,,,,,,0.289795,-0.419678,0.756836,-148.376465,-119.018555,-21.057129,,,,,,,,,,,0.0,1.0,1.0,11.0,0.0,0.0,0.0,4.0,0.0,0.16451826666666666,-0.25163411999999996,1.1438378933333333,-5.448404919999998,6.4632161199999985,-0.9594726933333336,-35.635963741176404,27.160480816425927,14.079465371087013,-27.393815214825075,-19.032842758687536,41.34050860494499,53.119750255591725,-0.9856042718305704,53.01627607571872,-0.9836104146586319,0.12527673333333336,-0.16804388000000003,-0.38700189333333335,0.6803225066666667,0.44011756493431414,0.5748245563973694,0.580264358741735,0.580264358741735
LBP03_S11,LBP03,-1578,73,11,72,-1578,1715757618.88,2024-05-15 07:20:18.880000+00:00,2024-05-15 16:20:18.880000+09:00,2024,5,15,7,20,18,880,,,,,,,,,0.392822,0.000977,1.429199,65.856934,29.47998,-17.028809,,,,,,,,,,,0.0,1.0,1.0,11.0,0.0,0.0,0.0,4.0,0.0,0.16844730666666669,-0.26402995999999995,1.1609602933333334,-2.9736327866666645,6.97916664,-0.22216801333333347,-37.443942520904315,24.027868570690746,13.107739637102217,-28.891572915661246,-18.071728015859907,41.864818190429084,53.981231378488104,-0.9961831591396801,53.76450506187291,-0.9872269995051598,0.22437469333333332,0.26500695999999996,0.2682387066666667,0.75762036,0.4387763617277884,0.5780110593690352,0.5763341366024588,0.5763341366024588
LBP03_S11,LBP03,-1577,74,11,73,-1577,1715757618.92,2024-05-15 07:20:18.920000+00:00,2024-05-15 16:20:18.920000+09:00,2024,5,15,7,20,18,920,,,,,,,,,0.357666,-0.100098,1.868652,-212.280273,-52.79541,52.612305,,,,,,,,,,,0.0,1.0,1.0,11.0,0.0,0.0,0.0,4.0,0.0,0.1591602,-0.26388673333333335,1.1542024800000001,0.33203126666666855,8.96484372,0.12858069333333325,-37.98679381027574,21.51495132694278,12.596054615773985,-30.411044668072275,-17.211129962782195,42.368660375060045,54.919559488186444,-1.0209444779119423,54.486999157727155,-0.9937649664069422,0.19850579999999998,0.16378873333333333,0.7144495199999998,1.076744053333333,0.7593875284917496,0.5891895536973385,0.5812815255724395,0.5812815255724395
LBP03_S11,LBP03,-1576,75,11,74,-1576,1715757618.96,2024-05-15 07:20:18.960000+00:00,2024-05-15 16:20:18.960000+09:00,2024,5,15,7,20,18,960,,,,,,,,,0.089355,-0.810791,2.347168,-20.080566,35.095215,34.545898,,,,,,,,,,,0.0,1.0,1.0,11.0,0.0,0.0,0.0,4.0,0.0,0.16465824,-0.25094728,1.15523112,1.4632161600000018,8.100585906666668,-0.16601566666666676,-35.942038839790634,20.731825817763482,12.668465802464333,-31.848726221663902,-16.381856930071656,42.87539900715862,55.865968517899134,-0.9841349813041372,55.14754041238505,-1.0020353715639632,-0.07530324000000001,-0.55984372,1.1919368799999999,1.8270838399999998,1.3190182313683425,0.6081582018440109,0.6006956494091739,0.6006956494091739
LBP03_S11,LBP03,-1575,76,11,75,-1575,1715757619.0,2024-05-15 07:20:19+00:00,2024-05-15 16:20:19+09:00,2024,5,15,7,20,19,0,7.0,20.0,19.0,40.573532,141.519867,3.611,3.0,12.0,0.370605,-0.371338,1.962158,6.835938,49.194336,6.408691,-252.0,34.0,356.0,1164.0,0.0,1020.200012,21.32,0.07135,-57.669693,3.628125,0.0,1.0,1.0,11.0,0.0,0.0,0.0,4.0,0.0,0.16317712,-0.25919924,1.1735742266666667,-2.9223632666666646,8.199869759999999,0.05777990666666653,-30.562171460167708,22.269088450171648,13.142495335466052,-33.07121308007061,-15.49109339206479,43.40109882057726,56.72155223460144,-1.0024969010269635,55.70416955150201,-1.0098800165206927,0.20742788,-0.11213876,0.7885837733333334,1.1081504133333335,0.8230831030098177,0.6212851005272236,0.6063978918091903,0.6063978918091903
LBP03_S11,LBP03,-1574,77,11,76,-1574,1715757619.04,2024-05-15 07:20:19.040000+00:00,2024-05-15 16:20:19.040000+09:00,2024,5,15,7,20,19,40,,,,,,,,,0.338623,0.25708,1.60498,36.804199,153.137207,13.73291,,,,,,,,,,,0.0,1.0,1.0,11.0,0.0,0.0,0.0,4.0,0.0,0.16039066666666668,-0.26022788,1.1947981866666666,-4.385579413333332,10.3279622,1.1580403333333333,-21.785311943246057,26.24327798567868,13.63558856718471,-33.942625557800454,-14.441362272637644,43.94652236326465,57.375531386397896,-1.0120614807356387,56.112033877765484,-1.016978489430302,0.17823233333333333,0.5173078799999999,0.4101818133333335,1.1057220266666667,0.6838298964983619,0.6371790471228614,0.6083336919264196,0.6083336919264196
LBP03_S11,LBP03,-1573,78,11,77,-1573,1715757619.08,2024-05-15 07:20:19.080000+00:00,2024-05-15 16:20:19.080000+09:00,2024,5,15,7,20,19,80,,,,,,,,,0.095947,0.812744,0.452148,70.983887,126.342773,19.53125,,,,,,,,,,,0.0,1.0,1.0,11.0,0.0,0.0,0.0,4.0,0.0,0.15879886666666668,-0.27832684,1.2185644666666666,-3.414713533333331,9.899088506666665,0.7942707999999999,-10.163367500393761,32.3972477680599,13.670724804320736,-34.3491602578162,-13.145472361915248,44.493351355437476,57.72630742454802,-1.0449622907230434,56.327967637788504,-1.0194699369404716,-0.06285186666666667,1.09107084,-0.7664164666666666,1.9203391733333333,1.3348333736536586,0.652168079500337,0.6260531963587913,0.6260531963587913
LBP03_S11,LBP03,-1572,79,11,78,-1572,1715757619.12,2024-05-15 07:20:19.120000+00:00,2024-05-15 16:20:19.120000+09:00,2024,5,15,7,20,19,120,,,,,,,,,0.437744,-2.109375,2.063232,-347.595215,-328.796387,0.427246,,,,,,,,,,,0.0,1.0,1.0,11.0,0.0,0.0,0.0,4.0,0.0,0.15938481333333332,-0.28272137333333336,1.22776368,-2.6204427066666645,10.825195279999999,0.9700520533333332,3.289889449078064,40.12162874378263,12.762163774288235,-34.217564679853076,-11.540607212163943,45.003837906409004,57.700717272419716,-1.0499455588455568,56.31585118397031,-1.0201406305665333,0.2783591866666667,-1.8266536266666666,0.8354683200000002,2.940481133333334,2.027844822056125,0.7050859641148312,0.6594291874468231,0.6594291874468231
LBP03_S11,LBP03,-1571,80,11,79,-1571,1715757619.16,2024-05-15 07:20:19.160000+00:00,2024-05-15 16:20:19.160000+09:00,2024,5,15,7,20,19,160,,,,,,,,,0.221436,0.557129,1.531006,312.683105,262.023926,-16.906738,,,,,,,,,,,0.0,1.0,1.0,11.0,0.0,0.0,0.0,4.0,0.0,0.16121424,-0.2737728133333333,1.2179948,0.35644530666666846,12.793782519999999,0.42317705333333333,17.27338531896003,48.40528748838927,10.493312132239867,-33.52662926709468,-9.604395712628373,45.4235703916986,57.26761767480433,-1.0316018376904763,56.05192226209547,-1.0195169606834642,0.060221759999999985,0.8309018133333332,0.31301120000000004,1.2041347733333332,0.8899440966170622,0.7149589562789832,0.6647899992879914,0.6647899992879914
LBP03_S11,LBP03,-1570,81,11,80,-1570,1715757619.2,2024-05-15 07:20:19.200000+00:00,2024-05-15 16:20:19.200000+09:00,2024,5,15,7,20,19,200,,,,,,,,,0.815186,-0.694092,2.201904,17.272949,-40.527344,20.568848,,,,,,,,,,,0.0,1.0,1.0,11.0,0.0,0.0,0.0,4.0,0.0,0.15777998666666668,-0.27447268,1.2100455866666668,0.48909505333333564,10.285644493333333,-1.41031904,30.384186223992753,55.850122612190006,6.604546675543021,-32.311261818134966,-7.3703908081407725,45.687752258720316,56.44210314471809,-1.0418499350950094,55.529516398674204,-1.024532761924707,0.6574060133333333,-0.41961932,0.991858413333333,2.0688837466666663,1.2617631125469653,0.7441994691376014,0.6783575700438772,0.6783575700438772
LBP03_S11,LBP03,-1569,82,11,81,-1569,1715757619.24,2024-05-15 07:20:19.240000+00:00,2024-05-15 16:20:19.240000+09:00,2024,5,15,7,20,19,240,,,,,,,,,0.125244,0.423096,2.000488,122.436523,124.145508,27.160645,,,,,,,,,,,0.0,1.0,1.0,11.0,0.0,0.0,0.0,4.0,0.0,0.16582361333333334,-0.26820965333333335,1.2145866,1.4233398400000024,9.799804653333334,-2.2558594000000003,41.274838210964944,60.868372876048696,1.0922479275098125,-30.66026828969637,-4.935655893098825,45.73144217582071,55.27908785582189,-1.010518746932269,54.76281904187164,-1.030293003032552,-0.04057961333333335,0.6913056533333334,0.7859013999999998,1.5177866666666664,1.0474689598603242,0.7780872643488961,0.6865600453731315,0.6865600453731315
LBP03_S11,LBP03,-1568,83,11,82,-1568,1715757619.28,2024-05-15 07:20:19.280000+00:00,2024-05-15 16:20:19.280000+09:00,2024,5,15,7,20,19,280,,,,,,,,,0.341309,-0.976562,2.166016,-61.340332,42.724609,-15.563965,,,,,,,,,,,0.0,1.0,1.0,11.0,0.0,0.0,0.0,4.0,0.0,0.17351892000000002,-0.27596681333333334,1.2342382933333333,-0.36865234666666424,9.680989546666666,-1.9726562666666667,48.71818643635181,62.04784122939517,-5.708207586474474,-28.711540832242296,-2.453742243923018,45.50311387236173,53.86006684030616,-1.0028900954002953,53.789159795322576,-1.0355221574662496,0.16779007999999995,-0.7005951866666666,0.9317777066666666,1.8001629733333333,1.1777931996610866,0.8078185751703262,0.697239026988087,0.697239026988087
LBP03_S11,LBP03,-1567,84,11,83,-1567,1715757619.32,2024-05-15 07:20:19.320000+00:00,2024-05-15 16:20:19.320000+09:00,2024,5,15,7,20,19,320,,,,,,,,,-0.14209,-0.839111,2.047852,-114.929199,61.401367,11.108398,,,,,,,,,,,0.0,1.0,1.0,11.0,0.0,0.0,0.0,4.0,0.0,0.16863284,-0.27533530666666667,1.2500879066666668,-1.0188802133333308,12.397460906666668,0.2962239466666667,51.59644284233214,58.56069104425639,-13.101509541826777,-26.64768311854901,-0.11131460215276245,44.979053490688656,52.28027026943803,-1.0147077790812515,52.66900187625926,-1.0371022294096643,-0.31072284,-0.5637756933333333,0.797764093333333,1.6722626266666663,1.0250947586945809,0.8035563428386295,0.7042146808541828,0.7042146808541828
LBP03_S11,LBP03,-1566,85,11,84,-1566,1715757619.36,2024-05-15 07:20:19.360000+00:00,2024-05-15 16:20:19.360000+09:00,2024,5,15,7,20,19,360,,,,,,,,,0.14209,-0.500488,2.114746,112.731934,127.13623,-42.785645,,,,,,,,,,,0.0,1.0,1.0,11.0,0.0,0.0,0.0,4.0,0.0,0.16732098666666667,-0.28588869333333333,1.2759082266666666,0.5672200400000026,13.905436160000002,1.0302734266666669,48.957875798860336,50.47006840917398,-20.110108051932286,-24.689368086594598,1.907488134214197,44.17464916861137,50.641909883686466,-1.0342929937165672,51.481987210067516,-1.0383564367395026,-0.025230986666666677,-0.2145993066666667,0.8388377733333332,1.0786680666666666,0.866220684976301,0.832406081243665,0.7075898059400602,0.7075898059400602
LBP03_S11,LBP03,-1565,86,11,85,-1565,1715757619.4,2024-05-15 07:20:19.400000+00:00,2024-05-15 16:20:19.400000+09:00,2024,5,15,7,20,19,400,,,,,,,,,0.177734,-0.6521,1.972412,16.296387,10.375977,-4.821777,,,,,,,,,,,0.0,1.0,1.0,11.0,0.0,0.0,0.0,4.0,0.0,0.16535809333333332,-0.3005599066666667,1.2928581066666667,-0.989583346666664,13.87369788,0.8569335866666667,40.2873817938944,38.82164001966321,-25.654779577898612,-23.077872814838823,3.460353735000725,43.148457985495426,49.05457866657581,-1.0600993121054134,50.317265299315665,-1.039004525843825,0.012375906666666686,-0.3515400933333333,0.6795538933333334,1.0434698933333335,0.7651974217358042,0.8472451647789024,0.7087654715685447,0.7087654715685447
LBP03_S11,LBP03,-1564,87,11,86,-1564,1715757619.44,2024-05-15 07:20:19.440000+00:00,2024-05-15 16:20:19.440000+09:00,2024,5,15,7,20,19,440,,,,,,,,,0.157959,0.052734,1.639893,113.952637,53.894043,-0.671387,,,,,,,,,,,0.0,1.0,1.0,11.0,0.0,0.0,0.0,4.0,0.0,0.15968752,-0.2930761866666666,1.2779101866666664,2.1533202933333357,17.546386679999998,-0.40771485333333335,25.96423952667423,25.462645041769008,-28.807456487729603,-22.039303233771854,4.478859536671486,41.99615972598624,47.638938920907215,-1.0643530250726132,49.25864362582369,-1.0400404720842789,-0.0017285200000000112,0.34581018666666663,0.3619828133333336,0.7095215200000002,0.5006188471607319,0.8152607078342667,0.7046025390803885,0.7046025390803885
LBP03_S11,LBP03,-1563,88,11,87,-1563,1715757619.48,2024-05-15 07:20:19.480000+00:00,2024-05-15 16:20:19.480000+09:00,2024,5,15,7,20,19,480,,,,,,,,,0.31958,-0.702148,1.827393,172.790527,22.399902,-68.17627,,,,,,,,,,,0.0,1.0,1.0,11.0,0.0,0.0,0.0,4.0,0.0,0.15752281333333334,-0.28655274666666664,1.25975588,2.6529947733333357,16.223144493333336,-2.2265625066666668,7.661473470283067,12.607839465934648,-29.058203560973542,-21.732844294960532,4.983173115308872,40.833831583547294,46.52472823391492,-1.0607630101571908,48.36927780564442,-1.0469573208052976,0.16205718666666663,-0.41559525333333336,0.5676371200000001,1.1452895600000002,0.7219375640215758,0.8153337006061393,0.7031091929762369,0.7049424415302157
LBP03_S11,LBP03,-1562,89,11,88,-1562,1715757619.52,2024-05-15 07:20:19.520000+00:00,2024-05-15 16:20:19.520000+09:00,2024,5,15,7,20,19,520,,,,,,,,,-0.253906,0.049072,0.384766,64.941406,-54.077148,-98.999023,,,,,,,,,,,0.0,1.0,1.0,11.0,0.0,0.0,0.0,4.0,0.0,0.15664065333333332,-0.2861914133333333,1.24952476,3.8264973733333365,15.044759066666666,-4.272460933333334,-11.649195488667525,2.258963591354746,-26.51397258336917,-22.198812114507234,5.073531658963062,39.77327268021253,45.830570610502264,-1.0624876321439396,47.68246513058797,-1.054403489720784,-0.41054665333333334,0.3352634133333333,-0.86475876,1.6105688266666667,1.014276995637708,0.8351435817065362,0.7161249577650618,0.7108911829553597
LBP03_S11,LBP03,-1561,90,11,89,-1561,1715757619.56,2024-05-15 07:20:19.560000+00:00,2024-05-15 16:20:19.560000+09:00,2024,5,15,7,20,19,560,,,,,,,,,0.436768,0.629883,0.732666,20.874023,-47.302246,-59.082031,,,,,,,,,,,0.0,1.0,1.0,11.0,0.0,0.0,0.0,4.0,0.0,0.16315757333333336,-0.2811914133333333,1.2613607066666666,4.391276026666669,13.628743453333334,-4.597981773333333,-28.297369976196208,-4.346451999561598,-21.93398202107696,-23.330706913555083,4.899673578980598,38.89591339936945,45.62039856728583,-1.0380827287336996,47.20172168678474,-1.0613880878702857,0.27361042666666663,0.9110744133333333,-0.5286947066666665,1.7133795466666664,1.0883185862001739,0.8640727910547485,0.733137481727713,0.7180124547146959
LBP03_S11,LBP03,-1560,91,11,90,-1560,1715757619.6,2024-05-15 07:20:19.600000+00:00,2024-05-15 16:20:19.600000+09:00,2024,5,15,7,20,19,600,,,,,,,,,0.361084,-0.259521,0.819824,-426.025391,-80.993652,41.503906,,,,,,,,,,,0.0,1.0,1.0,11.0,0.0,0.0,0.0,4.0,0.0,0.16314130666666665,-0.2907487066666667,1.28659508,2.0743814933333358,12.915039026666667,-3.3789062533333336,-39.016803063030345,-7.060338127961161,-16.5400795801838,-24.891379036076298,4.617260053862151,38.23431021616209,45.85588640979832,-1.052209397499549,46.907633131314135,-1.0689149023636904,0.19794269333333336,0.031227706666666688,-0.4667710799999999,0.6959414799999999,0.5079682279750178,0.8759920744646401,0.7316382864064255,0.7141227468121093
LBP03_S11,LBP03,-1559,92,11,91,-1559,1715757619.64,2024-05-15 07:20:19.640000+00:00,2024-05-15 16:20:19.640000+09:00,2024,5,15,7,20,19,640,,,,,,,,,0.307861,-0.25708,1.429443,-170.288086,38.330078,66.223145,,,,,,,,,,,0.0,1.0,1.0,11.0,0.0,0.0,0.0,4.0,0.0,0.15761070666666668,-0.3001888,1.3084147466666667,3.133138000000003,14.008789026666667,-2.418619786666667,-42.097566596734545,-6.779802479105389,-11.640427371671386,-26.57528169994568,4.3460679546979355,37.768693121295236,46.38542965402923,-1.079687234142456,46.765937572516286,-1.0727021170640547,0.1502502933333333,0.0431088,0.12102825333333334,0.3143873466666667,0.19769005384467428,0.8563874727372943,0.7195654684696698,0.7047330614854286
LBP03_S11,LBP03,-1558,93,11,92,-1558,1715757619.68,2024-05-15 07:20:19.680000+00:00,2024-05-15 16:20:19.680000+09:00,2024,5,15,7,20,19,680,,,,,,,,,0.242676,-1.527344,1.917236,-117.370605,-47.180176,1.159668,,,,,,,,,,,0.0,1.0,1.0,11.0,0.0,0.0,0.0,4.0,0.0,0.16040366666666667,-0.30378906666666666,1.3224381866666666,1.3484700266666692,15.70149736,-1.6357421866666666,-37.987595281635045,-5.020168160331063,-8.221110817073065,-28.094785511211082,4.145261228284693,37.439848688612315,46.991940089741576,-1.0773517845551592,46.73246641080027,-1.0738673638651774,0.08227233333333334,-1.2235549333333333,0.5947978133333334,1.90062508,1.3629526222369448,0.8821766608829491,0.7391876077306924,0.7164869822131343
LBP03_S11,LBP03,-1557,94,11,93,-1557,1715757619.72,2024-05-15 07:20:19.720000+00:00,2024-05-15 16:20:19.720000+09:00,2024,5,15,7,20,19,720,,,,,,,,,0.081543,-0.202637,1.64502,281.921387,119.689941,13.305664,,,,,,,,,,,0.0,1.0,1.0,11.0,0.0,0.0,0.0,4.0,0.0,0.15633465333333332,-0.30126628,1.3202376666666666,8.31380206666667,19.429524693333335,-1.5397135466666667,-28.980702364034443,-3.258026339035987,-6.697730041288167,-29.25401360577246,4.014940174723254,37.17193948696079,47.472835831405746,-1.0845537605762683,46.75427161421642,-1.0733609384276857,-0.07479165333333332,0.09862927999999999,0.3247823333333333,0.4982032666666666,0.3475702667477417,0.8785476501014832,0.7274008608153053,0.7100147591347941
LBP03_S11,LBP03,-1556,95,11,94,-1556,1715757619.76,2024-05-15 07:20:19.760000+00:00,2024-05-15 16:20:19.760000+09:00,2024,5,15,7,20,19,760,,,,,,,,,-0.104736,-0.419189,1.03125,105.224609,136.230469,-23.925781,,,,,,,,,,,0.0,1.0,1.0,11.0,0.0,0.0,0.0,4.0,0.0,0.14704103999999998,-0.30174478666666665,1.3068196933333334,7.347819000000002,17.839355426666668,-3.2112630266666664,-18.14896565387364,-2.3213420356453804,-6.935277618688733,-29.979972231927405,3.9220864932974386,36.89452838221324,47.70102432898043,-1.1095611386506146,46.770146768995055,-1.0746344205350442,-0.25177704,-0.11744421333333332,-0.27556969333333337,0.6447909466666667,0.3913099500402137,0.8876103677487929,0.7208732032181581,0.7045198486331634
LBP03_S11,LBP03,-1555,96,11,95,-1555,1715757619.8,2024-05-15 07:20:19.800000+00:00,2024-05-15 16:20:19.800000+09:00,2024,5,15,7,20,19,800,,,,,,,,,-0.234863,0.542725,-0.296631,68.664551,-10.314941,-64.880371,,,,,,,,,,,0.0,1.0,1.0,11.0,0.0,0.0,0.0,4.0,0.0,0.15053387999999998,-0.30011393333333336,1.2892448266666665,10.214843733333337,16.339518186666666,-5.443522133333333,-8.114955573632953,-2.1120463910844993,-8.494738176236993,-30.304570454872724,3.8376046376540587,36.554738855163755,47.637623078597315,-1.0979714591090577,46.7153664083023,-1.0778839522151613,-0.38539687999999994,0.8428389333333334,-1.5858758266666664,2.8141116399999997,1.8368207207732299,0.9131934780188118,0.7447671083375614,0.7237113888389273
LBP03_S11,LBP03,-1554,97,11,96,-1554,1715757619.84,2024-05-15 07:20:19.840000+00:00,2024-05-15 16:20:19.840000+09:00,2024,5,15,7,20,19,840,,,,,,,,,0.249268,-0.498291,0.611084,-104.064941,-131.04248,-84.04541,,,,,,,,,,,0.0,1.0,1.0,11.0,0.0,0.0,0.0,4.0,0.0,0.15589521333333334,-0.29431314666666664,1.2779232133333334,11.62597654666667,15.694986946666667,-5.832519519999999,-0.2918824042272146,-1.8015980132920733,-10.944101804493144,-30.316245751041812,3.765540717122376,36.11697478298403,47.30422730374709,-1.0760054930838399,46.532758300637276,-1.0817446097808034,0.09337278666666665,-0.20397785333333335,-0.6668392133333334,0.9641898533333334,0.7035623486084177,0.9237312693657759,0.7492779128815726,0.723375571501752
LBP03_S11,LBP03,-1553,98,11,97,-1553,1715757619.88,2024-05-15 07:20:19.880000+00:00,2024-05-15 16:20:19.880000+09:00,2024,5,15,7,20,19,880,,,,,,,,,0.443359,0.417236,0.827393,56.396484,-72.692871,-33.813477,,,,,,,,,,,0.0,1.0,1.0,11.0,0.0,0.0,0.0,4.0,0.0,0.15631188,-0.28062173333333335,1.27809248,13.073730453333336,16.225585906666666,-5.05452472,5.1383874377455,-0.38885091780292036,-14.045076899598872,-30.11071025353199,3.749986680410259,35.55517170700008,46.742780268076366,-1.0556987557822732,46.186259775232955,-1.0827552354560264,0.28704712,0.6978577333333333,-0.45069947999999993,1.4356043333333333,0.8789377033360797,0.9413377230301074,0.7596743911995714,0.725925770384282
LBP03_S11,LBP03,-1552,99,11,98,-1552,1715757619.92,2024-05-15 07:20:19.920000+00:00,2024-05-15 16:20:19.920000+09:00,2024,5,15,7,20,19,920,,,,,,,,,0.200195,-0.029541,1.140625,-216.308594,-35.095215,69.641113,,,,,,,,,,,0.0,1.0,1.0,11.0,0.0,0.0,0.0,4.0,0.0,0.15825849333333333,-0.2981607866666667,1.3002604533333335,9.743652333333335,12.8230794,-4.299316386666667,8.692611458599007,2.6981151758148614,-17.709906478822035,-29.763005795188032,3.8579112874428536,34.84677544784719,45.98932215828867,-1.0752224532175236,45.66928891053899,-1.0855314984160638,0.04193650666666668,0.2686197866666667,-0.1596354533333335,0.47019174666666685,0.3152756545329623,0.9235732480717561,0.7563814008845472,0.7193023814189381
LBP03_S11,LBP03,-1551,100,11,99,-1551,1715757619.96,2024-05-15 07:20:19.960000+00:00,2024-05-15 16:20:19.960000+09:00,2024,5,15,7,20,19,960,,,,,,,,,0.352539,-0.811768,2.048828,-127.197266,-11.535645,28.076172,,,,,,,,,,,0.0,1.0,1.0,11.0,0.0,0.0,0.0,4.0,0.0,0.16216474666666666,-0.30203122666666665,1.32652672,12.996419253333336,13.538411426666668,-3.5758463333333332,10.944659126737749,7.288747760106539,-21.775376621017415,-29.325219430118523,4.149461197847115,33.975760383006495,45.072594960358266,-1.070578045534871,45.00283007351566,-1.0867512824548382,0.19037425333333333,-0.5097367733333333,0.7223012799999999,1.4224123066666667,0.9043191214997837,0.9069852836770137,0.7575717427605123,0.7222391550710151
LBP03_S11,LBP03,-1550,101,11,100,-1550,1715757620.0,2024-05-15 07:20:20+00:00,2024-05-15 16:20:20+09:00,2024,5,15,7,20,20,0,7.0,20.0,20.0,40.573654,141.519897,2.768,3.0,12.0,0.206299,-0.560059,1.962646,148.071289,65.673828,-5.79834,-267.0,42.0,365.0,1164.0,0.0,1020.599976,21.379999,0.075314,-60.978813,3.628125,0.0,1.0,1.0,11.0,0.0,0.0,0.0,4.0,0.0,0.16064130666666665,-0.31468748,1.34358076,12.945149720000003,15.02929684,-2.3819986799999997,12.192769614878614,12.591106030487937,-25.769981814615385,-28.83750864552338,4.653105439066633,32.94496111042188,44.029805333148104,-1.0908159731559703,44.22473442202391,-1.084182545529743,0.04565769333333336,-0.24537151999999995,0.6190652399999999,0.9100944533333332,0.6674830178842669,0.9007612802719918,0.7610231903996076,0.7213835904274721
LBP03_S11,LBP03,-1549,102,11,101,-1549,1715757620.04,2024-05-15 07:20:20.040000+00:00,2024-05-15 16:20:20.040000+09:00,2024,5,15,7,20,20,40,,,,,,,,,0.12793,-1.224609,1.932129,46.813965,64.51416,-7.141113,,,,,,,,,,,0.0,1.0,1.0,11.0,0.0,0.0,0.0,4.0,0.0,0.15630862666666664,-0.30513344,1.3365755466666667,16.539713520000003,18.2177734,-1.777343733333333,12.586409094895536,17.6386312188215,-28.863493230433164,-28.33405228172756,5.358650687819493,31.790421381204553,42.92044439998597,-1.0897934908946856,43.376690329802244,-1.0812672587043493,-0.028378626666666656,-0.9194755600000001,0.5955534533333333,1.54340764,1.0958670392278702,0.917242765981172,0.7772109065520167,0.7271448742551705
LBP03_S11,LBP03,-1548,103,11,102,-1548,1715757620.08,2024-05-15 07:20:20.080000+00:00,2024-05-15 16:20:20.080000+09:00,2024,5,15,7,20,20,80,,,,,,,,,-0.017334,0.73999,0.401367,332.214355,263.366699,-69.885254,,,,,,,,,,,0.0,1.0,1.0,11.0,0.0,0.0,0.0,4.0,0.0,0.15142254666666669,-0.3072721066666667,1.3289550933333334,15.327962213333336,17.076822879999998,-2.4218749733333325,12.516305177127375,21.780351975980878,-30.075277329955448,-27.833400074642462,6.229864766858728,30.587410288006335,41.82223144280193,-1.105114414155532,42.495588566001615,-1.0804056077134239,-0.16875654666666667,1.0472621066666667,-0.9275880933333334,2.143606746666667,1.4091331956193967,0.9202147588598015,0.7861914191800693,0.737478030639477
LBP03_S11,LBP03,-1547,104,11,103,-1547,1715757620.12,2024-05-15 07:20:20.120000+00:00,2024-05-15 16:20:20.120000+09:00,2024,5,15,7,20,20,120,,,,,,,,,-0.195068,-0.200439,0.26709,-159.729004,-145.080566,-93.078613,,,,,,,,,,,0.0,1.0,1.0,11.0,0.0,0.0,0.0,4.0,0.0,0.15418948,-0.30646156,1.3170866,17.976074186666672,15.68196612,-3.856608053333333,12.870357900355414,24.92371914741371,-28.65659812687387,-27.318585758628245,7.226813532755276,29.44114636293138,40.808247461172456,-1.0967516009640121,41.61221047620775,-1.0821984183762232,-0.34925748,0.10602256000000002,-1.0499966,1.50527664,1.1116269295840508,0.8835660431609186,0.7943260036378749,0.7430623425640228
LBP03_S11,LBP03,-1546,105,11,104,-1546,1715757620.16,2024-05-15 07:20:20.160000+00:00,2024-05-15 16:20:20.160000+09:00,2024,5,15,7,20,20,160,,,,,,,,,0.607178,-0.318359,0.722168,-28.686523,-89.599609,-95.336914,,,,,,,,,,,0.0,1.0,1.0,11.0,0.0,0.0,0.0,4.0,0.0,0.15656577333333332,-0.30135414666666666,1.303317066666667,20.767415333333336,14.938151026666668,-4.983723933333333,14.856827071126624,27.40562630915058,-24.45032756431586,-26.72431267578318,8.3230385851213,28.463133260358745,39.92006781406294,-1.0838737693996652,40.75496074721308,-1.0827838718331875,0.45061222666666667,-0.017004853333333347,-0.5811490666666669,1.048766146666667,0.7355778555298668,0.8773913935174308,0.796175174898207,0.7429522765782265
LBP03_S11,LBP03,-1545,106,11,105,-1545,1715757620.2,2024-05-15 07:20:20.200000+00:00,2024-05-15 16:20:20.200000+09:00,2024,5,15,7,20,20,200,,,,,,,,,0.382568,0.111084,1.184082,96.801758,33.203125,-0.366211,,,,,,,,,,,0.0,1.0,1.0,11.0,0.0,0.0,0.0,4.0,0.0,0.15636394666666667,-0.28983721333333334,1.2933138133333333,22.59928382666667,15.14485676,-4.803873679999999,19.420825671844696,29.616266461359135,-18.02900938715572,-25.947479648909393,9.507689243575665,27.741972884872517,39.15718215638063,-1.06881859085512,39.95315134628288,-1.0841927812601917,0.22620405333333335,0.40092121333333336,-0.1092318133333332,0.7363570799999999,0.4731148719805687,0.845845463894775,0.7950224665161882,0.739041589555072
LBP03_S11,LBP03,-1544,107,11,106,-1544,1715757620.24,2024-05-15 07:20:20.240000+00:00,2024-05-15 16:20:20.240000+09:00,2024,5,15,7,20,20,240,,,,,,,,,-0.034424,0.068604,1.792969,-259.460449,29.418945,51.452637,,,,,,,,,,,0.0,1.0,1.0,11.0,0.0,0.0,0.0,4.0,0.0,0.15401042666666667,-0.28430336,1.2947461066666668,19.265136693333336,13.33577472,-4.115397119999999,26.58646864930817,31.652783833870103,-10.523922351399396,-24.884020902937067,10.773800596930469,27.32101599081654,38.49320966574081,-1.0673889831745869,39.23547229057177,-1.0854717770899613,-0.18843442666666668,0.35290736,0.49822289333333325,1.0395646799999998,0.638965718436289,0.8295053342378135,0.8037962992933548,0.7376119342533751
LBP03_S11,LBP03,-1543,108,11,107,-1543,1715757620.28,2024-05-15 07:20:20.280000+00:00,2024-05-15 16:20:20.280000+09:00,2024,5,15,7,20,20,280,,,,,,,,,0.262451,-1.257568,2.6521,-89.477539,39.123535,34.362793,,,,,,,,,,,0.0,1.0,1.0,11.0,0.0,0.0,0.0,4.0,0.0,0.15679363999999998,-0.2940266666666667,1.3117415466666666,15.270996080000005,10.659179666666667,-3.77441404,35.152286841552375,33.220809175752635,-3.225181738149293,-23.477929429274973,12.102632963960575,27.19200872129057,37.908999370137735,-1.0736268624102652,38.62383953934305,-1.087720956792139,0.10565736,-0.9635413333333334,1.3403584533333333,2.4095571466666668,1.6541270090854792,0.8485586866147892,0.8281886308925577,0.7505205972791794
LBP03_S11,LBP03,-1542,109,11,108,-1542,1715757620.32,2024-05-15 07:20:20.320000+00:00,2024-05-15 16:20:20.320000+09:00,2024,5,15,7,20,20,320,,,,,,,,,0.201172,-0.963135,2.072266,160.949707,55.114746,24.108887,,,,,,,,,,,0.0,1.0,1.0,11.0,0.0,0.0,0.0,4.0,0.0,0.15963218666666668,-0.30505856,1.3313053466666667,15.39143878666667,11.328124973333333,-2.451985653333333,43.01816561969483,33.80721520491369,2.8453684727753537,-21.75720280448718,13.454921572157122,27.305823460201584,37.41682486834203,-1.0810769877871684,38.126844710457725,-1.0856176940124491,0.041539813333333314,-0.65807644,0.7409606533333333,1.4405769066666667,0.9918734025887588,0.8472298323705563,0.825393087604593,0.7538727195751458
LBP03_S11,LBP03,-1541,110,11,109,-1541,1715757620.36,2024-05-15 07:20:20.360000+00:00,2024-05-15 16:20:20.360000+09:00,2024,5,15,7,20,20,360,,,,,,,,,0.091309,-0.869629,1.518555,247.253418,134.338379,58.349609,,,,,,,,,,,0.0,1.0,1.0,11.0,0.0,0.0,0.0,4.0,0.0,0.15602216,-0.30063473333333335,1.3313737066666667,18.565266920000003,14.502766906666666,-1.7683919066666662,48.08911549783725,32.98179171712077,7.185031825244588,-19.83363818457369,14.774193240841953,27.59322473321137,37.054500951056234,-1.0846671398049106,37.73739656513193,-1.084467916309919,-0.06471315999999999,-0.5689942666666666,0.18718129333333344,0.8208887200000001,0.6024774727329336,0.8366801038808217,0.8345430925622433,0.7517988120841566
LBP03_S11,LBP03,-1540,111,11,110,-1540,1715757620.4,2024-05-15 07:20:20.400000+00:00,2024-05-15 16:20:20.400000+09:00,2024,5,15,7,20,20,400,,,,,,,,,-0.54248,0.050781,-0.231934,245.788574,60.60791,-40.405273,,,,,,,,,,,0.0,1.0,1.0,11.0,0.0,0.0,0.0,4.0,0.0,0.14807294666666665,-0.29918617333333336,1.3109798266666666,17.84993488,13.178710919999999,-2.4845377333333327,49.32612430522622,30.63677075495478,9.79189497559812,-17.86059321236464,15.999664071040144,27.984900532235294,36.85301477603701,-1.1036059314536668,37.436343552824056,-1.0852551803031687,-0.6905529466666667,0.3499671733333334,-1.5429138266666667,2.5834339466666667,1.726245484014402,0.8751220263719656,0.861183595575434,0.7649670103534841
LBP03_S11,LBP03,-1539,112,11,111,-1539,1715757620.44,2024-05-15 07:20:20.440000+00:00,2024-05-15 16:20:20.440000+09:00,2024,5,15,7,20,20,440,,,,,,,,,0.396484,0.559326,0.484375,143.005371,-97.473145,-103.027344,,,,,,,,,,,0.0,1.0,1.0,11.0,0.0,0.0,0.0,4.0,0.0,0.14569664000000002,-0.3012109066666667,1.2886816533333332,21.38020830666667,11.622721333333333,-3.873697893333333,47.3396545393189,27.037895739243822,10.936685303318308,-15.967007030791885,17.081179900609897,28.422367944368027,36.804116887698804,-1.1122852879164629,37.20035959583066,-1.0894173201242514,0.25078736,0.8605369066666667,-0.8043066533333332,1.91563092,1.2042953376425036,0.9032690859912365,0.8592648969127517,0.7708247213840045
LBP03_S11,LBP03,-1538,113,11,112,-1538,1715757620.48,2024-05-15 07:20:20.480000+00:00,2024-05-15 16:20:20.480000+09:00,2024,5,15,7,20,20,480,,,,,,,,,0.287598,-0.282715,1.758057,-157.958984,-50.048828,-24.658203,,,,,,,,,,,0.0,1.0,1.0,11.0,0.0,0.0,0.0,4.0,0.0,0.14901696,-0.2868163733333333,1.2588476666666668,21.836751266666667,10.393066386666668,-4.707845026666666,44.13023378659237,22.695159715963097,10.895966586230143,-14.201797679328191,17.98898628924842,28.858206607817234,36.852283153948626,-1.0840817863586338,37.01004577996453,-1.09146043809803,0.13858104000000002,0.004101373333333325,0.49920933333333317,0.6418917466666665,0.5181037390309126,0.8951157329916098,0.8552247167988746,0.7671113729813612
LBP03_S11,LBP03,-1537,114,11,113,-1537,1715757620.52,2024-05-15 07:20:20.520000+00:00,2024-05-15 16:20:20.520000+09:00,2024,5,15,7,20,20,520,,,,,,,,,-0.142578,-0.0625,2.203125,-212.646484,133.789062,101.44043,,,,,,,,,,,0.0,1.0,1.0,11.0,0.0,0.0,0.0,4.0,0.0,0.1495378,-0.28887041333333335,1.24164064,21.854654906666667,8.47900388,-4.771321586666667,42.08401044246945,18.177776312238528,9.820496622796597,-12.518437261629414,18.71609734173796,29.251026472729098,36.91376600791446,-1.0852538239387097,36.85418352544682,-1.0948110254990213,-0.29211580000000004,0.22637041333333335,0.96148436,1.4799705733333335,1.030061832691103,0.8957471264737455,0.8654453540901409,0.7759990140012898
LBP03_S11,LBP03,-1536,115,11,114,-1536,1715757620.56,2024-05-15 07:20:20.560000+00:00,2024-05-15 16:20:20.560000+09:00,2024,5,15,7,20,20,560,,,,,,,,,-0.055908,-1.637451,2.906006,-32.775879,-52.062988,41.320801,,,,,,,,,,,0.0,1.0,1.0,11.0,0.0,0.0,0.0,4.0,0.0,0.1457812933333333,-0.28616858666666667,1.2294368666666668,22.19889318666667,7.5887044,-4.145507786666666,42.794073311592975,14.002950651791187,7.793551618238861,-10.806674329165695,19.27621536780961,29.562768537458652,36.9095376909842,-1.0917464093321634,36.72863135502831,-1.100124089585773,-0.2016892933333333,-1.3512824133333332,1.6765691333333332,3.2295408399999994,2.1627590689846476,0.9387247457851245,0.9013987684199367,0.8016665697468502
LBP03_S11,LBP03,-1535,116,11,115,-1535,1715757620.6,2024-05-15 07:20:20.600000+00:00,2024-05-15 16:20:20.600000+09:00,2024,5,15,7,20,20,600,,,,,,,,,0.195801,-0.865723,2.070312,31.37207,36.315918,51.208496,,,,,,,,,,,0.0,1.0,1.0,11.0,0.0,0.0,0.0,4.0,0.0,0.14865890666666667,-0.3065787466666667,1.2430566666666665,18.163248653333337,5.499674453333334,-3.176269506666666,46.373240600425646,10.626735752357988,4.978023584664597,-8.95174470514867,19.701284797903927,29.761889480845237,36.7973425864467,-1.1104399890659464,36.6319180026083,-1.105949003369602,0.04714209333333333,-0.5591442533333333,0.8272553333333335,1.43354168,0.999607952913533,0.9583903347826651,0.9171912046236527,0.8072223025318387
LBP03_S11,LBP03,-1534,117,11,116,-1534,1715757620.64,2024-05-15 07:20:20.640000+00:00,2024-05-15 16:20:20.640000+09:00,2024,5,15,7,20,20,640,,,,,,,,,0.198975,-0.14917,0.72583,287.536621,147.583008,23.55957,,,,,,,,,,,0.0,1.0,1.0,11.0,0.0,0.0,0.0,4.0,0.0,0.14564784,-0.28305336000000003,1.2265364933333331,24.294433546666667,11.782226546666667,-2.653808573333333,51.58704248533709,8.462809102106101,1.6871725390765697,-6.888263005735186,20.039797161988172,29.8293763824083,36.59007150707944,-1.0878201629123725,36.56136472475707,-1.1084961024578728,0.05332716000000001,0.13388336000000003,-0.5007064933333332,0.6879170133333332,0.5210331395839601,0.9713240582122367,0.9138557654747654,0.8034849983838588
LBP03_S11,LBP03,-1533,118,11,117,-1533,1715757620.68,2024-05-15 07:20:20.680000+00:00,2024-05-15 16:20:20.680000+09:00,2024,5,15,7,20,20,680,,,,,,,,,-0.264893,0.020996,0.131592,164.733887,-71.411133,-86.303711,,,,,,,,,,,0.0,1.0,1.0,11.0,0.0,0.0,0.0,4.0,0.0,0.13999028,-0.28579425333333336,1.2070573199999999,21.455078080000003,9.768880186666667,-1.979980453333333,56.61896211923362,7.834743024951841,-1.7078286474836393,-4.623504520965842,20.353186882986247,29.761063236508953,36.3503768249607,-1.107132736420178,36.51224394050075,-1.1059452941509496,-0.40488327999999996,0.3067902533333334,-1.07546532,1.7871388533333332,1.189401691812565,0.9643820209952614,0.9232793409391051,0.8142524121522153
LBP03_S11,LBP03,-1532,119,11,118,-1532,1715757620.72,2024-05-15 07:20:20.720000+00:00,2024-05-15 16:20:20.720000+09:00,2024,5,15,7,20,20,720,,,,,,,,,0.360352,0.412598,0.455078,87.097168,-56.274414,-95.336914,,,,,,,,,,,0.0,1.0,1.0,11.0,0.0,0.0,0.0,4.0,0.0,0.12741865333333333,-0.27897133333333335,1.1801855733333333,20.85367834666667,10.104980453333333,-2.6253255066666665,59.947717276877235,8.8330995459056,-4.970181873622463,-2.2255958298907523,20.70651086482247,29.562255961564055,36.161303164156955,-1.1342076286546834,36.479730170322256,-1.1047889609702213,0.23293334666666668,0.6915693333333334,-0.7251075733333333,1.6496102533333334,1.028740530795691,0.9916288315571794,0.9350882408293313,0.8154768510625968
LBP03_S11,LBP03,-1531,120,11,119,-1531,1715757620.76,2024-05-15 07:20:20.760000+00:00,2024-05-15 16:20:20.760000+09:00,2024,5,15,7,20,20,760,,,,,,,,,0.668457,-0.62915,1.728516,-56.640625,-70.983887,-37.597656,,,,,,,,,,,0.0,1.0,1.0,11.0,0.0,0.0,0.0,4.0,0.0,0.12732750666666667,-0.28589516000000004,1.15416344,19.781901013333336,7.229003893333333,-3.4350585866666656,60.86178096269581,11.154412497846709,-8.124512628714255,0.2088754086170801,21.152687364736337,29.237275456415485,36.087367426856126,-1.142916277643203,36.46173933883175,-1.102932242424967,0.5411294933333333,-0.34325483999999995,0.5743525599999999,1.4587368933333331,0.8605381321691498,1.0103979588423369,0.9490041632955649,0.8173814550928843
LBP03_S11,LBP03,-1530,121,11,120,-1530,1715757620.8,2024-05-15 07:20:20.800000+00:00,2024-05-15 16:20:20.800000+09:00,2024,5,15,7,20,20,800,,,,,,,,,-0.188477,0.070312,1.554688,0.0,94.482422,101.501465,,,,,,,,,,,0.0,1.0,1.0,11.0,0.0,0.0,0.0,4.0,0.0,0.12507164,-0.27033526666666663,1.12655276,20.66243486666667,5.3922526,-3.4277343599999996,59.459985404515386,14.062237964905213,-11.384478022692939,2.5872748247976958,21.715176883332546,28.781896335507767,36.147481997524636,-1.129076922336376,36.46072092636051,-1.1020961479947073,-0.31354864000000005,0.3406472666666666,0.42813524000000003,1.0823311466666667,0.6305974101304083,0.962149026416624,0.9376712522177177,0.8172277476972489
LBP03_S11,LBP03,-1529,122,11,121,-1529,1715757620.84,2024-05-15 07:20:20.840000+00:00,2024-05-15 16:20:20.840000+09:00,2024,5,15,7,20,20,840,,,,,,,,,0.218994,-0.996582,2.463135,132.93457,9.460449,24.291992,,,,,,,,,,,0.0,1.0,1.0,11.0,0.0,0.0,0.0,4.0,0.0,0.13315757333333333,-0.2582421733333334,1.10450848,21.282552053333337,2.867024733333333,-3.4920247200000003,56.31442993372834,16.558330353892803,-14.897567349240052,4.839852022146829,22.37751009748826,28.185993641538165,36.31290904513569,-1.0867772048472282,36.48328489755784,-1.0995616859975716,0.08583642666666666,-0.7383398266666665,1.3586265199999998,2.182802773333333,1.5486702724054515,0.9959533433685053,0.9598423063671406,0.8315030563772169
LBP03_S11,LBP03,-1528,123,11,122,-1528,1715757620.88,2024-05-15 07:20:20.880000+00:00,2024-05-15 16:20:20.880000+09:00,2024,5,15,7,20,20,880,,,,,,,,,0.013916,-0.983398,2.162598,-140.441895,17.211914,29.724121,,,,,,,,,,,0.0,1.0,1.0,11.0,0.0,0.0,0.0,4.0,0.0,0.13444012,-0.25171548,1.08782228,19.418945280000003,1.00016276,-2.1704101333333323,52.09546098896605,17.712882400901677,-18.478136146569398,6.923670461705472,23.086025393524327,27.44686819567539,36.52714545216366,-1.0725184545513538,36.537855050022685,-1.098780904258972,-0.12052412,-0.73168252,1.07477572,1.9269823600000002,1.30576729239051,1.0130265269306826,0.977182124980395,0.8441251031099418
LBP03_S11,LBP03,-1527,124,11,123,-1527,1715757620.92,2024-05-15 07:20:20.920000+00:00,2024-05-15 16:20:20.920000+09:00,2024,5,15,7,20,20,920,,,,,,,,,-0.220703,0.031982,0.275635,141.784668,204.223633,-22.277832,,,,,,,,,,,0.0,1.0,1.0,11.0,0.0,0.0,0.0,4.0,0.0,0.13305014666666667,-0.24549802666666665,1.0779882933333333,16.312662720000006,0.5753580666666667,-1.0457356533333326,47.37472224269817,16.989671835796905,-21.527428873362926,8.818659351413398,23.765612266956204,26.585771040740873,36.733857693009405,-1.0666866384861668,36.63196621625049,-1.1005009074131171,-0.3537531466666667,0.27748002666666666,-0.8023532933333333,1.4335864666666667,0.9197321682415747,1.0372047874790271,0.9803890177753916,0.8499891964160405
LBP03_S11,LBP03,-1526,125,11,124,-1526,1715757620.96,2024-05-15 07:20:20.960000+00:00,2024-05-15 16:20:20.960000+09:00,2024,5,15,7,20,20,960,,,,,,,,,-0.041992,-0.349121,0.257568,99.182129,-97.717285,-100.158691,,,,,,,,,,,0.0,1.0,1.0,11.0,0.0,0.0,0.0,4.0,0.0,0.13397788000000002,-0.2578971066666667,1.0788281333333334,13.13964838666667,-0.5053711066666667,-0.2677408533333329,42.649080434983816,14.396027966621096,-23.216054942494353,10.52462256881275,24.341453385621048,25.6571288430411,36.89935356627181,-1.0833854650295665,36.77133702933413,-1.0998602092107832,-0.17596988000000002,-0.0912238933333333,-0.8212601333333334,1.0884539066666667,0.844840460669818,1.0348256410458285,0.9709054623614211,0.8499897088556178
LBP03_S11,LBP03,-1525,126,11,125,-1525,1715757621.0,2024-05-15 07:20:21+00:00,2024-05-15 16:20:21+09:00,2024,5,15,7,20,21,0,7.0,20.0,21.0,40.573734,141.519943,4.008,3.0,12.0,0.325195,0.080811,0.604248,172.607422,-63.903809,-122.070312,-288.0,7.0,368.0,1841.0,0.0,1020.5,21.440001,0.074323,-60.15176,3.628125,0.0,1.0,1.0,11.0,0.0,0.0,0.0,4.0,0.0,0.12971356,-0.25055661333333334,1.0679915333333332,12.087402293333335,0.14648436000000004,1.2776693066666671,38.46800563795383,10.388578418940519,-22.8269247598396,12.063342794330904,24.756996522378667,24.744051852647516,37.022982298419905,-1.085095369094589,36.96175031966997,-1.0993712000612745,0.19548144,0.3313676133333333,-0.4637435333333332,0.9905925866666665,0.6025575103334017,1.0322286207437938,0.9664949505078927,0.8514250005143363
LBP03_S11,LBP03,-1524,127,11,126,-1524,1715757621.04,2024-05-15 07:20:21.040000+00:00,2024-05-15 16:20:21.040000+09:00,2024,5,15,7,20,21,40,,,,,,,,,0.453613,0.250732,1.739014,38.635254,8.422852,-3.356934,,,,,,,,,,,0.0,1.0,1.0,11.0,0.0,0.0,0.0,4.0,0.0,0.13504884,-0.25782874666666666,1.07764648,11.644693960000003,1.75618488,3.044433626666667,35.47486395911596,5.614027963352402,-20.054098925981204,13.482337352695541,24.981557640912765,23.941887895608268,37.135773031727915,-1.0800123455263761,37.21268073069312,-1.0962119779878254,0.31856416,0.5085607466666666,0.66136752,1.4884924266666666,0.8930420782906108,1.0241156223063035,0.9706791941437377,0.8595124784701123
LBP03_S11,LBP03,-1523,128,11,127,-1523,1715757621.08,2024-05-15 07:20:21.080000+00:00,2024-05-15 16:20:21.080000+09:00,2024,5,15,7,20,21,80,,,,,,,,,-0.260986,-0.776123,2.071533,-207.03125,-23.742676,65.673828,,,,,,,,,,,0.0,1.0,1.0,11.0,0.0,0.0,0.0,4.0,0.0,0.12311524000000001,-0.2631542666666667,1.06630208,12.475585893333337,4.44580076,3.274739613333334,34.24972663544135,0.6601752447433628,-15.095604714724193,14.852326418113195,25.0079646507025,23.3380637070193,37.29148848723875,-1.1243327679616293,37.54005625386277,-1.0967696044331157,-0.38410124,-0.5129687333333333,1.00523092,1.9023008933333334,1.1921241069918804,1.0154352587612028,0.9678250088105022,0.8626060323737804
LBP03_S11,LBP03,-1522,129,11,128,-1522,1715757621.12,2024-05-15 07:20:21.120000+00:00,2024-05-15 16:20:21.120000+09:00,2024,5,15,7,20,21,120,,,,,,,,,-0.268066,-0.880859,1.95752,75.927734,-24.597168,16.296387,,,,,,,,,,,0.0,1.0,1.0,11.0,0.0,0.0,0.0,4.0,0.0,0.11940105333333333,-0.25736650666666666,1.0583072933333333,17.294108040000005,4.372558573333333,2.2819010800000004,35.032394878444784,-4.038804551599342,-8.530714557091303,16.253622213250985,24.846412468638526,22.99683512473565,37.555011294993335,-1.1278006466313444,37.96569568506474,-1.100735431425981,-0.38746705333333337,-0.6234924933333332,0.8992127066666666,1.9101722533333332,1.160800197489915,1.0174021894774372,0.9504841163191781,0.8686847322510625
LBP03_S11,LBP03,-1521,130,11,129,-1521,1715757621.16,2024-05-15 07:20:21.160000+00:00,2024-05-15 16:20:21.160000+09:00,2024,5,15,7,20,21,160,,,,,,,,,0.366699,-0.240479,1.489746,-95.581055,40.95459,25.146484,,,,,,,,,,,0.0,1.0,1.0,11.0,0.0,0.0,0.0,4.0,0.0,0.11788738666666668,-0.26136716000000004,1.04629232,17.689615853333336,2.202148413333333,0.43294274666666716,37.54317205028287,-8.12889263664292,-1.112524549553253,17.7553490952623,24.521256763172808,22.95233414275352,37.99150033021451,-1.1380261861481167,38.51274775055661,-1.1061289507454948,0.24881161333333332,0.020888160000000044,0.44345367999999996,0.7131534533333334,0.5089152193276049,1.008335684029347,0.9428635387733888,0.866895344608587
LBP03_S11,LBP03,-1520,131,11,130,-1520,1715757621.2,2024-05-15 07:20:21.200000+00:00,2024-05-15 16:20:21.200000+09:00,2024,5,15,7,20,21,200,,,,,,,,,0.008301,0.168945,0.431885,420.532227,211.120605,3.601074,,,,,,,,,,,0.0,1.0,1.0,11.0,0.0,0.0,0.0,4.0,0.0,0.12117514666666668,-0.24130205333333335,1.0351172,21.013183560000005,3.168945293333333,0.6152344133333338,41.058976241193974,-11.211597602356813,6.373016171263892,19.39770814491006,24.072792859078536,23.20725478960408,38.65678610775622,-1.097484701601882,39.198648483974665,-1.1100611158016673,-0.11287414666666667,0.41024705333333333,-0.6032321999999999,1.1263534,0.7381953026613288,1.0189389012565773,0.932392182575676,0.869661278096318
LBP03_S11,LBP03,-1519,132,11,131,-1519,1715757621.24,2024-05-15 07:20:21.240000+00:00,2024-05-15 16:20:21.240000+09:00,2024,5,15,7,20,21,240,,,,,,,,,-0.370605,-0.167236,0.043213,-160.949707,-137.451172,-47.119141,,,,,,,,,,,0.0,1.0,1.0,11.0,0.0,0.0,0.0,4.0,0.0,0.12096681333333334,-0.23772132000000004,1.0320866,15.609537720000004,1.45751952,1.7618815466666673,44.694299249235236,-12.831718717600276,13.129385978048118,21.185480114879468,23.559524110374525,23.732430228726002,39.58666427683216,-1.0923534693001316,40.028265712405,-1.1177466049165727,-0.49157181333333333,0.07048532000000005,-0.9888736,1.5509307333333333,1.1065631589639535,1.0376427988776837,0.9335740665577487,0.8817451324881311
LBP03_S11,LBP03,-1518,133,11,132,-1518,1715757621.28,2024-05-15 07:20:21.280000+00:00,2024-05-15 16:20:21.280000+09:00,2024,5,15,7,20,21,280,,,,,,,,,0.416504,-0.289551,0.164795,46.264648,-147.766113,-65.368652,,,,,,,,,,,0.0,1.0,1.0,11.0,0.0,0.0,0.0,4.0,0.0,0.11987305333333331,-0.24788082666666666,1.0471940266666664,13.853352826666669,-1.13281252,2.6749674800000003,47.68717233467989,-12.657791885075584,18.327100206367046,23.092967008266662,23.053212434971503,24.465514236980685,40.78353976418332,-1.1121767244800078,40.989473330966476,-1.1259049822577158,0.2966309466666667,-0.04167017333333334,-0.8823990266666664,1.2207001466666663,0.9318553343348275,1.0087519318876579,0.9286553092512235,0.8883763978909245
LBP03_S11,LBP03,-1517,134,11,133,-1517,1715757621.32,2024-05-15 07:20:21.320000+00:00,2024-05-15 16:20:21.320000+09:00,2024,5,15,7,20,21,320,,,,,,,,,0.678711,-0.520996,1.07666,122.619629,-66.955566,8.117676,,,,,,,,,,,0.0,1.0,1.0,11.0,0.0,0.0,0.0,4.0,0.0,0.12255534666666668,-0.25920896,1.0726465066666666,13.41634110666667,-1.25569664,3.9957682666666665,49.52673612281914,-10.758465393337922,21.167321360786094,25.074036453179428,22.622873819237984,25.312207091412127,42.20437834792818,-1.1206218316813052,42.0520757836929,-1.1271085300992931,0.5561556533333333,-0.26178704,0.00401349333333334,0.8219561866666667,0.6147012877612387,0.993665047294557,0.9204474398325566,0.881483740834581
LBP03_S11,LBP03,-1516,135,11,134,-1516,1715757621.36,2024-05-15 07:20:21.360000+00:00,2024-05-15 16:20:21.360000+09:00,2024,5,15,7,20,21,360,,,,,,,,,0.118164,0.893311,1.135742,123.413086,123.962402,117.797852,,,,,,,,,,,0.0,1.0,1.0,11.0,0.0,0.0,0.0,4.0,0.0,0.11876953333333333,-0.25230141333333334,1.070074893333333,15.46386714666667,1.8977864266666666,4.982096386666666,49.89931655411152,-7.7559594742904485,21.103768449503878,27.07000911534389,22.312635440266366,26.15635782939228,43.758360900452416,-1.1227071155912915,43.169835991670546,-1.1264132175115813,-0.0006055333333333246,1.1456124133333332,0.06566710666666697,1.2118850533333334,1.147493066276225,1.0154656710362886,0.9260728874585551,0.8948506187202583
LBP03_S11,LBP03,-1515,136,11,135,-1515,1715757621.4,2024-05-15 07:20:21.400000+00:00,2024-05-15 16:20:21.400000+09:00,2024,5,15,7,20,21,400,,,,,,,,,0.118164,-1.460449,2.373291,-217.651367,-111.022949,99.54834,,,,,,,,,,,0.0,1.0,1.0,11.0,0.0,0.0,0.0,4.0,0.0,0.10980469333333334,-0.2595637733333333,1.0576530133333333,14.931640586666669,2.85400388,4.223632853333333,48.53383968325537,-4.6997036387638715,18.152522952711838,29.011362702674106,22.12464729471581,26.882458747500756,45.31915458272325,-1.1619502602436425,44.284862992105886,-1.122884367015803,0.008359306666666663,-1.2008852266666667,1.3156379866666668,2.5248825200000002,1.7813193193794647,1.0176686244508912,0.9463953254114282,0.913345271867253
LBP03_S11,LBP03,-1514,137,11,136,-1514,1715757621.44,2024-05-15 07:20:21.440000+00:00,2024-05-15 16:20:21.440000+09:00,2024,5,15,7,20,21,440,,,,,,,,,0.041992,-0.042969,1.86499,202.880859,83.312988,7.080078,,,,,,,,,,,0.0,1.0,1.0,11.0,0.0,0.0,0.0,4.0,0.0,0.10933269333333333,-0.2582877333333334,1.0444043200000002,18.736165333333336,1.396484346666667,2.145996133333334,45.068317235232676,-2.693296563843296,13.097439188971157,30.814095392083413,22.01691543216208,27.406356315059604,46.74784921734261,-1.161596118937808,45.33369369996554,-1.1267783956418636,-0.06734069333333333,0.21531873333333337,0.8205856799999998,1.1032451066666664,0.8510333625210866,1.0035381454460344,0.9534036157186354,0.9073559797571792
LBP03_S11,LBP03,-1513,138,11,137,-1513,1715757621.48,2024-05-15 07:20:21.480000+00:00,2024-05-15 16:20:21.480000+09:00,2024,5,15,7,20,21,480,,,,,,,,,0.109375,-1.147705,1.614258,-115.112305,18.737793,23.010254,,,,,,,,,,,0.0,1.0,1.0,11.0,0.0,0.0,0.0,4.0,0.0,0.11220053333333332,-0.24727861333333337,1.0247754133333336,20.22216794666667,-0.011393253333332989,1.3826497733333338,39.05825441074743,-2.4600334420299728,7.406008210633574,32.37642556851331,21.91851409448088,27.702596643484945,47.91751301450299,-1.1363682463774019,46.25463536814684,-1.129409441888431,-0.0028255333333333243,-0.9004263866666666,0.5894825866666664,1.4927345066666664,1.0762273837007823,1.0258630912328293,0.9604894121122196,0.9121041749435261
LBP03_S11,LBP03,-1512,139,11,138,-1512,1715757621.52,2024-05-15 07:20:21.520000+00:00,2024-05-15 16:20:21.520000+09:00,2024,5,15,7,20,21,520,,,,,,,,,-0.113037,0.503174,0.038574,222.717285,160.461426,-32.348633,,,,,,,,,,,0.0,1.0,1.0,11.0,0.0,0.0,0.0,4.0,0.0,0.11320964000000001,-0.23933915999999997,1.0147265866666666,18.30566404,-0.37679038666666625,1.5079752933333337,30.179935564726648,-4.064282821180779,2.815747114953276,33.58362299110238,21.75594278163365,27.815226528083077,48.73261337476981,-1.1208475207542261,46.99576510399654,-1.1331618928047433,-0.22624664,0.74251316,-0.9761525866666666,1.9449123866666667,1.2471516376690124,1.0345466834319454,0.9651469049528457,0.9218124638707427
LBP03_S11,LBP03,-1511,140,11,139,-1511,1715757621.56,2024-05-15 07:20:21.560000+00:00,2024-05-15 16:20:21.560000+09:00,2024,5,15,7,20,21,560,,,,,,,,,-0.068604,-0.264648,0.22998,-72.143555,-131.347656,-70.43457,,,,,,,,,,,0.0,1.0,1.0,11.0,0.0,0.0,0.0,4.0,0.0,0.11339518666666666,-0.22854489333333333,1.0101888266666668,14.423014293333333,-1.7293294533333332,3.006998733333334,18.55469086589338,-6.935049001447346,0.7356169001108999,34.325810625738114,21.478540821575756,27.844651204087512,49.14177033456796,-1.1027376811903347,47.52223362563362,-1.1388380811607957,-0.18199918666666665,-0.03610310666666666,-0.7802088266666668,0.9983111200000001,0.8019681735997319,0.980115047616549,0.9594198967008368,0.9276375281521408
LBP03_S11,LBP03,-1510,141,11,140,-1510,1715757621.6,2024-05-15 07:20:21.600000+00:00,2024-05-15 16:20:21.600000+09:00,2024,5,15,7,20,21,600,,,,,,,,,0.386719,0.02002,0.169189,73.425293,-101.318359,-63.598633,,,,,,,,,,,0.0,1.0,1.0,11.0,0.0,0.0,0.0,4.0,0.0,0.11637370666666667,-0.2569010133333333,1.0297070533333335,10.139160133333336,-5.16357424,4.64436852,5.023591759356184,-10.18927830263228,1.7186119105105844,34.526754296112365,21.070969689470463,27.913395680507936,49.14509318635275,-1.1364249878624866,47.82102289264244,-1.1437187660920685,0.2703452933333333,0.2769210133333333,-0.8605180533333334,1.40778436,0.9435375696630398,0.9778722322865293,0.9681312835345973,0.9374182138446117
LBP03_S11,LBP03,-1509,142,11,141,-1509,1715757621.64,2024-05-15 07:20:21.640000+00:00,2024-05-15 16:20:21.640000+09:00,2024,5,15,7,20,21,640,,,,,,,,,0.408691,-0.256348,0.628662,-15.50293,-80.627441,-11.352539,,,,,,,,,,,0.0,1.0,1.0,11.0,0.0,0.0,0.0,4.0,0.0,0.12217448,-0.25732745333333334,1.0434961200000001,14.847005186666669,-2.1606445599999993,6.635742213333334,-8.797285121525414,-13.077684461972362,5.248325739365962,34.17486289125135,20.54786231099157,28.123328710082575,48.79608095864514,-1.1186639317658076,47.90215796483828,-1.1412355039971398,0.28651652000000005,0.0009794533333333244,-0.4148341200000001,0.7023300933333334,0.5041626946511583,0.977197414489217,0.974260736350727,0.9349696484795829
LBP03_S11,LBP03,-1508,143,11,142,-1508,1715757621.68,2024-05-15 07:20:21.680000+00:00,2024-05-15 16:20:21.680000+09:00,2024,5,15,7,20,21,680,,,,,,,,,0.264648,0.3125,0.994141,180.847168,57.678223,50.415039,,,,,,,,,,,0.0,1.0,1.0,11.0,0.0,0.0,0.0,4.0,0.0,0.11154296,-0.2549381333333333,1.0414290666666666,16.357421853333335,0.691731733333334,8.413085960000002,-20.771729950261513,-15.29263139506084,9.951691867386065,33.34399369324089,19.936157055189135,28.52139638477802,48.19483712268031,-1.1497012336431303,47.79707621567005,-1.1364737832820535,0.15310504,0.5674381333333334,-0.04728806666666652,0.7678312399999999,0.5896298412421903,0.9532065404664023,0.9587942807308317,0.9332550741148709
LBP03_S11,LBP03,-1507,144,11,143,-1507,1715757621.72,2024-05-15 07:20:21.720000+00:00,2024-05-15 16:20:21.720000+09:00,2024,5,15,7,20,21,720,,,,,,,,,0.000488,0.145996,1.651367,-250.0,-35.400391,91.308594,,,,,,,,,,,0.0,1.0,1.0,11.0,0.0,0.0,0.0,4.0,0.0,0.10396809333333333,-0.2569270666666667,1.0249707333333336,15.757649720000002,-0.8789062933333327,7.194824240000001,-28.78300753009027,-16.967316074937337,14.157396427512726,32.19267339203728,19.25746441219164,29.08769224187853,47.469063564298935,-1.1773837152418292,47.55548797128783,-1.132765784661932,-0.10348009333333333,0.40292306666666666,0.6263962666666665,1.1327994266666663,0.7519490742479068,0.9421348822044909,0.9668818568808352,0.9374371212877177
LBP03_S11,LBP03,-1506,145,11,144,-1506,1715757621.76,2024-05-15 07:20:21.760000+00:00,2024-05-15 16:20:21.760000+09:00,2024,5,15,7,20,21,760,,,,,,,,,0.294434,-0.908203,2.246094,-184.143066,-43.212891,39.306641,,,,,,,,,,,0.0,1.0,1.0,11.0,0.0,0.0,0.0,4.0,0.0,0.10746744,-0.26170572000000003,1.0042610933333334,20.393880186666667,-3.0476888399999993,5.2848307466666675,-31.393566796877753,-18.391841298340225,16.557402999361432,30.936930720162167,18.521790760258032,29.749988361852985,46.74625357054062,-1.1715139649040176,47.24098399262238,-1.1300246390548199,0.18696655999999998,-0.64649728,1.2418329066666665,2.0752967466666665,1.4124674140261833,0.9642120534787721,0.9873050061605545,0.9540734600233006
LBP03_S11,LBP03,-1505,146,11,145,-1505,1715757621.8,2024-05-15 07:20:21.800000+00:00,2024-05-15 16:20:21.800000+09:00,2024,5,15,7,20,21,800,,,,,,,,,-0.066406,-0.576904,1.595459,-15.930176,94.299316,70.251465,,,,,,,,,,,0.0,1.0,1.0,11.0,0.0,0.0,0.0,4.0,0.0,0.10982096000000001,-0.24285156,0.9759896,22.950846333333335,-3.9257812799999994,4.501953146666668,-28.34510587640088,-19.632163826468695,16.683387076384463,29.80312648510613,17.736504207199285,30.417323844908363,46.13050530468167,-1.1371176392943567,46.92450377285927,-1.1307557101934176,-0.17622696000000002,-0.33405244,0.6194694,1.1297488,0.7255269199948098,0.9680092338733481,0.9650791301449861,0.9477839127695947
LBP03_S11,LBP03,-1504,147,11,146,-1504,1715757621.84,2024-05-15 07:20:21.840000+00:00,2024-05-15 16:20:21.840000+09:00,2024,5,15,7,20,21,840,,,,,,,,,0.019043,-0.087891,0.761963,89.660645,119.07959,30.212402,,,,,,,,,,,0.0,1.0,1.0,11.0,0.0,0.0,0.0,4.0,0.0,0.1097526,-0.22803710666666668,0.9596191466666668,21.05550128,-4.380696639999999,4.53857424,-20.644470685075433,-20.289534379061507,15.001869876299567,28.977347657703113,16.924922832036824,31.017398639960348,45.69703172566034,-1.113978911786944,46.67513812850643,-1.129224077179605,-0.0907096,0.1401461066666667,-0.19765614666666687,0.4285118533333335,0.25872208073741915,0.916411306206627,0.9561823247875662,0.9453653063136359
LBP03_S11,LBP03,-1503,148,11,147,-1503,1715757621.88,2024-05-15 07:20:21.880000+00:00,2024-05-15 16:20:21.880000+09:00,2024,5,15,7,20,21,880,,,,,,,,,-0.203369,0.109619,-0.100342,12.207031,-69.824219,-70.739746,,,,,,,,,,,0.0,1.0,1.0,11.0,0.0,0.0,0.0,4.0,0.0,0.11051105333333332,-0.22098632000000004,0.9563899733333333,15.870768213333333,-7.069498719999999,4.645182320000001,-10.192918105469278,-19.582970078735965,12.60976317639212,28.56963093348434,16.141604028887386,31.52178916701603,45.50163057068074,-1.0992882601761853,46.54924980335899,-1.130482937081315,-0.3138800533333333,0.33060532000000004,-1.0567319733333334,1.7012173466666667,1.1508705526503835,0.9102154366170219,0.9616209817738524,0.9548598955259374
LBP03_S11,LBP03,-1502,149,11,148,-1502,1715757621.92,2024-05-15 07:20:21.920000+00:00,2024-05-15 16:20:21.920000+09:00,2024,5,15,7,20,21,920,,,,,,,,,0.179443,-0.251953,0.196289,52.490234,-169.494629,-51.574707,,,,,,,,,,,0.0,1.0,1.0,11.0,0.0,0.0,0.0,4.0,0.0,0.11985674666666665,-0.23659829333333335,0.9810904933333332,13.011881493333336,-8.313802106666666,5.89762372,0.8305242361793232,-16.77921739007208,10.692304862344091,28.602851902931512,15.470435333284502,31.949481361509793,45.58757358811535,-1.0934360646831065,46.58035633346387,-1.1249648784317958,0.05958625333333334,-0.015354706666666634,-0.7848014933333332,0.8597424533333331,0.7872100561739245,0.9049145521343159,0.9710596698066715,0.9552308625616996
LBP03_S11,LBP03,-1501,150,11,149,-1501,1715757621.96,2024-05-15 07:20:21.960000+00:00,2024-05-15 16:20:21.960000+09:00,2024,5,15,7,20,21,960,,,,,,,,,0.338379,0.268799,0.109619,14.160156,-57.128906,-28.015137,,,,,,,,,,,0.0,1.0,1.0,11.0,0.0,0.0,0.0,4.0,0.0,0.11671548,-0.24031573333333336,0.9881835866666665,12.8190104,-5.7389323066666655,8.173828146666668,10.525459282271845,-11.773377200289495,10.008733247186534,29.023870274222386,14.999500245272923,32.34983069139725,45.97696813693678,-1.1100483925763123,46.77295766700142,-1.1129618396347465,0.22166352,0.5091147333333333,-0.8785645866666665,1.6093428399999998,1.0393306792068788,0.9126941608757982,0.9737599009608133,0.9515016951995467
LBP03_S11,LBP03,-1500,151,11,150,-1500,1715757622.0,2024-05-15 07:20:22+00:00,2024-05-15 16:20:22+09:00,2024,5,15,7,20,22,0,7.0,20.0,22.0,40.573803,141.519974,5.94,3.0,13.0,0.409668,-0.525391,0.671631,8.178711,-94.360352,1.647949,-280.0,-8.0,356.0,2206.0,0.0,1020.400024,21.5,0.073332,-59.324638,3.628125,0.0,1.0,1.0,11.0,0.0,0.0,0.0,4.0,0.0,0.11201495999999998,-0.23731117333333335,0.9727962133333333,14.101562480000002,-3.3089192933333327,8.753255226666667,17.56009324969779,-5.475565948139661,10.645266385451226,29.726274004210296,14.780477607347336,32.7756413468153,46.65143674282447,-1.1211086577243596,47.10298655541858,-1.100304874118245,0.29765304,-0.2880798266666667,-0.30116521333333335,0.88689808,0.5121404148040365,0.9090774770546237,0.9706530488992088,0.9473557926901365
LBP03_S11,LBP03,-1499,152,11,151,-1499,1715757622.04,2024-05-15 07:20:22.040000+00:00,2024-05-15 16:20:22.040000+09:00,2024,5,15,7,20,22,40,,,,,,,,,0.056885,0.459717,0.689697,62.62207,86.364746,60.668945,,,,,,,,,,,0.0,1.0,1.0,11.0,0.0,0.0,0.0,4.0,0.0,0.1102604,-0.24030596000000004,0.9459667866666667,16.553548146666667,-5.195312519999999,6.661783866666667,21.170108315708653,0.2808355721238147,12.127656610486822,30.57307833683864,14.791711030232289,33.26074761123477,47.53719770717062,-1.1312525307829069,47.52531364176949,-1.0899389053524884,-0.053375399999999996,0.7000229600000001,-0.25626978666666667,1.0096681466666668,0.7473655607602618,0.9032504163534099,0.9636830193298566,0.9482029348802951
LBP03_S11,LBP03,-1498,153,11,152,-1498,1715757622.08,2024-05-15 07:20:22.080000+00:00,2024-05-15 16:20:22.080000+09:00,2024,5,15,7,20,22,80,,,,,,,,,0.311768,-0.718018,1.473633,-231.689453,-30.334473,92.224121,,,,,,,,,,,0.0,1.0,1.0,11.0,0.0,0.0,0.0,4.0,0.0,0.11128253333333334,-0.22030595999999997,0.9095605333333333,18.046061173333335,-4.947102893333333,5.374348973333334,20.99145489440237,3.346591265881188,13.795516803806413,31.412736532614737,14.925574680867536,33.81256828338702,48.50590242372915,-1.09452064714794,47.98562805116279,-1.0866889904842758,0.20048546666666667,-0.4977120400000001,0.5640724666666667,1.2622699733333334,0.778517465929269,0.8867061507109052,0.951070704736054,0.9407853894439699
LBP03_S11,LBP03,-1497,154,11,153,-1497,1715757622.12,2024-05-15 07:20:22.120000+00:00,2024-05-15 16:20:22.120000+09:00,2024,5,15,7,20,22,120,,,,,,,,,0.211914,-0.344971,0.824219,112.243652,142.39502,39.611816,,,,,,,,,,,0.0,1.0,1.0,11.0,0.0,0.0,0.0,4.0,0.0,0.11432614666666668,-0.20644528,0.8884960933333332,18.741048160000002,-6.73665368,4.329427093333334,16.915895811590723,2.1411448048627704,15.212180892920195,32.08937236507837,15.011220473062046,34.42105551910383,49.395076899674535,-1.0573533272713336,48.43229965914155,-1.0867333883862877,0.09758785333333331,-0.13852572000000002,-0.0642770933333332,0.30039066666666653,0.1812299890942683,0.8475233423750795,0.9324627659262584,0.9161638583378118
LBP03_S11,LBP03,-1496,155,11,154,-1496,1715757622.16,2024-05-15 07:20:22.160000+00:00,2024-05-15 16:20:22.160000+09:00,2024,5,15,7,20,22,160,,,,,,,,,-0.202881,0.351562,0.070068,99.731445,111.022949,33.630371,,,,,,,,,,,0.0,1.0,1.0,11.0,0.0,0.0,0.0,4.0,0.0,0.11656898666666665,-0.20431962666666667,0.8922363333333334,14.340006493333334,-8.581543,4.5817057466666675,9.10869365060005,-3.5788658171042464,16.383342549057822,32.45372011110237,14.868065840377877,35.076389221066144,50.04654245471217,-1.0449443097390057,48.82468477319789,-1.0872182810152924,-0.3194499866666667,0.5558816266666666,-0.8221683333333334,1.6974999466666667,1.0425993694526312,0.8688707083800806,0.9386031962047138,0.9181992619756193
LBP03_S11,LBP03,-1495,156,11,155,-1495,1715757622.2,2024-05-15 07:20:22.200000+00:00,2024-05-15 16:20:22.200000+09:00,2024,5,15,7,20,22,200,,,,,,,,,-0.127686,-0.182373,0.186523,-27.832031,-15.319824,-27.832031,,,,,,,,,,,0.0,1.0,1.0,11.0,0.0,0.0,0.0,4.0,0.0,0.12064777333333335,-0.20581702666666668,0.9082877599999999,10.313313786666667,-7.736002626666665,7.134602880000001,-1.8207774637438543,-12.432660713046015,17.678888294715133,32.380889012552615,14.370759411856037,35.78354475285475,50.353776168190784,-1.0334579516367894,49.13664067489968,-1.0854691634300937,-0.24833377333333334,0.023444026666666673,-0.7217647599999999,0.9935425599999999,0.763651526641685,0.8698889573392948,0.9444139292979359,0.9115577741635491
LBP03_S11,LBP03,-1494,157,11,156,-1494,1715757622.24,2024-05-15 07:20:22.240000+00:00,2024-05-15 16:20:22.240000+09:00,2024,5,15,7,20,22,240,,,,,,,,,0.118408,-0.096191,0.048828,42.053223,-91.552734,-33.569336,,,,,,,,,,,0.0,1.0,1.0,11.0,0.0,0.0,0.0,4.0,0.0,0.11595050666666666,-0.22218095999999998,0.9267513066666665,7.604980453333334,-7.713216173333332,9.154459653333333,-14.65248643096565,-21.778510557689735,19.52274329224126,31.79478955531399,13.499618989548448,36.5644544845444,50.30017581959331,-1.0814797631048174,49.35614365245336,-1.0804662701981198,0.002457493333333338,0.12598995999999998,-0.8779233066666665,1.0063707599999998,0.8869209895378611,0.861103270562251,0.9493730347199674,0.9094171345592496
LBP03_S11,LBP03,-1493,158,11,157,-1493,1715757622.28,2024-05-15 07:20:22.280000+00:00,2024-05-15 16:20:22.280000+09:00,2024,5,15,7,20,22,280,,,,,,,,,0.172119,0.19043,0.095215,4.699707,-95.031738,-15.014648,,,,,,,,,,,0.0,1.0,1.0,11.0,0.0,0.0,0.0,4.0,0.0,0.10836261333333333,-0.21708656,0.9223079466666667,8.933919253333334,-6.5966797066666665,10.02766928,-27.579635406292805,-28.606708296423598,22.039805059040944,30.691604139062278,12.355350657691504,37.44604668690604,49.96834665046833,-1.0997322391963051,49.48314665147299,-1.071504696153998,0.06375638666666666,0.40751656,-0.8270929466666668,1.2983658933333335,0.9242388035247021,0.860798609329846,0.9347752706087519,0.9060364092774309
LBP03_S11,LBP03,-1492,159,11,158,-1492,1715757622.32,2024-05-15 07:20:22.320000+00:00,2024-05-15 16:20:22.320000+09:00,2024,5,15,7,20,22,320,,,,,,,,,0.464355,0.067871,0.394531,-68.42041,-127.990723,6.286621,,,,,,,,,,,0.0,1.0,1.0,11.0,0.0,0.0,0.0,4.0,0.0,0.11003254666666668,-0.21986650666666668,0.9099772133333333,9.026692693333334,-6.298828146666667,8.881835946666667,-38.50946826263974,-30.60041144883083,24.86412757324668,29.151225408556687,11.131334199738271,38.440611789835906,49.51142472867868,-1.0982849909731522,49.527746696887604,-1.0634597026171269,0.35432245333333334,0.2877375066666667,-0.5154462133333333,1.1575061733333334,0.688492608906279,0.8637502621756477,0.9287076547351023,0.901548380613587
LBP03_S11,LBP03,-1491,160,11,159,-1491,1715757622.36,2024-05-15 07:20:22.360000+00:00,2024-05-15 16:20:22.360000+09:00,2024,5,15,7,20,22,360,,,,,,,,,0.238281,-0.010986,0.863281,-27.038574,-12.878418,56.335449,,,,,,,,,,,0.0,1.0,1.0,11.0,0.0,0.0,0.0,4.0,0.0,0.10352213333333334,-0.20361650666666667,0.8755078133333334,7.771809880000001,-5.910644546666666,8.116048186666667,-45.58012377663576,-26.937719153775028,27.218252614275993,27.328020457491256,10.05382543358727,39.52934189440695,49.09652715395482,-1.0925572167243256,49.509176119683914,-1.058601132392241,0.13475886666666664,0.19263050666666667,-0.01222681333333342,0.3396161866666667,0.23540594556686398,0.8272667773472732,0.9213662241917809,0.8931375174214611
LBP03_S11,LBP03,-1490,161,11,160,-1490,1715757622.4,2024-05-15 07:20:22.400000+00:00,2024-05-15 16:20:22.400000+09:00,2024,5,15,7,20,22,400,,,,,,,,,0.073486,-0.185791,1.234863,-216.674805,-21.484375,79.528809,,,,,,,,,,,0.0,1.0,1.0,11.0,0.0,0.0,0.0,4.0,0.0,0.10396809333333333,-0.19389320000000002,0.8492740799999999,8.17708332,-7.822265639999999,7.175292973333334,-47.70971034111952,-18.542181075516417,28.225896126330998,25.419632043846477,9.312138190566614,40.658377739460185,48.846466518361254,-1.0710797254046227,49.45419008528925,-1.0591244726692763,-0.030482093333333335,0.008102200000000004,0.3855889200000001,0.42417321333333347,0.38687674895965063,0.7714890745304807,0.894578849490686,0.8880932417844457
LBP03_S11,LBP03,-1489,162,11,161,-1489,1715757622.44,2024-05-15 07:20:22.440000+00:00,2024-05-15 16:20:22.440000+09:00,2024,5,15,7,20,22,440,,,,,,,,,0.227539,-0.877197,1.702881,-124.023438,-27.160645,57.678223,,,,,,,,,,,0.0,1.0,1.0,11.0,0.0,0.0,0.0,4.0,0.0,0.11208331999999999,-0.19495113333333333,0.8503255066666666,7.111002586666668,-12.234700533333333,6.686197920000001,-44.938242567409766,-7.728502594028943,27.29812592791421,23.622102341150086,9.002998086805457,41.75030277657675,48.80722769736695,-1.041636790341687,49.392930369588285,-1.057393727412636,0.11545568,-0.6822458666666666,0.8525554933333335,1.65025704,1.09801653258995,0.7813684013332352,0.8924532733896348,0.8960585442568354
LBP03_S11,LBP03,-1488,163,11,162,-1488,1715757622.48,2024-05-15 07:20:22.480000+00:00,2024-05-15 16:20:22.480000+09:00,2024,5,15,7,20,22,480,,,,,,,,,-0.000244,-0.151611,1.014648,93.87207,71.289062,47.729492,,,,,,,,,,,0.0,1.0,1.0,11.0,0.0,0.0,0.0,4.0,0.0,0.11755532,-0.19176102666666667,0.8553157466666667,5.441894506666667,-12.180175799999999,8.007812493333335,-38.37991116265433,2.5872759778239076,24.397744422713235,22.086905894643913,9.106489125918413,42.72621255348528,48.951902877875234,-1.0140707117792294,49.35187523668462,-1.0472368977949407,-0.11779932,0.04015002666666667,0.15933225333333334,0.3172816,0.2021768319716034,0.746406379264068,0.8861347352484487,0.8891284011628355
LBP03_S11,LBP03,-1487,164,11,163,-1487,1715757622.52,2024-05-15 07:20:22.520000+00:00,2024-05-15 16:20:22.520000+09:00,2024,5,15,7,20,22,520,,,,,,,,,0.14624,-0.496338,1.108887,31.738281,66.650391,33.508301,,,,,,,,,,,0.0,1.0,1.0,11.0,0.0,0.0,0.0,4.0,0.0,0.11705727999999999,-0.18856116,0.8576855333333333,3.387044240000001,-11.584472666666665,10.27343748,-29.78452344771538,9.811767724729751,20.05106755808587,20.895524956735297,9.498959834907604,43.528255255808716,49.20937112763762,-1.0087676250224773,49.34585534943332,-1.0377891006012483,0.029182720000000023,-0.30777684,0.25120146666666665,0.5881610266666667,0.3983470738470015,0.7124541967111875,0.8735004400715666,0.8809160022056263
LBP03_S11,LBP03,-1486,165,11,164,-1486,1715757622.56,2024-05-15 07:20:22.560000+00:00,2024-05-15 16:20:22.560000+09:00,2024,5,15,7,20,22,560,,,,,,,,,-0.458252,0.230469,-0.118164,83.190918,154.418945,-41.809082,,,,,,,,,,,0.0,1.0,1.0,11.0,0.0,0.0,0.0,4.0,0.0,0.11110350666666667,-0.19723302666666667,0.8506868266666667,-0.2921549866666658,-11.888834653333333,11.545410146666667,-20.92304544208869,12.406208025236706,15.103920039763729,20.05860313905175,9.995208155917071,44.132412057399264,49.49668211076544,-1.0501777125093574,49.37264240536123,-1.0304664229189922,-0.5693555066666667,0.4277020266666667,-0.9688508266666668,1.9659083600000002,1.2024003663169411,0.728471484419876,0.8542932660182124,0.8824370926071832
LBP03_S11,LBP03,-1485,166,11,165,-1485,1715757622.6,2024-05-15 07:20:22.600000+00:00,2024-05-15 16:20:22.600000+09:00,2024,5,15,7,20,22,600,,,,,,,,,0.08252,0.174561,0.220215,-64.63623,-86.486816,-32.958984,,,,,,,,,,,0.0,1.0,1.0,11.0,0.0,0.0,0.0,4.0,0.0,0.12057290666666665,-0.19789384000000004,0.8439713333333334,2.5553385066666676,-11.123046893333333,11.183268226666668,-13.102376980617299,10.185234613208747,10.34736381445988,19.534508059827058,10.402617540445421,44.54630660997766,49.741179011181174,-1.016150499070385,49.4132126810954,-1.0202662668403775,-0.03805290666666665,0.37245484000000006,-0.6237563333333334,1.03426408,0.7274906150038309,0.7198296062335077,0.8488509192600184,0.8853640577675672
LBP03_S11,LBP03,-1484,167,11,166,-1484,1715757622.64,2024-05-15 07:20:22.640000+00:00,2024-05-15 16:20:22.640000+09:00,2024,5,15,7,20,22,640,,,,,,,,,0.194336,-0.557129,0.52832,-140.625,-124.450684,-72.44873,,,,,,,,,,,0.0,1.0,1.0,11.0,0.0,0.0,0.0,4.0,0.0,0.12508461333333334,-0.18909176,0.83175128,3.1648762666666674,-8.85009768,11.774902333333333,-7.000585105610513,4.128501193520997,6.20894288220674,19.25448465560264,10.56775758818626,44.794664325265934,49.889624490556734,-0.9799114669278652,49.438404648990726,-1.0120361216375724,0.06925138666666666,-0.36803724,-0.30343127999999997,0.7407199066666666,0.4819934711845298,0.7189428372948425,0.8480701258920298,0.8891547699987654
LBP03_S11,LBP03,-1483,168,11,167,-1483,1715757622.68,2024-05-15 07:20:22.680000+00:00,2024-05-15 16:20:22.680000+09:00,2024,5,15,7,20,22,680,,,,,,,,,0.489258,-0.022461,1.079102,131.896973,25.32959,14.831543,,,,,,,,,,,0.0,1.0,1.0,11.0,0.0,0.0,0.0,4.0,0.0,0.11698890666666666,-0.18718745333333334,0.8172460666666667,5.131022106666667,-8.101399760000001,11.402180986666668,-2.794383273674964,-4.131287478953624,2.6773112223177136,19.14270932465564,10.402506089028115,44.90175677415864,49.908147777955314,-1.0052542672593823,49.419568736614224,-1.0072647632790324,0.37226909333333336,0.16472645333333333,0.26185593333333335,0.7988514800000001,0.4840326560273305,0.714718949886248,0.8339627451763252,0.8774358371159705
LBP03_S11,LBP03,-1482,169,11,168,-1482,1715757622.72,2024-05-15 07:20:22.720000+00:00,2024-05-15 16:20:22.720000+09:00,2024,5,15,7,20,22,720,,,,,,,,,0.065918,0.065918,1.417725,-123.352051,-8.666992,99.304199,,,,,,,,,,,0.0,1.0,1.0,11.0,0.0,0.0,0.0,4.0,0.0,0.11364254666666668,-0.19034174666666667,0.8141796533333333,-0.6876627999999989,-11.33626304,11.036783853333334,-0.40026588853426176,-12.864832753144189,-0.49868366314532686,19.12669868911427,9.887912778902347,44.88180942763283,49.7792952879578,-1.0250582141505893,49.33895272525114,-1.0090413085706147,-0.04772454666666667,0.2562597466666667,0.6035453466666666,0.9075296399999999,0.6574295974468976,0.7109381708142076,0.8265365265093492,0.8815672948586261
LBP03_S11,LBP03,-1481,170,11,169,-1481,1715757622.76,2024-05-15 07:20:22.760000+00:00,2024-05-15 16:20:22.760000+09:00,2024,5,15,7,20,22,760,,,,,,,,,-0.186768,-1.181152,2.164307,-26.489258,-58.044434,44.555664,,,,,,,,,,,0.0,1.0,1.0,11.0,0.0,0.0,0.0,4.0,0.0,0.12239254666666666,-0.18952469333333333,0.8215982666666667,1.5690103733333343,-10.913085959999998,11.118977866666667,0.3531172982910215,-20.626127529776536,-3.4624057384623512,19.140823381045912,9.062867677711285,44.743313198094334,49.502229911296524,-0.9905556559381788,49.196089393759635,-1.007603996132966,-0.30916054666666665,-0.9916273066666667,1.3427087333333332,2.643496586666666,1.69757818715717,0.7223426017394472,0.8432773276091097,0.8989842046868521
LBP03_S11,LBP03,-1480,171,11,170,-1480,1715757622.8,2024-05-15 07:20:22.800000+00:00,2024-05-15 16:20:22.800000+09:00,2024,5,15,7,20,22,800,,,,,,,,,-0.033691,-0.306885,1.612305,35.888672,-19.53125,34.179688,,,,,,,,,,,0.0,1.0,1.0,11.0,0.0,0.0,0.0,4.0,0.0,0.122985,-0.18962885333333335,0.8311685733333334,1.925455693333334,-10.087076853333334,12.0320638,-0.2864901170310378,-26.39410621833194,-5.983041346352959,19.12936377636467,8.007103428978008,44.503991544240215,49.09838619731456,-0.988778273376571,49.00859759000229,-1.0031910774777226,-0.15667599999999998,-0.11725614666666667,0.7811364266666667,1.0550685733333334,0.8052766543075017,0.7255325911119549,0.8467709124926516,0.8852302838006424
LBP03_S11,LBP03,-1479,172,11,171,-1479,1715757622.84,2024-05-15 07:20:22.840000+00:00,2024-05-15 16:20:22.840000+09:00,2024,5,15,7,20,22,840,,,,,,,,,-0.034668,0.019775,0.418213,49.499512,105.46875,-10.070801,,,,,,,,,,,0.0,1.0,1.0,11.0,0.0,0.0,0.0,4.0,0.0,0.11408525333333332,-0.17763016,0.8289875866666666,0.9334309466666677,-8.041992226666666,12.928059893333334,-1.8647364703024925,-29.551795930377594,-7.4615334384262795,19.05477431755257,6.825031591762904,44.205530206703166,48.618868573601844,-0.9939232067562888,48.808088815634086,-0.9995430745342102,-0.1487532533333333,0.19740516000000002,-0.4107745866666666,0.7569329999999999,0.47940806065714753,0.7343600303087439,0.8253856682576856,0.8822415599612922
LBP03_S11,LBP03,-1478,173,11,172,-1478,1715757622.88,2024-05-15 07:20:22.880000+00:00,2024-05-15 16:20:22.880000+09:00,2024,5,15,7,20,22,880,,,,,,,,,-0.229004,-0.127441,-0.104248,16.479492,-0.976562,-90.698242,,,,,,,,,,,0.0,1.0,1.0,11.0,0.0,0.0,0.0,4.0,0.0,0.11551104,-0.19654944,0.8368293866666667,-2.725423226666666,-10.714518266666666,12.119954413333334,-3.56573964699834,-29.836919354230325,-7.234309487023073,18.912144731672637,5.631554817593691,43.91615782722224,48.14574276424437,-1.0318361646950533,48.63344825099715,-0.9994481378949642,-0.34451504,0.06910844,-0.9410773866666667,1.3547008666666667,1.0045363293384655,0.7285066613762673,0.8193610489966445,0.8839162083079906
LBP03_S11,LBP03,-1477,174,11,173,-1477,1715757622.92,2024-05-15 07:20:22.920000+00:00,2024-05-15 16:20:22.920000+09:00,2024,5,15,7,20,22,920,,,,,,,,,0.164795,0.066162,0.146973,69.030762,-144.40918,-86.181641,,,,,,,,,,,0.0,1.0,1.0,11.0,0.0,0.0,0.0,4.0,0.0,0.11508461333333332,-0.17943681333333333,0.8263801733333334,0.30517573333333425,-8.947753946666667,11.13199868,-4.195044108345596,-27.36779089405998,-5.010547804308718,18.744342967338813,4.5368431818312915,43.71573591504989,47.78073781272256,-0.9943945006459882,48.52426236105364,-0.9959077932537641,0.049710386666666675,0.24559881333333333,-0.6794071733333333,0.9747163733333333,0.7241436368774369,0.7259840046044077,0.8154492783693619,0.889367781405917
LBP03_S11,LBP03,-1476,175,11,174,-1476,1715757622.96,2024-05-15 07:20:22.960000+00:00,2024-05-15 16:20:22.960000+09:00,2024,5,15,7,20,22,960,,,,,,,,,0.567627,0.013916,0.57666,-15.74707,-117.126465,-29.174805,,,,,,,,,,,0.0,1.0,1.0,11.0,0.0,0.0,0.0,4.0,0.0,0.11528318666666666,-0.18472652,0.8156217066666668,-3.9347331199999993,-8.326822960000001,10.979003893333335,-2.4150615410309313,-22.736003379981835,-1.1814009958283962,18.647740505697577,3.6274030466320184,43.668479875216754,47.621764073192,-1.0060485259569218,48.5163067854996,-0.9894027676666134,0.45234381333333334,0.19864252000000002,-0.23896170666666683,0.8899480400000002,0.5487954750778636,0.7063625964392471,0.8095283786575229,0.8846274661202913
LBP03_S11,LBP03,-1475,176,11,175,-1475,1715757623.0,2024-05-15 07:20:23+00:00,2024-05-15 16:20:23+09:00,2024,5,15,7,20,23,0,7.0,20.0,23.0,40.573879,141.519989,6.587,3.0,14.0,0.281982,0.0354,1.208984,4.333496,38.269043,3.601074,-269.0,0.0,360.0,1657.0,0.0,1020.5,21.559999,0.074323,-60.15176,3.628125,0.0,1.0,1.0,11.0,0.0,0.0,0.0,4.0,0.0,0.11177081333333332,-0.16857092,0.7951204000000001,-2.045084679999999,-7.264811239999999,10.517578106666669,2.7862840467474106,-17.034818646838673,3.2047103633975977,18.759191867567473,2.9460103007584717,43.79666828975266,47.73609126749917,-0.979670469635263,48.6391735881298,-0.9857862797454686,0.17021118666666668,0.20397092,0.4138636,0.7880457066666666,0.49179168727936146,0.7055486473382602,0.8073130621964419,0.8822849150455593
LBP03_S11,LBP03,-1474,177,11,176,-1474,1715757623.04,2024-05-15 07:20:23.040000+00:00,2024-05-15 16:20:23.040000+09:00,2024,5,15,7,20,23,40,,,,,,,,,0.141846,-0.415039,1.591797,-244.384766,-36.92627,105.285645,,,,,,,,,,,0.0,1.0,1.0,11.0,0.0,0.0,0.0,4.0,0.0,0.11490231999999999,-0.17312170666666668,0.7979719599999999,-5.789388066666666,-10.88704432,10.633951813333333,11.572367264822756,-11.678985908837301,6.825154372922763,19.222086558160385,2.4788508644049796,44.06967446466957,48.143218844187395,-0.9789621005354051,48.91462383083963,-0.9872421185990088,0.02694368000000001,-0.2419172933333333,0.79382504,1.0626860133333333,0.8303060476936622,0.7088662668155962,0.806058341584503,0.878744101825103
LBP03_S11,LBP03,-1473,178,11,177,-1473,1715757623.08,2024-05-15 07:20:23.080000+00:00,2024-05-15 16:20:23.080000+09:00,2024,5,15,7,20,23,80,,,,,,,,,0.206055,-1.386719,1.865234,10.925293,5.79834,52.91748,,,,,,,,,,,0.0,1.0,1.0,11.0,0.0,0.0,0.0,4.0,0.0,0.11859373333333333,-0.17518552,0.7992708,-6.279296919999999,-10.692545626666666,11.36718748,22.956740903201624,-7.998335975708114,8.645229612238932,20.14035619428845,2.158917425376655,44.41548364915913,48.81628887852015,-0.9698508208473798,49.35428803154282,-0.989180027610195,0.08746126666666666,-1.21153348,1.0659632,2.364957946666667,1.6160879895853717,0.7423690877618402,0.8145376192363729,0.8815034990779828
LBP03_S11,LBP03,-1472,179,11,178,-1472,1715757623.12,2024-05-15 07:20:23.120000+00:00,2024-05-15 16:20:23.120000+09:00,2024,5,15,7,20,23,120,,,,,,,,,0.23999,-0.232422,1.30127,193.359375,80.13916,56.274414,,,,,,,,,,,0.0,1.0,1.0,11.0,0.0,0.0,0.0,4.0,0.0,0.12164386666666668,-0.17584308,0.8072623466666666,-6.057942759999999,-10.32307948,12.44222004,34.94701458441044,-6.751425495223146,8.37357142067293,21.538236777664867,1.8888604055677292,44.75042650598605,49.699739532417425,-0.9600079582790844,49.95679906146049,-0.9864508649312178,0.11834613333333333,-0.05657891999999998,0.4940076533333333,0.6689327066666666,0.5111267387011017,0.7555649577461137,0.8015441500605965,0.8734968298662102
LBP03_S11,LBP03,-1471,180,11,179,-1471,1715757623.16,2024-05-15 07:20:23.160000+00:00,2024-05-15 16:20:23.160000+09:00,2024,5,15,7,20,23,160,,,,,,,,,-0.190186,-0.13916,0.567139,84.594727,124.328613,37.963867,,,,,,,,,,,0.0,1.0,1.0,11.0,0.0,0.0,0.0,4.0,0.0,0.11847329333333333,-0.16899737333333334,0.81533852,-6.590169319999998,-9.283040426666666,13.589680973333333,45.134926920108036,-7.790992078794223,6.57571451061309,23.34363385446919,1.5772207224159602,45.01345508641057,50.73089793759854,-0.9543907767267304,50.70597830545556,-0.9859351473425635,-0.3086592933333333,0.029837373333333334,-0.24819952,0.5866961866666667,0.3971949520533913,0.729748781050144,0.7993097447151122,0.868985057819857
LBP03_S11,LBP03,-1470,181,11,180,-1470,1715757623.2,2024-05-15 07:20:23.200000+00:00,2024-05-15 16:20:23.200000+09:00,2024,5,15,7,20,23,200,,,,,,,,,-0.185547,-0.038086,-0.050293,51.818848,-84.594727,-91.73584,,,,,,,,,,,0.0,1.0,1.0,11.0,0.0,0.0,0.0,4.0,0.0,0.11524413333333333,-0.18344398666666667,0.8245051866666667,-12.102050826666666,-10.780436266666667,13.579915346666668,51.478449474915585,-10.075824370475576,4.387738776351486,25.402771833465813,1.1741877475969371,45.188964637464636,51.85288862441282,-1.003336661911973,51.57189895681404,-0.98493894322138,-0.3007911333333333,0.14535798666666666,-0.8747981866666668,1.3209473066666666,0.9364166367461795,0.7366593854543239,0.8032741713968093,0.8751624146833986
LBP03_S11,LBP03,-1469,182,11,181,-1469,1715757623.24,2024-05-15 07:20:23.240000+00:00,2024-05-15 16:20:23.240000+09:00,2024,5,15,7,20,23,240,,,,,,,,,0.228027,-0.289795,0.239746,88.256836,-133.239746,-91.796875,,,,,,,,,,,0.0,1.0,1.0,11.0,0.0,0.0,0.0,4.0,0.0,0.12006184,-0.19583656,0.8280728933333333,-8.048502653333331,-10.107421933333333,12.599283826666666,52.924455648447974,-12.071114248791597,2.9799946445522796,27.519750059403734,0.6913431776452732,45.30816442324673,53.015510580633745,-1.0133022968681507,52.51530778944177,-0.9848866503599704,0.10796516,-0.09395844000000003,-0.5883268933333333,0.7902504933333334,0.605485918614389,0.725401982617385,0.7932526265898179,0.8747160173524401
LBP03_S11,LBP03,-1468,183,11,182,-1468,1715757623.28,2024-05-15 07:20:23.280000+00:00,2024-05-15 16:20:23.280000+09:00,2024,5,15,7,20,23,280,,,,,,,,,0.438965,0.156494,0.531738,102.294922,-26.733398,-24.353027,,,,,,,,,,,0.0,1.0,1.0,11.0,0.0,0.0,0.0,4.0,0.0,0.11799152000000002,-0.18853838666666667,0.81623044,-5.882161506666666,-8.632812560000001,12.474772106666666,49.630070782946596,-12.374912250927808,3.050188473351578,29.504952890721597,0.19634668760816087,45.43017196218079,54.17085306342105,-1.004544537905282,53.49405095677042,-0.9836245472438305,0.32097348,0.3450323866666667,-0.28449243999999996,0.9504983066666666,0.5504609624027486,0.7104508689725069,0.7856247391511764,0.8600004700633368
