file_name,test_id,_program_index,program_index,session_id,index,_index,unixtime,datetime_utc,datetime_jst,rtc_year,rtc_month,rtc_day,rtc_hour,rtc_min,rtc_sec,rtc_msec,gps_hour,gps_min,gps_sec,latitude,longitude,altitude,fix_type,SIV,acc_x,acc_y,acc_z,gyro_x,gyro_y,gyro_z,mag_x,mag_y,mag_z,illuminance,atmopress,water_pressure,water_temp,depth,alt_wps,battery_level,behavior_class,camera_command,camera_recording,camera_count,play_audio,speaker_on,audio_file,prev_sd_write_time_ms,delay_occurred_counter,acc_x_ma,acc_y_ma,acc_z_ma,gyro_x_ma,gyro_y_ma,gyro_z_ma,gyro_x_lowpass,gyro_y_lowpass,gyro_z_lowpass,angle_x,angle_y,angle_z,combined_angle_change,gravity_adjusted_angle,smoothed_angle_change,smoothed_gravity_angle,acc_x_dy,acc_y_dy,acc_z_dy,ODBA,VeDBA,smoothed_VeDBA_1s,smoothed_VeDBA_2s,smoothed_VeDBA_3s
LBP03_S08,LBP03,-1775,1,8,0,-1775,1715755060.0,2024-05-15 06:37:40+00:00,2024-05-15 15:37:40+09:00,2024,5,15,6,37,40,0,6.0,37.0,40.0,40.533588,141.468857,5.315,3.0,13.0,0.354492,0.223389,1.13501,28.015137,146.179199,89.050293,-262.0,-8.0,359.0,1746.0,0.0,1023.299988,32.110001,0.102071,-83.290077,3.796875,0.0,1.0,1.0,8.0,0.0,0.0,0.0,4.0,0.0,,,,,,,28.144599098644775,145.9242669644256,89.11829860148448,1.125783963945791,5.836970678577025,3.564731944059379,6.931445020271227,,12.756788963802432,,,,,,,,,
LBP03_S08,LBP03,-1774,2,8,1,-1774,1715755060.04,2024-05-15 06:37:40.040000+00:00,2024-05-15 15:37:40.040000+09:00,2024,5,15,6,37,40,40,,,,,,,,,-0.46167,-0.268066,1.774658,-210.754395,29.968262,102.478027,,,,,,,,,,,0.0,1.0,1.0,8.0,0.0,0.0,0.0,4.0,0.0,,,,,,,20.296689632906585,98.0966061630656,61.35811328110319,1.9376515492620543,9.76083492509965,6.019056475303508,11.63002290686892,,13.123244115068609,,,,,,,,,
LBP03_S08,LBP03,-1773,3,8,2,-1773,1715755060.08,2024-05-15 06:37:40.080000+00:00,2024-05-15 15:37:40.080000+09:00,2024,5,15,6,37,40,80,,,,,,,,,0.039062,-0.545654,1.800293,13.977051,-111.999512,46.142578,,,,,,,,,,,0.0,1.0,1.0,8.0,0.0,0.0,0.0,4.0,0.0,,,,,,,13.899388083056806,55.05533659650132,36.3950833214508,2.4936270725843266,11.963048388959702,7.47485980816154,14.32502118272031,,13.296427278317113,,,,,,,,,
LBP03_S08,LBP03,-1772,4,8,3,-1772,1715755060.12,2024-05-15 06:37:40.120000+00:00,2024-05-15 15:37:40.120000+09:00,2024,5,15,6,37,40,120,,,,,,,,,0.25,-0.49707,0.929199,-69.152832,72.875977,44.921875,,,,,,,,,,,0.0,1.0,1.0,8.0,0.0,0.0,0.0,4.0,0.0,,,,,,,9.569024601625816,20.614740028552024,16.720730139109566,2.8763880566493594,12.787637990101784,8.143689013725922,15.431038991934722,,13.370403061553397,,,,,,,,,
LBP03_S08,LBP03,-1771,5,8,4,-1771,1715755060.16,2024-05-15 06:37:40.160000+00:00,2024-05-15 15:37:40.160000+09:00,2024,5,15,6,37,40,160,,,,,,,,,-0.533447,0.053711,-0.531494,129.699707,175.842285,-81.176758,,,,,,,,,,,0.0,1.0,1.0,8.0,0.0,0.0,0.0,4.0,0.0,,,,,,,7.255666342525131,-3.0993941612602414,3.7936716461159805,3.166614710350365,12.663662223651373,8.295435879570562,15.466416717216976,,13.408757515264789,,,,,,,,,
LBP03_S08,LBP03,-1770,6,8,5,-1770,1715755060.2,2024-05-15 06:37:40.200000+00:00,2024-05-15 15:37:40.200000+09:00,2024,5,15,6,37,40,200,,,,,,,,,0.109863,-0.027588,-0.001465,75.073242,-198.608398,-67.993164,,,,,,,,,,,0.0,1.0,1.0,8.0,0.0,0.0,0.0,4.0,0.0,,,,,,,6.419577858074782,-15.91688729630334,-2.2951973723447963,3.423397824673356,12.02698673179924,8.20362798467677,14.955519871399492,,13.444579005498605,,,,,,,,,
LBP03_S08,LBP03,-1769,7,8,6,-1769,1715755060.24,2024-05-15 06:37:40.240000+00:00,2024-05-15 15:37:40.240000+09:00,2024,5,15,6,37,40,240,,,,,,,,,0.528809,0.145752,0.484375,60.424805,-102.966309,-63.842773,,,,,,,,,,,0.0,1.0,1.0,8.0,0.0,0.0,0.0,4.0,0.0,,,,,,,6.344374336101835,-19.462263618971672,-2.826876184455158,3.677172798117429,11.248496187040374,8.090552937298563,14.335526257808151,,14.141975235186866,,,,,,,,,
LBP03_S08,LBP03,-1768,8,8,7,-1768,1715755060.28,2024-05-15 06:37:40.280000+00:00,2024-05-15 15:37:40.280000+09:00,2024,5,15,6,37,40,280,,,,,,,,,0.48291,0.026855,1.18335,-49.194336,73.547363,33.813477,,,,,,,,,,,0.0,1.0,1.0,8.0,0.0,0.0,0.0,4.0,0.0,,,,,,,6.362249646954955,-16.638602980225144,-0.04768865741924437,3.9316627839956273,10.582952067831368,8.088645391001792,13.888233544207377,,14.377495904114031,,,,,,,,,
LBP03_S08,LBP03,-1767,9,8,8,-1767,1715755060.32,2024-05-15 06:37:40.320000+00:00,2024-05-15 15:37:40.320000+09:00,2024,5,15,6,37,40,320,,,,,,,,,-0.114258,0.035889,1.306152,-82.275391,100.952148,163.574219,,,,,,,,,,,0.0,1.0,1.0,8.0,0.0,0.0,0.0,4.0,0.0,,,,,,,5.90156408338876,-10.857371644776677,3.5633554302639836,4.167725347331178,10.148657202040301,8.231179608212353,13.71559314495593,,14.336483632717293,,,,,,,,,
LBP03_S08,LBP03,-1766,10,8,9,-1766,1715755060.36,2024-05-15 06:37:40.360000+00:00,2024-05-15 15:37:40.360000+09:00,2024,5,15,6,37,40,360,,,,,,,,,-0.166016,-1.015381,1.792969,-141.235352,-74.584961,25.512695,,,,,,,,,,,0.0,1.0,1.0,8.0,0.0,0.0,0.0,4.0,0.0,,,,,,,4.453112657354553,-5.191656447805997,6.0869442020035995,4.34584985362536,9.94099094412806,8.474657376292496,13.766972417602954,,14.162148031112446,,,,,,,,,
LBP03_S08,LBP03,-1765,11,8,10,-1765,1715755060.4,2024-05-15 06:37:40.400000+00:00,2024-05-15 15:37:40.400000+09:00,2024,5,15,6,37,40,400,,,,,,,,,0.179199,-0.572998,1.556396,165.710449,-29.23584,47.912598,,,,,,,,,,,0.0,1.0,1.0,8.0,0.0,0.0,0.0,4.0,0.0,,,,,,,1.6240622824856632,-1.690973155593548,6.682769212202204,4.4108123449247865,9.873352017904319,8.741968144780584,13.905407317153808,,13.952751531491856,,,,,,,,,
LBP03_S08,LBP03,-1764,12,8,11,-1764,1715755060.44,2024-05-15 06:37:40.440000+00:00,2024-05-15 15:37:40.440000+09:00,2024,5,15,6,37,40,440,,,,,,,,,-0.066406,0.031738,0.3396,78.186035,224.914551,-8.056641,,,,,,,,,,,0.0,1.0,1.0,8.0,0.0,0.0,0.0,4.0,0.0,,,,,,,-2.658374310956452,-1.051828519510166,5.621597677643386,4.304477372486528,9.831278877123912,8.96683205188632,13.985229596140607,,13.764257090500157,,,,,,,,,
LBP03_S08,LBP03,-1763,13,8,12,-1763,1715755060.48,2024-05-15 06:37:40.480000+00:00,2024-05-15 15:37:40.480000+09:00,2024,5,15,6,37,40,480,,,,,,,,,-0.431152,0.206299,-0.340332,-2.502441,-85.9375,-89.416504,,,,,,,,,,,0.0,1.0,1.0,8.0,0.0,0.0,0.0,4.0,0.0,,,,,,,-7.920514166641633,-2.7187796885065856,3.858045452506793,3.987656805820863,9.722527689583648,9.12115386998659,13.914898468752892,,13.617028037292565,,,,,,,,,
LBP03_S08,LBP03,-1762,14,8,13,-1762,1715755060.52,2024-05-15 06:37:40.520000+00:00,2024-05-15 15:37:40.520000+09:00,2024,5,15,6,37,40,520,,,,,,,,,0.317383,-0.245605,0.246338,-24.780273,-162.902832,-99.243164,,,,,,,,,,,0.0,1.0,1.0,8.0,0.0,0.0,0.0,4.0,0.0,,,,,,,-13.108903468463986,-5.357776871753914,2.3947177807460176,3.4633006670823034,9.508216614713492,9.216942581216431,13.687682975886277,,13.506471025380723,,,,,,,,,
LBP03_S08,LBP03,-1761,15,8,14,-1761,1715755060.56,2024-05-15 06:37:40.560000+00:00,2024-05-15 15:37:40.560000+09:00,2024,5,15,6,37,40,560,,,,,,,,,0.41626,0.008545,0.521973,41.07666,-28.991699,-35.461426,,,,,,,,,,,0.0,1.0,1.0,8.0,0.0,0.0,0.0,4.0,0.0,,,,,,,-16.869468138364848,-7.5114276221335,1.7721708167424304,2.7885219415477094,9.207759509828152,9.287829413886127,13.372451721011076,,13.417075039729479,,,,,,,,,
LBP03_S08,LBP03,-1760,16,8,15,-1760,1715755060.6,2024-05-15 06:37:40.600000+00:00,2024-05-15 15:37:40.600000+09:00,2024,5,15,6,37,40,600,,,,,,,,,0.35376,0.040283,1.073486,-111.877441,39.916992,79.711914,,,,,,,,,,,0.0,1.0,1.0,8.0,0.0,0.0,0.0,4.0,0.0,,,,,,,-18.06288287089141,-8.167976826539011,1.9231984680224097,2.0660066267120527,8.881040436766591,9.364757352607024,13.07057546148251,,13.336433782573474,,,,,,,,,
LBP03_S08,LBP03,-1759,17,8,16,-1759,1715755060.64,2024-05-15 06:37:40.640000+00:00,2024-05-15 15:37:40.640000+09:00,2024,5,15,6,37,40,640,,,,,,,,,-0.392822,-0.328369,1.490723,-172.790527,69.335938,81.848145,,,,,,,,,,,0.0,1.0,1.0,8.0,0.0,0.0,0.0,4.0,0.0,,,,,,,-16.282988336610543,-7.039044406038811,2.405986292524735,1.414687093247631,8.599478660525039,9.460996804308014,12.863235725732206,,13.2641895332217,,,,,,,,,
LBP03_S08,LBP03,-1758,18,8,17,-1758,1715755060.68,2024-05-15 06:37:40.680000+00:00,2024-05-15 15:37:40.680000+09:00,2024,5,15,6,37,40,680,,,,,,,,,0.128174,-0.94873,1.999512,-47.607422,-152.526855,33.569336,,,,,,,,,,,0.0,1.0,1.0,8.0,0.0,0.0,0.0,4.0,0.0,,,,,,,-12.102633835406403,-4.511991234521043,2.8113463603070974,0.9305817398313749,8.418999011144196,9.573450658720297,12.782663425088945,,13.212955055269443,,,,,,,,,
LBP03_S08,LBP03,-1757,19,8,18,-1757,1715755060.72,2024-05-15 06:37:40.720000+00:00,2024-05-15 15:37:40.720000+09:00,2024,5,15,6,37,40,720,,,,,,,,,0.47876,-0.817383,1.497314,89.233398,-5.065918,54.138184,,,,,,,,,,,0.0,1.0,1.0,8.0,0.0,0.0,0.0,4.0,0.0,,,,,,,-6.874420413293775,-1.3793885341662873,3.061804035692046,0.6556049232996239,8.363823469777545,9.69592282014798,12.82163328844351,,13.20209692100199,,,,,,,,,
LBP03_S08,LBP03,-1756,20,8,19,-1756,1715755060.76,2024-05-15 06:37:40.760000+00:00,2024-05-15 15:37:40.760000+09:00,2024,5,15,6,37,40,760,,,,,,,,,-0.4729,0.032715,-0.137939,167.724609,318.481445,-46.447754,,,,,,,,,,,0.0,1.0,1.0,8.0,0.0,0.0,0.0,4.0,0.0,,,,,,,-2.146973011149026,1.5090989505867438,3.4227356562594022,0.5697260028536629,8.424187427801014,9.832832246398356,12.960559846042901,,13.248098970740449,,,,,,,,,
LBP03_S08,LBP03,-1755,21,8,20,-1755,1715755060.8,2024-05-15 06:37:40.800000+00:00,2024-05-15 15:37:40.800000+09:00,2024,5,15,6,37,40,800,,,,,,,,,0.072266,0.400146,0.027344,23.193359,-181.274414,-79.467773,,,,,,,,,,,0.0,1.0,1.0,8.0,0.0,0.0,0.0,4.0,0.0,,,,,,,1.0048257092384718,3.528104861507395,4.246681143634652,0.6099190312232018,8.56531162226131,10.002699492143742,13.182964823636055,,13.356360897159556,,,,,,,,,
LBP03_S08,LBP03,-1754,22,8,21,-1754,1715755060.84,2024-05-15 06:37:40.840000+00:00,2024-05-15 15:37:40.840000+09:00,2024,5,15,6,37,40,840,,,,,,,,,0.4104,-0.107666,0.464355,-67.016602,-72.08252,-75.134277,,,,,,,,,,,0.0,1.0,1.0,8.0,0.0,0.0,0.0,4.0,0.0,,,,,,,2.377181312823593,4.385576384767963,5.64371297496486,0.7050062837361455,8.740734677652028,10.228448011142337,13.472884816618073,,13.518572687456288,,,,,,,,,
LBP03_S08,LBP03,-1753,23,8,22,-1753,1715755060.88,2024-05-15 06:37:40.880000+00:00,2024-05-15 15:37:40.880000+09:00,2024,5,15,6,37,40,880,,,,,,,,,0.646484,-0.414795,1.136475,6.958008,-24.108887,-8.056641,,,,,,,,,,,0.0,1.0,1.0,8.0,0.0,0.0,0.0,4.0,0.0,,,,,,,2.5785209326142304,4.065023438296311,7.314351878446485,0.8081471210407147,8.903335615183881,10.521022086280196,13.80631712607833,,13.716785338807261,,,,,,,,,
LBP03_S08,LBP03,-1752,24,8,23,-1752,1715755060.92,2024-05-15 06:37:40.920000+00:00,2024-05-15 15:37:40.920000+09:00,2024,5,15,6,37,40,920,,,,,,,,,0.153076,0.41626,1.305664,11.291504,126.037598,153.137207,,,,,,,,,,,0.0,1.0,1.0,8.0,0.0,0.0,0.0,4.0,0.0,,,,,,,2.6002622415266137,2.718126403894794,8.668490514310982,0.9121576107017793,9.012060671339672,10.867761706852635,14.14770347327088,,13.930967425559771,,,,,,,,,
LBP03_S08,LBP03,-1751,25,8,24,-1751,1715755060.96,2024-05-15 06:37:40.960000+00:00,2024-05-15 15:37:40.960000+09:00,2024,5,15,6,37,40,960,,,,,,,,,-0.367676,-0.867188,1.783203,-212.95166,-72.265625,47.119141,,,,,,,,,,,0.0,1.0,1.0,8.0,0.0,0.0,0.0,4.0,0.0,,,,,,,3.2807267731755627,0.6143614941512093,9.152497861831128,1.0433866816288018,9.03663513110572,11.23386162132588,14.455070985202148,,14.144727936818958,,,,,,,,,
LBP03_S08,LBP03,-1750,26,8,25,-1750,1715755061.0,2024-05-15 06:37:41+00:00,2024-05-15 15:37:41+09:00,2024,5,15,6,37,41,0,6.0,37.0,41.0,40.533627,141.468918,4.839,3.0,13.0,0.376465,-0.048096,1.473145,85.510254,-15.258789,17.211914,-255.0,12.0,359.0,1681.0,0.0,1022.900024,32.099998,0.098107,-79.988037,3.796875,0.0,1.0,1.0,8.0,0.0,0.0,0.0,5.0,0.0,,,,,,,4.939193216857495,-1.8538312037094642,8.559304422253451,1.2409544103031016,8.962481882957341,11.576233798216018,14.692693364449832,,14.346282949558415,,,,,,,,,
LBP03_S08,LBP03,-1749,27,8,26,-1749,1715755061.04,2024-05-15 06:37:41.040000+00:00,2024-05-15 15:37:41.040000+09:00,2024,5,15,6,37,41,40,,,,,,,,,-0.079102,-0.671387,0.764648,25.878906,143.859863,17.578125,,,,,,,,,,,0.0,1.0,1.0,8.0,0.0,0.0,0.0,5.0,0.0,,,,,,,7.336060054196953,-4.187185616376415,7.114052052605925,1.5343968124709797,8.794994458302284,11.860795880320255,14.845362239241956,,14.525881659838452,,,,,,,,,
LBP03_S08,LBP03,-1748,28,8,27,-1748,1715755061.08,2024-05-15 06:37:41.080000+00:00,2024-05-15 15:37:41.080000+09:00,2024,5,15,6,37,41,80,,,,,,,,,-0.402588,0.342041,-0.364258,148.193359,-5.67627,-72.20459,,,,,,,,,,,0.0,1.0,1.0,8.0,0.0,0.0,0.0,5.0,0.0,,,,,,,9.920388843776841,-5.884835526971538,5.291178294695987,1.9312123662220533,8.559601037223423,12.072443012108096,14.924484292614029,,14.672725475797128,,,,,,,,,
LBP03_S08,LBP03,-1747,29,8,28,-1747,1715755061.12,2024-05-15 06:37:41.120000+00:00,2024-05-15 15:37:41.120000+09:00,2024,5,15,6,37,41,120,,,,,,,,,0.247314,-0.063721,0.318604,6.896973,-177.55127,-86.669922,,,,,,,,,,,0.0,1.0,1.0,8.0,0.0,0.0,0.0,5.0,0.0,,,,,,,12.157477662541154,-6.641357406240178,3.501161673797225,2.4175114727236995,8.293946740973816,12.212489479059984,14.959238401035384,,14.773556772924213,,,,,,,,,
LBP03_S08,LBP03,-1746,30,8,29,-1746,1715755061.16,2024-05-15 06:37:41.160000+00:00,2024-05-15 15:37:41.160000+09:00,2024,5,15,6,37,41,160,,,,,,,,,0.594971,-0.072021,0.699707,7.141113,-70.068359,-18.920898,,,,,,,,,,,0.0,1.0,1.0,8.0,0.0,0.0,0.0,5.0,0.0,,,,,,,13.702697585310585,-6.543977007788637,1.865371497290658,2.965619376136123,8.03218766066227,12.287104338951611,14.976109973437453,,14.813602084562561,,,,,,,,,
LBP03_S08,LBP03,-1745,31,8,30,-1745,1715755061.2,2024-05-15 06:37:41.200000+00:00,2024-05-15 15:37:41.200000+09:00,2024,5,15,6,37,41,200,,,,,,,,,0.292969,0.209961,1.14502,12.145996,98.083496,89.904785,,,,,,,,,,,0.0,1.0,1.0,8.0,0.0,0.0,0.0,5.0,0.0,,,,,,,14.327037638289184,-6.114965657673682,0.2309693145571134,3.5387008816676904,7.787589034355323,12.296343111533895,14.978951926436443,,14.77963859259025,,,,,,,,,
LBP03_S08,LBP03,-1744,32,8,31,-1744,1715755061.24,2024-05-15 06:37:41.240000+00:00,2024-05-15 15:37:41.240000+09:00,2024,5,15,6,37,41,240,,,,,,,,,-0.235352,-0.559082,1.718018,-200.927734,-15.197754,57.189941,,,,,,,,,,,0.0,1.0,1.0,8.0,0.0,0.0,0.0,5.0,0.0,,,,,,,13.698912386284928,-6.1019522937801725,-1.592245633616064,4.086657377119088,7.543510942604116,12.232653286189253,14.94132297620484,,14.664638620836584,,,,,,,,,
LBP03_S08,LBP03,-1743,33,8,32,-1743,1715755061.28,2024-05-15 06:37:41.280000+00:00,2024-05-15 15:37:41.280000+09:00,2024,5,15,6,37,41,280,,,,,,,,,0.094971,-0.555176,1.71582,75.744629,-13.549805,12.390137,,,,,,,,,,,0.0,1.0,1.0,8.0,0.0,0.0,0.0,5.0,0.0,,,,,,,11.244672395510612,-7.083307386956972,-3.5501577615985256,4.536444272939512,7.260178647125837,12.090646975725312,14.814630097349148,,14.473396650045903,,,,,,,,,
LBP03_S08,LBP03,-1742,34,8,33,-1742,1715755061.32,2024-05-15 06:37:41.320000+00:00,2024-05-15 15:37:41.320000+09:00,2024,5,15,6,37,41,320,,,,,,,,,0.244629,-0.354004,1.127441,10.375977,68.359375,28.869629,,,,,,,,,,,0.0,1.0,1.0,8.0,0.0,0.0,0.0,5.0,0.0,,,,,,,6.267479638191607,-9.092398752893617,-5.228041240376162,4.787143458467177,6.896482697010092,11.881525326110266,14.548156589654386,,14.227808035769112,-1.0479430621784303,,,,,,,,
LBP03_S08,LBP03,-1741,35,8,34,-1741,1715755061.36,2024-05-15 06:37:41.360000+00:00,2024-05-15 15:37:41.360000+09:00,2024,5,15,6,37,41,360,,,,,,,,,-0.293701,0.169434,-0.103027,120.361328,203.186035,-51.452637,,,,,,,,,,,0.0,1.0,1.0,8.0,0.0,0.0,0.0,5.0,0.0,,,,,,,-1.6771246425876534,-11.478786400322214,-5.997597073589732,4.720058472763671,6.437331240997204,11.641621443166677,14.115436065478987,,13.968023671108208,-1.053971523485745,,,,,,,,
LBP03_S08,LBP03,-1740,36,8,35,-1740,1715755061.4,2024-05-15 06:37:41.400000+00:00,2024-05-15 15:37:41.400000+09:00,2024,5,15,6,37,41,400,,,,,,,,,0.057129,-0.03833,0.250244,-0.549316,-259.399414,-83.251953,,,,,,,,,,,0.0,1.0,1.0,8.0,0.0,0.0,0.0,5.0,0.0,,,,,,,-12.349296100459325,-13.123750084753064,-5.352232239043045,4.226086628745298,5.9123812376070815,11.427532153604956,13.5426936469132,,13.744530497064385,-1.0470852952376513,,,,,,,,
LBP03_S08,LBP03,-1739,37,8,36,-1739,1715755061.44,2024-05-15 06:37:41.440000+00:00,2024-05-15 15:37:41.440000+09:00,2024,5,15,6,37,41,440,,,,,,,,,0.493164,0.134277,0.400879,30.944824,-102.539062,-77.575684,,,,,,,,,,,0.0,1.0,1.0,8.0,0.0,0.0,0.0,5.0,0.0,,,,,,,-24.609203190038684,-12.946894809230407,-3.230812923947799,3.2417185011437506,5.394505445237865,11.298299636647045,12.932942531335142,,13.603058006145968,-1.0443655805866712,,,,,,,,
LBP03_S08,LBP03,-1738,38,8,37,-1738,1715755061.48,2024-05-15 06:37:41.480000+00:00,2024-05-15 15:37:41.480000+09:00,2024,5,15,6,37,41,480,,,,,,,,,0.593994,-0.131348,1.00415,-48.461914,-29.296875,1.525879,,,,,,,,,,,0.0,1.0,1.0,8.0,0.0,0.0,0.0,5.0,0.0,0.11358721333333333,-0.19980467999999998,0.9781868533333333,-2.6334635866666667,-5.012207026666666,5.25146492,-36.58699447182885,-10.45237122741866,-0.1244158439552768,1.7782387222705964,4.976410596141118,11.293323002888833,12.468598149846125,-1.0479430621784303,13.573020879054678,-1.0402150649288797,0.4804067866666667,0.06845667999999999,0.02596314666666677,0.5748266133333335,0.4859537865855656,0.4859537865855656,0.4859537865855656,0.4859537865855656
LBP03_S08,LBP03,-1737,39,8,38,-1737,1715755061.52,2024-05-15 06:37:41.520000+00:00,2024-05-15 15:37:41.520000+09:00,2024,5,15,6,37,41,520,,,,,,,,,0.199707,0.383301,1.273193,-112.182617,64.697266,133.178711,,,,,,,,,,,0.0,1.0,1.0,8.0,0.0,0.0,0.0,5.0,0.0,0.11301104,-0.20462238666666666,0.9850553333333335,-1.96695968,-5.849609373333332,4.4506836666666665,-46.20167601704017,-6.009718674951577,3.115367432229756,-0.06982831841101045,4.7360218491430555,11.417937700178024,12.361394754426344,-1.0599999847930597,13.665747629353604,-1.0298369090835975,0.08669596,0.5879233866666667,0.2881376666666665,0.9627570133333332,0.6604494023178729,0.5732015944517193,0.5732015944517193,0.5732015944517193
LBP03_S08,LBP03,-1736,40,8,39,-1736,1715755061.56,2024-05-15 06:37:41.560000+00:00,2024-05-15 15:37:41.560000+09:00,2024,5,15,6,37,41,560,,,,,,,,,0.00293,-0.972412,1.83667,-253.417969,-53.283691,29.907227,,,,,,,,,,,0.0,1.0,1.0,8.0,0.0,0.0,0.0,5.0,0.0,0.12006507999999999,-0.20429035999999998,0.9728613200000001,0.9147135066666664,-3.2495117199999997,3.146158933333333,-51.80091195898948,-0.718118161063563,5.660849424740877,-2.14186479677059,4.707297122700513,11.644371677167658,12.741178232999253,-1.0333128387414636,13.878512815365877,-1.017662694866882,-0.11713507999999999,-0.76812164,0.8638086799999999,1.7490653999999999,1.1618506429168245,0.7694179439400877,0.7694179439400877,0.7694179439400877
LBP03_S08,LBP03,-1735,41,8,40,-1735,1715755061.6,2024-05-15 06:37:41.600000+00:00,2024-05-15 15:37:41.600000+09:00,2024,5,15,6,37,41,600,,,,,,,,,0.236572,-0.507568,1.642334,16.540527,59.326172,32.714844,,,,,,,,,,,0.0,1.0,1.0,8.0,0.0,0.0,0.0,5.0,0.0,0.11312823999999999,-0.19366210666666664,0.9429589733333332,0.5371093333333331,-1.8481445333333328,1.5559896666666668,-52.61806502059799,4.05389138976372,7.055070975462945,-4.24658739759451,4.869452778291063,11.926574516186177,13.564227017252277,-1.0362064366337307,14.198228267669709,-1.017224735700926,0.12344376000000001,-0.3139058933333334,0.6993750266666667,1.1367246800000002,0.7764668052642923,0.7711801592711388,0.7711801592711388,0.7711801592711388
LBP03_S08,LBP03,-1734,42,8,41,-1734,1715755061.64,2024-05-15 06:37:41.640000+00:00,2024-05-15 15:37:41.640000+09:00,2024,5,15,6,37,41,640,,,,,,,,,-0.043701,-0.155762,0.625488,18.127441,182.861328,18.981934,,,,,,,,,,,0.0,1.0,1.0,8.0,0.0,0.0,0.0,5.0,0.0,0.11456704,-0.19048828,0.9350423066666665,0.6022134933333331,-5.692545586666667,0.11637378666666687,-48.83967390042687,7.203818355076114,7.321326407257116,-6.200174353611585,5.157605512494107,12.219427572476462,14.640951705291922,-1.0236130022977143,14.601952499673775,-1.0189927568193056,-0.15826804,0.03472628,-0.3095543066666665,0.5025486266666666,0.3493974181128999,0.6868236110394911,0.6868236110394911,0.6868236110394911
LBP03_S08,LBP03,-1733,43,8,42,-1733,1715755061.68,2024-05-15 06:37:41.680000+00:00,2024-05-15 15:37:41.680000+09:00,2024,5,15,6,37,41,680,,,,,,,,,-0.279297,0.000488,-0.056152,26.611328,-52.124023,-84.106445,,,,,,,,,,,0.0,1.0,1.0,8.0,0.0,0.0,0.0,5.0,0.0,0.13047524,-0.19588866666666666,0.9541113200000001,-0.6925456266666667,-8.802897146666668,0.9041342000000001,-41.308163552355595,8.248376644393126,6.796703067487264,-7.852500895705809,5.487540578269832,12.491295695175953,15.7418976003384,-0.9779461298571868,15.054524129214311,-1.0199365876486621,-0.40977224,0.19637666666666664,-1.0102633200000002,1.6164122266666667,1.1077495473360173,0.7569779337555788,0.7569779337555788,0.7569779337555788
LBP03_S08,LBP03,-1732,44,8,43,-1732,1715755061.72,2024-05-15 06:37:41.720000+00:00,2024-05-15 15:37:41.720000+09:00,2024,5,15,6,37,41,720,,,,,,,,,0.325928,-0.208496,0.616211,36.437988,-121.582031,-85.693359,,,,,,,,,,,0.0,1.0,1.0,8.0,0.0,0.0,0.0,5.0,0.0,0.13514646666666666,-0.18852538666666668,0.9707584533333333,-0.8194987466666664,-4.582519546666666,3.3365886266666664,-31.098493160447692,7.353961318348206,5.82658243969355,-9.096440622123717,5.78169903100376,12.724358992763696,16.67580844977714,-0.9446174095665893,15.50583549244422,-1.016811122681877,0.19078153333333334,-0.019970613333333304,-0.3545474533333334,0.5652996,0.4031132787729517,0.706425840186632,0.706425840186632,0.706425840186632
LBP03_S08,LBP03,-1731,45,8,44,-1731,1715755061.76,2024-05-15 06:37:41.760000+00:00,2024-05-15 15:37:41.760000+09:00,2024,5,15,6,37,41,760,,,,,,,,,0.523926,0.224121,1.209717,39.672852,20.263672,6.103516,,,,,,,,,,,0.0,1.0,1.0,8.0,0.0,0.0,0.0,5.0,0.0,0.12419268,-0.20210286666666666,0.9915559733333333,-5.030924533333334,-4.0120442800000005,4.809570386666667,-19.24683132971866,5.089005389864581,4.534709403963661,-9.866313875312464,5.985259246598344,12.905747368922242,17.312590588517295,-1.0141590215392349,15.892556578163646,-1.0104879963925246,0.39973332,0.4262238666666667,0.2181610266666666,1.0441182133333333,0.6237369198554474,0.6960897251452339,0.6960897251452339,0.6960897251452339
LBP03_S08,LBP03,-1730,46,8,45,-1730,1715755061.8,2024-05-15 06:37:41.800000+00:00,2024-05-15 15:37:41.800000+09:00,2024,5,15,6,37,41,800,,,,,,,,,0.101318,0.166992,1.651855,-192.932129,35.949707,102.966309,,,,,,,,,,,0.0,1.0,1.0,8.0,0.0,0.0,0.0,5.0,0.0,0.12046221333333333,-0.20473632,1.00123696,-3.029785213333333,-4.8909505200000005,4.300944080000001,-6.751539610794151,2.086900072212236,2.8160805837175498,-10.13637545974423,6.068735249486833,13.018390592270944,17.57993596695385,-1.0331369257663394,16.149178422889058,-1.0037514816839526,-0.019144213333333326,0.37172832,0.6506180400000001,1.0414905733333335,0.7495680614644786,0.7020317625140389,0.7020317625140389,0.7020317625140389
LBP03_S08,LBP03,-1729,47,8,46,-1729,1715755061.84,2024-05-15 06:37:41.840000+00:00,2024-05-15 15:37:41.840000+09:00,2024,5,15,6,37,41,840,,,,,,,,,-0.410645,-1.348877,1.967529,-174.072266,-73.120117,30.822754,,,,,,,,,,,0.0,1.0,1.0,8.0,0.0,0.0,0.0,5.0,0.0,0.12592119999999998,-0.21190754666666667,1.00084308,-2.2037760933333335,-5.030924466666666,2.4169922533333335,5.269818857836063,-1.1878350780820701,0.5314768921524607,-9.925582705430786,6.0212218463635505,13.039649667957042,17.458658826740518,-1.0284310651128739,16.225470774862227,-0.9944587867794272,-0.5365662,-1.1369694533333334,0.96668592,2.640221573333333,1.585901791638368,0.7904187654264718,0.7904187654264718,0.7904187654264718
LBP03_S08,LBP03,-1728,48,8,47,-1728,1715755061.88,2024-05-15 06:37:41.880000+00:00,2024-05-15 15:37:41.880000+09:00,2024,5,15,6,37,41,880,,,,,,,,,0.476807,-0.369629,1.657227,114.501953,-30.883789,34.667969,,,,,,,,,,,0.0,1.0,1.0,8.0,0.0,0.0,0.0,5.0,0.0,0.12086586666666667,-0.1978222533333333,0.97012368,0.6827799066666671,-2.165527333333334,0.7828776800000002,15.525543310121488,-4.488923458736895,-2.2642818493009393,-9.304560973025927,5.841664908014074,12.949078393985005,16.98171178214521,-1.0166884125105757,16.09873995684191,-0.9862942852461327,0.3559411333333333,-0.17180674666666668,0.68710332,1.2148512,0.7926680395687872,0.7906232448939551,0.7906232448939551,0.7906232448939551
LBP03_S08,LBP03,-1727,49,8,48,-1727,1715755061.92,2024-05-15 06:37:41.920000+00:00,2024-05-15 15:37:41.920000+09:00,2024,5,15,6,37,41,920,,,,,,,,,-0.357666,-0.432617,0.372803,121.032715,232.910156,-3.845215,,,,,,,,,,,0.0,1.0,1.0,8.0,0.0,0.0,0.0,5.0,0.0,0.12091469333333334,-0.18913085333333335,0.9487988133333333,-0.8837891066666664,-4.054361973333333,-1.376953053333333,22.776750082684917,-7.694357619824606,-5.241280981682332,-8.393490969718531,5.53389060322109,12.739427154717712,16.22860561162062,-0.9967687218995375,15.774579244609162,-0.9874031116059682,-0.4785806933333333,-0.24348614666666663,-0.5759958133333333,1.298062653333333,0.7874618470932567,0.7903597950772302,0.7903597950772302,0.7903597950772302
LBP03_S08,LBP03,-1726,50,8,49,-1726,1715755061.96,2024-05-15 06:37:41.960000+00:00,2024-05-15 15:37:41.960000+09:00,2024,5,15,6,37,41,960,,,,,,,,,-0.063965,0.449463,-0.046143,160.217285,-138.122559,-90.270996,,,,,,,,,,,0.0,1.0,1.0,8.0,0.0,0.0,0.0,5.0,0.0,0.1277148266666667,-0.1866048133333333,0.9496093600000001,-2.6505534266666664,-8.329264319999998,-2.0727538266666663,26.26947856140613,-10.679457726740985,-7.919194748623904,-7.342711827262286,5.106712294151451,12.422659364772755,15.30739668025335,-0.9659476916557418,15.28056107278837,-0.9929207641709026,-0.1916798266666667,0.6360678133333333,-0.9957523600000001,1.8235000000000001,1.1970155310417576,0.82164100553604,0.82164100553604,0.82164100553604
LBP03_S08,LBP03,-1725,51,8,50,-1725,1715755062.0,2024-05-15 06:37:42+00:00,2024-05-15 15:37:42+09:00,2024,5,15,6,37,42,0,6.0,37.0,42.0,40.53368,141.468979,4.238,3.0,13.0,0.330811,0.09668,0.609619,27.954102,-81.237793,-93.383789,-258.0,11.0,358.0,1682.0,0.0,1023.0,32.130001,0.099098,-80.813515,3.796875,0.0,1.0,1.0,8.0,0.0,0.0,0.0,4.0,0.0,0.1416926933333333,-0.19724934666666666,0.9720344933333335,-4.44824224,-7.747395826666666,-0.9187824666666664,26.08074747185333,-13.260438622614982,-9.899209221335779,-6.299481928388152,4.576294749246851,12.026690995919324,14.327150536983973,-0.9432794875884783,14.65910169553714,-0.9905817095804637,0.1891183066666667,0.29392934666666665,-0.36241549333333345,0.8454631466666668,0.503492983621822,0.7989161468278816,0.7989161468278816,0.7989161468278816
LBP03_S08,LBP03,-1724,52,8,51,-1724,1715755062.04,2024-05-15 06:37:42.040000+00:00,2024-05-15 15:37:42.040000+09:00,2024,5,15,6,37,42,40,,,,,,,,,0.656982,-0.211182,1.521729,-42.663574,-24.780273,-15.50293,,,,,,,,,,,0.0,1.0,1.0,8.0,0.0,0.0,0.0,4.0,0.0,0.13826496000000002,-0.1917806,0.9880989466666666,-4.721679746666666,-3.9314778533333326,2.321777426666667,23.114050484362988,-15.228539548950371,-11.027117919634936,-5.374919909013633,3.9671531672888363,11.585606279133927,13.373643525088758,-0.9419679869647677,13.961660995399436,-0.9833298421518766,0.51871704,-0.019401400000000013,0.5336300533333335,1.0717484933333334,0.7444493372479137,0.795285026189217,0.795285026189217,0.795285026189217
LBP03_S08,LBP03,-1723,53,8,52,-1723,1715755062.08,2024-05-15 06:37:42.080000+00:00,2024-05-15 15:37:42.080000+09:00,2024,5,15,6,37,42,80,,,,,,,,,-0.111328,-0.159912,1.76123,-88.745117,92.895508,109.802246,,,,,,,,,,,0.0,1.0,1.0,8.0,0.0,0.0,0.0,4.0,0.0,0.13423826666666666,-0.20652669333333334,1.0071158666666666,-6.583658906666666,-4.954427079999999,3.458658946666667,18.72320584337227,-16.407343461606327,-11.3690741096536,-4.625991675278742,3.310859428824583,11.130843314747782,12.50029047801091,-0.9890343934555432,13.243323578716527,-0.9750209367207232,-0.24556626666666664,0.046614693333333346,0.7541141333333334,1.0462950933333335,0.7944582097582288,0.7952333501622803,0.7952333501622803,0.7952333501622803
LBP03_S08,LBP03,-1722,54,8,53,-1722,1715755062.12,2024-05-15 06:37:42.120000+00:00,2024-05-15 15:37:42.120000+09:00,2024,5,15,6,37,42,120,,,,,,,,,-0.443848,-0.945801,2.018799,-64.758301,-109.863281,14.770508,,,,,,,,,,,0.0,1.0,1.0,8.0,0.0,0.0,0.0,4.0,0.0,0.13356443999999998,-0.21055664,1.0100748533333332,-4.075520893333334,-5.009765613333333,2.80680348,14.195686868428004,-16.66630517877073,-11.034756893663655,-4.058164200541622,2.6442072216737538,10.689453039001236,11.735626731569218,-0.9997939352159331,12.556676612968872,-0.9636387094823039,-0.57741244,-0.73524436,1.0087241466666668,2.321380946666667,1.375323161604922,0.8293562802471416,0.8293562802471416,0.8293562802471416
LBP03_S08,LBP03,-1721,55,8,54,-1721,1715755062.16,2024-05-15 06:37:42.160000+00:00,2024-05-15 15:37:42.160000+09:00,2024,5,15,6,37,42,160,,,,,,,,,0.602783,-0.425537,1.671875,6.408691,-71.716309,20.935059,,,,,,,,,,,0.0,1.0,1.0,8.0,0.0,0.0,0.0,4.0,0.0,0.1362760266666667,-0.21062174666666666,0.9968456800000002,-0.40852870666666663,-3.757324213333333,1.7936198800000003,10.395830622088766,-15.89371560675737,-10.00946543368106,-3.6423309756580715,2.0084585974034592,10.289074421653995,11.09799681600498,-0.990768475634845,11.945684522583552,-0.9543866553331322,0.46650697333333324,-0.21491525333333333,0.6750293199999998,1.3564515466666665,0.848222792162307,0.8304044197979841,0.8304044197979841,0.8304044197979841
LBP03_S08,LBP03,-1720,56,8,55,-1720,1715755062.2,2024-05-15 06:37:42.200000+00:00,2024-05-15 15:37:42.200000+09:00,2024,5,15,6,37,42,200,,,,,,,,,-0.25415,0.020264,-0.029053,228.69873,310.36377,-41.320801,,,,,,,,,,,0.0,1.0,1.0,8.0,0.0,0.0,0.0,4.0,0.0,0.13345701333333332,-0.19279297333333334,0.9699674266666667,2.3282877066666665,-3.203124999999999,0.4467774266666667,7.7190403184314125,-13.984384686348493,-8.147659039941205,-3.333569362920815,1.4490832099495194,9.963168060056347,10.605528965576816,-0.96061825148047,11.441516538104015,-0.9538296821692709,-0.3876070133333333,0.21305697333333334,-0.9990204266666667,1.5996844133333332,1.092554018604296,0.8442017671035793,0.8442017671035793,0.8442017671035793
LBP03_S08,LBP03,-1719,57,8,56,-1719,1715755062.24,2024-05-15 06:37:42.240000+00:00,2024-05-15 15:37:42.240000+09:00,2024,5,15,6,37,42,240,,,,,,,,,-0.040283,0.378906,0.101562,14.221191,-252.929688,-72.387695,,,,,,,,,,,0.0,1.0,1.0,8.0,0.0,0.0,0.0,4.0,0.0,0.13037106666666667,-0.18208333333333335,0.9566406133333334,1.45751948,-4.344889319999999,-1.0725910666666665,6.267448223414936,-10.897237199660466,-5.34418010841378,-3.0828714339842174,1.0131937219631006,9.749400855719795,10.275284659911433,-0.9453420108013393,11.061519143994696,-0.9564400186509413,-0.17065406666666666,0.5609893333333333,-0.8550786133333333,1.5867220133333335,1.0368178613255585,0.8538325718146783,0.8538325718146783,0.8538325718146783
LBP03_S08,LBP03,-1718,58,8,57,-1718,1715755062.28,2024-05-15 06:37:42.280000+00:00,2024-05-15 15:37:42.280000+09:00,2024,5,15,6,37,42,280,,,,,,,,,0.523193,-0.233398,0.648193,-79.162598,-91.491699,-84.838867,,,,,,,,,,,0.0,1.0,1.0,8.0,0.0,0.0,0.0,4.0,0.0,0.14416989333333333,-0.18398112,0.9724739466666665,-0.8992513466666664,-9.470214839999999,-0.6095376799999999,6.019718379430947,-6.789037397856758,-1.7501680251920728,-2.8420826988069794,0.7416322260488304,9.679394134712112,10.11524212466866,-0.9028661401263831,10.810741499567222,-0.9608324748359218,0.3790231066666667,-0.049416879999999996,-0.3242809466666665,0.7527209333333332,0.5012570954981238,0.837043263418652,0.837043263418652,0.837043263418652
LBP03_S08,LBP03,-1717,59,8,58,-1717,1715755062.32,2024-05-15 06:37:42.320000+00:00,2024-05-15 15:37:42.320000+09:00,2024,5,15,6,37,42,320,,,,,,,,,0.682861,-0.013672,1.224365,53.955078,49.987793,11.71875,,,,,,,,,,,0.0,1.0,1.0,8.0,0.0,0.0,0.0,4.0,0.0,0.14579098666666668,-0.18658202666666668,0.9898437333333332,-1.695149773333333,-5.971679679999999,2.1207683066666667,6.838103769218467,-2.144510363775762,2.1464453244442696,-2.568558548038241,0.6558518114977999,9.765251947689883,10.118684707767423,-0.9042481804078205,10.684512469024783,-0.9584054584565858,0.5370700133333334,0.1729100266666667,0.23452126666666673,0.9445013066666668,0.6110174310628724,0.8267693619479348,0.8267693619479348,0.8267693619479348
LBP03_S08,LBP03,-1716,60,8,59,-1716,1715755062.36,2024-05-15 06:37:42.360000+00:00,2024-05-15 15:37:42.360000+09:00,2024,5,15,6,37,42,360,,,,,,,,,-0.048584,-0.223145,1.756836,-126.647949,71.533203,122.131348,,,,,,,,,,,0.0,1.0,1.0,8.0,0.0,0.0,0.0,4.0,0.0,0.13825193333333333,-0.19958658666666668,1.0116243333333335,-3.0517578399999996,-5.481770813333332,3.8940430399999997,8.352513843820589,2.2220983350299046,5.665504089345145,-2.2344579942854175,0.7447357448989961,9.991872111263689,10.265716835457978,-0.9603779600171295,10.670980880055748,-0.9555613747824371,-0.18683593333333331,-0.023558413333333333,0.7452116666666666,0.9556060133333333,0.7686371660019005,0.8242418751676723,0.8242418751676723,0.8242418751676723
LBP03_S08,LBP03,-1715,61,8,60,-1715,1715755062.4,2024-05-15 06:37:42.400000+00:00,2024-05-15 15:37:42.400000+09:00,2024,5,15,6,37,42,400,,,,,,,,,-0.36792,-0.930176,1.981201,-80.505371,-67.016602,32.836914,,,,,,,,,,,0.0,1.0,1.0,8.0,0.0,0.0,0.0,4.0,0.0,0.13315102666666664,-0.19593098666666667,1.0176139066666665,-1.0823567999999997,-5.074055959999999,4.613444093333333,9.902238822626668,5.347596732738019,8.227976363838518,-1.8383684413803507,0.9586396142085168,10.32099116581723,10.527176595890769,-0.9693828524051826,10.753278429626677,-0.949050739669491,-0.5010710266666667,-0.7342450133333334,0.9635870933333335,2.1989031333333333,1.3109874140540925,0.8445229392879399,0.8445229392879399,0.8445229392879399
LBP03_S08,LBP03,-1714,62,8,61,-1714,1715755062.44,2024-05-15 06:37:42.440000+00:00,2024-05-15 15:37:42.440000+09:00,2024,5,15,6,37,42,440,,,,,,,,,0.587402,-0.272217,1.779785,116.088867,-9.82666,41.259766,,,,,,,,,,,0.0,1.0,1.0,8.0,0.0,0.0,0.0,4.0,0.0,0.13406249333333334,-0.20476562666666667,1.0116275733333333,0.14241533333333375,-5.418294239999999,3.0460612800000004,10.693310533551369,6.41003356639125,9.604685915443142,-1.410636020038296,1.215040956864167,10.705178602434955,10.865867080814034,-0.9858925488145729,10.911381338626153,-0.9427575060678682,0.45333950666666667,-0.06745137333333331,0.7681574266666666,1.2889483066666667,0.8945011057637016,0.8465220659469703,0.8465220659469703,0.8465220659469703
LBP03_S08,LBP03,-1713,63,8,62,-1713,1715755062.48,2024-05-15 06:37:42.480000+00:00,2024-05-15 15:37:42.480000+09:00,2024,5,15,6,37,42,480,,,,,,,,,-0.16748,-0.469482,0.582764,80.26123,232.299805,11.169434,,,,,,,,,,,0.0,1.0,1.0,8.0,0.0,0.0,0.0,4.0,0.0,0.13153320000000002,-0.19165689333333336,0.98390296,3.813476533333334,-4.130859346666665,0.8365886133333336,10.165846762233445,4.9921500406980215,9.952927207250188,-1.0040021495489582,1.4147269584920878,11.103295690724963,11.238000172586524,-0.964764229662181,11.124103211406233,-0.9408457235267187,-0.2990132,-0.27782510666666665,-0.40113896000000004,0.9779772666666667,0.5722832767943393,0.8499752455553212,0.8359744202103307,0.8359744202103307
LBP03_S08,LBP03,-1712,64,8,63,-1712,1715755062.52,2024-05-15 06:37:42.520000+00:00,2024-05-15 15:37:42.520000+09:00,2024,5,15,6,37,42,520,,,,,,,,,-0.206055,0.518066,-0.049072,171.875,-107.971191,-98.266602,,,,,,,,,,,0.0,1.0,1.0,8.0,0.0,0.0,0.0,4.0,0.0,0.1296354133333333,-0.19169269333333333,0.9665624533333332,3.173014293333334,-6.368815079999999,-0.8146158133333329,8.371197160030395,1.2004438196206095,9.62378597099733,-0.6691542631477423,1.4627447112769123,11.488247129564856,11.600310841878873,-0.9713530984744466,11.371826535300357,-0.9477939571058025,-0.33569041333333327,0.7097586933333333,-1.0156344533333332,2.06108356,1.2837284756379923,0.8749064084881261,0.8525579037446884,0.8525579037446884
LBP03_S08,LBP03,-1711,65,8,64,-1711,1715755062.56,2024-05-15 06:37:42.560000+00:00,2024-05-15 15:37:42.560000+09:00,2024,5,15,6,37,42,560,,,,,,,,,0.369385,0.10083,0.688477,-43.701172,-129.394531,-77.453613,,,,,,,,,,,0.0,1.0,1.0,8.0,0.0,0.0,0.0,4.0,0.0,0.1362858133333333,-0.18250324,0.9627115466666667,3.394368466666667,-9.136555959999999,-1.7366535733333326,6.080898447739845,-4.405790395278491,8.886141076239513,-0.4259183252381485,1.2865130954657726,11.843692772614437,11.92097231171426,-0.9256621245053852,11.639724824238824,-0.9561510552537611,0.2330991866666667,0.28333324000000004,-0.2742345466666667,0.7906669733333335,0.4580584485620054,0.8467547207139333,0.8384686374881641,0.8384686374881641
LBP03_S08,LBP03,-1710,66,8,65,-1710,1715755062.6,2024-05-15 06:37:42.600000+00:00,2024-05-15 15:37:42.600000+09:00,2024,5,15,6,37,42,600,,,,,,,,,0.576904,-0.322021,1.512451,-83.129883,-19.042969,14.282227,,,,,,,,,,,0.0,1.0,1.0,8.0,0.0,0.0,0.0,4.0,0.0,0.14732097333333333,-0.18597329333333334,0.9810871999999998,1.1027018000000006,-8.351236946666667,0.12207038666666714,4.4787147907694225,-11.01250412842997,7.773979472145452,-0.2467697336073716,0.8460129303285738,12.154651951500256,12.186558055571588,-0.897685915464242,11.919658097656436,-0.9586302924063205,0.42958302666666665,-0.13604770666666666,0.5313638000000002,1.0969945333333335,0.6967051336396148,0.8435642538489462,0.8335802408037314,0.8335802408037314
LBP03_S08,LBP03,-1709,67,8,66,-1709,1715755062.64,2024-05-15 06:37:42.640000+00:00,2024-05-15 15:37:42.640000+09:00,2024,5,15,6,37,42,640,,,,,,,,,0.036377,0.142822,1.579346,-83.068848,111.877441,141.174316,,,,,,,,,,,0.0,1.0,1.0,8.0,0.0,0.0,0.0,4.0,0.0,0.1408952,-0.18889646666666665,0.9980207866666666,-1.5861002933333328,-5.436197879999999,2.6774089333333335,4.555585343495089,-17.73687661885673,6.173296935835013,-0.06454631986756804,0.13653786557430458,12.401583828933656,12.402503387712208,-0.9262241853898437,12.208794361793943,-0.9578974683598455,-0.1045182,0.33171846666666666,0.5813252133333333,1.01756188,0.6774217289960294,0.8566852262842715,0.828374957076808,0.828374957076808
LBP03_S08,LBP03,-1708,68,8,67,-1708,1715755062.68,2024-05-15 06:37:42.680000+00:00,2024-05-15 15:37:42.680000+09:00,2024,5,15,6,37,42,680,,,,,,,,,-0.219971,-1.260986,2.161133,-124.206543,-158.813477,24.902344,,,,,,,,,,,0.0,1.0,1.0,8.0,0.0,0.0,0.0,4.0,0.0,0.13516602666666666,-0.20027668,1.0171549066666667,-2.0825195599999993,-4.68180336,3.4252930400000006,6.5424430918833245,-23.703630258023388,4.079072761449633,0.19715140380776497,-0.811607344746631,12.564746739391643,12.592475363609926,-0.9723484759172196,12.505572152464833,-0.9528398218346947,-0.3551370266666667,-1.06070932,1.1439780933333332,2.55982444,1.5999726395382738,0.8763741499723616,0.8532652048981456,0.8532652048981456
LBP03_S08,LBP03,-1707,69,8,68,-1707,1715755062.72,2024-05-15 06:37:42.720000+00:00,2024-05-15 15:37:42.720000+09:00,2024,5,15,6,37,42,720,,,,,,,,,0.168701,-0.419678,1.4375,72.509766,31.494141,45.288086,,,,,,,,,,,0.0,1.0,1.0,8.0,0.0,0.0,0.0,4.0,0.0,0.13510092,-0.20725910666666666,1.0183007333333332,-1.389160186666666,-4.063313773333332,2.9939779333333334,9.716702641635337,-28.037642386715415,1.812678293336586,0.5858195094731784,-1.9331130402152477,12.637253871125106,12.797667597152072,-0.9878191618874061,12.80638250759445,-0.9471999966369914,0.03360007999999998,-0.21241889333333333,0.41919926666666685,0.6652182400000002,0.47114623716510323,0.8790954683080477,0.841323987156488,0.841323987156488
LBP03_S08,LBP03,-1706,70,8,69,-1706,1715755062.76,2024-05-15 06:37:42.760000+00:00,2024-05-15 15:37:42.760000+09:00,2024,5,15,6,37,42,760,,,,,,,,,-0.208252,0.040771,0.049072,170.898438,218.811035,-25.32959,,,,,,,,,,,0.0,1.0,1.0,8.0,0.0,0.0,0.0,4.0,0.0,0.12962892,-0.19761718666666667,0.9899999466666666,3.2836913733333337,-0.9611002266666658,1.6691081466666668,12.69943310783349,-29.885995932227715,0.010979481798737497,1.093796833786518,-3.1285528775043563,12.637693050397056,13.065049569634102,-0.9851703315427242,13.105637891903658,-0.9440553451460545,-0.33788092000000003,0.23838818666666667,-0.9409279466666666,1.5171970533333332,1.0277829753701009,0.8952573105286339,0.8469742595265976,0.8469742595265976
LBP03_S08,LBP03,-1705,71,8,70,-1705,1715755062.8,2024-05-15 06:37:42.800000+00:00,2024-05-15 15:37:42.800000+09:00,2024,5,15,6,37,42,800,,,,,,,,,-0.140137,0.02124,-0.098389,10.131836,-178.100586,-60.180664,,,,,,,,,,,0.0,1.0,1.0,8.0,0.0,0.0,0.0,4.0,0.0,0.13190105333333332,-0.19110350666666667,0.9708918799999999,2.2111002266666673,-3.547363239999999,0.4850261066666669,14.07016789099964,-28.574710153344757,-0.638113034582427,1.6566035494265037,-4.271541283638147,12.61216852901376,13.41853923726583,-0.962054611940433,13.39851338244244,-0.9492587979866045,-0.2720380533333333,0.21234350666666668,-1.06928088,1.55366244,1.1235907028889394,0.9102182161856124,0.8551100372725486,0.8551100372725486
LBP03_S08,LBP03,-1704,72,8,71,-1704,1715755062.84,2024-05-15 06:37:42.840000+00:00,2024-05-15 15:37:42.840000+09:00,2024,5,15,6,37,42,840,,,,,,,,,0.566162,0.036377,0.326416,62.011719,-217.651367,-117.004395,,,,,,,,,,,0.0,1.0,1.0,8.0,0.0,0.0,0.0,4.0,0.0,0.1381673333333333,-0.18895181333333333,0.96907548,1.8774413600000006,-5.304361933333333,-0.24495435999999973,12.960403530317166,-23.903890185333058,0.24115613681409523,2.17501969063919,-5.227696891051469,12.621814774486323,13.833644987522941,-0.9353160835630651,13.683483959039654,-0.959645453541276,0.42799466666666675,0.22532881333333332,-0.6426594800000001,1.2959829600000001,0.8043405473101489,0.8789557664124835,0.8536594804164802,0.8536594804164802
LBP03_S08,LBP03,-1703,73,8,72,-1703,1715755062.88,2024-05-15 06:37:42.880000+00:00,2024-05-15 15:37:42.880000+09:00,2024,5,15,6,37,42,880,,,,,,,,,0.680176,-0.150146,0.959717,-42.053223,-11.230469,2.441406,,,,,,,,,,,0.0,1.0,1.0,8.0,0.0,0.0,0.0,4.0,0.0,0.14665692,-0.18936522666666666,0.9888931866666667,0.5322265200000005,-6.703287706666665,1.4607748133333336,9.342733398156778,-16.42946757296011,2.47948314966303,2.548729026565461,-5.884875593969873,12.720994100472844,14.246103723882698,-0.9083659776851493,13.962205138771068,-0.9712288281728465,0.53351908,0.03921922666666666,-0.02917618666666666,0.6019144933333334,0.5357536806525794,0.8686791920558352,0.8448287637563718,0.8448287637563718
LBP03_S08,LBP03,-1702,74,8,73,-1702,1715755062.92,2024-05-15 06:37:42.920000+00:00,2024-05-15 15:37:42.920000+09:00,2024,5,15,6,37,42,920,,,,,,,,,0.219482,0.178223,1.310791,19.470215,80.749512,108.398438,,,,,,,,,,,0.0,1.0,1.0,8.0,0.0,0.0,0.0,4.0,0.0,0.14198569333333333,-0.19606443999999998,1.01294592,-1.4461263466666663,-3.1437174,3.42692064,3.938396093806058,-7.49811387114113,5.40991417688861,2.7062648703177037,-6.184800148815518,12.937390667548389,14.59286468497095,-0.9399065835650768,14.23609185293267,-0.9745190436615576,0.07749630666666668,0.37428743999999997,0.2978450800000001,0.7496288266666667,0.4845703839164483,0.8565635335287628,0.8350920507877252,0.8350920507877252
LBP03_S08,LBP03,-1701,75,8,74,-1701,1715755062.96,2024-05-15 06:37:42.960000+00:00,2024-05-15 15:37:42.960000+09:00,2024,5,15,6,37,42,960,,,,,,,,,0.114502,-1.038818,2.119385,-145.568848,-72.20459,69.763184,,,,,,,,,,,0.0,1.0,1.0,8.0,0.0,0.0,0.0,4.0,0.0,0.13842774666666666,-0.20761065333333334,1.0343944799999998,-2.0109049866666666,-2.1712239199999996,4.578450586666667,-2.1357281496455647,1.0867358734822665,8.161444355663383,2.620835744331881,-6.141330713876227,13.263848441774924,14.849727217102076,-0.9776966529108848,14.50110597507101,-0.9739977147531205,-0.02392574666666665,-0.8312073466666667,1.08499052,1.9401236133333335,1.3669976309401815,0.8633628175246997,0.8490895660548952,0.8490895660548952
LBP03_S08,LBP03,-1700,76,8,75,-1700,1715755063.0,2024-05-15 06:37:43+00:00,2024-05-15 15:37:43+09:00,2024,5,15,6,37,43,0,6.0,37.0,43.0,40.53373,141.46904,4.708,3.0,13.0,0.311279,-0.137939,1.650146,78.00293,83.374023,28.991699,-256.0,10.0,355.0,1615.0,0.0,1023.099976,32.18,0.100089,-81.638939,3.796875,0.0,1.0,1.0,8.0,0.0,0.0,0.0,4.0,0.0,0.13245118666666666,-0.20948239999999999,1.03350256,-0.7682291999999995,0.7340495200000006,4.921061266666666,-7.774472344353409,7.655994957389351,10.00434611989838,2.3098568505577446,-5.835090915580653,13.664022286570859,15.036263821543752,-1.001552471010957,14.7440611886243,-0.970836528755399,0.1788278133333333,0.07154339999999998,0.6166434399999998,0.8670146533333332,0.6460239755614143,0.8690640572022835,0.8438827560422418,0.8438827560422418
LBP03_S08,LBP03,-1699,77,8,76,-1699,1715755063.04,2024-05-15 06:37:43.040000+00:00,2024-05-15 15:37:43.040000+09:00,2024,5,15,6,37,43,40,,,,,,,,,0.067383,-0.243164,0.860107,5.371094,224.975586,4.638672,,,,,,,,,,,0.0,1.0,1.0,8.0,0.0,0.0,0.0,4.0,0.0,0.12098634666666666,-0.21001950666666666,1.0096451466666665,2.8710937200000006,2.402343786666667,2.4902344400000005,-12.179085151087026,11.243049278131224,10.53847551816902,1.8226934445142635,-5.385368944455404,14.08556130729762,15.189715185026342,-1.0420579317055487,14.943787325927541,-0.9728495476092178,-0.05360334666666666,-0.03314449333333333,-0.14953814666666654,0.23628598666666653,0.1622761027406429,0.8457771278219925,0.8268425897097018,0.8268425897097018
LBP03_S08,LBP03,-1698,78,8,77,-1698,1715755063.08,2024-05-15 06:37:43.080000+00:00,2024-05-15 15:37:43.080000+09:00,2024,5,15,6,37,43,80,,,,,,,,,-0.481201,0.251465,-0.442383,-14.343262,-6.896973,-73.120117,,,,,,,,,,,0.0,1.0,1.0,8.0,0.0,0.0,0.0,4.0,0.0,0.12474285333333335,-0.1988932,0.9897525733333333,4.96256508,-0.04720049333333274,0.9741211466666672,-14.981450593687661,11.845049328593605,9.653188998458788,1.223435420766757,-4.91156697131166,14.471688867235972,15.331342505225951,-1.0052506308043312,15.077616842547489,-0.978767489114737,-0.6059438533333333,0.4503582,-1.4321355733333334,2.488437626666667,1.6189511302403428,0.8787568446412771,0.8461623102104492,0.8461623102104492
LBP03_S08,LBP03,-1697,79,8,78,-1697,1715755063.12,2024-05-15 06:37:43.120000+00:00,2024-05-15 15:37:43.120000+09:00,2024,5,15,6,37,43,120,,,,,,,,,0.35791,-0.259033,0.335449,-64.27002,-215.454102,-63.049316,,,,,,,,,,,0.0,1.0,1.0,8.0,0.0,0.0,0.0,4.0,0.0,0.12980470666666666,-0.19679034666666667,0.98091468,4.4189452933333335,-1.5917968533333329,0.1066081200000006,-16.233848509855186,10.246637415894387,7.3621426953193385,0.5740814803725496,-4.501701474675885,14.766174575048746,15.447808818535455,-0.982605872803036,15.129813608040791,-0.9910572627274383,0.22810529333333335,-0.06224265333333334,-0.64546568,0.9358136266666668,0.6874097153797887,0.8512403067922719,0.8423824865240048,0.8423824865240048
LBP03_S08,LBP03,-1696,80,8,79,-1696,1715755063.16,2024-05-15 06:37:43.160000+00:00,2024-05-15 15:37:43.160000+09:00,2024,5,15,6,37,43,160,,,,,,,,,0.659668,-0.351318,0.898682,32.592773,-57.434082,-22.094727,,,,,,,,,,,0.0,1.0,1.0,8.0,0.0,0.0,0.0,4.0,0.0,0.13554038666666665,-0.19275713333333333,0.9902180666666667,5.14567056,-2.7457681999999997,0.9472656666666673,-16.324639134768923,7.522582183385263,3.6976092141465715,-0.07890408501820734,-4.2007981873404745,14.914078943614609,15.494601705167003,-0.9535584715655085,15.09767576786039,-1.0014757933644243,0.5241276133333334,-0.1585608666666667,-0.0915360666666667,0.7742245466666667,0.5551847935574111,0.839518786848076,0.8357034704085027,0.8357034704085027
LBP03_S08,LBP03,-1695,81,8,80,-1695,1715755063.2,2024-05-15 06:37:43.200000+00:00,2024-05-15 15:37:43.200000+09:00,2024,5,15,6,37,43,200,,,,,,,,,0.460205,0.524658,1.24707,65.551758,117.919922,114.440918,,,,,,,,,,,0.0,1.0,1.0,8.0,0.0,0.0,0.0,4.0,0.0,0.13439781333333334,-0.20355140000000002,1.0176724933333332,3.6914062400000005,-1.970214826666666,2.7034505600000003,-15.856603570454375,4.5262722933133155,-1.2171299478384014,-0.7131682278363823,-4.019747295607942,14.865393745701073,15.415800610298229,-0.9821848004786206,14.99326350504684,-1.0010561844536385,0.32580718666666664,0.7282094,0.2293975066666667,1.2834140933333333,0.8300978672402981,0.8290205407935163,0.835576070336498,0.835576070336498
LBP03_S08,LBP03,-1694,82,8,81,-1694,1715755063.24,2024-05-15 06:37:43.240000+00:00,2024-05-15 15:37:43.240000+09:00,2024,5,15,6,37,43,240,,,,,,,,,-0.292725,-0.872559,2.044189,-255.432129,-60.180664,46.630859,,,,,,,,,,,0.0,1.0,1.0,8.0,0.0,0.0,0.0,4.0,0.0,0.1312956,-0.20429358666666667,1.03344072,3.1331380133333337,-0.8048502533333326,3.958333373333334,-15.49845043056595,1.6458329788100876,-6.962764890337832,-1.3331062450590203,-3.9539139764555387,14.58688315008756,15.171940153722405,-0.9944954986182574,14.840638542338604,-0.9975975219628361,-0.4240206,-0.6682654133333333,1.0107482799999998,2.1030342933333332,1.2837383757623237,0.8388973613709868,0.8455352326792942,0.8455352326792942
LBP03_S08,LBP03,-1693,83,8,82,-1693,1715755063.28,2024-05-15 06:37:43.280000+00:00,2024-05-15 15:37:43.280000+09:00,2024,5,15,6,37,43,280,,,,,,,,,0.203125,-0.170654,1.909424,100.891113,7.629395,-4.333496,,,,,,,,,,,0.0,1.0,1.0,8.0,0.0,0.0,0.0,4.0,0.0,0.12686851999999998,-0.21481441333333337,1.02897132,4.533691386666668,0.7153320400000007,3.792317746666667,-15.802557837438712,-1.1034208212634655,-12.669346787134122,-1.9652085585565688,-3.9980508093060774,14.080109278602196,14.768071378815739,-1.0312637138121628,14.66927355343599,-0.98521870648192,0.07625648000000002,0.04416041333333337,0.8804526800000001,1.0008695733333335,0.8848514646916418,0.8542411361387274,0.8463899333752147,0.8463899333752147
LBP03_S08,LBP03,-1692,84,8,83,-1692,1715755063.32,2024-05-15 06:37:43.320000+00:00,2024-05-15 15:37:43.320000+09:00,2024,5,15,6,37,43,320,,,,,,,,,0.295166,-0.501953,1.276611,-20.324707,90.454102,22.277832,,,,,,,,,,,0.0,1.0,1.0,8.0,0.0,0.0,0.0,4.0,0.0,0.11805993333333334,-0.20586909333333336,0.9974804399999999,8.921712226666667,0.9936523466666672,1.494954453333334,-16.986757296008815,-3.7919306981573855,-17.09532710711047,-2.6446788503969216,-4.149728037232372,13.396296194317777,14.271486283166942,-1.044091889934935,14.506078831220275,-0.9795572236652385,0.17710606666666664,-0.2960839066666666,0.27913056,0.7523205333333333,0.4437861063204286,0.8475518831490296,0.8378238945017087,0.8378238945017087
LBP03_S08,LBP03,-1691,85,8,84,-1691,1715755063.36,2024-05-15 06:37:43.360000+00:00,2024-05-15 15:37:43.360000+09:00,2024,5,15,6,37,43,360,,,,,,,,,-0.545166,0.041016,-0.510986,75.256348,140.319824,-97.045898,,,,,,,,,,,0.0,1.0,1.0,8.0,0.0,0.0,0.0,4.0,0.0,0.1278971733333333,-0.18994136,0.9755793999999999,9.335937493333335,-1.727701826666666,0.14485680000000078,-18.734362908773697,-6.3166817734833245,-18.98214138457348,-3.3940533667478694,-4.402395308171705,12.637010538934838,13.805604588966576,-0.9735005638030274,14.370573940918126,-0.9789446782814087,-0.6730631733333333,0.23095736,-1.4865654,2.390585933333333,1.6480995194201307,0.882730377285759,0.8547046366875092,0.8547046366875092
LBP03_S08,LBP03,-1690,86,8,85,-1690,1715755063.4,2024-05-15 06:37:43.400000+00:00,2024-05-15 15:37:43.400000+09:00,2024,5,15,6,37,43,400,,,,,,,,,0.182861,0.078857,-0.042969,48.217773,-170.898438,-114.074707,,,,,,,,,,,0.0,1.0,1.0,8.0,0.0,0.0,0.0,4.0,0.0,0.12997398666666668,-0.19034825333333333,0.9632877333333334,7.379557293333334,-2.868652346666666,-0.5338541466666659,-20.141986731531667,-8.344722723330928,-17.54286756341898,-4.199732836009136,-4.736184217104943,11.93529583639808,13.510014194461405,-0.9669658461029332,14.27605577055267,-0.9833027159889809,0.052887013333333316,0.26920525333333334,-1.0062567333333334,1.3283490000000002,1.0429866336536895,0.8720103460697427,0.8585471264215129,0.8585471264215129
LBP03_S08,LBP03,-1689,87,8,86,-1689,1715755063.44,2024-05-15 06:37:43.440000+00:00,2024-05-15 15:37:43.440000+09:00,2024,5,15,6,37,43,440,,,,,,,,,0.443604,0.221191,0.400391,-54.321289,-95.703125,-60.241699,,,,,,,,,,,0.0,1.0,1.0,8.0,0.0,0.0,0.0,4.0,0.0,0.13868492,-0.18281245333333332,0.9703482800000001,5.530598960000001,-4.477539066666666,0.7340495066666675,-19.938782219025352,-9.49122776778174,-12.834964866979355,-4.99728412477015,-5.115833327816212,11.421897241718906,13.476065296000195,-0.9182697768963873,14.234857756247521,-0.9858819115858954,0.30491908,0.4040034533333333,-0.5699572800000001,1.2788798133333334,0.7622635611639217,0.8667208442857516,0.856621455116361,0.856621455116361
LBP03_S08,LBP03,-1688,88,8,87,-1688,1715755063.48,2024-05-15 06:37:43.480000+00:00,2024-05-15 15:37:43.480000+09:00,2024,5,15,6,37,43,480,,,,,,,,,0.617188,-0.592041,1.341553,-137.329102,-42.297363,-2.868652,,,,,,,,,,,0.0,1.0,1.0,8.0,0.0,0.0,0.0,4.0,0.0,0.14044598666666666,-0.1977017733333333,0.9946712000000001,2.423502613333334,-2.681477866666666,3.0672200800000002,-16.967312164054167,-9.591373219283648,-5.801620590617787,-5.675976611332317,-5.499488256587558,11.189832418094195,13.699395283068801,-0.9486358026375179,14.262761268837997,-0.982117388362904,0.4767420133333333,-0.39433922666666676,0.3468817999999999,1.2179630399999999,0.709304840062737,0.8722017068164873,0.8610884761859043,0.8537328940368781
LBP03_S08,LBP03,-1687,89,8,88,-1687,1715755063.52,2024-05-15 06:37:43.520000+00:00,2024-05-15 15:37:43.520000+09:00,2024,5,15,6,37,43,520,,,,,,,,,0.060303,0.164551,1.451172,-45.288086,123.291016,143.798828,,,,,,,,,,,0.0,1.0,1.0,8.0,0.0,0.0,0.0,4.0,0.0,0.13749676,-0.20573562666666667,1.0088932133333335,3.6629231866666667,-1.6861979199999995,4.88037112,-10.73322395631258,-8.854300266078738,2.0628429524848566,-6.10530556958482,-5.853660267230707,11.272346136193589,14.092759915513975,-0.9764804189647361,14.378243173870938,-0.9740757490835732,-0.07719376,0.3702866266666667,0.4422787866666664,0.8897591733333331,0.5819635620951329,0.8441311102747732,0.8595187593814495,0.8485065607303061
LBP03_S08,LBP03,-1686,90,8,89,-1686,1715755063.56,2024-05-15 06:37:43.560000+00:00,2024-05-15 15:37:43.560000+09:00,2024,5,15,6,37,43,560,,,,,,,,,0.114258,-1.097412,1.948242,-98.571777,-105.712891,49.804688,,,,,,,,,,,0.0,1.0,1.0,8.0,0.0,0.0,0.0,4.0,0.0,0.1332064,-0.20874343999999997,1.0026041466666666,4.737955733333333,-0.10335287999999934,5.422363306666668,-1.7368564302486886,-7.787624957848439,9.254541751663789,-6.174779826794767,-6.165165265544645,11.64252780626014,14.549420001512443,-0.9971388486412316,14.595696011224746,-0.9602490200023842,-0.018948400000000004,-0.88866856,0.9456378533333334,1.8532548133333333,1.2978142398093453,0.8777213419246668,0.8622380313193001,0.856984064109156
LBP03_S08,LBP03,-1685,91,8,90,-1685,1715755063.6,2024-05-15 06:37:43.600000+00:00,2024-05-15 15:37:43.600000+09:00,2024,5,15,6,37,43,600,,,,,,,,,0.303223,-0.261963,1.29541,76.23291,35.766602,30.822754,,,,,,,,,,,0.0,1.0,1.0,8.0,0.0,0.0,0.0,4.0,0.0,0.12685874666666666,-0.20370764000000002,0.9746354,8.502604173333333,0.6648762800000007,3.0517578400000005,8.619415429440306,-6.953613896972292,14.72415919939964,-5.830003209617154,-6.4433098214235365,12.231494174236126,15.00382046724672,-1.0079767564477666,14.91625841323389,-0.95556858358495,0.17636425333333336,-0.05825535999999998,0.3207745999999999,0.5553942133333333,0.37066748013241424,0.8646798357843787,0.8541220448166623,0.8479782014429199
LBP03_S08,LBP03,-1684,92,8,91,-1684,1715755063.64,2024-05-15 06:37:43.640000+00:00,2024-05-15 15:37:43.640000+09:00,2024,5,15,6,37,43,640,,,,,,,,,-0.189453,-0.333252,0.498535,102.233887,163.269043,5.859375,,,,,,,,,,,0.0,1.0,1.0,8.0,0.0,0.0,0.0,4.0,0.0,0.13359052,-0.19146805333333333,0.9502376133333333,8.29182944,-0.07161461333333288,1.6748047066666671,18.53312286904143,-6.716952504298272,18.044400228434196,-5.088678294855497,-6.711987921595467,12.953270183373494,15.450975279627162,-0.9568502663883421,15.322652821403542,-0.9551241102562139,-0.32304352000000003,-0.14178394666666666,-0.45170261333333334,0.91653008,0.5731448806702625,0.860508761851348,0.8585969940678096,0.8429812319743262
LBP03_S08,LBP03,-1683,93,8,92,-1683,1715755063.68,2024-05-15 06:37:43.680000+00:00,2024-05-15 15:37:43.680000+09:00,2024,5,15,6,37,43,680,,,,,,,,,-0.083252,0.388428,-0.016357,157.653809,-110.961914,-67.443848,,,,,,,,,,,0.0,1.0,1.0,8.0,0.0,0.0,0.0,4.0,0.0,0.13264977333333333,-0.1876562,0.93451496,7.815755226666667,-1.1222330933333329,0.4191080800000005,26.467349101665754,-7.1285580657038645,19.258825891076516,-4.029984330788867,-6.997130244223622,13.723623219016554,15.922890429145175,-0.9508473210188539,15.782782617640837,-0.9626812358877324,-0.21590177333333332,0.5760841999999999,-0.95087196,1.7428579333333332,1.1325387699908376,0.8418114070694506,0.8590927785209062,0.8481519022960496
LBP03_S08,LBP03,-1682,94,8,93,-1682,1715755063.72,2024-05-15 06:37:43.720000+00:00,2024-05-15 15:37:43.720000+09:00,2024,5,15,6,37,43,720,,,,,,,,,0.247314,-0.01416,0.497803,23.925781,-90.698242,-59.814453,,,,,,,,,,,0.0,1.0,1.0,8.0,0.0,0.0,0.0,4.0,0.0,0.14317385333333332,-0.18391597333333334,0.9475488133333334,4.888509133333335,-3.6458333599999992,1.8839518266666673,31.637818356162377,-7.9951525745523035,18.582214820457178,-2.7644715965423723,-7.316936347205714,14.46691181183484,16.44601465670501,-0.905824599123047,16.260653160887692,-0.968579742612626,0.10414014666666668,0.16975597333333334,-0.4497458133333334,0.7236419333333335,0.49186741835678016,0.8426402543171175,0.8608678613125827,0.8419012973146589
LBP03_S08,LBP03,-1681,95,8,94,-1681,1715755063.76,2024-05-15 06:37:43.760000+00:00,2024-05-15 15:37:43.760000+09:00,2024,5,15,6,37,43,760,,,,,,,,,0.562012,-0.109619,1.049561,-9.033203,-65.917969,-11.71875,,,,,,,,,,,0.0,1.0,1.0,8.0,0.0,0.0,0.0,4.0,0.0,0.14430991999999998,-0.19383784,0.9704524666666666,1.5730794533333343,-0.46549481333333254,4.183756506666667,34.08495639609776,-9.056779517729368,16.190162688596246,-1.401073340698462,-7.679207527914889,15.114518319378691,17.01122860905804,-0.9266961996286849,16.727237061423246,-0.9658554290119886,0.41770208,0.08421884000000002,0.07910853333333334,0.5810294533333333,0.4333889715872142,0.8188644941658022,0.857060902347218,0.8348579813538409
LBP03_S08,LBP03,-1680,96,8,95,-1680,1715755063.8,2024-05-15 06:37:43.800000+00:00,2024-05-15 15:37:43.800000+09:00,2024,5,15,6,37,43,800,,,,,,,,,0.193848,0.205078,1.330078,-36.499023,81.115723,125.305176,,,,,,,,,,,0.0,1.0,1.0,8.0,0.0,0.0,0.0,4.0,0.0,0.13867190666666665,-0.20125646666666666,0.9880436133333332,2.0206706000000003,0.5607096133333341,6.0107421866666675,34.34474404181533,-10.117390680191944,12.244218696709778,-0.027283579025848548,-8.083903155122567,15.604287067247082,17.573958276157924,-0.9625211128155722,17.164578439559993,-0.9615503220845781,0.05517609333333334,0.40633446666666667,0.34203438666666686,0.8035449466666669,0.5339846643296566,0.7952802526234309,0.8527492344045215,0.8297584336076683
LBP03_S08,LBP03,-1679,97,8,96,-1679,1715755063.84,2024-05-15 06:37:43.840000+00:00,2024-05-15 15:37:43.840000+09:00,2024,5,15,6,37,43,840,,,,,,,,,-0.155029,-1.083008,2.0979,-168.762207,-35.339355,57.861328,,,,,,,,,,,0.0,1.0,1.0,8.0,0.0,0.0,0.0,4.0,0.0,0.13267256,-0.20640294666666667,0.98762044,1.9840495066666672,1.6015624800000008,6.351725253333334,32.96915604100874,-11.025043001691511,7.109020571891353,1.291482662614501,-8.524904875190227,15.888647890122735,18.077363258373097,-0.9938410332115721,17.56269097529218,-0.9509181926724961,-0.28770156,-0.8766050533333333,1.11027956,2.2745861733333332,1.4435821100684794,0.820849915133764,0.8499028407731238,0.8399888282153485
LBP03_S08,LBP03,-1678,98,8,97,-1678,1715755063.88,2024-05-15 06:37:43.880000+00:00,2024-05-15 15:37:43.880000+09:00,2024,5,15,6,37,43,880,,,,,,,,,0.263916,-0.140625,1.585693,154.663086,6.469727,45.898438,,,,,,,,,,,0.0,1.0,1.0,8.0,0.0,0.0,0.0,4.0,0.0,0.12629234666666667,-0.20268223999999999,0.9611197866666666,4.794921893333333,2.9134114400000004,3.8940429600000006,30.216986144047446,-11.538137000714814,1.558069215587523,2.500162108376399,-8.98643035521882,15.950970658746236,18.478100715537373,-1.0076208698864535,17.913989275542924,-0.9473858602921524,0.13762365333333332,0.062057239999999986,0.6245732133333334,0.8242541066666667,0.6425597791698113,0.8251221590744534,0.8469006755651444,0.8367522864277168
LBP03_S08,LBP03,-1677,99,8,98,-1677,1715755063.92,2024-05-15 06:37:43.920000+00:00,2024-05-15 15:37:43.920000+09:00,2024,5,15,6,37,43,920,,,,,,,,,0.221436,-0.246338,0.856689,103.149414,100.219727,35.583496,,,,,,,,,,,0.0,1.0,1.0,8.0,0.0,0.0,0.0,4.0,0.0,0.13394534666666666,-0.1888476,0.9365169200000001,5.280761733333334,2.173665346666667,2.1077473866666665,26.092640528381857,-11.216735929882862,-3.2485665317251713,3.543867729511673,-9.435099792414135,15.821027997477229,18.758598920869485,-0.9492372829583628,18.21057103621245,-0.949446821901778,0.08749065333333333,-0.0574904,-0.07982792000000005,0.22480897333333338,0.13165203122010657,0.8110054249665997,0.8337844792476814,0.8253797016663037
LBP03_S08,LBP03,-1676,100,8,99,-1676,1715755063.96,2024-05-15 06:37:43.960000+00:00,2024-05-15 15:37:43.960000+09:00,2024,5,15,6,37,43,960,,,,,,,,,-0.557373,0.115967,-0.296143,62.37793,24.291992,-118.591309,,,,,,,,,,,0.0,1.0,1.0,8.0,0.0,0.0,0.0,4.0,0.0,0.13187504,-0.18792312,0.9227311199999999,2.8556315333333333,0.2750650800000009,0.5891926933333334,20.653412228659025,-9.47245953965052,-6.085283005040883,4.370004218658034,-9.813998174000156,15.577616677275593,18.922833782879934,-0.9540877793671267,18.446270518858448,-0.9579895218344319,-0.6892480400000001,0.30389012,-1.21887412,2.2120122799999997,1.4328524648697194,0.8136396183237813,0.8385012179242406,0.8350221264790563
LBP03_S08,LBP03,-1675,101,8,100,-1675,1715755064.0,2024-05-15 06:37:44+00:00,2024-05-15 15:37:44+09:00,2024,5,15,6,37,44,0,6.0,37.0,44.0,40.533787,141.469101,4.519,3.0,12.0,0.234131,-0.050781,0.172607,37.475586,-183.105469,-106.628418,-260.0,6.0,355.0,1754.0,0.0,1022.599976,32.23,0.095134,-77.510185,3.796875,0.0,1.0,1.0,8.0,0.0,0.0,0.0,5.0,0.0,0.14229821333333334,-0.18119786666666665,0.9321842399999999,1.0693359600000003,-1.7797851866666656,0.9130859200000001,14.32173519286352,-5.810892101807084,-6.144402888164929,4.942873626372575,-10.04643385807244,15.331840561748995,18.984945824568623,-0.9016554623269457,18.62099758825996,-0.9671618144924933,0.09183278666666667,0.13041686666666666,-0.7595772399999998,0.9818268933333332,0.7761439321054658,0.8188444165855432,0.8439542368939134,0.8341021546919689
LBP03_S08,LBP03,-1674,102,8,101,-1674,1715755064.04,2024-05-15 06:37:44.040000+00:00,2024-05-15 15:37:44.040000+09:00,2024,5,15,6,37,44,40,,,,,,,,,0.419678,0.017822,0.47583,42.480469,-63.720703,-51.574707,,,,,,,,,,,0.0,1.0,1.0,8.0,0.0,0.0,0.0,5.0,0.0,0.1429297333333333,-0.18986648,0.9563867066666666,-3.5262044,0.2506510000000011,3.1583658800000003,7.953671550172531,-0.15652678275216894,-3.4138762330621213,5.261020488379476,-10.052694929382527,15.19528551242651,18.96395828213458,-0.921526942584905,18.74314645679348,-0.9677594855144465,0.2767482666666667,0.20768848,-0.4805567066666666,0.9649934533333333,0.5921645515817605,0.836039954539188,0.8409085411805903,0.8303800377210426
LBP03_S08,LBP03,-1673,103,8,102,-1673,1715755064.08,2024-05-15 06:37:44.080000+00:00,2024-05-15 15:37:44.080000+09:00,2024,5,15,6,37,44,80,,,,,,,,,0.425049,0.081787,1.013916,-23.681641,53.222656,67.199707,,,,,,,,,,,0.0,1.0,1.0,8.0,0.0,0.0,0.0,5.0,0.0,0.13761722666666668,-0.2037759866666667,0.9743066266666667,-5.34016924,1.1523437066666677,4.792480453333334,2.591282243459221,6.949182898029166,1.2824329941634727,5.364671778117844,-9.77472761346136,15.246582832193049,18.888708035840406,-0.9714569371151086,18.82795107316389,-0.9624702210099105,0.28743177333333336,0.2855629866666667,0.039609373333333364,0.6126041333333334,0.4071021323100519,0.7875659946219764,0.8331614196316268,0.8239667361239064
LBP03_S08,LBP03,-1672,104,8,103,-1672,1715755064.12,2024-05-15 06:37:44.120000+00:00,2024-05-15 15:37:44.120000+09:00,2024,5,15,6,37,44,120,,,,,,,,,-0.234619,-0.282959,1.588623,-194.763184,41.07666,104.980469,,,,,,,,,,,0.0,1.0,1.0,8.0,0.0,0.0,0.0,5.0,0.0,0.13310550666666665,-0.20593094666666667,0.9768619733333335,-2.89062496,1.9986978800000013,4.8372395599999995,-0.9676902905021396,14.442528758969178,6.619176564573363,5.325964166497759,-9.197026463102594,15.511349894775984,18.80300948316504,-0.9912515984495873,18.893027156545326,-0.9531696384237962,-0.3677245066666667,-0.07702805333333335,0.6117610266666664,1.0565135866666664,0.7179179532173715,0.7887863241354797,0.8200133154638758,0.822383918468585
LBP03_S08,LBP03,-1671,105,8,104,-1671,1715755064.16,2024-05-15 06:37:44.160000+00:00,2024-05-15 15:37:44.160000+09:00,2024,5,15,6,37,44,160,,,,,,,,,0.165283,-0.925537,2.134766,-30.090332,-13.48877,37.17041,,,,,,,,,,,0.0,1.0,1.0,8.0,0.0,0.0,0.0,5.0,0.0,0.13004886666666665,-0.21419917333333335,0.9630891866666667,-0.182291626666666,3.155924453333334,2.556966133333334,-2.526089244371051,21.113989730775724,11.291588549626367,5.224920596722916,-8.352466873871565,15.963013436761038,18.75849930307312,-1.0184191262092992,18.953942456491966,-0.9485500765477205,0.03523413333333336,-0.7113378266666667,1.1716768133333333,1.9182487733333333,1.3711562648733961,0.8214251829881192,0.8304719849180977,0.8304541000333616
LBP03_S08,LBP03,-1670,106,8,105,-1670,1715755064.2,2024-05-15 06:37:44.200000+00:00,2024-05-15 15:37:44.200000+09:00,2024,5,15,6,37,44,200,,,,,,,,,0.288086,-0.313721,1.230957,64.147949,144.470215,57.556152,,,,,,,,,,,0.0,1.0,1.0,8.0,0.0,0.0,0.0,5.0,0.0,0.13036137333333334,-0.19170894666666669,0.9334863199999999,3.396809933333334,4.134114560000001,1.0847981600000003,-2.5398065950246975,26.07889738982393,14.441823865634994,5.123328332921928,-7.309310978278608,16.540686391386437,18.795446961493127,-0.968497823035104,19.02190277992596,-0.9510096392112164,0.15772462666666667,-0.12201205333333334,0.2974706800000002,0.5772073600000003,0.3581240071196262,0.8025462285832922,0.8157833846884043,0.8236087363679452
LBP03_S08,LBP03,-1669,107,8,106,-1669,1715755064.24,2024-05-15 06:37:44.240000+00:00,2024-05-15 15:37:44.240000+09:00,2024,5,15,6,37,44,240,,,,,,,,,-0.645752,0.164062,-0.404541,149.536133,217.468262,-42.175293,,,,,,,,,,,0.0,1.0,1.0,8.0,0.0,0.0,0.0,5.0,0.0,0.13222335999999998,-0.18307613333333334,0.9215071466666666,2.294921906666667,2.0092773200000007,-1.05387372,-1.8215182310443405,29.093523523806432,15.79614924336086,5.050467603680154,-6.145570037326351,17.172532361120872,18.925409422077234,-0.9409483881662124,19.103752919277227,-0.9610140589155949,-0.77797536,0.3471381333333333,-1.3260481466666665,2.4511616399999996,1.576119992785886,0.8142414932642348,0.8265694273176107,0.8343588971739158
LBP03_S08,LBP03,-1668,108,8,107,-1668,1715755064.28,2024-05-15 06:37:44.280000+00:00,2024-05-15 15:37:44.280000+09:00,2024,5,15,6,37,44,280,,,,,,,,,0.265381,-0.06665,0.282715,-4.699707,-207.519531,-76.416016,,,,,,,,,,,0.0,1.0,1.0,8.0,0.0,0.0,0.0,5.0,0.0,0.14363286666666664,-0.18805334666666668,0.9385449066666667,-1.271158826666666,-1.8204752799999995,-0.8186849199999997,-1.083314094599612,30.542155828801064,15.516230760465849,5.00713503989617,-4.9238838041743085,17.793181591539508,19.128861549351715,-0.9146150440253101,19.202905057632545,-0.9712222546541703,0.12174813333333334,0.12140334666666668,-0.6558299066666666,0.8989813866666667,0.677992807506412,0.8059671469768255,0.8301041415577766,0.8321565578828242
LBP03_S08,LBP03,-1667,109,8,108,-1667,1715755064.32,2024-05-15 06:37:44.320000+00:00,2024-05-15 15:37:44.320000+09:00,2024,5,15,6,37,44,320,,,,,,,,,0.7146,-0.192627,0.991211,-14.648438,-63.415527,-25.878906,,,,,,,,,,,0.0,1.0,1.0,8.0,0.0,0.0,0.0,5.0,0.0,0.14729172,-0.18812170666666667,0.9614680933333333,-2.0174153333333327,1.892089826666667,1.4803059600000001,-0.6057367990655086,31.101754275569256,13.931998332082852,4.98290556793355,-3.6798136331515385,18.350461524822823,19.367751920335873,-0.9030416641976057,19.31960273745322,-0.9729144546743245,0.56730828,-0.004505293333333327,0.02974290666666668,0.6015564800000001,0.5681052919323669,0.8109399144013031,0.8292458987751664,0.8284891791890678
LBP03_S08,LBP03,-1666,110,8,109,-1666,1715755064.36,2024-05-15 06:37:44.360000+00:00,2024-05-15 15:37:44.360000+09:00,2024,5,15,6,37,44,360,,,,,,,,,0.343018,0.138428,1.383301,19.470215,98.266602,76.477051,,,,,,,,,,,0.0,1.0,1.0,8.0,0.0,0.0,0.0,5.0,0.0,0.13513026666666667,-0.20324214666666668,0.9823535066666667,-3.225911426666666,4.113769506666667,3.4602864400000004,-0.2111066675071511,31.290912550395497,11.354290423599112,4.974461301233264,-2.4281771311357185,18.804633141766786,19.602437017219863,-0.9786834060020866,19.450221466254114,-0.9717774314388933,0.20788773333333332,0.3416701466666667,0.40094749333333324,0.9505053733333333,0.5663167763751802,0.7676686046795049,0.825199490982632,0.8248977764107954
LBP03_S08,LBP03,-1665,111,8,110,-1665,1715755064.4,2024-05-15 06:37:44.400000+00:00,2024-05-15 15:37:44.400000+09:00,2024,5,15,6,37,44,400,,,,,,,,,-0.293213,-0.540771,2.054199,-148.925781,7.568359,64.208984,,,,,,,,,,,0.0,1.0,1.0,8.0,0.0,0.0,0.0,5.0,0.0,0.1301790933333333,-0.20610998666666666,0.9863574133333335,-2.4202473599999994,3.85091144,3.900553373333334,0.49617988282420916,31.178615180419747,8.056843287163161,4.994308496546232,-1.1810325239189285,19.12690687325331,19.803447218081324,-1.0016996593707292,19.58679023570793,-0.9635390443142068,-0.4233920933333333,-0.3346610133333333,1.0678415866666666,1.8258946933333333,1.1964716932536512,0.7738080070635036,0.822909176566623,0.8299190455573204
LBP03_S08,LBP03,-1664,112,8,111,-1664,1715755064.44,2024-05-15 06:37:44.440000+00:00,2024-05-15 15:37:44.440000+09:00,2024,5,15,6,37,44,440,,,,,,,,,0.226318,-0.731689,2.009521,-11.413574,-29.602051,8.789062,,,,,,,,,,,0.0,1.0,1.0,8.0,0.0,0.0,0.0,5.0,0.0,0.12506190666666667,-0.20823238666666666,0.9692187466666666,0.8040364933333338,5.112304666666668,2.2200520666666668,1.8151701695244271,30.40141316958905,4.3637978498522205,5.0669153033272085,0.03502400286463336,19.3014587872474,19.95547966568777,-1.0236088999706592,19.718064463536866,-0.9586327783045696,0.10125609333333332,-0.5234566133333334,1.0403022533333333,1.66501496,1.168968947735543,0.7900762225263683,0.82839853340606,0.8344397109196967
LBP03_S08,LBP03,-1663,113,8,112,-1663,1715755064.48,2024-05-15 06:37:44.480000+00:00,2024-05-15 15:37:44.480000+09:00,2024,5,15,6,37,44,480,,,,,,,,,0.145752,-0.271729,0.937256,44.73877,188.598633,27.22168,,,,,,,,,,,0.0,1.0,1.0,8.0,0.0,0.0,0.0,5.0,0.0,0.12305994666666666,-0.18896806666666668,0.94002604,5.2945964000000005,4.261067693333334,-0.36295574666666636,3.7602651384711385,28.43005166725391,0.7051175225913052,5.217325908866054,1.1722260695547897,19.329663488151056,20.05568483404715,-0.9883789373166507,19.83229198180764,-0.9610906246530891,0.022692053333333337,-0.08276093333333331,-0.002770040000000029,0.10822302666666668,0.08586020319268343,0.7651384370515664,0.8186700719340269,0.8291051298077916
LBP03_S08,LBP03,-1662,114,8,113,-1662,1715755064.52,2024-05-15 06:37:44.520000+00:00,2024-05-15 15:37:44.520000+09:00,2024,5,15,6,37,44,520,,,,,,,,,-0.660156,0.343018,-0.516113,160.766602,189.819336,-49.133301,,,,,,,,,,,0.0,1.0,1.0,8.0,0.0,0.0,0.0,5.0,0.0,0.12249029333333333,-0.18457028,0.9247102933333332,5.694987026666667,1.446940093333334,-3.047688813333333,6.077551815652785,24.890575777491907,-2.445404218250348,5.460427981492166,2.167849100654466,19.231847319421043,20.109196771173963,-0.979881366095275,19.920688428749838,-0.9692417005705478,-0.7826462933333334,0.52758828,-1.4408232933333331,2.7510578666666667,1.7224564947404846,0.8107581543573804,0.8274446323160767,0.8432652243734264
LBP03_S08,LBP03,-1661,115,8,114,-1661,1715755064.56,2024-05-15 06:37:44.560000+00:00,2024-05-15 15:37:44.560000+09:00,2024,5,15,6,37,44,560,,,,,,,,,0.284668,-0.137939,0.344727,-96.557617,-236.999512,-83.80127,,,,,,,,,,,0.0,1.0,1.0,8.0,0.0,0.0,0.0,5.0,0.0,0.13013026666666666,-0.1781900666666667,0.9274349066666665,4.9812826,-2.0255533999999997,-3.638509133333333,8.39081151060843,19.743477445594475,-4.717632667474069,5.796060441916503,2.957588198478245,19.04314201272208,20.124186997611304,-0.9360352549624342,19.980541518343358,-0.9827526293490803,0.15453773333333332,0.040251066666666696,-0.5827079066666665,0.7774967066666665,0.6041941441982515,0.7830133505329364,0.8303673462288016,0.8358298043905122
LBP03_S08,LBP03,-1660,116,8,115,-1660,1715755064.6,2024-05-15 06:37:44.600000+00:00,2024-05-15 15:37:44.600000+09:00,2024,5,15,6,37,44,600,,,,,,,,,0.616211,-0.349854,0.979492,-24.230957,-56.518555,-32.348633,,,,,,,,,,,0.0,1.0,1.0,8.0,0.0,0.0,0.0,5.0,0.0,0.13842453333333335,-0.18296872,0.9538672,2.6066081200000006,-1.0668945466666662,-1.10188804,10.343781791673395,13.253303632176806,-5.963325221300815,6.209811713583439,3.487720343765317,18.804609003870045,20.108189239782455,-0.9194351629387321,20.0172876500993,-0.9851439448178063,0.4777864666666666,-0.16688528,0.025624800000000003,0.6702965466666666,0.5067417831455544,0.7884563226534621,0.8265680792189204,0.8322334707622623
LBP03_S08,LBP03,-1659,117,8,116,-1659,1715755064.64,2024-05-15 06:37:44.640000+00:00,2024-05-15 15:37:44.640000+09:00,2024,5,15,6,37,44,640,,,,,,,,,0.386475,0.146729,1.323242,72.631836,96.313477,82.03125,,,,,,,,,,,0.0,1.0,1.0,8.0,0.0,0.0,0.0,5.0,0.0,0.12999354666666665,-0.18972328,0.9751920666666668,1.294759173333334,1.7179361866666674,0.4077148133333335,11.673162725047169,5.85512245908663,-6.2453587844168785,6.676738222585326,3.721925242128782,18.55479465249337,20.067684604784972,-0.9655268516514081,20.044954761199392,-0.9840192205506874,0.2564814533333334,0.33645228,0.34804993333333323,0.9409836666666666,0.5478335775712502,0.7874438705295016,0.8239763161904249,0.834879286221707
LBP03_S08,LBP03,-1658,118,8,117,-1658,1715755064.68,2024-05-15 06:37:44.680000+00:00,2024-05-15 15:37:44.680000+09:00,2024,5,15,6,37,44,680,,,,,,,,,-0.36499,-0.809082,2.00293,-82.458496,6.04248,47.607422,,,,,,,,,,,0.0,1.0,1.0,8.0,0.0,0.0,0.0,5.0,0.0,0.123558,-0.1929133866666667,0.9849837333333333,0.844726626666667,2.3551432133333337,1.2573242,12.243649443532771,-1.9169625462076867,-5.7030805872493024,7.166484200326637,3.6452467402804745,18.326671429003397,20.012826018773715,-0.9961258031998976,20.084252114609917,-0.9773687203977891,-0.488548,-0.6161686133333333,1.0179462666666668,2.12266288,1.2862960429783368,0.7935941614490016,0.8177027842592262,0.8372599061636046
LBP03_S08,LBP03,-1657,119,8,118,-1657,1715755064.72,2024-05-15 06:37:44.720000+00:00,2024-05-15 15:37:44.720000+09:00,2024,5,15,6,37,44,720,,,,,,,,,0.093262,-0.26416,1.798828,-5.432129,-34.179688,8.422852,,,,,,,,,,,0.0,1.0,1.0,8.0,0.0,0.0,0.0,5.0,0.0,0.11898444,-0.20471352,0.9778808666666666,1.6536458933333336,2.9899088400000005,-0.2954101733333332,12.099010618608398,-9.389091549809029,-4.410023306054593,7.650444625070973,3.2696830782881134,18.150270496761213,19.96628281627107,-1.0381509519829304,20.158274634580657,-0.9694296816347666,-0.02572244,-0.059446479999999996,0.8209471333333335,0.9061160533333334,0.8234984660776011,0.8068594033578342,0.8247498288374762,0.8428650419943333
LBP03_S08,LBP03,-1656,120,8,119,-1656,1715755064.76,2024-05-15 06:37:44.760000+00:00,2024-05-15 15:37:44.760000+09:00,2024,5,15,6,37,44,760,,,,,,,,,0.191895,-0.564941,0.874512,144.714355,134.277344,-6.347656,,,,,,,,,,,0.0,1.0,1.0,8.0,0.0,0.0,0.0,5.0,0.0,0.11754238666666667,-0.18621416000000002,0.94556316,6.56901048,2.84830728,-1.6739908933333334,11.528525583323866,-15.69910006398587,-2.3559302206951713,8.111585648403928,2.6417190757286786,18.056033287933406,19.969898334779288,-1.002596560689346,20.287213382531913,-0.96820758222698,0.07435261333333334,-0.37872684,-0.07105116,0.5241306133333333,0.39244184000081767,0.8052215180943786,0.8120430061300904,0.8397811075962714
LBP03_S08,LBP03,-1655,121,8,120,-1655,1715755064.8,2024-05-15 06:37:44.800000+00:00,2024-05-15 15:37:44.800000+09:00,2024,5,15,6,37,44,800,,,,,,,,,-0.559326,0.837891,-0.709961,136.169434,56.82373,-69.335938,,,,,,,,,,,0.0,1.0,1.0,8.0,0.0,0.0,0.0,5.0,0.0,0.12069017333333333,-0.18617184,0.92850912,5.19368496,-0.2913411599999995,-2.3999023466666665,11.073813798197435,-19.887136433305578,0.41664319639684644,8.554538200331825,1.8462336183964556,18.07269901578928,20.08011832908224,-0.9904524166995401,20.484111497987378,-0.9736805727787325,-0.6800161733333333,1.02406284,-1.63847012,3.3425491333333333,2.0483434844763195,0.8657958709002451,0.830538061761838,0.8570981132364294
LBP03_S08,LBP03,-1654,122,8,121,-1654,1715755064.84,2024-05-15 06:37:44.840000+00:00,2024-05-15 15:37:44.840000+09:00,2024,5,15,6,37,44,840,,,,,,,,,0.327148,-0.154297,0.324951,-143.005371,-277.22168,-70.43457,,,,,,,,,,,0.0,1.0,1.0,8.0,0.0,0.0,0.0,5.0,0.0,0.12672858666666667,-0.18163733333333332,0.9260970133333333,5.7999675066666665,-1.9620768399999993,-2.6245117199999997,11.377016354228175,-21.178966873540684,3.627475297821647,9.009618854500951,0.9990749434548283,18.217798027702145,20.34845319979301,-0.9571038984416768,20.75275089081677,-0.9828294808160676,0.20041941333333332,0.027340333333333328,-0.6011460133333333,0.8289057599999999,0.6342649008215853,0.8334231825303694,0.8271365488320668,0.8444096213588723
LBP03_S08,LBP03,-1653,123,8,122,-1653,1715755064.88,2024-05-15 06:37:44.880000+00:00,2024-05-15 15:37:44.880000+09:00,2024,5,15,6,37,44,880,,,,,,,,,0.632568,-0.400146,0.735352,-32.226562,-116.455078,-16.235352,,,,,,,,,,,0.0,1.0,1.0,8.0,0.0,0.0,0.0,5.0,0.0,0.13726569333333333,-0.17740557333333332,0.9517936266666667,4.680989639999999,-2.705891946666666,0.4296874933333337,12.85582379340769,-19.348725571223326,6.693718448481685,9.523851806237259,0.2251259206058952,18.485546765641413,20.79591003375455,-0.9089885496864255,21.08733962511709,-0.9878889123363626,0.4953023066666667,-0.22274042666666669,-0.21644162666666666,0.93448436,0.5846235116851547,0.8311057318309831,0.8281139454527182,0.8416356943204238
LBP03_S08,LBP03,-1652,124,8,123,-1652,1715755064.92,2024-05-15 06:37:44.920000+00:00,2024-05-15 15:37:44.920000+09:00,2024,5,15,6,37,44,920,,,,,,,,,0.295654,0.132568,0.902344,-17.63916,112.243652,91.247559,,,,,,,,,,,0.0,1.0,1.0,8.0,0.0,0.0,0.0,5.0,0.0,0.13287442666666666,-0.19491533333333333,0.9802571733333334,2.0808919866666673,-1.474609386666666,2.9256184800000007,15.3500964728815,-14.92578427633369,8.88745591878593,10.137855665152518,-0.3719054504474524,18.84104500239285,21.398584250686543,-0.9676603720174092,21.473132387418826,-0.9855630284976137,0.16277957333333332,0.32748333333333335,-0.07791317333333336,0.56817608,0.37391574677266964,0.8407962804530855,0.8259008527098426,0.8361217463161494
LBP03_S08,LBP03,-1651,125,8,124,-1651,1715755064.96,2024-05-15 06:37:44.960000+00:00,2024-05-15 15:37:44.960000+09:00,2024,5,15,6,37,44,960,,,,,,,,,0.068115,-0.667236,1.778076,-72.814941,-3.417969,84.716797,,,,,,,,,,,0.0,1.0,1.0,8.0,0.0,0.0,0.0,5.0,0.0,0.13066738666666666,-0.20175452,0.9947754,4.45882168,0.45979816000000057,4.379882800000001,17.97482438499672,-9.063412241765198,9.661866022108267,10.856848640552387,-0.7344419401180603,19.22751964327718,22.09316815216592,-0.9907651604799609,21.88744810138175,-0.9779253036494003,-0.06255238666666667,-0.46548148000000006,0.7833006,1.3113344666666666,0.9133157390853651,0.8200148114217114,0.8168272148727463,0.8323390824233976
LBP03_S08,LBP03,-1650,126,8,125,-1650,1715755065.0,2024-05-15 06:37:45+00:00,2024-05-15 15:37:45+09:00,2024,5,15,6,37,45,0,6.0,37.0,45.0,40.533844,141.469162,4.68,3.0,12.0,0.109619,-0.505859,1.67627,120.910645,-6.591797,42.602539,-256.0,18.0,359.0,1630.0,0.0,1022.5,32.279999,0.094143,-76.684441,3.796875,0.0,1.0,1.0,8.0,0.0,0.0,0.0,4.0,0.0,0.12344733333333333,-0.19938798666666668,0.9859179733333334,7.846679760000001,3.2128906000000006,4.347330706666667,19.331443001621984,-3.103227544359212,8.952504341183177,11.630106360617267,-0.8585710418924288,19.585619816924506,22.79458316807641,-1.0109242433120806,22.301058686166478,-0.96903058998453,-0.013828333333333331,-0.30647101333333326,0.6903520266666665,1.010651373333333,0.7554479634886255,0.8191869726770379,0.8190156946312905,0.8356984821549548
LBP03_S08,LBP03,-1649,127,8,126,-1649,1715755065.04,2024-05-15 06:37:45.040000+00:00,2024-05-15 15:37:45.040000+09:00,2024,5,15,6,37,45,40,,,,,,,,,0.335205,-0.436768,1.050049,37.963867,93.933105,25.146484,,,,,,,,,,,0.0,1.0,1.0,8.0,0.0,0.0,0.0,4.0,0.0,0.11843105333333331,-0.19351559999999998,0.9635058666666667,11.517740960000001,1.3972981466666674,1.7569986800000004,18.02539754217299,1.9328232332775606,7.246542781637941,12.351122262304187,-0.7812581125613264,19.875481528190022,23.413571947788142,-1.0161211668543597,22.68026371259529,-0.9654037874896508,0.21677394666666666,-0.2432524,0.0865431333333333,0.5465694799999999,0.3371236983458059,0.8089853385475996,0.8225126465433938,0.8302674736362601
LBP03_S08,LBP03,-1648,128,8,127,-1648,1715755065.08,2024-05-15 06:37:45.080000+00:00,2024-05-15 15:37:45.080000+09:00,2024,5,15,6,37,45,80,,,,,,,,,-0.587402,0.217773,-0.336426,193.603516,150.512695,-67.993164,,,,,,,,,,,0.0,1.0,1.0,8.0,0.0,0.0,0.0,4.0,0.0,0.11972662666666664,-0.17744789333333333,0.9420280000000001,11.040039133333334,0.44759112000000034,-0.0984700799999996,13.250433890000775,5.656423840751526,5.346159177655062,12.881139617904218,-0.5550011589312653,20.089327895296226,23.870753641791115,-0.9728669648124068,22.990083972418812,-0.9666794885861678,-0.7071286266666666,0.3952208933333333,-1.278454,2.3808035199999997,1.5134976310832746,0.8532411584985284,0.8204035765602523,0.8398546659205941
LBP03_S08,LBP03,-1647,129,8,128,-1647,1715755065.12,2024-05-15 06:37:45.120000+00:00,2024-05-15 15:37:45.120000+09:00,2024,5,15,6,37,45,120,,,,,,,,,0.061035,-0.027832,0.188965,-80.566406,-165.100098,-88.500977,,,,,,,,,,,0.0,1.0,1.0,8.0,0.0,0.0,0.0,4.0,0.0,0.12504889333333333,-0.18099932,0.9372493599999999,8.93880216,-1.8701172133333326,-0.8935547199999996,5.143977868211514,8.283206024894737,3.946209408531232,13.086898732632678,-0.22367291793547583,20.247176271637475,24.109439955900264,-0.9617737035007989,23.19871763418422,-0.9754103790992639,-0.06401389333333332,0.15316732,-0.74828436,0.9654655733333333,0.7664773250894532,0.8551835333734118,0.8219849287544457,0.8317367214337211
LBP03_S08,LBP03,-1646,130,8,129,-1646,1715755065.16,2024-05-15 06:37:45.160000+00:00,2024-05-15 15:37:45.160000+09:00,2024,5,15,6,37,45,160,,,,,,,,,0.532227,-0.139648,0.492676,-29.296875,-150.512695,-73.242188,,,,,,,,,,,0.0,1.0,1.0,8.0,0.0,0.0,0.0,4.0,0.0,0.13438482666666665,-0.17538408,0.9459375066666666,8.803711013333333,-1.9840495066666666,-0.291341173333333,-5.267874860156447,10.303628132811749,3.273613748794891,12.87618373822642,0.1884722073769941,20.37812082158927,24.10600418262658,-0.9136494240406423,23.28273280245609,-0.9813589290009626,0.3978421733333334,0.03573608,-0.45326150666666665,0.88683976,0.6041535034427039,0.824503422916184,0.8229643029521516,0.8284824642507931
LBP03_S08,LBP03,-1645,131,8,130,-1645,1715755065.2,2024-05-15 06:37:45.200000+00:00,2024-05-15 15:37:45.200000+09:00,2024,5,15,6,37,45,200,,,,,,,,,0.535156,0.300781,0.948486,9.155273,121.09375,68.54248,,,,,,,,,,,0.0,1.0,1.0,8.0,0.0,0.0,0.0,4.0,0.0,0.13100266666666668,-0.18652014666666666,0.9682226533333332,3.9339193466666673,-0.791829453333333,1.221516906666667,-16.495002115166056,12.07620805559328,3.0100659090604736,12.216383653619777,0.6715205296007254,20.498523457951688,23.872168593370382,-0.9541843917507483,23.23195417463498,-0.9805126664093802,0.40415333333333325,0.4873011466666667,-0.019736653333333187,0.9111911333333331,0.6333970791469541,0.8355143457972772,0.8190302871902847,0.8223603717246952
LBP03_S08,LBP03,-1644,132,8,131,-1644,1715755065.24,2024-05-15 06:37:45.240000+00:00,2024-05-15 15:37:45.240000+09:00,2024,5,15,6,37,45,240,,,,,,,,,0.044922,-0.365234,1.819336,-234.436035,-14.404297,100.097656,,,,,,,,,,,0.0,1.0,1.0,8.0,0.0,0.0,0.0,4.0,0.0,0.1305371733333333,-0.19233394666666667,0.9860058533333333,3.701171960000001,-0.24169925333333292,2.33723956,-27.141263903291012,13.602648639926672,2.5458340422096883,11.130733097488136,1.2156264751977923,20.600356819640076,23.446655798028235,-0.9698609094068471,23.052763170855933,-0.9751120116683996,-0.08561517333333332,-0.17290005333333333,0.8333301466666667,1.0918453733333333,0.8553733218256544,0.8066844789588679,0.8104629861115513,0.8199411111980298
LBP03_S08,LBP03,-1643,133,8,132,-1643,1715755065.28,2024-05-15 06:37:45.280000+00:00,2024-05-15 15:37:45.280000+09:00,2024,5,15,6,37,45,280,,,,,,,,,0.100342,-0.789795,1.967529,-45.593262,-14.526367,52.185059,,,,,,,,,,,0.0,1.0,1.0,8.0,0.0,0.0,0.0,4.0,0.0,0.12659837333333332,-0.19782222666666668,0.9904101466666668,3.426106853333334,1.2166340800000004,3.0476887733333338,-36.30133946850635,14.599385766241744,1.398021494762528,9.678679518747883,1.799601905847462,20.656277679430577,22.88224665140863,-0.9962974548173863,22.768149807818226,-0.9678952971240138,-0.02625637333333332,-0.5919727733333333,0.9771188533333333,1.595348,1.1427521231868376,0.825274851586085,0.8156209992814553,0.8284943782338794
LBP03_S08,LBP03,-1642,134,8,133,-1642,1715755065.32,2024-05-15 06:37:45.320000+00:00,2024-05-15 15:37:45.320000+09:00,2024,5,15,6,37,45,320,,,,,,,,,0.23291,-0.399658,1.192627,51.208496,128.051758,37.29248,,,,,,,,,,,0.0,1.0,1.0,8.0,0.0,0.0,0.0,4.0,0.0,0.11940435999999999,-0.20019526666666668,0.9727864533333334,5.4907227333333335,2.362467413333334,0.665690066666667,-43.60607945914626,14.772762405428614,-0.4784426204644673,7.934436340382033,2.3905124020646067,20.637139974611998,22.238735933405213,-1.0271458710343948,22.412971931306664,-0.9660573725511151,0.11350564000000002,-0.19946273333333334,0.21984054666666675,0.5328089200000001,0.3178030494808269,0.8152627618880233,0.8131013381446631,0.8245848531461187
LBP03_S08,LBP03,-1641,135,8,134,-1641,1715755065.36,2024-05-15 06:37:45.360000+00:00,2024-05-15 15:37:45.360000+09:00,2024,5,15,6,37,45,360,,,,,,,,,-0.5271,0.055908,-0.230713,84.16748,169.921875,-62.194824,,,,,,,,,,,0.0,1.0,1.0,8.0,0.0,0.0,0.0,4.0,0.0,0.12263026666666667,-0.18569330666666667,0.9483040399999999,8.403320386666667,0.13102209333333387,-1.2556966533333331,-48.942589304877444,14.086038054059765,-2.678114394864043,5.976732768186935,2.9539539242269974,20.530015398817437,21.585381873954805,-0.9823025345641354,22.024910811894237,-0.9661791431192063,-0.6497302666666667,0.24160130666666668,-1.17901704,2.0703486133333335,1.3676994521517292,0.8473180689190853,0.8074933367992952,0.8325723502947832
LBP03_S08,LBP03,-1640,136,8,135,-1640,1715755065.4,2024-05-15 06:37:45.400000+00:00,2024-05-15 15:37:45.400000+09:00,2024,5,15,6,37,45,400,,,,,,,,,0.206055,0.107422,0.135986,-44.067383,-122.497559,-101.135254,,,,,,,,,,,0.0,1.0,1.0,8.0,0.0,0.0,0.0,4.0,0.0,0.12704758666666668,-0.18199538666666668,0.9349284,6.7887370533333335,-1.0335286933333332,-3.0192057733333333,-52.08387009210493,12.82630409675009,-4.616334652663937,3.8933779645027373,3.4670060880970013,20.34536201271088,21.002673130285963,-0.9569176959022763,21.63471719426307,-0.9741209330301336,0.0790074133333333,0.28941738666666667,-0.7989424,1.1673672000000002,0.8534128857618375,0.8335957166194128,0.8037018618414581,0.8264713565842197
LBP03_S08,LBP03,-1639,137,8,136,-1639,1715755065.44,2024-05-15 06:37:45.440000+00:00,2024-05-15 15:37:45.440000+09:00,2024,5,15,6,37,45,440,,,,,,,,,0.432129,-0.202881,0.74585,-65.795898,-152.22168,-72.631836,,,,,,,,,,,0.0,1.0,1.0,8.0,0.0,0.0,0.0,4.0,0.0,0.13056972,-0.18186517333333332,0.9413639466666666,5.529785226666667,-1.58935552,-2.9842122799999995,-52.51442683426304,11.4200138216772,-5.885899308249623,1.7928008911322157,3.9238066409640893,20.109926040380895,20.567438317411042,-0.9439540214105019,21.260234535218416,-0.9814911001972708,0.30155928,-0.02101582666666668,-0.19551394666666655,0.5180890533333332,0.3600074550141676,0.8012372569105578,0.7956567397184631,0.8193447745742259
LBP03_S08,LBP03,-1638,138,8,137,-1638,1715755065.48,2024-05-15 06:37:45.480000+00:00,2024-05-15 15:37:45.480000+09:00,2024,5,15,6,37,45,480,,,,,,,,,0.614258,0.034912,1.291748,-53.710938,78.186035,35.461426,,,,,,,,,,,0.0,1.0,1.0,8.0,0.0,0.0,0.0,4.0,0.0,0.13509772,-0.19258782666666666,0.9693392133333333,1.9759115200000008,-0.9749349466666665,-0.055338573333333065,-49.585987690883215,10.133240717097912,-6.460069274423434,-0.19063861650311287,4.329136269648005,19.85152326940396,20.31897487667552,-0.9544877190834201,20.906152195052687,-0.9839598142372827,0.47916028,0.22749982666666665,0.3224087866666666,1.0290688933333332,0.6207239086606169,0.822631805129275,0.7938851210904206,0.8199906496657763
LBP03_S08,LBP03,-1637,139,8,138,-1637,1715755065.52,2024-05-15 06:37:45.520000+00:00,2024-05-15 15:37:45.520000+09:00,2024,5,15,6,37,45,520,,,,,,,,,-0.158691,-0.13208,1.766113,-172.790527,44.311523,70.129395,,,,,,,,,,,0.0,1.0,1.0,8.0,0.0,0.0,0.0,4.0,0.0,0.13519212,-0.19629550666666667,0.9908821866666667,3.2991537066666674,1.5633137600000002,2.0174153333333336,-42.89858008350208,8.882329389599574,-6.628391484472266,-1.9065818198431963,4.684429445231988,19.586387610025067,20.228828761776015,-0.962991409181709,20.56798571395555,-0.9784580864986427,-0.29388312,0.06421550666666667,0.7752308133333333,1.13332944,0.8315489964270611,0.7869955051967381,0.7988768297770592,0.8139615899429639
LBP03_S08,LBP03,-1636,140,8,139,-1636,1715755065.56,2024-05-15 06:37:45.560000+00:00,2024-05-15 15:37:45.560000+09:00,2024,5,15,6,37,45,560,,,,,,,,,-0.029053,-0.942383,2.032471,-179.748535,-61.767578,45.10498,,,,,,,,,,,0.0,1.0,1.0,8.0,0.0,0.0,0.0,4.0,0.0,0.13184576,-0.20464185333333332,1.0038704666666667,2.2713216666666676,3.43831376,3.26334632,-32.644633068062994,7.288449634292332,-6.748719240742812,-3.212367142565716,4.975967430603681,19.316438840395353,20.20406800631493,-0.9930673231499165,20.23711202567195,-0.9680678433094034,-0.16089876,-0.7377411466666667,1.0286005333333335,1.9272404400000003,1.275997440290616,0.8138676370404327,0.7984404937866846,0.824867443166012
LBP03_S08,LBP03,-1635,141,8,140,-1635,1715755065.6,2024-05-15 06:37:45.600000+00:00,2024-05-15 15:37:45.600000+09:00,2024,5,15,6,37,45,600,,,,,,,,,0.238525,-0.483643,1.704102,100.585938,44.433594,17.63916,,,,,,,,,,,0.0,1.0,1.0,8.0,0.0,0.0,0.0,4.0,0.0,0.12209315999999999,-0.20510083999999998,0.9875488533333333,4.5678711466666675,5.03092444,1.6609700133333334,-19.671321971881525,4.930087395019607,-7.0207276967788115,-3.999220021440977,5.173170926404466,19.0356097325242,20.127342002923804,-1.0278860634221216,19.90444108078336,-0.9614136246323641,0.11643184,-0.27854216,0.7165531466666667,1.1115271466666667,0.7775541912054444,0.8247001333628284,0.8065782280081453,0.8259454306002231
LBP03_S08,LBP03,-1634,142,8,141,-1634,1715755065.64,2024-05-15 06:37:45.640000+00:00,2024-05-15 15:37:45.640000+09:00,2024,5,15,6,37,45,640,,,,,,,,,-0.192871,-0.477295,0.546387,120.056152,198.669434,-29.846191,,,,,,,,,,,0.0,1.0,1.0,8.0,0.0,0.0,0.0,4.0,0.0,0.12805344,-0.19946281333333335,0.9679069333333334,8.664550840000002,2.303059853333333,-0.9261068133333329,-5.204373360734432,1.629162222241693,-7.448803402217782,-4.207394955870354,5.238337415294134,18.73765759643549,19.90583239637093,-0.9945480498069652,19.562399072584974,-0.9606706882027216,-0.32092444,-0.27783218666666665,-0.4215199333333335,1.02027656,0.5982159094629906,0.8267154266384981,0.8070796485839997,0.8248893530064492
LBP03_S08,LBP03,-1633,143,8,142,-1633,1715755065.68,2024-05-15 06:37:45.680000+00:00,2024-05-15 15:37:45.680000+09:00,2024,5,15,6,37,45,680,,,,,,,,,-0.196533,0.425781,-0.059082,144.226074,-85.449219,-85.510254,,,,,,,,,,,0.0,1.0,1.0,8.0,0.0,0.0,0.0,4.0,0.0,0.1324382133333333,-0.1834244,0.9461263333333333,9.667968813333335,1.2841796533333332,-2.5415039466666665,9.573535877009498,-2.4027086824531976,-8.00433264543369,-3.8244535207899744,5.142229067996006,18.41748429061814,19.50058184043727,-0.9412801774309855,19.20625917756457,-0.9647175143371088,-0.32897121333333335,0.6092054,-1.0052083333333333,1.9433849466666666,1.2205724361929295,0.8240864823670816,0.8088403219080417,0.8198306836285113
LBP03_S08,LBP03,-1632,144,8,143,-1632,1715755065.72,2024-05-15 06:37:45.720000+00:00,2024-05-15 15:37:45.720000+09:00,2024,5,15,6,37,45,720,,,,,,,,,0.30835,0.227783,0.539062,-10.131836,-127.868652,-115.112305,,,,,,,,,,,0.0,1.0,1.0,8.0,0.0,0.0,0.0,4.0,0.0,0.13532233333333332,-0.1802994,0.9462532933333333,9.028320373333335,-0.3702799866666668,-2.600097693333333,23.77388527618555,-6.645250735017637,-8.836889963217345,-2.8734981097425525,4.876419038595301,18.06400869208945,18.92999905056923,-0.9232434391420038,18.835024719339742,-0.9707578039859092,0.1730276666666667,0.4080824,-0.40719129333333326,0.9883013599999999,0.6018924887289621,0.8152222432731362,0.8110408233154852,0.8215739669826961
LBP03_S08,LBP03,-1631,145,8,144,-1631,1715755065.76,2024-05-15 06:37:45.760000+00:00,2024-05-15 15:37:45.760000+09:00,2024,5,15,6,37,45,760,,,,,,,,,0.647461,-0.33252,1.326904,-96.557617,-68.42041,-7.69043,,,,,,,,,,,0.0,1.0,1.0,8.0,0.0,0.0,0.0,4.0,0.0,0.14085618666666666,-0.18471020000000002,0.9738444399999999,3.679199280000001,-2.7018229600000003,-0.3784179999999996,36.696916780285946,-10.515132564023357,-10.331399681332554,-1.4056214385311145,4.455813736034366,17.650752704836147,18.258672425068898,-0.9157603477937402,18.450536901149825,-0.972895052936311,0.5066048133333333,-0.14780979999999996,0.35305956000000016,1.0074741733333334,0.634938758287707,0.8249221200046116,0.815071819049495,0.8163360440882641
LBP03_S08,LBP03,-1630,146,8,145,-1630,1715755065.8,2024-05-15 06:37:45.800000+00:00,2024-05-15 15:37:45.800000+09:00,2024,5,15,6,37,45,800,,,,,,,,,0.134277,0.016113,1.62085,-45.837402,100.341797,112.243652,,,,,,,,,,,0.0,1.0,1.0,8.0,0.0,0.0,0.0,4.0,0.0,0.14098638666666666,-0.19884106666666668,0.9967546,2.829589906666667,-0.946451866666667,1.1482747200000003,47.4816294095811,-13.599515765881703,-12.907477840082315,0.49364373785212967,3.911833105399098,17.134453591232855,17.582253048302128,-0.9494883316058529,18.05460482626288,-0.9676122827587825,-0.00670938666666665,0.21495406666666667,0.6240953999999999,0.8457588533333331,0.6601100930505005,0.7693927843475789,0.817594327623912,0.8101563026237517
LBP03_S08,LBP03,-1629,147,8,146,-1629,1715755065.84,2024-05-15 06:37:45.840000+00:00,2024-05-15 15:37:45.840000+09:00,2024,5,15,6,37,45,840,,,,,,,,,-0.345947,-1.097656,1.892822,-28.625488,-51.025391,31.494141,,,,,,,,,,,0.0,1.0,1.0,8.0,0.0,0.0,0.0,4.0,0.0,0.13294601333333336,-0.20240552,0.9991536933333333,3.2373047600000002,1.0611978666666662,2.316080706666667,54.85047150931263,-15.733495675003729,-16.652186832435984,2.6876625982246347,3.282493278398949,16.468366117935417,17.006039367206967,-0.9844222827543732,17.64708941314006,-0.957215215886021,-0.47889301333333334,-0.89525048,0.8936683066666667,2.2678118,1.3525734665814564,0.7981251269779738,0.8157741547541716,0.8174660748807024
LBP03_S08,LBP03,-1628,148,8,147,-1628,1715755065.88,2024-05-15 06:37:45.880000+00:00,2024-05-15 15:37:45.880000+09:00,2024,5,15,6,37,45,880,,,,,,,,,0.308838,-0.365234,1.26001,18.371582,-30.944824,35.461426,,,,,,,,,,,0.0,1.0,1.0,8.0,0.0,0.0,0.0,4.0,0.0,0.12522465333333335,-0.20423494666666667,0.9801042133333332,5.106608146666668,2.0369465599999996,1.0611978933333337,57.263627727253514,-16.923200733838083,-21.02973874507505,4.978207707314775,2.6055652490454255,15.627176568132416,16.60663029442723,-1.0148906155714237,17.228166045808145,-0.9465838260432843,0.18361334666666665,-0.16099905333333334,0.2799057866666669,0.6245181866666669,0.37145902285157734,0.7895985474246306,0.8103521396278067,0.8152754794433557
LBP03_S08,LBP03,-1627,149,8,148,-1627,1715755065.92,2024-05-15 06:37:45.920000+00:00,2024-05-15 15:37:45.920000+09:00,2024,5,15,6,37,45,920,,,,,,,,,-0.164307,0.019043,0.025391,261.291504,175.354004,-17.63916,,,,,,,,,,,0.0,1.0,1.0,8.0,0.0,0.0,0.0,4.0,0.0,0.12881189333333332,-0.19614901333333334,0.9547135866666665,8.078613346666668,-0.03906254666666731,-0.44759115999999965,53.533366417615305,-17.231122635034673,-24.89799939444797,7.119542364019387,1.9163203436440386,14.631256592354497,16.38395057987687,-0.9843638986857273,16.80448525704957,-0.9461364355342716,-0.2931188933333333,0.21519201333333335,-0.9293225866666665,1.4376334933333332,0.9979312392746483,0.81455916712471,0.8276777237888976,0.8221202908481317
LBP03_S08,LBP03,-1626,150,8,149,-1626,1715755065.96,2024-05-15 06:37:45.960000+00:00,2024-05-15 15:37:45.960000+09:00,2024,5,15,6,37,45,960,,,,,,,,,-0.035645,0.406006,-0.070068,191.223145,-136.047363,-123.962402,,,,,,,,,,,0.0,1.0,1.0,8.0,0.0,0.0,0.0,4.0,0.0,0.13229822666666669,-0.18284824,0.9355827333333334,8.97786464,-1.3053385866666676,-1.774088546666666,43.61469455524574,-16.741684217813468,-26.88166325144366,8.864130146229217,1.2466529749314998,13.55599006229675,16.24474725744551,-0.9402396213746314,16.395330986149414,-0.9492091950906583,-0.1679432266666667,0.58885424,-1.0056507333333333,1.7624482000000001,1.1774071686562215,0.8251228243075441,0.8225688178646277,0.8195924180176789
LBP03_S08,LBP03,-1625,151,8,150,-1625,1715755066.0,2024-05-15 06:37:46+00:00,2024-05-15 15:37:46+09:00,2024,5,15,6,37,46,0,6.0,37.0,46.0,40.533897,141.469238,4.894,3.0,12.0,0.268555,0.191895,0.501465,108.032227,-127.685547,-172.363281,-262.0,7.0,358.0,1788.0,0.0,1022.799988,32.330002,0.097116,-79.16198,3.796875,0.0,1.0,1.0,8.0,0.0,0.0,0.0,4.0,0.0,0.13859705333333333,-0.18502270666666668,0.9395475733333334,7.457682346666667,-4.561360720000001,-2.1687825599999995,29.098979841226388,-15.634831742104911,-25.92591475326013,10.028089339878273,0.6212597052473033,12.518953472166345,16.05218787169556,-0.9239153946945069,16.03388502077295,-0.9546219022255427,0.12995794666666666,0.3769177066666667,-0.43808257333333334,0.9449582266666667,0.5923448037748208,0.8185986979189919,0.8188928352980149,0.818876695727191
LBP03_S08,LBP03,-1624,152,8,151,-1624,1715755066.04,2024-05-15 06:37:46.040000+00:00,2024-05-15 15:37:46.040000+09:00,2024,5,15,6,37,46,40,,,,,,,,,0.640381,0.235352,1.064453,-48.156738,-35.461426,-39.672852,,,,,,,,,,,0.0,1.0,1.0,8.0,0.0,0.0,0.0,4.0,0.0,0.14911137333333332,-0.18456698666666665,0.9637532933333334,5.399576866666667,-5.798339893333335,0.30436197333333365,13.035938547278082,-14.278815727594205,-21.730331218649752,10.549526881769395,0.050107076143535156,11.649740223420356,15.716598723051783,-0.8882341513795983,15.761193076393926,-0.955023763164208,0.4912696266666666,0.41991898666666666,0.10069970666666672,1.0118883200000002,0.6540781546352996,0.8312768761705718,0.8201311073590857,0.8254340564191198
LBP03_S08,LBP03,-1623,153,8,152,-1623,1715755066.08,2024-05-15 06:37:46.080000+00:00,2024-05-15 15:37:46.080000+09:00,2024,5,15,6,37,46,80,,,,,,,,,0.140869,-0.106934,1.540039,-192.443848,65.002441,117.126465,,,,,,,,,,,0.0,1.0,1.0,8.0,0.0,0.0,0.0,4.0,0.0,0.14573246666666664,-0.20008132,0.9845280266666666,3.6848958800000005,-4.313964893333334,2.0157877600000007,-0.9328278739080575,-13.203246649780173,-14.829356145578249,10.512213766813073,-0.47802278984767177,11.056565977597225,15.26377395285152,-0.9368062723408596,15.61576272089819,-0.9502109273234105,-0.004863466666666649,0.09314732,0.5555109733333333,0.65352176,0.5632872429098209,0.7932684606436335,0.8232548095710811,0.8113585379213795
LBP03_S08,LBP03,-1622,154,8,153,-1622,1715755066.12,2024-05-15 06:37:46.120000+00:00,2024-05-15 15:37:46.120000+09:00,2024,5,15,6,37,46,120,,,,,,,,,-0.274414,-0.765625,1.934814,-162.658691,-6.591797,50.170898,,,,,,,,,,,0.0,1.0,1.0,8.0,0.0,0.0,0.0,4.0,0.0,0.13951175999999998,-0.19869785333333334,0.9899056266666668,6.197102906666667,-2.935384160000001,2.980957026666667,-9.746309523760857,-12.895928998573622,-6.310200728964957,10.122361385862638,-0.9938599497906166,10.804157948438627,14.838456341567687,-0.9539710347058689,15.625875127220079,-0.9394028891022996,-0.41392576,-0.5669271466666667,0.9449083733333332,1.92576128,1.1771120415723524,0.8096938493029495,0.8324386913381807,0.8178879022706137
LBP03_S08,LBP03,-1621,155,8,154,-1621,1715755066.16,2024-05-15 06:37:46.160000+00:00,2024-05-15 15:37:46.160000+09:00,2024,5,15,6,37,46,160,,,,,,,,,0.177002,-0.590576,1.633057,-1.159668,-9.643555,41.625977,,,,,,,,,,,0.0,1.0,1.0,8.0,0.0,0.0,0.0,4.0,0.0,0.13713545333333332,-0.20229812,0.9819401333333334,6.319173213333333,-2.386067760000001,1.9881184800000005,-11.846144758107478,-13.522266714249533,2.6180423272132303,9.648515595538338,-1.5347506183605981,10.908879641527156,14.644212771304247,-0.9698874191425841,15.80942504585098,-0.9298085305007193,0.03986654666666667,-0.38827787999999996,0.6511168666666666,1.0792612933333332,0.759145722307804,0.8158935380575535,0.8201984804868687,0.8206073813206188
LBP03_S08,LBP03,-1620,156,8,155,-1620,1715755066.2,2024-05-15 06:37:46.200000+00:00,2024-05-15 15:37:46.200000+09:00,2024,5,15,6,37,46,200,,,,,,,,,0.117188,-0.360352,0.714355,126.220703,165.527344,-2.01416,,,,,,,,,,,0.0,1.0,1.0,8.0,0.0,0.0,0.0,4.0,0.0,0.1349154,-0.19196609333333334,0.9545508000000001,8.764648466666666,-0.6437174933333347,0.0740559733333339,-7.459807182625072,-14.756770858027629,10.937591965610387,9.350123308233336,-2.125021452681703,11.34638332015157,14.855333604511868,-0.9535069409925072,16.17858990169508,-0.9272293087003438,-0.01772739999999999,-0.16838590666666667,-0.24019580000000018,0.4263091066666668,0.2938742870894891,0.8023126263752549,0.818913486086266,0.8134577335852748
LBP03_S08,LBP03,-1619,157,8,156,-1619,1715755066.24,2024-05-15 06:37:46.240000+00:00,2024-05-15 15:37:46.240000+09:00,2024,5,15,6,37,46,240,,,,,,,,,-0.400879,0.514893,-0.379639,113.220215,-70.800781,-56.762695,,,,,,,,,,,0.0,1.0,1.0,8.0,0.0,0.0,0.0,4.0,0.0,0.13711266666666666,-0.18800776,0.9339160400000001,8.434244826666667,-2.7465820666666683,-1.2084961199999995,1.759797926136116,-15.873933014208271,17.891508060712777,9.42051522527878,-2.759978773250034,12.06204364258008,15.551735812249596,-0.9362939243463975,16.741799135185648,-0.9293960222736478,-0.5379916666666666,0.70290076,-1.31355504,2.5544474666666668,1.5839606544737015,0.8314561196811767,0.8190702993200223,0.8174606973014265
LBP03_S08,LBP03,-1618,158,8,157,-1618,1715755066.28,2024-05-15 06:37:46.280000+00:00,2024-05-15 15:37:46.280000+09:00,2024,5,15,6,37,46,280,,,,,,,,,0.439209,-0.16748,0.630371,-2.258301,-227.844238,-58.776855,,,,,,,,,,,0.0,1.0,1.0,8.0,0.0,0.0,0.0,4.0,0.0,0.14122073333333332,-0.1818066,0.9287532799999999,6.52832036,-5.95458988,-1.7985026399999997,13.419220333473485,-16.097916255585734,22.88596580842684,9.95728403861772,-3.4038954234734633,12.977482274917154,16.707754357646145,-0.9068102333603157,17.49850808088599,-0.9355410434032381,0.29798826666666667,0.014326600000000023,-0.2983822799999999,0.6106971466666666,0.4219410427495325,0.8026236764636846,0.8139492640248847,0.8112885583421983
LBP03_S08,LBP03,-1617,159,8,158,-1617,1715755066.32,2024-05-15 06:37:46.320000+00:00,2024-05-15 15:37:46.320000+09:00,2024,5,15,6,37,46,320,,,,,,,,,0.748047,-0.161865,1.095703,25.146484,-34.851074,5.432129,,,,,,,,,,,0.0,1.0,1.0,8.0,0.0,0.0,0.0,4.0,0.0,0.15481773333333335,-0.19182613333333334,0.9538021066666666,5.17171228,-5.558268253333334,-0.23030601333333295,25.016058674188752,-15.033410138659825,25.411407739314726,10.95792638558527,-4.0052318290198565,13.993938584489744,18.21944976618587,-0.8884203126699239,18.42938645007534,-0.9375340098388187,0.5932292666666666,0.029961133333333334,0.14190089333333344,0.7650912933333334,0.6107000048053766,0.8143395546766666,0.814801158282345,0.8135140769886643
LBP03_S08,LBP03,-1616,160,8,159,-1616,1715755066.36,2024-05-15 06:37:46.360000+00:00,2024-05-15 15:37:46.360000+09:00,2024,5,15,6,37,46,360,,,,,,,,,0.245117,0.358398,1.41626,-8.666992,84.533691,132.019043,,,,,,,,,,,0.0,1.0,1.0,8.0,0.0,0.0,0.0,4.0,0.0,0.14988609333333333,-0.19619136,0.97284508,4.21875004,-1.8318685066666676,2.0141601333333337,34.3253762666248,-12.914017836717615,25.11916201217385,12.330941436250264,-4.521792542488561,14.998705064976697,19.936395815886495,-0.9144474033708768,19.488914108014967,-0.9360465845920241,0.09523090666666667,0.55458936,0.44341492000000005,1.0932351866666667,0.7164182263792368,0.7882883056457669,0.8178031872824261,0.801091659748119
LBP03_S08,LBP03,-1615,161,8,160,-1615,1715755066.4,2024-05-15 06:37:46.400000+00:00,2024-05-15 15:37:46.400000+09:00,2024,5,15,6,37,46,400,,,,,,,,,-0.146484,-1.234375,2.091797,-146.789551,-78.552246,73.120117,,,,,,,,,,,0.0,1.0,1.0,8.0,0.0,0.0,0.0,4.0,0.0,0.14352868,-0.2008007466666667,0.98860028,5.4736328400000005,0.15950518666666597,2.8206380000000006,39.590209388034,-10.503000749616314,22.02954885369334,13.914549811771623,-4.941912572473214,15.87988701912443,21.684280206601258,-0.945582530427546,20.60659050032417,-0.9323432444639235,-0.29001268,-1.0335742533333332,1.1031967200000001,2.4267836533333336,1.5392940247831466,0.8157235512066192,0.824659633913016,0.807709091629845
LBP03_S08,LBP03,-1614,162,8,161,-1614,1715755066.44,2024-05-15 06:37:46.440000+00:00,2024-05-15 15:37:46.440000+09:00,2024,5,15,6,37,46,440,,,,,,,,,0.278076,-0.291748,1.489258,124.023438,49.377441,48.828125,,,,,,,,,,,0.0,1.0,1.0,8.0,0.0,0.0,0.0,4.0,0.0,0.14532230666666668,-0.20516597333333333,0.9974902533333333,5.83170576,-0.5354817866666672,1.9539387733333338,39.68285720071274,-8.70181752235174,16.704408173172045,15.501864099800134,-5.289985273367284,16.54806334605131,23.283688180055194,-0.9496843626755008,21.698210133267196,-0.9261632477876347,0.1327536933333333,-0.08658202666666667,0.49176774666666667,0.7111034666666667,0.5166773723485082,0.8219903478999927,0.8116138024052754,0.8044346091123064
LBP03_S08,LBP03,-1613,163,8,162,-1613,1715755066.48,2024-05-15 06:37:46.480000+00:00,2024-05-15 15:37:46.480000+09:00,2024,5,15,6,37,46,480,,,,,,,,,0.075684,-0.414551,0.677246,116.760254,164.18457,-5.310059,,,,,,,,,,,0.0,1.0,1.0,8.0,0.0,0.0,0.0,4.0,0.0,0.13892908,-0.1991145466666667,0.9773730666666668,7.993164093333333,2.2412109199999994,0.4337564800000005,34.336841056865865,-8.094679587618948,10.20813853146762,16.87533774207477,-5.613772456872042,16.956388887310016,24.572557644745064,-0.9567359366966676,22.68262934563544,-0.9204317413361915,-0.06324508000000001,-0.2154364533333333,-0.3001270666666668,0.5788086000000001,0.37481870512954624,0.81215413975875,0.8173929724440125,0.7999747939798638
LBP03_S08,LBP03,-1612,164,8,163,-1612,1715755066.52,2024-05-15 06:37:46.520000+00:00,2024-05-15 15:37:46.520000+09:00,2024,5,15,6,37,46,520,,,,,,,,,-0.315918,0.60498,-0.229736,230.041504,-12.878418,-50.476074,,,,,,,,,,,0.0,1.0,1.0,8.0,0.0,0.0,0.0,4.0,0.0,0.13757492,-0.18972002666666665,0.9581836133333334,5.902506533333334,0.5598958133333326,-1.0839843999999994,24.36760357164686,-8.681652885801153,3.8144837463532903,17.850041884940644,-5.961038572304089,17.10896823716415,25.433732920963926,-0.9390967822379194,23.496461739124683,-0.9228171029278208,-0.45349291999999997,0.7947000266666666,-1.1879196133333334,2.4361125599999998,1.4994522228521132,0.8388702688157521,0.8129328870062451,0.8122079761232902
LBP03_S08,LBP03,-1611,165,8,164,-1611,1715755066.56,2024-05-15 06:37:46.560000+00:00,2024-05-15 15:37:46.560000+09:00,2024,5,15,6,37,46,560,,,,,,,,,0.211426,0.107666,0.337402,-134.399414,-176.940918,-89.355469,,,,,,,,,,,0.0,1.0,1.0,8.0,0.0,0.0,0.0,4.0,0.0,0.13774745333333333,-0.1874185866666667,0.9526757999999999,4.7257487199999995,-2.8580729333333337,-2.2713216399999996,11.669049353218627,-9.934496911844638,-1.4114915755598343,18.31680385906939,-6.358418448777875,17.052508574141754,25.820976694396286,-0.9328540178615794,24.10194729866388,-0.9282902181307635,0.07367854666666668,0.2950845866666667,-0.6152737999999999,0.9840369333333332,0.6863419632323159,0.8152840497334201,0.8145758433869265,0.8040550124355964
LBP03_S08,LBP03,-1610,166,8,165,-1610,1715755066.6,2024-05-15 06:37:46.600000+00:00,2024-05-15 15:37:46.600000+09:00,2024,5,15,6,37,46,600,,,,,,,,,0.702393,-0.52832,0.937012,-81.359863,-138.061523,-28.808594,,,,,,,,,,,0.0,1.0,1.0,8.0,0.0,0.0,0.0,4.0,0.0,0.15438808,-0.19258134666666668,0.9707422133333333,1.949869813333333,-5.3141276133333335,-1.1629231999999994,-1.1632451947506084,-11.107712905103966,-4.937178854677892,18.270274051279365,-6.802726964982034,16.85502141995464,25.771529933942134,-0.8917069742296195,24.48842971811863,-0.9310185240420777,0.54800492,-0.3357386533333333,-0.03373021333333337,0.9174737866666667,0.6435585155817602,0.8099242227084728,0.8173121780356506,0.8076935595749211
LBP03_S08,LBP03,-1609,167,8,166,-1609,1715755066.64,2024-05-15 06:37:46.640000+00:00,2024-05-15 15:37:46.640000+09:00,2024,5,15,6,37,46,640,,,,,,,,,0.510742,0.087891,1.150146,92.102051,154.724121,51.025391,,,,,,,,,,,0.0,1.0,1.0,8.0,0.0,0.0,0.0,4.0,0.0,0.15529302666666667,-0.18853837333333334,0.98421552,2.528483093333333,-2.4373372400000006,1.5022786266666674,-11.50807537340296,-11.578509359925823,-6.823087357007749,17.809951036343246,-7.265867339379066,16.58209792567433,25.39592793593202,-0.8789788598319659,24.67040522479178,-0.9301157492126368,0.35544897333333336,0.27642937333333334,0.16593047999999988,0.7978088266666665,0.479885502258831,0.8051910064203064,0.8159532165294021,0.806450101196102
LBP03_S08,LBP03,-1608,168,8,167,-1608,1715755066.68,2024-05-15 06:37:46.680000+00:00,2024-05-15 15:37:46.680000+09:00,2024,5,15,6,37,46,680,,,,,,,,,-0.336914,-0.446777,1.655029,-207.580566,-21.54541,46.020508,,,,,,,,,,,0.0,1.0,1.0,8.0,0.0,0.0,0.0,4.0,0.0,0.15000655999999998,-0.20325192,1.00306968,0.5021159066666663,-1.2068684933333336,3.274739573333334,-17.429938671455705,-11.00930106973998,-7.508877753051239,17.11275348948502,-7.706239382168666,16.28174281555228,24.84607829253859,-0.9306638492766082,24.68435718228607,-0.9275964497095133,-0.48692055999999995,-0.24352507999999998,0.65195932,1.38240496,0.8493803925654172,0.7903433246752058,0.8072149035211438,0.802674656163763
LBP03_S08,LBP03,-1607,169,8,168,-1607,1715755066.72,2024-05-15 06:37:46.720000+00:00,2024-05-15 15:37:46.720000+09:00,2024,5,15,6,37,46,720,,,,,,,,,0.212402,-0.450195,1.831543,6.469727,-49.438477,23.864746,,,,,,,,,,,0.0,1.0,1.0,8.0,0.0,0.0,0.0,4.0,0.0,0.14758469333333332,-0.20541337333333334,1.0075781466666667,1.6446940399999999,-1.4680989600000005,2.820638013333334,-18.142749004604298,-9.3016778778606,-7.475311755285788,16.387043529300847,-8.078306497283089,15.98273034534085,24.27430536157783,-0.943151464699352,24.584637935996692,-0.9206142082788992,0.06481730666666669,-0.24478162666666667,0.8239648533333332,1.1335637866666666,0.8619961760505214,0.8007474721680681,0.8079848577206021,0.8076097062663462
LBP03_S08,LBP03,-1606,170,8,169,-1606,1715755066.76,2024-05-15 06:37:46.760000+00:00,2024-05-15 15:37:46.760000+09:00,2024,5,15,6,37,46,760,,,,,,,,,0.266602,-0.52124,1.379883,-29.663086,43.457031,41.564941,,,,,,,,,,,0.0,1.0,1.0,8.0,0.0,0.0,0.0,4.0,0.0,0.14848964000000003,-0.20609697333333335,0.9973991066666668,5.418294293333333,0.34423827999999956,1.897786453333334,-14.068287198432698,-6.465155689521429,-6.992542512537959,15.82431204136354,-8.336912724863947,15.70302864483933,23.801220010434044,-0.9417304624840188,24.437320532736514,-0.9154033623672895,0.11811235999999997,-0.3151430266666667,0.3824838933333332,0.8157392799999998,0.5094699063740876,0.7957287180915235,0.8103254190480677,0.8086241187301713
LBP03_S08,LBP03,-1605,171,8,170,-1605,1715755066.8,2024-05-15 06:37:46.800000+00:00,2024-05-15 15:37:46.800000+09:00,2024,5,15,6,37,46,800,,,,,,,,,-0.345703,0.0271,0.008301,118.347168,167.053223,-53.344727,,,,,,,,,,,0.0,1.0,1.0,8.0,0.0,0.0,0.0,4.0,0.0,0.14236984,-0.19531897333333334,0.9719759333333333,8.308105493333333,1.1116536399999994,-0.01708985333333241,-6.512294943883762,-2.5457536379126906,-6.089306008736617,15.56382024360819,-8.438742870380453,15.459456404489865,23.5040352733327,-0.936554782133135,24.31109021178009,-0.9147795624456659,-0.48807283999999995,0.22241897333333333,-0.9636749333333333,1.6741667466666668,1.1028847056602626,0.8134397025959139,0.7914162434717464,0.8162094526145792
LBP03_S08,LBP03,-1604,172,8,171,-1604,1715755066.84,2024-05-15 06:37:46.840000+00:00,2024-05-15 15:37:46.840000+09:00,2024,5,15,6,37,46,840,,,,,,,,,0.086914,0.004639,0.261719,49.682617,-202.697754,-86.242676,,,,,,,,,,,0.0,1.0,1.0,8.0,0.0,0.0,0.0,4.0,0.0,0.14176437333333336,-0.18949541333333333,0.9583659066666667,6.66259768,-2.3876953200000006,-1.8017578133333325,2.854005683599604,2.31577552151775,-4.72240670049213,15.677980470952173,-8.346111849519744,15.27056013647018,23.423207754998113,-0.9244913676442679,24.26587103953097,-0.9221574824812565,-0.054850373333333355,0.19413441333333334,-0.6966469066666667,0.9456316933333334,0.725267982516338,0.7883474832333093,0.7932363051056416,0.8066319309138841
LBP03_S08,LBP03,-1603,173,8,172,-1603,1715755066.88,2024-05-15 06:37:46.880000+00:00,2024-05-15 15:37:46.880000+09:00,2024,5,15,6,37,46,880,,,,,,,,,0.595215,0.136719,0.58252,33.569336,-80.871582,-86.364746,,,,,,,,,,,0.0,1.0,1.0,8.0,0.0,0.0,0.0,4.0,0.0,0.15643234666666667,-0.19318356,0.9725781466666666,5.209960973333333,-5.6469726666666675,-1.5152994799999993,12.447533979737127,7.737479638231049,-2.9900376980929595,16.17588183014166,-8.036612663990502,15.150958628546462,23.575365181851286,-0.8869135223905257,24.34205636934188,-0.9296173207345587,0.4387826533333334,0.32990256,-0.3900581466666666,1.15874336,0.6734324567035871,0.8004264205873897,0.7950124840060101,0.8070435666143344
LBP03_S08,LBP03,-1602,174,8,173,-1602,1715755066.92,2024-05-15 06:37:46.920000+00:00,2024-05-15 15:37:46.920000+09:00,2024,5,15,6,37,46,920,,,,,,,,,0.485596,-0.236572,1.339355,8.728027,58.532715,38.208008,,,,,,,,,,,0.0,1.0,1.0,8.0,0.0,0.0,0.0,4.0,0.0,0.15619145333333334,-0.19287757333333333,0.9862955999999999,6.442871133333333,-2.723795573333334,0.7421875066666676,20.981462803459184,13.00206647936741,-1.2034772102828861,17.015140342280027,-7.516530004815805,15.102819540135147,23.960558888362133,-0.886988323121822,24.554270911267267,-0.9306249536498947,0.3294045466666667,-0.043694426666666675,0.35305940000000013,0.7261583733333334,0.4848375998360286,0.7799026750098448,0.7972309210672773,0.8117527075292134
LBP03_S08,LBP03,-1601,175,8,174,-1601,1715755066.96,2024-05-15 06:37:46.960000+00:00,2024-05-15 15:37:46.960000+09:00,2024,5,15,6,37,46,960,,,,,,,,,-0.217773,-0.688232,1.802002,-204.162598,70.373535,101.074219,,,,,,,,,,,0.0,1.0,1.0,8.0,0.0,0.0,0.0,4.0,0.0,0.1493001733333333,-0.20051429333333334,1.0016178666666666,4.567871133333333,-1.0400390533333341,2.5545247466666674,27.436470027244262,17.15718610015599,0.2604774776877114,18.1125991433698,-6.830242560809565,15.113238639242656,24.558673484832035,-0.9266160186453445,24.89230401357412,-0.9289606156271507,-0.36707317333333334,-0.4877177066666666,0.8003841333333335,1.6551750133333334,1.006591295844022,0.7730700400973568,0.7990964322024504,0.8060692252755375
LBP03_S08,LBP03,-1600,176,8,175,-1600,1715755067.0,2024-05-15 06:37:47+00:00,2024-05-15 15:37:47+09:00,2024,5,15,6,37,47,0,6.0,37.0,47.0,40.533947,141.469315,4.842,3.0,12.0,0.241211,-0.328857,1.78833,136.71875,7.263184,48.828125,-261.0,12.0,360.0,1765.0,0.0,1022.900024,32.369999,0.098107,-79.988037,3.796875,0.0,1.0,1.0,8.0,0.0,0.0,0.0,4.0,0.0,0.14408206666666667,-0.21057614666666669,1.008313826666667,6.7797852,-2.1118164000000004,2.413736986666667,30.97249646739181,19.318875084932742,1.2264326496476308,19.35149900206547,-6.057487557412255,15.16229594522856,25.319338211450937,-0.9654861745855255,25.328695284851367,-0.9244012850178944,0.09712893333333333,-0.11828085333333332,0.7800161733333331,0.9954259599999997,0.7948896908485534,0.781171835580306,0.799885266749649,0.8063191687254453
LBP03_S08,LBP03,-1599,177,8,176,-1599,1715755067.04,2024-05-15 06:37:47.040000+00:00,2024-05-15 15:37:47.040000+09:00,2024,5,15,6,37,47,40,,,,,,,,,0.168701,-0.608154,1.449951,-34.606934,76.904297,41.870117,,,,,,,,,,,0.0,1.0,1.0,8.0,0.0,0.0,0.0,4.0,0.0,0.14956382666666668,-0.21309242666666667,1.0011946933333333,9.788411493333333,-1.5323893066666676,1.936035160000001,30.979271864331267,19.02495858414855,1.8962034692721554,20.59066987663872,-5.296489214046313,15.238144083999448,26.157781234041117,-0.9535772423649878,25.829431571595602,-0.9189157766581424,0.019137173333333313,-0.3950615733333333,0.44875630666666666,0.8629550533333332,0.5981823308163708,0.7789360026275489,0.8051064393990603,0.8063994057819067
LBP03_S08,LBP03,-1598,178,8,177,-1598,1715755067.08,2024-05-15 06:37:47.080000+00:00,2024-05-15 15:37:47.080000+09:00,2024,5,15,6,37,47,80,,,,,,,,,-0.306396,0.047363,-0.210205,148.55957,172.668457,-52.978516,,,,,,,,,,,0.0,1.0,1.0,8.0,0.0,0.0,0.0,4.0,0.0,0.14383466666666667,-0.19917641333333333,0.9727864799999999,14.047037799999998,1.7488606933333328,0.277506520000001,27.316690563329043,16.431437750458315,2.7744056270313764,21.683337499171884,-4.6392317040279805,15.349120309080703,26.968223711792472,-0.9407401784299696,26.363261600708494,-0.9176706352980728,-0.45023066666666667,0.24653941333333335,-1.1829914799999999,1.87976156,1.2895573571138452,0.8079868071957099,0.8006276339196716,0.8181654754459574
LBP03_S08,LBP03,-1597,179,8,178,-1597,1715755067.12,2024-05-15 06:37:47.120000+00:00,2024-05-15 15:37:47.120000+09:00,2024,5,15,6,37,47,120,,,,,,,,,0.212402,0.139893,0.115479,112.487793,-163.513184,-89.050293,,,,,,,,,,,0.0,1.0,1.0,8.0,0.0,0.0,0.0,4.0,0.0,0.14250004000000002,-0.19134762666666666,0.9529101733333333,11.452636746666666,-1.2963867066666672,-0.8203124933333324,20.594779717428214,12.226916864466387,4.363705842602757,22.507128687869013,-4.150155029449325,15.523668542784813,27.654636384646366,-0.9265080844719104,26.90668222081526,-0.925196038204412,0.06990195999999999,0.33124062666666665,-0.8374311733333333,1.23857376,0.9032705059044112,0.7970331457689923,0.8033634975359709,0.8206368428151178
LBP03_S08,LBP03,-1596,180,8,179,-1596,1715755067.16,2024-05-15 06:37:47.160000+00:00,2024-05-15 15:37:47.160000+09:00,2024,5,15,6,37,47,160,,,,,,,,,0.494141,0.277344,0.501221,45.166016,-89.904785,-83.984375,,,,,,,,,,,0.0,1.0,1.0,8.0,0.0,0.0,0.0,4.0,0.0,0.15160810666666666,-0.1909016666666667,0.9548144666666667,8.919270866666666,-5.493164053333334,-0.9285481733333324,12.244702702782513,7.302742896912863,6.822838543409053,22.996916795980315,-3.85804531357281,15.796582084521175,28.165132723206508,-0.8961371563914549,27.44455808639043,-0.932667378496798,0.34253289333333337,0.46824566666666667,-0.45359346666666667,1.2643720266666667,0.7364304586110628,0.7961245352211226,0.8060090366393381,0.8121738320649534
LBP03_S08,LBP03,-1595,181,8,180,-1595,1715755067.2,2024-05-15 06:37:47.200000+00:00,2024-05-15 15:37:47.200000+09:00,2024,5,15,6,37,47,200,,,,,,,,,0.504395,-0.079346,1.240479,16.174316,20.385742,53.161621,,,,,,,,,,,0.0,1.0,1.0,8.0,0.0,0.0,0.0,4.0,0.0,0.16017906666666668,-0.19570309333333333,0.9697070400000001,8.266601600000001,-3.7565104000000002,0.5533854266666677,4.21547694158593,2.371614429680322,9.820115890291177,23.16553587364375,-3.763180736385597,16.189386720132823,28.51139814077507,-0.881699698535617,27.96867509992893,-0.9319913240189388,0.34421593333333333,0.11635709333333333,0.27077196000000003,0.7313449866666667,0.45314571194237446,0.802495392215238,0.8024040092952466,0.8134407881292567
LBP03_S08,LBP03,-1594,182,8,181,-1594,1715755067.24,2024-05-15 06:37:47.240000+00:00,2024-05-15 15:37:47.240000+09:00,2024,5,15,6,37,47,240,,,,,,,,,-0.230713,-0.166748,1.664795,-251.647949,42.602539,124.450684,,,,,,,,,,,0.0,1.0,1.0,8.0,0.0,0.0,0.0,4.0,0.0,0.15679364,-0.20428381333333334,0.9850814000000001,6.141764360000001,-2.2273762933333336,3.4562174666666676,-1.645600835762862,-2.23599408548666,12.686711773026985,23.099711840213235,-3.8526204998050635,16.696855191053903,28.76150804612702,-0.9120399540435717,28.47670205423866,-0.9285885354747053,-0.38750664,0.037535813333333334,0.6797135999999999,1.1047560533333334,0.7833140566539352,0.7704695283024475,0.8009628239918121,0.802870042314164
LBP03_S08,LBP03,-1593,183,8,182,-1593,1715755067.28,2024-05-15 06:37:47.280000+00:00,2024-05-15 15:37:47.280000+09:00,2024,5,15,6,37,47,280,,,,,,,,,0.275146,-1.126465,2.000977,-68.42041,-75.866699,38.085938,,,,,,,,,,,0.0,1.0,1.0,8.0,0.0,0.0,0.0,4.0,0.0,0.14817710666666667,-0.21517248,0.9948079599999999,6.547037799999999,-1.8912760400000002,4.499511746666668,-4.242022290654085,-6.493375676945847,14.765967141934652,22.93003094858707,-4.112355526882897,17.28749387673129,29.0095713829189,-0.9621675514539157,28.972196185724794,-0.925019768022761,0.12696889333333333,-0.91129252,1.0061690399999998,2.0444304533333333,1.3634336411929857,0.8081292322401855,0.805376454351935,0.812009253429985
