file_name,test_id,_program_index,program_index,session_id,index,_index,unixtime,datetime_utc,datetime_jst,rtc_year,rtc_month,rtc_day,rtc_hour,rtc_min,rtc_sec,rtc_msec,gps_hour,gps_min,gps_sec,latitude,longitude,altitude,fix_type,SIV,acc_x,acc_y,acc_z,gyro_x,gyro_y,gyro_z,mag_x,mag_y,mag_z,illuminance,atmopress,water_pressure,water_temp,depth,alt_wps,battery_level,behavior_class,camera_command,camera_recording,camera_count,play_audio,speaker_on,audio_file,prev_sd_write_time_ms,delay_occurred_counter,acc_x_ma,acc_y_ma,acc_z_ma,gyro_x_ma,gyro_y_ma,gyro_z_ma,gyro_x_lowpass,gyro_y_lowpass,gyro_z_lowpass,angle_x,angle_y,angle_z,combined_angle_change,gravity_adjusted_angle,smoothed_angle_change,smoothed_gravity_angle,acc_x_dy,acc_y_dy,acc_z_dy,ODBA,VeDBA,smoothed_VeDBA_1s,smoothed_VeDBA_2s,smoothed_VeDBA_3s
LBP03_S04,LBP03,-1650,1,4,0,-1650,1715747650.0,2024-05-15 04:34:10+00:00,2024-05-15 13:34:10+09:00,2024,5,15,4,34,10,0,4.0,34.0,10.0,40.541298,141.522919,13.093,3.0,13.0,0.537842,-0.185791,0.912598,-29.785156,-72.387695,-44.677734,-267.0,50.0,354.0,2736.0,0.0,1017.599976,32.18,0.045585,-36.132507,3.895313,0.0,1.0,1.0,4.0,0.0,0.0,0.0,4.0,0.0,,,,,,,-29.930569511510388,-71.41730618563193,-43.74964896460424,-1.1972227804604156,-2.8566922474252774,-1.7499859585841697,3.557595232428052,,5.8618275754489035,,,,,,,,,
LBP03_S04,LBP03,-1649,2,4,1,-1649,1715747650.04,2024-05-15 04:34:10.040000+00:00,2024-05-15 13:34:10.040000+09:00,2024,5,15,4,34,10,40,,,,,,,,,0.080811,0.000977,1.217529,-21.789551,90.332031,26.306152,,,,,,,,,,,0.0,1.0,1.0,4.0,0.0,0.0,0.0,4.0,0.0,,,,,,,-5.46681102851999,-47.15867848485059,-24.594458527976673,-1.4158952216012153,-4.7430393868193015,-2.7337642997032368,5.6546130857738,,6.035364256536366,,,,,,,,,
LBP03_S04,LBP03,-1648,3,4,2,-1648,1715747650.08,2024-05-15 04:34:10.080000+00:00,2024-05-15 13:34:10.080000+09:00,2024,5,15,4,34,10,80,,,,,,,,,-0.224854,-1.311035,1.897461,7.324219,0.12207,24.230957,,,,,,,,,,,0.0,1.0,1.0,4.0,0.0,0.0,0.0,4.0,0.0,,,,,,,15.338510804426749,-25.776636478782635,-7.416610252758193,-0.8023547894241453,-5.774104845970607,-3.0304287098135645,6.570202291074105,,6.2082377776936255,,,,,,,,,
LBP03_S04,LBP03,-1647,4,4,3,-1647,1715747650.12,2024-05-15 04:34:10.120000+00:00,2024-05-15 13:34:10.120000+09:00,2024,5,15,4,34,10,120,,,,,,,,,0.276855,-0.06543,1.605713,134.155273,-90.270996,63.781738,,,,,,,,,,,0.0,1.0,1.0,4.0,0.0,0.0,0.0,4.0,0.0,,,,,,,29.62948039548467,-9.603234782122625,6.294263175224842,0.3828244263952415,-6.1582342372555114,-2.7786581828045707,6.766930231590806,,6.386713864736411,,,,,,,,,
LBP03_S04,LBP03,-1646,5,4,4,-1646,1715747650.16,2024-05-15 04:34:10.160000+00:00,2024-05-15 13:34:10.160000+09:00,2024,5,15,4,34,10,160,,,,,,,,,0.194824,-0.300537,0.997803,100.280762,90.087891,33.630371,,,,,,,,,,,0.0,1.0,1.0,4.0,0.0,0.0,0.0,4.0,0.0,,,,,,,36.02677225290911,0.32555767258453827,15.820437834908715,1.823895316511606,-6.14521193035213,-2.145840669408222,6.759797036377752,,6.558056780428622,,,,,,,,,
LBP03_S04,LBP03,-1645,6,4,5,-1645,1715747650.2,2024-05-15 04:34:10.200000+00:00,2024-05-15 13:34:10.200000+09:00,2024,5,15,4,34,10,200,,,,,,,,,-0.538818,0.357178,-0.248291,85.449219,161.92627,-36.560059,,,,,,,,,,,0.0,1.0,1.0,4.0,0.0,0.0,0.0,4.0,0.0,,,,,,,34.83822719074906,4.425399013076538,21.23378820924387,3.2174244041415685,-5.968195969829068,-1.2964891410384671,6.903047661973682,,6.7095304453718185,,,,,,,,,
LBP03_S04,LBP03,-1644,7,4,6,-1644,1715747650.24,2024-05-15 04:34:10.240000+00:00,2024-05-15 13:34:10.240000+09:00,2024,5,15,4,34,10,240,,,,,,,,,-0.020508,-0.443359,0.154541,-176.208496,-105.651855,-2.807617,,,,,,,,,,,0.0,1.0,1.0,4.0,0.0,0.0,0.0,4.0,0.0,,,,,,,27.78978955355939,4.249328702175253,23.15219148938428,4.329015986283944,-5.798222821742058,-0.3704014814630959,7.245478904637184,,7.1638520594236725,,,,,,,,,
LBP03_S04,LBP03,-1643,8,4,7,-1643,1715747650.28,2024-05-15 04:34:10.280000+00:00,2024-05-15 13:34:10.280000+09:00,2024,5,15,4,34,10,280,,,,,,,,,0.135498,-0.3479,0.328857,16.601562,-111.633301,-20.690918,,,,,,,,,,,0.0,1.0,1.0,4.0,0.0,0.0,0.0,4.0,0.0,,,,,,,17.399049944269,1.8145953295198285,22.3906300602024,5.024977984054704,-5.725639008561266,0.5252237209450001,7.636046474035908,,7.4075175772567174,,,,,,,,,
LBP03_S04,LBP03,-1642,9,4,8,-1642,1715747650.32,2024-05-15 04:34:10.320000+00:00,2024-05-15 13:34:10.320000+09:00,2024,5,15,4,34,10,320,,,,,,,,,0.577393,-0.087646,0.666504,87.95166,-115.539551,0.12207,,,,,,,,,,,0.0,1.0,1.0,4.0,0.0,0.0,0.0,4.0,0.0,,,,,,,6.249512601185303,-1.1616102687478747,19.69000060624106,5.274958488102117,-5.772103419311181,1.3128237451946427,7.928800105966305,,7.56377379830437,,,,,,,,,
LBP03_S04,LBP03,-1641,10,4,9,-1641,1715747650.36,2024-05-15 04:34:10.360000+00:00,2024-05-15 13:34:10.360000+09:00,2024,5,15,4,34,10,360,,,,,,,,,0.136475,0.333984,0.924072,14.770508,48.034668,60.241699,,,,,,,,,,,0.0,1.0,1.0,4.0,0.0,0.0,0.0,4.0,0.0,,,,,,,-3.591157290923632,-3.775202459135479,15.63285602012562,5.131312196465172,-5.9231115176766,1.9381379859996675,8.072793429860587,,7.71621186688552,,,,,,,,,
LBP03_S04,LBP03,-1640,11,4,10,-1640,1715747650.4,2024-05-15 04:34:10.400000+00:00,2024-05-15 13:34:10.400000+09:00,2024,5,15,4,34,10,400,,,,,,,,,0.05127,-0.655762,1.57251,-190.429688,-5.310059,47.302246,,,,,,,,,,,0.0,1.0,1.0,4.0,0.0,0.0,0.0,4.0,0.0,,,,,,,-10.890458403139172,-5.970298480768824,10.730075196691816,4.695693860339604,-6.161923456907353,2.36734099386734,8.100811372946596,,7.898303195153977,,,,,,,,,
LBP03_S04,LBP03,-1639,12,4,11,-1639,1715747650.44,2024-05-15 04:34:10.440000+00:00,2024-05-15 13:34:10.440000+09:00,2024,5,15,4,34,10,440,,,,,,,,,0.118164,0.041992,1.186768,72.08252,43.273926,36.437988,,,,,,,,,,,0.0,1.0,1.0,4.0,0.0,0.0,0.0,4.0,0.0,,,,,,,-15.297226835308113,-8.13304123882609,5.560256286507264,4.0838047869272796,-6.487245106460397,2.5897512453276303,8.091268264104245,,8.103233580776685,,,,,,,,,
LBP03_S04,LBP03,-1638,13,4,12,-1638,1715747650.48,2024-05-15 04:34:10.480000+00:00,2024-05-15 13:34:10.480000+09:00,2024,5,15,4,34,10,480,,,,,,,,,-0.087891,-0.254639,0.718506,46.203613,133.117676,17.883301,,,,,,,,,,,0.0,1.0,1.0,4.0,0.0,0.0,0.0,4.0,0.0,,,,,,,-17.156909545497715,-10.519033745401613,0.8215773565128459,3.397528405107371,-6.908006456276461,2.6226143395881443,8.13276450155063,,8.310604345389734,,,,,,,,,
LBP03_S04,LBP03,-1637,14,4,13,-1637,1715747650.52,2024-05-15 04:34:10.520000+00:00,2024-05-15 13:34:10.520000+09:00,2024,5,15,4,34,10,520,,,,,,,,,-0.372803,0.123779,-0.125244,7.507324,75.744629,-34.362793,,,,,,,,,,,0.0,1.0,1.0,4.0,0.0,0.0,0.0,4.0,0.0,,,,,,,-17.19143292511293,-12.864115505671926,-2.776655140916319,2.7098710881028536,-7.422571076503338,2.5115481339514916,8.291310917402319,,8.507207559070668,,,,,,,,,
LBP03_S04,LBP03,-1636,15,4,14,-1636,1715747650.56,2024-05-15 04:34:10.560000+00:00,2024-05-15 13:34:10.560000+09:00,2024,5,15,4,34,10,560,,,,,,,,,0.125244,-0.130127,0.209473,-45.10498,-150.878906,-55.358887,,,,,,,,,,,0.0,1.0,1.0,4.0,0.0,0.0,0.0,4.0,0.0,,,,,,,-16.188763171809704,-14.411100061065342,-4.741409865456169,2.0623205612304654,-7.999015078945952,2.3218917393332448,8.580710319062321,,8.691359531169034,,,,,,,,,
LBP03_S04,LBP03,-1635,16,4,15,-1635,1715747650.6,2024-05-15 04:34:10.600000+00:00,2024-05-15 13:34:10.600000+09:00,2024,5,15,4,34,10,600,,,,,,,,,0.245117,-0.205322,0.430908,-14.282227,-135.986328,-57.434082,,,,,,,,,,,0.0,1.0,1.0,4.0,0.0,0.0,0.0,4.0,0.0,,,,,,,-14.823867014964298,-14.332589257094895,-5.00889589291558,1.4693658806318934,-8.572318649229748,2.1215359036166217,8.952351518200771,,8.869848143987447,,,,,,,,,
LBP03_S04,LBP03,-1634,17,4,16,-1634,1715747650.64,2024-05-15 04:34:10.640000+00:00,2024-05-15 13:34:10.640000+09:00,2024,5,15,4,34,10,640,,,,,,,,,0.501465,-0.181396,0.892822,14.892578,-59.020996,-10.070801,,,,,,,,,,,0.0,1.0,1.0,4.0,0.0,0.0,0.0,4.0,0.0,,,,,,,-13.635769849386218,-12.277400709978652,-3.9969845742513073,0.9239350866564447,-9.063414677628895,1.9616565206465695,9.319186550767666,,9.054932270068713,,,,,,,,,
LBP03_S04,LBP03,-1633,18,4,17,-1633,1715747650.68,2024-05-15 04:34:10.680000+00:00,2024-05-15 13:34:10.680000+09:00,2024,5,15,4,34,10,680,,,,,,,,,0.066895,0.216797,1.078125,-53.466797,33.874512,60.36377,,,,,,,,,,,0.0,1.0,1.0,4.0,0.0,0.0,0.0,4.0,0.0,,,,,,,-13.093059037482197,-8.685742253848435,-2.4329929825727388,0.4002127251571569,-9.410844367782833,1.8643368013436599,9.602078610845252,,9.261951338891304,,,,,,,,,
LBP03_S04,LBP03,-1632,19,4,18,-1632,1715747650.72,2024-05-15 04:34:10.720000+00:00,2024-05-15 13:34:10.720000+09:00,2024,5,15,4,34,10,720,,,,,,,,,0.096191,-0.840332,1.759277,-145.690918,-26.184082,52.91748,,,,,,,,,,,0.0,1.0,1.0,4.0,0.0,0.0,0.0,4.0,0.0,,,,,,,-13.641901733666371,-4.6685982128085985,-1.026839109889252,-0.1454633441894979,-9.597588296295177,1.82326323694809,9.770319826949954,,9.505917950287614,,,,,,,,,
LBP03_S04,LBP03,-1631,20,4,19,-1631,1715747650.76,2024-05-15 04:34:10.760000+00:00,2024-05-15 13:34:10.760000+09:00,2024,5,15,4,34,10,760,,,,,,,,,0.067139,-0.154297,1.421387,48.950195,46.325684,7.873535,,,,,,,,,,,0.0,1.0,1.0,4.0,0.0,0.0,0.0,4.0,0.0,,,,,,,-15.64613864401006,-1.5117178474328674,-0.1608831826914782,-0.7713088899499003,-9.658057010192492,1.8168279096404307,9.857679558044707,,9.797067358320977,,,,,,,,,
LBP03_S04,LBP03,-1630,21,4,20,-1630,1715747650.8,2024-05-15 04:34:10.800000+00:00,2024-05-15 13:34:10.800000+09:00,2024,5,15,4,34,10,800,,,,,,,,,0.130859,-0.341064,1.019531,68.481445,118.225098,31.982422,,,,,,,,,,,0.0,1.0,1.0,4.0,0.0,0.0,0.0,4.0,0.0,,,,,,,-19.202207823188562,-0.06803738536706491,0.23429281573996472,-1.539397202877443,-9.660778505607174,1.8261996222700294,9.951652633759263,,10.137944656033735,,,,,,,,,
LBP03_S04,LBP03,-1629,22,4,21,-1629,1715747650.84,2024-05-15 04:34:10.840000+00:00,2024-05-15 13:34:10.840000+09:00,2024,5,15,4,34,10,840,,,,,,,,,-0.571045,0.105713,-0.243164,73.852539,129.516602,-52.79541,,,,,,,,,,,0.0,1.0,1.0,4.0,0.0,0.0,0.0,4.0,0.0,,,,,,,-23.928882935382262,-0.3559515032830008,0.5546405145725917,-2.4965525202927337,-9.675016565738494,1.848385242852933,10.161458952330161,,10.524292529362102,,,,,,,,,
LBP03_S04,LBP03,-1628,23,4,22,-1628,1715747650.88,2024-05-15 04:34:10.880000+00:00,2024-05-15 13:34:10.880000+09:00,2024,5,15,4,34,10,880,,,,,,,,,0.244629,0.085449,0.251465,-114.196777,-156.921387,-52.124023,,,,,,,,,,,0.0,1.0,1.0,4.0,0.0,0.0,0.0,4.0,0.0,,,,,,,-28.906616388397154,-1.5801145037331557,1.2262777531526634,-3.65281717582862,-9.73822114588782,1.8974363529790397,10.572430615513714,,10.948675513849892,,,,,,,,,
LBP03_S04,LBP03,-1627,24,4,23,-1627,1715747650.92,2024-05-15 04:34:10.920000+00:00,2024-05-15 13:34:10.920000+09:00,2024,5,15,4,34,10,920,,,,,,,,,0.23877,-0.496094,0.624023,-66.101074,-111.816406,-47.119141,,,,,,,,,,,0.0,1.0,1.0,4.0,0.0,0.0,0.0,4.0,0.0,,,,,,,-32.88163308380746,-2.5695501997220744,2.4116903154194778,-4.968082499180918,-9.841003153876704,1.9939039655958188,11.202804997735955,,11.403894131891294,,,,,,,,,
LBP03_S04,LBP03,-1626,25,4,24,-1626,1715747650.96,2024-05-15 04:34:10.960000+00:00,2024-05-15 13:34:10.960000+09:00,2024,5,15,4,34,10,960,,,,,,,,,0.472412,0.158936,0.9375,35.03418,-16.906738,10.131836,,,,,,,,,,,0.0,1.0,1.0,4.0,0.0,0.0,0.0,4.0,0.0,,,,,,,-34.68645070330203,-2.388254160361092,3.888561229789103,-6.355540527312999,-9.936533320291147,2.149446414787383,11.989483296189896,,11.884138914087584,,,,,,,,,
LBP03_S04,LBP03,-1625,26,4,25,-1625,1715747651.0,2024-05-15 04:34:11+00:00,2024-05-15 13:34:11+09:00,2024,5,15,4,34,11,0,4.0,34.0,11.0,40.541332,141.522736,12.01,3.0,13.0,0.107422,0.193359,1.368652,-156.982422,4.760742,75.866699,-262.0,58.0,348.0,2502.0,0.0,1018.0,32.169998,0.049549,-39.448975,3.895313,0.0,1.0,1.0,4.0,0.0,0.0,0.0,5.0,0.0,,,,,,,-33.69260843616818,-0.7779637426284156,5.167573526056175,-7.703244864759727,-9.967651869996283,2.35614935582963,12.815830251484446,,12.38337172441883,,,,,,,,,
LBP03_S04,LBP03,-1624,27,4,26,-1624,1715747651.04,2024-05-15 04:34:11.040000+00:00,2024-05-15 13:34:11.040000+09:00,2024,5,15,4,34,11,40,,,,,,,,,0.144043,-0.759766,1.927246,-78.918457,-0.915527,39.611816,,,,,,,,,,,0.0,1.0,1.0,4.0,0.0,0.0,0.0,5.0,0.0,,,,,,,-30.084905140254527,1.7861541747013816,5.769827529590618,-8.906641070369908,-9.896205703008228,2.586942457013255,13.563016395645564,,12.891638058158268,,,,,,,,,
LBP03_S04,LBP03,-1623,28,4,27,-1623,1715747651.08,2024-05-15 04:34:11.080000+00:00,2024-05-15 13:34:11.080000+09:00,2024,5,15,4,34,11,80,,,,,,,,,0.168945,-0.484375,1.83374,-46.813965,14.953613,26.489258,,,,,,,,,,,0.0,1.0,1.0,4.0,0.0,0.0,0.0,5.0,0.0,,,,,,,-24.813650662777565,4.412232498535147,5.488837897508006,-9.899187096881011,-9.719716403066823,2.806495972913575,14.154264791259271,,13.391269020655477,,,,,,,,,
LBP03_S04,LBP03,-1622,29,4,28,-1622,1715747651.12,2024-05-15 04:34:11.120000+00:00,2024-05-15 13:34:11.120000+09:00,2024,5,15,4,34,11,120,,,,,,,,,0.084229,-0.466797,1.141846,44.372559,151.550293,34.362793,,,,,,,,,,,0.0,1.0,1.0,4.0,0.0,0.0,0.0,5.0,0.0,,,,,,,-19.211416795523775,6.279913293502496,4.478678591599066,-10.667643768701963,-9.468519871326723,2.9856431165775374,14.572767648912874,,13.855908318446586,,,,,,,,,
LBP03_S04,LBP03,-1621,30,4,29,-1621,1715747651.16,2024-05-15 04:34:11.160000+00:00,2024-05-15 13:34:11.160000+09:00,2024,5,15,4,34,11,160,,,,,,,,,-0.615234,-0.069824,-0.017334,162.353516,50.476074,-77.148438,,,,,,,,,,,0.0,1.0,1.0,4.0,0.0,0.0,0.0,5.0,0.0,,,,,,,-14.428981710749659,7.037761317715236,3.124556127438957,-11.244803037131948,-9.187009418618114,3.110625361675096,14.850007661357154,,14.254378179857275,,,,,,,,,
LBP03_S04,LBP03,-1620,31,4,30,-1620,1715747651.2,2024-05-15 04:34:11.200000+00:00,2024-05-15 13:34:11.200000+09:00,2024,5,15,4,34,11,200,,,,,,,,,0.398682,0.502686,0.54541,23.803711,-110.656738,-85.693359,,,,,,,,,,,0.0,1.0,1.0,4.0,0.0,0.0,0.0,5.0,0.0,,,,,,,-10.972161320564473,6.915090846920121,1.7906564623146788,-11.683689489954528,-8.91040578474131,3.182251620167683,15.03431597115363,,14.558005898333215,,,,,,,,,
LBP03_S04,LBP03,-1619,32,4,31,-1619,1715747651.24,2024-05-15 04:34:11.240000+00:00,2024-05-15 13:34:11.240000+09:00,2024,5,15,4,34,11,240,,,,,,,,,0.388916,-0.633545,1.766113,-96.008301,-49.682617,7.568359,,,,,,,,,,,0.0,1.0,1.0,4.0,0.0,0.0,0.0,5.0,0.0,,,,,,,-8.592906419999073,6.520962703202391,0.6171354755681114,-12.027405746754491,-8.649567276613213,3.2069370391904073,15.15776857730228,,14.74716372440441,,,,,,,,,
LBP03_S04,LBP03,-1618,33,4,32,-1618,1715747651.28,2024-05-15 04:34:11.280000+00:00,2024-05-15 13:34:11.280000+09:00,2024,5,15,4,34,11,280,,,,,,,,,0.038818,0.053467,1.89209,-97.290039,57.312012,76.416016,,,,,,,,,,,0.0,1.0,1.0,4.0,0.0,0.0,0.0,5.0,0.0,,,,,,,-6.579936090030529,6.481690088028662,-0.5001235946726262,-12.290603190355712,-8.390299673092066,3.186932095403502,15.218823593424815,,14.81335813585702,,,,,,,,,
LBP03_S04,LBP03,-1617,34,4,33,-1617,1715747651.32,2024-05-15 04:34:11.320000+00:00,2024-05-15 13:34:11.320000+09:00,2024,5,15,4,34,11,320,,,,,,,,,-0.278564,-1.15625,2.311768,-104.064941,-53.527832,7.995605,,,,,,,,,,,0.0,1.0,1.0,4.0,0.0,0.0,0.0,5.0,0.0,,,,,,,-4.239580506324868,7.137001285499488,-1.74737813334784,-12.460186410608706,-8.104819621672087,3.1170369700695884,15.18750361184284,,14.756148952446765,-1.1355836508164112,,,,,,,,
LBP03_S04,LBP03,-1616,35,4,34,-1616,1715747651.36,2024-05-15 04:34:11.360000+00:00,2024-05-15 13:34:11.360000+09:00,2024,5,15,4,34,11,360,,,,,,,,,0.30957,-0.45166,2.049805,12.817383,-53.466797,33.26416,,,,,,,,,,,0.0,1.0,1.0,4.0,0.0,0.0,0.0,5.0,0.0,,,,,,,-1.2504159957260692,8.440975532584954,-3.1796735559213385,-12.510203050437749,-7.767180600368689,2.989850027832735,15.025760480949277,,14.577102301892609,-1.1537175747663948,,,,,,,,
LBP03_S04,LBP03,-1615,36,4,35,-1615,1715747651.4,2024-05-15 04:34:11.400000+00:00,2024-05-15 13:34:11.400000+09:00,2024,5,15,4,34,11,400,,,,,,,,,0.061768,-0.283936,1.186523,106.079102,172.119141,34.667969,,,,,,,,,,,0.0,1.0,1.0,4.0,0.0,0.0,0.0,5.0,0.0,,,,,,,2.3039669226221258,10.075714767677411,-4.615550124523765,-12.418044373532863,-7.364152009661592,2.805228022851784,14.707408512196396,,14.274551739414571,-1.1647272491826144,,,,,,,,
LBP03_S04,LBP03,-1614,37,4,36,-1614,1715747651.44,2024-05-15 04:34:11.440000+00:00,2024-05-15 13:34:11.440000+09:00,2024,5,15,4,34,11,440,,,,,,,,,-0.505859,0.094482,-0.01123,87.890625,85.388184,-82.15332,,,,,,,,,,,0.0,1.0,1.0,4.0,0.0,0.0,0.0,5.0,0.0,,,,,,,6.172717481507782,11.669574227164038,-5.713805308332687,-12.171135674272552,-6.897369040575031,2.5766758105184766,14.224960510171687,,13.842440036948279,-1.1615623000821966,,,,,,,,
LBP03_S04,LBP03,-1613,38,4,37,-1613,1715747651.48,2024-05-15 04:34:11.480000+00:00,2024-05-15 13:34:11.480000+09:00,2024,5,15,4,34,11,480,,,,,,,,,0.298584,-0.151367,0.489746,7.324219,-127.380371,-78.308105,,,,,,,,,,,0.0,1.0,1.0,4.0,0.0,0.0,0.0,5.0,0.0,0.09782232,-0.21372396,1.0595540666666667,1.47705084,0.03906256000000108,-0.30436200000000063,10.211149931596633,12.967369042032523,-6.176723107633234,-11.762689677008687,-6.37867427889373,2.3296068862131474,13.582172957156704,-1.1355836508164112,13.274081661877986,-1.164465143720064,0.20076168,0.06235695999999999,-0.5698080666666667,0.8329267066666667,0.6073507021937724,0.6073507021937724,0.6073507021937724,0.6073507021937724
LBP03_S04,LBP03,-1612,39,4,38,-1612,1715747651.52,2024-05-15 04:34:11.520000+00:00,2024-05-15 13:34:11.520000+09:00,2024,5,15,4,34,11,520,,,,,,,,,0.381104,-0.033691,1.347412,63.598633,8.056641,-29.35791,,,,,,,,,,,0.0,1.0,1.0,4.0,0.0,0.0,0.0,5.0,0.0,0.09132166666666666,-0.22036133333333335,1.0724642133333333,-0.8959960400000003,1.320800840000001,1.1840819999999994,14.460951178340324,13.859190221753378,-5.935835498442216,-11.184251629875074,-5.824306670023595,2.0921734662754585,12.782301143371315,-1.1718514987163786,12.568722202298936,-1.1686928732553274,0.28978233333333336,0.18667033333333335,0.27494778666666675,0.7514004533333335,0.4409261836768007,0.5241384429352866,0.5241384429352866,0.5241384429352866
LBP03_S04,LBP03,-1611,40,4,39,-1611,1715747651.56,2024-05-15 04:34:11.560000+00:00,2024-05-15 13:34:11.560000+09:00,2024,5,15,4,34,11,560,,,,,,,,,0.170654,-0.054688,1.865967,-168.823242,31.25,83.068848,,,,,,,,,,,0.0,1.0,1.0,4.0,0.0,0.0,0.0,5.0,0.0,0.08941085333333333,-0.22522462666666665,1.0820735866666666,1.1515299999999997,0.04150397333333422,0.8512369466666662,18.980996976857398,14.300952781692136,-5.189759590853454,-10.42501175080078,-5.252268558755909,1.8845830826413204,11.824502036576765,-1.1867465980150538,11.737138159969508,-1.1679159850058867,0.08124314666666667,0.17053662666666664,0.7838934133333333,1.0356731866666666,0.8063324831498057,0.6182031230067929,0.6182031230067929,0.6182031230067929
LBP03_S04,LBP03,-1610,41,4,40,-1610,1715747651.6,2024-05-15 04:34:11.600000+00:00,2024-05-15 13:34:11.600000+09:00,2024,5,15,4,34,11,600,,,,,,,,,-0.34375,-0.804443,2.205811,3.417969,-9.58252,14.038086,,,,,,,,,,,0.0,1.0,1.0,4.0,0.0,0.0,0.0,5.0,0.0,0.09508794666666667,-0.2171061333333333,1.0777213733333333,0.9781901466666665,0.7478841866666676,1.0139973599999994,23.575222757216398,14.238306731288667,-4.275965375115469,-9.482002840512123,-4.682736289504362,1.7135444676367015,10.7131989464907,-1.152067452780943,10.803189580418671,-1.1619852749797441,-0.43883794666666665,-0.5873368666666667,1.128089626666667,2.1542644400000004,1.3454105485588308,0.8000049793948024,0.8000049793948024,0.8000049793948024
LBP03_S04,LBP03,-1609,42,4,41,-1609,1715747651.64,2024-05-15 04:34:11.640000+00:00,2024-05-15 13:34:11.640000+09:00,2024,5,15,4,34,11,640,,,,,,,,,0.324463,-0.864746,2.049316,13.61084,-26.062012,19.897461,,,,,,,,,,,0.0,1.0,1.0,4.0,0.0,0.0,0.0,5.0,0.0,0.08765630666666667,-0.21394206666666668,1.0581868666666665,0.19856775999999987,4.472656320000001,-0.05615237333333387,27.651073720507345,13.611631011071367,-3.482967671963667,-8.37595989169183,-4.138271049061507,1.574225760758155,9.474184826599354,-1.1760765182715331,9.80067270794375,-1.1562608766662315,0.23680669333333332,-0.6508039333333333,0.9911291333333336,1.8787397600000002,1.2091154322858053,0.8818270699730031,0.8818270699730031,0.8818270699730031
LBP03_S04,LBP03,-1608,43,4,42,-1608,1715747651.68,2024-05-15 04:34:11.680000+00:00,2024-05-15 13:34:11.680000+09:00,2024,5,15,4,34,11,680,,,,,,,,,0.162842,-0.087402,1.178467,122.375488,167.724609,30.212402,,,,,,,,,,,0.0,1.0,1.0,4.0,0.0,0.0,0.0,5.0,0.0,0.08251958666666667,-0.20947917333333335,1.0438346533333334,-2.0377603733333336,2.0467123066666675,-1.2727864933333337,30.35345099794802,12.428283376894715,-2.9433012412453112,-7.161821851773909,-3.641139713985719,1.4564937111083425,8.165228997634323,-1.1898315209316457,8.767527771782648,-1.1576279071302735,0.08032241333333331,0.12207717333333336,0.13463234666666657,0.33703193333333326,0.19869674154781966,0.7679720152354724,0.7679720152354724,0.7679720152354724
LBP03_S04,LBP03,-1607,44,4,43,-1607,1715747651.72,2024-05-15 04:34:11.720000+00:00,2024-05-15 13:34:11.720000+09:00,2024,5,15,4,34,11,720,,,,,,,,,-0.438965,0.182129,-0.267334,82.824707,17.272949,-91.97998,,,,,,,,,,,0.0,1.0,1.0,4.0,0.0,0.0,0.0,5.0,0.0,0.09193038666666667,-0.21658854666666666,1.0514583466666667,-3.18684892,-1.4583332666666657,-1.7260742533333338,30.921665308637603,10.821938362999566,-2.669619715607324,-5.924955239428405,-3.2082621794657364,1.3497089224840495,6.871663188548562,-1.1632546555092407,7.740861175413682,-1.1614096889223862,-0.5308953866666667,0.3987175466666667,-1.3187923466666667,2.24840528,1.4764954612969214,0.869189650387108,0.869189650387108,0.869189650387108
LBP03_S04,LBP03,-1606,45,4,44,-1606,1715747651.76,2024-05-15 04:34:11.760000+00:00,2024-05-15 13:34:11.760000+09:00,2024,5,15,4,34,11,760,,,,,,,,,0.23877,-0.247559,0.376953,34.851074,-103.33252,-59.997559,,,,,,,,,,,0.0,1.0,1.0,4.0,0.0,0.0,0.0,5.0,0.0,0.10241866666666667,-0.21515626666666668,1.06131512,0.22786462666666657,-1.3460285866666657,-1.8872070666666674,29.060481437922654,9.021413774802742,-2.6757389167386885,-4.7625359819114985,-2.8474056284736267,1.242679365814502,5.686274685440912,-1.1204703047967464,6.755076975556709,-1.159972264707688,0.13635133333333332,-0.03240273333333332,-0.68436212,0.8531161866666666,0.6985650538927232,0.8478615758253099,0.8478615758253099,0.8478615758253099
LBP03_S04,LBP03,-1605,46,4,45,-1605,1715747651.8,2024-05-15 04:34:11.800000+00:00,2024-05-15 13:34:11.800000+09:00,2024,5,15,4,34,11,800,,,,,,,,,0.539307,0.152832,0.998047,83.129883,-22.399902,-21.850586,,,,,,,,,,,0.0,1.0,1.0,4.0,0.0,0.0,0.0,5.0,0.0,0.10050786666666667,-0.20549156000000002,1.0703353066666665,0.5403646266666665,1.426595120000001,-0.8699544666666672,25.11125496564168,7.229304659021661,-3.0535685169274833,-3.758085783285831,-2.55823344211276,1.1205366251374025,4.682239787447189,-1.1104656901581296,5.841843168872637,-1.159549546598177,0.4387991333333333,0.35832356,-0.07228830666666652,0.8694109999999998,0.571109492431961,0.81711134433716,0.81711134433716,0.81711134433716
LBP03_S04,LBP03,-1604,47,4,46,-1604,1715747651.84,2024-05-15 04:34:11.840000+00:00,2024-05-15 13:34:11.840000+09:00,2024,5,15,4,34,11,840,,,,,,,,,0.219238,0.128662,1.423096,-114.624023,16.113281,83.251953,,,,,,,,,,,0.0,1.0,1.0,4.0,0.0,0.0,0.0,5.0,0.0,0.09076177333333334,-0.21764325333333331,1.0877767066666666,-2.0857746933333337,2.827148506666668,-0.036621133333333944,19.942051391710127,5.507082946846678,-3.911703422059904,-2.960403727617426,-2.337950124238893,0.9640684882550064,3.893511148560654,-1.1699311813066546,5.028229325763005,-1.1616846485976702,0.12847622666666664,0.3463052533333333,0.3353192933333333,0.8101007733333332,0.4988712236502872,0.7852873322684728,0.7852873322684728,0.7852873322684728
LBP03_S04,LBP03,-1603,48,4,47,-1603,1715747651.88,2024-05-15 04:34:11.880000+00:00,2024-05-15 13:34:11.880000+09:00,2024,5,15,4,34,11,880,,,,,,,,,0.014648,-1.075439,2.175049,-31.188965,-12.268066,38.879395,,,,,,,,,,,0.0,1.0,1.0,4.0,0.0,0.0,0.0,5.0,0.0,0.09269861333333333,-0.22463869333333336,1.0968392133333333,-1.8432616800000001,1.9661459066666676,-0.38330081333333377,14.64318115707116,3.7786395077037658,-5.204223627049986,-2.3746764813345798,-2.1868045439307426,0.7558995431730069,3.3155069934670447,-1.1734014687375367,4.332299280760499,-1.158524941550967,-0.07805061333333334,-0.8508003066666667,1.0782097866666667,2.0070607066666666,1.375677798079762,0.8389591927967718,0.8389591927967718,0.8389591927967718
LBP03_S04,LBP03,-1602,49,4,48,-1602,1715747651.92,2024-05-15 04:34:11.920000+00:00,2024-05-15 13:34:11.920000+09:00,2024,5,15,4,34,11,920,,,,,,,,,0.11377,0.013916,1.500732,43.273926,38.635254,30.151367,,,,,,,,,,,0.0,1.0,1.0,4.0,0.0,0.0,0.0,5.0,0.0,0.09313479999999999,-0.21571615999999996,1.0851237200000001,1.4672851999999998,4.2089844533333345,-0.7877604533333337,10.207200770359092,1.9707456500971763,-6.593517171292422,-1.966388450520216,-2.1079747179268558,0.49215885632131,2.9244591448015824,-1.1574772565693947,3.7604584087626485,-1.1511546205636294,0.020635200000000006,0.22963215999999997,0.41560827999999983,0.6658756399999999,0.47527569135172887,0.8086522343430183,0.8086522343430183,0.8086522343430183
LBP03_S04,LBP03,-1601,50,4,49,-1601,1715747651.96,2024-05-15 04:34:11.960000+00:00,2024-05-15 13:34:11.960000+09:00,2024,5,15,4,34,11,960,,,,,,,,,0.013184,-0.343994,0.961914,49.865723,127.258301,10.803223,,,,,,,,,,,0.0,1.0,1.0,4.0,0.0,0.0,0.0,5.0,0.0,0.08653649333333333,-0.21511069333333335,1.06675132,1.5299479599999999,5.511881586666667,-1.7431640933333334,7.335582316805584,0.1877016571504667,-7.496797997629252,-1.6729651578479927,-2.1004666516408372,0.19228693641613992,2.6921639697360438,-1.1825194169199453,3.3106978065740895,-1.145751458579798,-0.07335249333333332,-0.12888330666666667,-0.10483732000000001,0.30707312,0.1816104586204582,0.760418251595129,0.760418251595129,0.760418251595129
LBP03_S04,LBP03,-1600,51,4,50,-1600,1715747652.0,2024-05-15 04:34:12+00:00,2024-05-15 13:34:12+09:00,2024,5,15,4,34,12,0,4.0,34.0,12.0,40.54137,141.522552,10.259,3.0,13.0,-0.380615,0.17041,-0.14624,58.410645,24.841309,-110.473633,-269.0,60.0,353.0,2934.0,0.0,1017.900024,32.200001,0.048558,-38.620209,3.895313,0.0,1.0,1.0,4.0,0.0,0.0,0.0,4.0,0.0,0.08755537333333334,-0.21203126666666666,1.0585091333333332,0.4907227066666667,2.038574293333334,-2.6896159200000005,6.386770716690616,-1.2332757830020318,-7.346938296430739,-1.417494329180368,-2.1497976829609184,-0.10159059544108967,2.577060515394373,-1.173418472775875,2.980282500871418,-1.1495429806672106,-0.46817037333333333,0.38244126666666667,-1.204749133333333,2.0553607733333332,1.3479114567300385,0.8023820519619083,0.8023820519619083,0.8023820519619083
LBP03_S04,LBP03,-1599,52,4,51,-1599,1715747652.04,2024-05-15 04:34:12.040000+00:00,2024-05-15 13:34:12.040000+09:00,2024,5,15,4,34,12,40,,,,,,,,,0.335449,-0.126709,0.40332,1.403809,-156.066895,-91.308594,,,,,,,,,,,0.0,1.0,1.0,4.0,0.0,0.0,0.0,4.0,0.0,0.09672529333333334,-0.2164258,1.0662011866666667,0.5476888533333333,-1.0099283066666658,-3.233235706666667,7.375176089900651,-1.8748890147954689,-5.936700499125313,-1.122487285584342,-2.224793243552737,-0.33905861540610216,2.5148843765743023,-1.1444794478045026,2.768531228979233,-1.1545553415390017,0.23872370666666665,0.08971680000000001,-0.6628811866666667,0.9913216933333334,0.7102461404073386,0.7962396578582703,0.7962396578582703,0.7962396578582703
LBP03_S04,LBP03,-1598,53,4,52,-1598,1715747652.08,2024-05-15 04:34:12.080000+00:00,2024-05-15 13:34:12.080000+09:00,2024,5,15,4,34,12,80,,,,,,,,,0.604492,-0.097168,1.10791,4.272461,-72.998047,-22.033691,,,,,,,,,,,0.0,1.0,1.0,4.0,0.0,0.0,0.0,4.0,0.0,0.10364912,-0.21524416000000002,1.0755729333333333,1.6512044666666663,0.07405606666666756,-2.45849612,9.935088662613463,-1.5357247303936123,-3.6265028681529463,-0.7250837390798035,-2.286222232768482,-0.48411873013222,2.446820277655816,-1.1161283110582685,2.668359511537879,-1.1529476411650383,0.50084288,0.11807616000000001,0.03233706666666669,0.6512561066666667,0.5155882619762057,0.7786989456156412,0.7786989456156412,0.7786989456156412
LBP03_S04,LBP03,-1597,54,4,53,-1597,1715747652.12,2024-05-15 04:34:12.120000+00:00,2024-05-15 13:34:12.120000+09:00,2024,5,15,4,34,12,120,,,,,,,,,0.177979,0.144287,1.484863,-85.9375,57.373047,67.443848,,,,,,,,,,,0.0,1.0,1.0,4.0,0.0,0.0,0.0,4.0,0.0,0.10233075999999999,-0.20857098666666668,1.0844856933333333,1.6625977066666666,2.5545248133333343,-0.8553060133333334,13.260370454984477,-0.4685885545364989,-1.2523728630912379,-0.19466892088042442,-2.3049657749499417,-0.5342136446558695,2.374057166662977,-1.1092230356709278,2.659011978067508,-1.1531607848370924,0.07564824,0.3528579866666667,0.4003773066666667,0.8288835333333334,0.5390115051306468,0.7645996844106415,0.7645996844106415,0.7645996844106415
LBP03_S04,LBP03,-1596,55,4,54,-1596,1715747652.16,2024-05-15 04:34:12.160000+00:00,2024-05-15 13:34:12.160000+09:00,2024,5,15,4,34,12,160,,,,,,,,,0.035156,-1.378418,2.394287,-36.437988,-48.88916,43.762207,,,,,,,,,,,0.0,1.0,1.0,4.0,0.0,0.0,0.0,4.0,0.0,0.09700198666666666,-0.22545250666666666,1.10002932,-0.8268228666666666,2.2786459066666676,0.4777018,16.12727138216924,0.6325167089646198,0.2511782436159783,0.45042193440634526,-2.279665106591357,-0.5241665149112303,2.3821216284142004,-1.1583855256708717,2.7095923174401424,-1.1538937159165337,-0.061845986666666665,-1.1529654933333333,1.2942576799999999,2.50906916,1.7344328459537233,0.8184793044963683,0.8184793044963683,0.8184793044963683
LBP03_S04,LBP03,-1595,56,4,55,-1595,1715747652.2,2024-05-15 04:34:12.200000+00:00,2024-05-15 13:34:12.200000+09:00,2024,5,15,4,34,12,200,,,,,,,,,0.091553,-0.472656,1.790039,55.908203,10.803223,56.213379,,,,,,,,,,,0.0,1.0,1.0,4.0,0.0,0.0,0.0,4.0,0.0,0.09703778666666665,-0.22692061333333333,1.1051269733333333,1.65201828,2.911783920000001,0.5118814799999999,17.115810787809224,0.9343602171341109,0.3172323253503784,1.1350543659187142,-2.2422906979059927,-0.5114772218972152,2.5647270685253374,-1.1605892988760407,2.789196692562985,-1.147646104493709,-0.005484786666666658,-0.2457353866666667,0.6849120266666666,0.9361322,0.7276815563264164,0.8137004756453182,0.8137004756453182,0.8137004756453182
LBP03_S04,LBP03,-1594,57,4,56,-1594,1715747652.24,2024-05-15 04:34:12.240000+00:00,2024-05-15 13:34:12.240000+09:00,2024,5,15,4,34,12,240,,,,,,,,,0.144287,-0.112305,1.008789,71.533203,143.249512,54.260254,,,,,,,,,,,0.0,1.0,1.0,4.0,0.0,0.0,0.0,4.0,0.0,0.09608726666666667,-0.22045252,1.0948014533333335,4.529622453333334,5.250651106666667,0.35074868,15.040135467514434,-0.09170779337887638,-0.9551878393800826,1.7366597846192917,-2.245959009641148,-0.5496847354724186,2.8917939741471126,-1.1538541775670217,2.87893212753079,-1.1421364645447383,0.04819973333333333,0.10814752000000001,-0.08601245333333352,0.24235970666666684,0.14634631018229916,0.7803327673721673,0.7803327673721673,0.7803327673721673
LBP03_S04,LBP03,-1593,58,4,57,-1593,1715747652.28,2024-05-15 04:34:12.280000+00:00,2024-05-15 13:34:12.280000+09:00,2024,5,15,4,34,12,280,,,,,,,,,-0.406982,0.516846,-0.165039,104.797363,107.055664,-68.725586,,,,,,,,,,,0.0,1.0,1.0,4.0,0.0,0.0,0.0,4.0,0.0,0.08933596,-0.21772140000000004,1.0745280133333333,5.363769586666667,5.452474013333334,-0.8251953333333334,9.441885968201172,-2.3289646591068816,-2.833531024369535,2.1143352233473385,-2.339117596005423,-0.6630259764472,3.2220316587633326,-1.1755329054580748,2.9792850805663864,-1.1417868739273125,-0.49631796,0.7345674000000001,-1.2395670133333332,2.470452373333333,1.5239577300914358,0.8157434798826086,0.8157434798826086,0.8157434798826086
LBP03_S04,LBP03,-1592,59,4,58,-1592,1715747652.32,2024-05-15 04:34:12.320000+00:00,2024-05-15 13:34:12.320000+09:00,2024,5,15,4,34,12,320,,,,,,,,,0.304443,-0.392334,0.420898,-46.875,-145.568848,-51.635742,,,,,,,,,,,0.0,1.0,1.0,4.0,0.0,0.0,0.0,4.0,0.0,0.09030926666666667,-0.21350265333333335,1.0642610933333332,4.7843425066666665,2.5472005733333343,-2.20784508,0.9076829790373175,-4.987176298339293,-4.294846795213777,2.150642542508831,-2.5386046479389948,-0.8348198482557511,3.430262538527929,-1.1648065673638108,3.1040311831912195,-1.1483503451008683,0.21413373333333335,-0.17883134666666667,-0.6433630933333332,1.0363281733333332,0.701248868922667,0.8105391793844294,0.8105391793844294,0.8105391793844294
LBP03_S04,LBP03,-1591,60,4,59,-1591,1715747652.36,2024-05-15 04:34:12.360000+00:00,2024-05-15 13:34:12.360000+09:00,2024,5,15,4,34,12,360,,,,,,,,,0.267578,-0.203369,0.664551,71.105957,-70.373535,-88.012695,,,,,,,,,,,0.0,1.0,1.0,4.0,0.0,0.0,0.0,4.0,0.0,0.10280601333333333,-0.21566085333333335,1.07560224,4.154459693333334,-0.8487955199999989,-2.1232096666666664,-8.98141982169053,-6.932178962098959,-4.492906748191204,1.79138574964121,-2.815891806422953,-1.0145361181833992,3.488207720964473,-1.1200433026916956,3.2628713995908365,-1.1555859490331732,0.16477198666666665,0.012291853333333352,-0.41105124000000004,0.58811508,0.4430169513167482,0.794559952077139,0.794559952077139,0.794559952077139
LBP03_S04,LBP03,-1590,61,4,60,-1590,1715747652.4,2024-05-15 04:34:12.400000+00:00,2024-05-15 13:34:12.400000+09:00,2024,5,15,4,34,12,400,,,,,,,,,0.486572,0.336426,1.05542,-7.8125,-20.996094,-8.666992,,,,,,,,,,,0.0,1.0,1.0,4.0,0.0,0.0,0.0,4.0,0.0,0.10276044,-0.21451826666666668,1.0862500266666668,5.307617240000001,2.102050840000001,-0.8064779066666667,-18.09996202764617,-7.205595518404126,-3.1048825447142643,1.0673872685353631,-3.104115627159118,-1.1387314199719698,3.4744148650724207,-1.1183220732861703,3.4473350015107327,-1.1592471692622381,0.38381156,0.5509442666666666,-0.030830026666666788,0.9655858533333335,0.6721617283859385,0.7894600260900057,0.7894600260900057,0.7894600260900057
LBP03_S04,LBP03,-1589,62,4,61,-1589,1715747652.44,2024-05-15 04:34:12.440000+00:00,2024-05-15 13:34:12.440000+09:00,2024,5,15,4,34,12,440,,,,,,,,,0.272217,-0.385254,1.715088,-226.806641,-13.85498,77.941895,,,,,,,,,,,0.0,1.0,1.0,4.0,0.0,0.0,0.0,4.0,0.0,0.09809897333333333,-0.21726565333333336,1.10206384,4.112141973333334,3.4830729733333343,0.9391275733333333,-24.472958442863643,-5.456526779056731,-0.39803076216281197,0.08846893082081742,-3.3223766983213876,-1.1546526504584822,3.5184139069302662,-1.1409835416302425,3.6321149550927316,-1.163627283770017,0.17411802666666665,-0.16798834666666662,0.6130241599999999,0.9551305333333332,0.6590415712000266,0.7842432878944063,0.7842432878944063,0.7842432878944063
LBP03_S04,LBP03,-1588,63,4,62,-1588,1715747652.48,2024-05-15 04:34:12.480000+00:00,2024-05-15 13:34:12.480000+09:00,2024,5,15,4,34,12,480,,,,,,,,,-0.206787,-0.680176,2.046631,-94.726562,-28.564453,28.381348,,,,,,,,,,,0.0,1.0,1.0,4.0,0.0,0.0,0.0,4.0,0.0,0.09084312,-0.2253516,1.11371748,4.4108073333333335,3.2104492666666675,1.2076822666666664,-26.9302910166765,-2.077030493477956,2.970387836072622,-0.9887427098462426,-3.405457918060506,-1.0358371370155772,3.6942813039041456,-1.1817630227938263,3.7917055346687945,-1.1673699054814777,-0.29763012,-0.4548244,0.93291352,1.6853680400000002,1.079711331312849,0.8031377130591695,0.7956074434105004,0.7956074434105004
LBP03_S04,LBP03,-1587,64,4,63,-1587,1715747652.52,2024-05-15 04:34:12.520000+00:00,2024-05-15 13:34:12.520000+09:00,2024,5,15,4,34,12,520,,,,,,,,,0.266602,-0.454102,1.879883,5.249023,8.911133,40.710449,,,,,,,,,,,0.0,1.0,1.0,4.0,0.0,0.0,0.0,4.0,0.0,0.09364910666666666,-0.23244469333333337,1.1122754266666668,7.019043013333334,4.242350306666668,0.5574544,-25.426009640593954,1.9910247072364553,6.2608216217775166,-2.005783095470001,-3.325816929771048,-0.7854042721444765,3.9624593306591467,-1.1815790749939779,3.913987730136783,-1.1623685209269996,0.17295289333333336,-0.22165730666666664,0.7676075733333332,1.1622177733333332,0.8174754134221901,0.818199682248985,0.7964173682257482,0.7964173682257482
LBP03_S04,LBP03,-1586,65,4,64,-1586,1715747652.56,2024-05-15 04:34:12.560000+00:00,2024-05-15 13:34:12.560000+09:00,2024,5,15,4,34,12,560,,,,,,,,,0.011963,-0.381348,1.098145,83.80127,172.424316,41.870117,,,,,,,,,,,0.0,1.0,1.0,4.0,0.0,0.0,0.0,4.0,0.0,0.08478517333333334,-0.21853193333333332,1.0862825866666668,8.399251346666668,6.771647173333334,-0.07324221333333328,-20.882674061269448,5.651003603050127,8.880126166966225,-2.8410900579207787,-3.0997767856490426,-0.4301992254658275,4.2267576476131685,-1.1949977279615203,3.999132218562015,-1.1613898210771834,-0.07282217333333334,-0.1628160666666667,0.011862413333333155,0.2475006533333332,0.17875362190424376,0.7930965277991625,0.7743579487142658,0.7743579487142658
LBP03_S04,LBP03,-1585,66,4,65,-1585,1715747652.6,2024-05-15 04:34:12.600000+00:00,2024-05-15 13:34:12.600000+09:00,2024,5,15,4,34,12,600,,,,,,,,,-0.476074,0.263428,-0.297607,58.410645,1.098633,-80.505371,,,,,,,,,,,0.0,1.0,1.0,4.0,0.0,0.0,0.0,4.0,0.0,0.0825456,-0.21893884,1.0670280266666667,6.755371146666667,4.24804692,-0.7975260666666666,-14.67884781963926,8.044016313088969,10.438086070809423,-3.4282439707063492,-2.778016133125484,-0.012675782633450594,4.412526604345324,-1.2043904439538307,4.050341393108658,-1.1687725031398748,-0.5586196,0.48236683999999996,-1.3646350266666667,2.4056214666666667,1.551438810214982,0.8013376582654087,0.8011538404901526,0.8011538404901526
LBP03_S04,LBP03,-1584,67,4,66,-1584,1715747652.64,2024-05-15 04:34:12.640000+00:00,2024-05-15 13:34:12.640000+09:00,2024,5,15,4,34,12,640,,,,,,,,,0.382324,-0.254639,0.792969,9.58252,-105.895996,-63.903809,,,,,,,,,,,0.0,1.0,1.0,4.0,0.0,0.0,0.0,4.0,0.0,0.08472006666666668,-0.21609378666666668,1.0594271066666665,7.378743533333335,1.4632161866666673,-2.3990885733333336,-8.085672687295657,8.763332270759337,10.677333048129066,-3.7516708781981754,-2.4274828422951105,0.41441753929171204,4.487699769907743,-1.191280394681627,4.065415327817359,-1.1771400014510296,0.29760393333333335,-0.03854521333333333,-0.26645810666666647,0.6026072533333331,0.40131503487256476,0.7690256423688792,0.7878258803028998,0.7878258803028998
LBP03_S04,LBP03,-1583,68,4,67,-1583,1715747652.68,2024-05-15 04:34:12.680000+00:00,2024-05-15 13:34:12.680000+09:00,2024,5,15,4,34,12,680,,,,,,,,,0.599121,0.136719,1.647461,45.166016,-3.295898,18.676758,,,,,,,,,,,0.0,1.0,1.0,4.0,0.0,0.0,0.0,4.0,0.0,0.10028321333333334,-0.21330733333333332,1.0738607066666666,5.149739626666667,0.31982426666666736,-1.2394205999999999,-1.9406042624185758,7.843726867633654,9.409371752168925,-3.8292950486949184,-2.113733767589764,0.7907924093784691,4.444853613443219,-1.125519059913294,4.036066222096514,-1.1803928317017482,0.49883778666666667,0.35002633333333333,0.5736002933333335,1.4224644133333335,0.8368840229956376,0.7945531336267918,0.7894084010349235,0.7894084010349235
LBP03_S04,LBP03,-1582,69,4,68,-1582,1715747652.72,2024-05-15 04:34:12.720000+00:00,2024-05-15 13:34:12.720000+09:00,2024,5,15,4,34,12,720,,,,,,,,,-0.128174,-0.442627,2.013428,-213.07373,23.864746,93.078613,,,,,,,,,,,0.0,1.0,1.0,4.0,0.0,0.0,0.0,4.0,0.0,0.09726888000000002,-0.22403976,1.0873014666666667,3.1258138399999997,2.056477906666667,0.9773762666666668,3.3479070643752595,5.621744676864962,6.562051315687015,-3.6953787661199082,-1.8888639805151657,1.0532744620059495,4.281707422780241,-1.1550195688656493,3.9577558867747364,-1.1808145668228165,-0.22544288,-0.21858724,0.9261265333333335,1.3701566533333334,0.9779137126441831,0.7746098636806822,0.7952991920227128,0.7952991920227128
LBP03_S04,LBP03,-1581,70,4,69,-1581,1715747652.76,2024-05-15 04:34:12.760000+00:00,2024-05-15 13:34:12.760000+09:00,2024,5,15,4,34,12,760,,,,,,,,,-0.309082,-0.615479,2.091797,31.37207,-39.978027,22.033691,,,,,,,,,,,0.0,1.0,1.0,4.0,0.0,0.0,0.0,4.0,0.0,0.08847005333333334,-0.22755864000000003,1.0905078533333332,4.652506546666666,1.923828160000001,1.2540689733333334,7.591865500383577,2.6043608811416394,2.321476316388488,-3.391704146104565,-1.7846895452695002,1.146133514661489,4.0002994664309135,-1.1938701233186102,3.839898919566694,-1.1801505289646124,-0.3975520533333334,-0.38792035999999996,1.001289146666667,1.7867615600000002,1.1450370282416813,0.7924687426546404,0.8058973082717724,0.8058973082717724
LBP03_S04,LBP03,-1580,71,4,70,-1580,1715747652.8,2024-05-15 04:34:12.800000+00:00,2024-05-15 13:34:12.800000+09:00,2024,5,15,4,34,12,800,,,,,,,,,0.10791,-0.656494,1.719971,9.765625,49.255371,35.339355,,,,,,,,,,,0.0,1.0,1.0,4.0,0.0,0.0,0.0,4.0,0.0,0.08924805333333334,-0.23550134666666664,1.0855078533333333,6.1580404,1.0473633066666672,0.8154296400000001,10.636713979351322,-0.5943005272108676,-2.761057793965204,-2.9662355869305124,-1.8084615663579349,1.0356912029028809,3.625154212159424,-1.2019970563977163,3.7019505367749077,-1.1730688639266655,0.018661946666666665,-0.42099265333333336,0.6344631466666666,1.0741177466666665,0.7616604012893133,0.8000907790089348,0.8045962227722885,0.8045962227722885
LBP03_S04,LBP03,-1579,72,4,71,-1579,1715747652.84,2024-05-15 04:34:12.840000+00:00,2024-05-15 13:34:12.840000+09:00,2024,5,15,4,34,12,840,,,,,,,,,-0.240967,0.252441,0.096924,115.783691,177.91748,-11.169434,,,,,,,,,,,0.0,1.0,1.0,4.0,0.0,0.0,0.0,4.0,0.0,0.09190754666666667,-0.22297856000000002,1.0622917066666666,9.090169306666667,3.776041693333334,0.9765624533333335,12.342766375300455,-3.2951472275623956,-7.827984331726752,-2.4725249319184943,-1.9402674554604307,0.7225718296338108,3.2249228497218043,-1.1735118441374288,3.56197775606651,-1.1631127916166757,-0.33287454666666666,0.4754195600000001,-0.9653677066666666,1.7736618133333333,1.1263942608713842,0.8251917004977786,0.8137904524322626,0.8137904524322626
LBP03_S04,LBP03,-1578,73,4,72,-1578,1715747652.88,2024-05-15 04:34:12.880000+00:00,2024-05-15 13:34:12.880000+09:00,2024,5,15,4,34,12,880,,,,,,,,,-0.040039,-0.076416,0.169922,-9.765625,-157.104492,-84.594727,,,,,,,,,,,0.0,1.0,1.0,4.0,0.0,0.0,0.0,4.0,0.0,0.08387694666666666,-0.21069014666666666,1.0300521200000001,10.026855506666667,4.354654973333334,-0.16113285333333305,12.707953249285696,-4.862523332354438,-11.960371484605172,-1.9642068019470664,-2.1347683887546083,0.24415697024960392,2.911177950686377,-1.1859803740045083,3.4321017129533375,-1.156287123175171,-0.12391594666666667,0.13427414666666665,-0.8601301200000001,1.1183202133333334,0.8793227687445447,0.8053374993243697,0.8156107945520481,0.8156107945520481
LBP03_S04,LBP03,-1577,74,4,73,-1577,1715747652.92,2024-05-15 04:34:12.920000+00:00,2024-05-15 13:34:12.920000+09:00,2024,5,15,4,34,12,920,,,,,,,,,0.292725,-0.252686,0.825195,39.306641,-109.25293,-101.989746,,,,,,,,,,,0.0,1.0,1.0,4.0,0.0,0.0,0.0,4.0,0.0,0.08613930666666668,-0.2096973066666667,1.0173796000000002,9.010416693333333,0.5362956000000006,-1.1531575999999997,11.987145210825496,-4.902930114491423,-14.49355898260818,-1.4847209935140466,-2.330885593334265,-0.33558538905472324,2.783889658578726,-1.1749386964119373,3.3206138469876727,-1.158717178778741,0.20658569333333332,-0.04298869333333333,-0.19218460000000015,0.4417589866666668,0.2854130286473998,0.7977429928161966,0.8012811252032739,0.8012811252032739
LBP03_S04,LBP03,-1576,75,4,74,-1576,1715747652.96,2024-05-15 04:34:12.960000+00:00,2024-05-15 13:34:12.960000+09:00,2024,5,15,4,34,12,960,,,,,,,,,0.666504,0.356201,1.157471,62.988281,13.305664,1.220703,,,,,,,,,,,0.0,1.0,1.0,4.0,0.0,0.0,0.0,4.0,0.0,0.09956704,-0.21128909333333332,1.0251628,9.240722680000001,-2.5415038799999996,-0.3149414533333332,10.682955535201971,-3.4557839180597782,-15.226158040441309,-1.0574027721059678,-2.469116950056656,-0.9446317106723756,2.847273819695304,-1.1241810775820527,3.235110381452415,-1.1540940053054827,0.56693696,0.5674900933333333,0.1323082,1.2667352533333334,0.8129993741896466,0.8229985494389642,0.8015895001765996,0.8015895001765996
LBP03_S04,LBP03,-1575,76,4,75,-1575,1715747653.0,2024-05-15 04:34:13+00:00,2024-05-15 13:34:13+09:00,2024,5,15,4,34,13,0,4.0,34.0,13.0,40.541416,141.522354,9.603,3.0,13.0,0.050293,-0.683594,1.880859,-207.763672,23.742676,66.955566,-266.0,59.0,351.0,2950.0,0.0,1018.099976,32.240002,0.05054,-40.277672,3.895313,0.0,1.0,1.0,4.0,0.0,0.0,0.0,4.0,0.0,0.10172849333333334,-0.20526045333333337,1.0302279066666666,9.580078146666668,-0.4345702933333328,1.4331054133333334,9.394006892667573,-1.0188064480718069,-14.40456903708312,-0.6816424963992649,-2.5098692079795284,-1.5208144721557004,3.0127987972613486,-1.1048297208539344,3.183803983363815,-1.1471071910022321,-0.05143549333333334,-0.47833354666666666,0.8506310933333334,1.3804001333333336,0.9772521930323911,0.8081721788910582,0.8060936717882864,0.8060936717882864
LBP03_S04,LBP03,-1574,77,4,76,-1574,1715747653.04,2024-05-15 04:34:13.040000+00:00,2024-05-15 13:34:13.040000+09:00,2024,5,15,4,34,13,40,,,,,,,,,-0.0625,-0.36377,1.938232,131.774902,-5.615234,1.342773,,,,,,,,,,,0.0,1.0,1.0,4.0,0.0,0.0,0.0,4.0,0.0,0.09703122666666666,-0.20505864000000001,1.0326725733333333,6.355794293333335,-0.47200519999999946,3.02164708,8.61145855172871,1.6621146811739063,-12.511265344541924,-0.3371841543301165,-2.443384620732572,-2.0212650859373773,3.1889393387760143,-1.1230237102665794,3.1745435249588403,-1.1400953654759751,-0.15953122666666666,-0.15871135999999997,0.9055594266666667,1.2238020133333332,0.9331009502190442,0.8170863712835265,0.8092688537490554,0.8092688537490554
LBP03_S04,LBP03,-1573,78,4,77,-1573,1715747653.08,2024-05-15 04:34:13.080000+00:00,2024-05-15 13:34:13.080000+09:00,2024,5,15,4,34,13,80,,,,,,,,,0.200928,-0.702148,1.571045,-5.67627,53.100586,36.437988,,,,,,,,,,,0.0,1.0,1.0,4.0,0.0,0.0,0.0,4.0,0.0,0.09505206666666666,-0.21596684000000002,1.0332227066666666,8.492838560000001,-1.2068684799999994,2.1842447333333332,8.580782094919659,3.9429838732919538,-10.00984065351118,0.006047129466669854,-2.285665265800894,-2.4216587120778246,3.3299749537865724,-1.1498196159489915,3.2120939912873587,-1.1342115366933636,0.10587593333333334,-0.48618116,0.5378222933333334,1.1298793866666668,0.7326900113994159,0.825770441260455,0.8074010771063812,0.8074010771063812
LBP03_S04,LBP03,-1572,79,4,78,-1572,1715747653.12,2024-05-15 04:34:13.120000+00:00,2024-05-15 13:34:13.120000+09:00,2024,5,15,4,34,13,120,,,,,,,,,-0.280518,0.171875,0.140625,75.683594,189.086914,-16.479492,,,,,,,,,,,0.0,1.0,1.0,4.0,0.0,0.0,0.0,4.0,0.0,0.10096026666666667,-0.20582686666666666,1.02080408,8.421223973333333,0.15462241333333396,2.465006453333334,9.282099944007628,5.568898706344407,-7.2085904223526835,0.377331127226975,-2.062909317547118,-2.7100023289719317,3.426672767427667,-1.1087878341330688,3.294843310045336,-1.123704326881522,-0.3814782666666667,0.37770186666666666,-0.88017908,1.6393592133333335,1.030970213387436,0.8454487895907264,0.8127241517797398,0.8127241517797398
LBP03_S04,LBP03,-1571,80,4,79,-1571,1715747653.16,2024-05-15 04:34:13.160000+00:00,2024-05-15 13:34:13.160000+09:00,2024,5,15,4,34,13,160,,,,,,,,,-0.19043,0.03418,-0.078613,-67.443848,-91.85791,-57.617188,,,,,,,,,,,0.0,1.0,1.0,4.0,0.0,0.0,0.0,4.0,0.0,0.09182939999999999,-0.19446618666666665,0.99524744,9.039713560000001,3.5253906400000004,1.9718423866666668,10.494912931011656,6.715486119611175,-4.29993614840605,0.7971276444674413,-1.7942898727626708,-2.8819997749081736,3.487235485544912,-1.1240019802861045,3.414019125808565,-1.116750259788635,-0.2822594,0.22864618666666664,-1.07386044,1.5847660266666668,1.1336338439560465,0.8214168295108195,0.8201871678768632,0.8201871678768632
LBP03_S04,LBP03,-1570,81,4,80,-1570,1715747653.2,2024-05-15 04:34:13.200000+00:00,2024-05-15 13:34:13.200000+09:00,2024,5,15,4,34,13,200,,,,,,,,,0.166992,-0.176025,0.323486,-0.732422,-100.952148,-70.556641,,,,,,,,,,,0.0,1.0,1.0,4.0,0.0,0.0,0.0,4.0,0.0,0.08946612,-0.1934408,0.9808236133333332,5.97737632,-0.48909502666666604,0.9318033333333335,11.88558029942269,7.740554215702161,-1.4996614776136317,1.272550856444349,-1.4846677041345844,-2.941986234012719,3.532549628109681,-1.131878801135145,3.558503951930638,-1.1209080506440787,0.07752588,0.01741580000000001,-0.6573376133333333,0.7522792933333333,0.6621225793326921,0.8187944704310705,0.8165947908644956,0.8165947908644956
LBP03_S04,LBP03,-1569,82,4,81,-1569,1715747653.24,2024-05-15 04:34:13.240000+00:00,2024-05-15 13:34:13.240000+09:00,2024,5,15,4,34,13,240,,,,,,,,,0.766113,-0.335938,0.893799,79.89502,-97.229004,-14.892578,,,,,,,,,,,0.0,1.0,1.0,4.0,0.0,0.0,0.0,4.0,0.0,0.09753578666666667,-0.2018978266666667,0.9922656666666667,4.79166668,-1.9824218399999995,1.797688746666667,13.089281173996008,8.79644065577079,0.8612584204311848,1.7961221034041894,-1.1328100779037529,-2.9075358971954715,3.600427513006986,-1.114673556311314,3.7204296273771575,-1.1232666582626643,0.6685772133333334,-0.13404017333333332,-0.0984666666666667,0.9010840533333334,0.6889542384659813,0.8404987875624178,0.8137583341445287,0.8137583341445287
LBP03_S04,LBP03,-1568,83,4,82,-1568,1715747653.28,2024-05-15 04:34:13.280000+00:00,2024-05-15 13:34:13.280000+09:00,2024,5,15,4,34,13,280,,,,,,,,,-0.007812,0.376953,1.005371,40.039062,96.313477,55.603027,,,,,,,,,,,0.0,1.0,1.0,4.0,0.0,0.0,0.0,4.0,0.0,0.10296872,-0.19571291999999998,1.0027604533333334,5.5468750133333335,-1.1075845999999994,2.6318358933333337,13.785689353767498,9.572249147242314,2.401964630265743,2.3475496775548894,-0.7499201120140604,-2.811457311984842,3.7386711382661457,-1.0809082758860942,3.896232741084687,-1.1257821683944522,-0.11078072,0.5726659199999999,0.002610546666666602,0.6860571866666665,0.5832884696332198,0.8028720171440891,0.8087481196986306,0.8087481196986306
LBP03_S04,LBP03,-1567,84,4,83,-1567,1715747653.32,2024-05-15 04:34:13.320000+00:00,2024-05-15 13:34:13.320000+09:00,2024,5,15,4,34,13,320,,,,,,,,,-0.153564,-0.999023,1.974609,-109.008789,-10.498047,62.62207,,,,,,,,,,,0.0,1.0,1.0,4.0,0.0,0.0,0.0,4.0,0.0,0.09672197333333334,-0.19526696000000002,1.0112305066666667,2.8564453199999997,-0.09684241333333261,4.0242512533333334,13.765382113347885,9.366007602553523,2.8995809810084925,2.8981649620888046,-0.37527980791191945,-2.695474072744502,3.9756478162110187,-1.1053980254830655,4.0866246076989885,-1.126504188951573,-0.25028597333333336,-0.80375604,0.9633784933333334,2.017420506666667,1.2793611537408422,0.825996508536816,0.8187611629761244,0.8187611629761244
LBP03_S04,LBP03,-1566,85,4,84,-1566,1715747653.36,2024-05-15 04:34:13.360000+00:00,2024-05-15 13:34:13.360000+09:00,2024,5,15,4,34,13,360,,,,,,,,,0.281738,-0.190674,1.60376,32.958984,-16.540527,34.240723,,,,,,,,,,,0.0,1.0,1.0,4.0,0.0,0.0,0.0,4.0,0.0,0.08955726666666668,-0.21252933333333335,1.0231315466666666,3.2967122399999997,-1.180012986666666,3.2226562000000003,12.986544283171074,7.473436209476264,2.500839686419445,3.4176267334156476,-0.07634235953286889,-2.595440485287724,4.292122080916028,-1.16575898613649,4.298032426758851,-1.1286277768946098,0.1921807333333333,0.021855333333333338,0.5806284533333335,0.7946645200000001,0.6119971329017055,0.8327557158002143,0.8144535790162407,0.8144535790162407
LBP03_S04,LBP03,-1565,86,4,85,-1565,1715747653.4,2024-05-15 04:34:13.400000+00:00,2024-05-15 13:34:13.400000+09:00,2024,5,15,4,34,13,400,,,,,,,,,0.083984,0.013428,0.693848,57.861328,162.902832,16.967773,,,,,,,,,,,0.0,1.0,1.0,4.0,0.0,0.0,0.0,4.0,0.0,0.09235349333333334,-0.19782555999999998,1.0133984666666667,3.7923177066666667,-0.7202148133333325,2.8881835333333337,11.631784382603554,3.6820200362948605,1.769014376838344,3.8828981087197896,0.07093844191892554,-2.5246799102141906,4.632055551726548,-1.128415797039788,4.543528906041377,-1.1272843182868961,-0.008369493333333339,0.21125355999999998,-0.31955046666666664,0.53917352,0.3831587344407207,0.8211955960424057,0.8056516434126587,0.8056516434126587
LBP03_S04,LBP03,-1564,87,4,86,-1564,1715747653.44,2024-05-15 04:34:13.440000+00:00,2024-05-15 13:34:13.440000+09:00,2024,5,15,4,34,13,440,,,,,,,,,-0.376709,0.087402,-0.191162,76.782227,140.991211,-35.217285,,,,,,,,,,,0.0,1.0,1.0,4.0,0.0,0.0,0.0,4.0,0.0,0.08886716,-0.20075525333333333,1.0005957333333333,3.00211588,0.7202148666666676,2.315266866666667,10.152003029756695,-1.4142511891318632,1.488188636030408,4.288978229910057,0.01436839435365101,-2.4651523647729743,4.946970475851306,-1.1481788115844598,4.841069364283339,-1.1263539195859251,-0.46557616,0.2881572533333333,-1.1917577333333333,1.9454911466666667,1.3115190651945403,0.8472946958021863,0.8157689918482963,0.8157689918482963
LBP03_S04,LBP03,-1563,88,4,87,-1563,1715747653.48,2024-05-15 04:34:13.480000+00:00,2024-05-15 13:34:13.480000+09:00,2024,5,15,4,34,13,480,,,,,,,,,-0.011475,-0.023682,0.100342,-31.738281,-127.380371,-53.100586,,,,,,,,,,,0.0,1.0,1.0,4.0,0.0,0.0,0.0,4.0,0.0,0.08519853333333334,-0.19713221333333333,0.9861556266666668,2.413736973333333,-1.7399088399999993,1.0237629600000004,9.236518595183842,-6.494949046232432,2.2973615119991377,4.658438973717411,-0.24542956749564626,-2.3732579042930086,5.23389361992959,-1.1570398215202014,5.209009431180457,-1.129268192791799,-0.09667353333333334,0.17345021333333333,-0.8858136266666667,1.1559373733333334,0.907797625983282,0.8404181475890036,0.8217779303240866,0.817573474870551
LBP03_S04,LBP03,-1562,89,4,88,-1562,1715747653.52,2024-05-15 04:34:13.520000+00:00,2024-05-15 13:34:13.520000+09:00,2024,5,15,4,34,13,520,,,,,,,,,0.314941,-0.205811,0.45166,11.779785,-152.893066,-75.134277,,,,,,,,,,,0.0,1.0,1.0,4.0,0.0,0.0,0.0,4.0,0.0,0.09238928,-0.19890629333333332,0.9896028933333334,2.0613606666666664,-3.963216133333332,1.3435871866666673,9.646926401910722,-10.005758777682487,4.343265695527389,5.04431602979384,-0.6456599186029457,-2.199527276471913,5.540750958026304,-1.1300237135634348,5.660455239027883,-1.1343987575534504,0.22255172,-0.006904706666666677,-0.5379428933333334,0.7673993200000001,0.5822022840361838,0.8310072224135632,0.8246034523312743,0.8130471058160439
LBP03_S04,LBP03,-1561,90,4,89,-1561,1715747653.56,2024-05-15 04:34:13.560000+00:00,2024-05-15 13:34:13.560000+09:00,2024,5,15,4,34,13,560,,,,,,,,,0.644531,-0.041504,0.912354,37.658691,-69.580078,2.746582,,,,,,,,,,,0.0,1.0,1.0,4.0,0.0,0.0,0.0,4.0,0.0,0.09600581333333333,-0.19651372,0.9912109733333333,1.3696288933333332,-3.6914062266666665,2.215983026666667,11.924326218474189,-10.83150013060601,7.153552343451104,5.521289078532807,-1.078919923827186,-1.913385182733869,5.942200278370163,-1.1105673942089684,6.198890196510047,-1.1368598708661106,0.5485251866666666,0.15500972000000002,-0.0788569733333333,0.7823918799999999,0.5754357617888151,0.8468745080089463,0.8199855179040543,0.8085638729098698
LBP03_S04,LBP03,-1560,91,4,90,-1560,1715747653.6,2024-05-15 04:34:13.600000+00:00,2024-05-15 13:34:13.600000+09:00,2024,5,15,4,34,13,600,,,,,,,,,0.14624,0.295166,1.099365,-13.427734,50.048828,62.805176,,,,,,,,,,,0.0,1.0,1.0,4.0,0.0,0.0,0.0,4.0,0.0,0.09222977333333332,-0.19462569333333332,0.9905534266666666,0.9920247199999999,-2.154134093333333,2.63102208,16.07016961071768,-8.786169600140077,9.826067377618344,6.164095862961514,-1.430366707832789,-1.5203424876291352,6.507954210529298,-1.1225748141254355,6.816691388996141,-1.1351589148315557,0.05401022666666669,0.4897916933333333,0.10881157333333336,0.6526134933333333,0.5046315150029713,0.8050022162004657,0.8031699372329372,0.802935495911594
LBP03_S04,LBP03,-1559,92,4,91,-1559,1715747653.64,2024-05-15 04:34:13.640000+00:00,2024-05-15 13:34:13.640000+09:00,2024,5,15,4,34,13,640,,,,,,,,,0.101807,-1.44751,2.058594,-171.813965,-79.711914,89.904785,,,,,,,,,,,0.0,1.0,1.0,4.0,0.0,0.0,0.0,4.0,0.0,0.08939122666666667,-0.19960616,0.99197596,-1.3590494933333332,-2.7465820133333327,2.895507746666667,21.35018661100784,-4.6602876546796175,11.454934240562102,7.018103327401828,-1.6167782140199738,-1.062145118006651,7.2798281819781705,-1.1438162883700527,7.495364152260544,-1.1364903640838744,0.012415773333333324,-1.24790384,1.0666180399999998,2.3269376533333332,1.641673593796176,0.8546165585574101,0.8118211004631445,0.8181852795094953
LBP03_S04,LBP03,-1558,93,4,92,-1558,1715747653.68,2024-05-15 04:34:13.680000+00:00,2024-05-15 13:34:13.680000+09:00,2024,5,15,4,34,13,680,,,,,,,,,0.06958,0.106689,1.460449,132.446289,81.359863,62.927246,,,,,,,,,,,0.0,1.0,1.0,4.0,0.0,0.0,0.0,4.0,0.0,0.08827794666666668,-0.19095381333333333,0.9833138533333334,-1.0481771066666665,-1.8888346133333327,3.002115813333334,26.357368002368137,0.17547835665411693,11.570150880865503,8.072398047496554,-1.609759079753809,-0.5993390827720309,8.253129216740401,-1.1322139235026065,8.205715974370392,-1.135205146239317,-0.018697946666666673,0.2976428133333333,0.4771351466666667,0.7934759066666667,0.5626711346098647,0.8436480430219793,0.8191005883243855,0.8136225269220019
LBP03_S04,LBP03,-1557,94,4,93,-1557,1715747653.72,2024-05-15 04:34:13.720000+00:00,2024-05-15 13:34:13.720000+09:00,2024,5,15,4,34,13,720,,,,,,,,,0.024902,-0.355225,0.984863,70.129395,149.230957,40.83252,,,,,,,,,,,0.0,1.0,1.0,4.0,0.0,0.0,0.0,4.0,0.0,0.08828445333333333,-0.1898861066666667,0.9747494,-1.045735693333333,-0.8593749866666661,2.945149666666667,29.37897687043979,4.380778625929499,10.348822673292393,9.247557122314145,-1.434527934716629,-0.18538617584033512,9.359997391032657,-1.130009158609669,8.908218966727885,-1.1302143714043988,-0.06338245333333334,-0.16533889333333332,0.010113600000000056,0.23883494666666671,0.17736000097035284,0.8116258945550261,0.793117879117854,0.8024600264667098
LBP03_S04,LBP03,-1556,95,4,94,-1556,1715747653.76,2024-05-15 04:34:13.760000+00:00,2024-05-15 13:34:13.760000+09:00,2024,5,15,4,34,13,760,,,,,,,,,-0.439209,0.050537,-0.099121,111.51123,61.462402,-80.322266,,,,,,,,,,,0.0,1.0,1.0,4.0,0.0,0.0,0.0,4.0,0.0,0.08304032,-0.18771162666666666,0.9638802666666667,-0.47607424,-0.6429036399999999,2.2306314400000002,28.956491311807138,7.151468341740577,8.483505096789138,10.40581677478643,-1.1484692010470061,0.15395402803123037,10.470134005776968,-1.1487494257909419,9.555138233019983,-1.1313326387814722,-0.52224932,0.23824862666666666,-1.0630012666666666,1.8234992133333332,1.2080887605155313,0.8141479638459801,0.8033083532503104,0.8094536253296206
LBP03_S04,LBP03,-1555,96,4,95,-1555,1715747653.8,2024-05-15 04:34:13.800000+00:00,2024-05-15 13:34:13.800000+09:00,2024,5,15,4,34,13,800,,,,,,,,,0.203857,-0.024658,0.249512,25.024414,-99.67041,-71.716309,,,,,,,,,,,0.0,1.0,1.0,4.0,0.0,0.0,0.0,4.0,0.0,0.08798172,-0.1953809066666667,0.9688770133333332,-2.19889324,-4.093424466666665,2.520344986666667,24.400199407226076,8.378950840616307,6.793038593888405,11.381824751075474,-0.8133111674223539,0.42567557178676657,11.418783184370573,-1.1417302895629744,10.095499744090276,-1.1394946955085317,0.11587528000000001,0.17072290666666667,-0.7193650133333331,1.0059631999999998,0.7483711738060601,0.8136163947466498,0.8068535868777923,0.8084183295410856
LBP03_S04,LBP03,-1554,97,4,96,-1554,1715747653.84,2024-05-15 04:34:13.840000+00:00,2024-05-15 13:34:13.840000+09:00,2024,5,15,4,34,13,840,,,,,,,,,0.366211,-0.056152,0.607422,26.611328,-125.183105,-46.447754,,,,,,,,,,,0.0,1.0,1.0,4.0,0.0,0.0,0.0,4.0,0.0,0.08712886666666667,-0.19006189333333334,0.9706999333333335,-1.04248048,-3.6547851333333323,2.036132746666667,16.031504251352953,8.4315802528489,5.810412158383976,12.023084921129591,-0.4760479573083979,0.6580920581221256,12.05048869694979,-1.1353266331388854,10.482342640129014,-1.1435658573111163,0.2790821333333333,0.13390989333333334,-0.36327793333333347,0.7762699600000001,0.47727303875807503,0.7876515458621175,0.806421623179948,0.8028992413613688
LBP03_S04,LBP03,-1553,98,4,97,-1553,1715747653.88,2024-05-15 04:34:13.880000+00:00,2024-05-15 13:34:13.880000+09:00,2024,5,15,4,34,13,880,,,,,,,,,0.241211,0.171143,1.050049,-27.709961,64.39209,46.630859,,,,,,,,,,,0.0,1.0,1.0,4.0,0.0,0.0,0.0,4.0,0.0,0.09341142666666667,-0.18942388000000002,0.9781804,-1.5454101733333334,-3.6303710666666658,3.2210285733333337,5.074584308832312,7.753376362860129,5.583655487657582,12.226068293482884,-0.16591290279399273,0.8814382776284289,12.258923543504526,-1.1071320731710184,10.6808357394149,-1.1461627445618223,0.14779957333333332,0.36056688000000003,0.07186860000000006,0.5802350533333335,0.39625532740445246,0.7683288482085139,0.7868331737664418,0.796232947689944
LBP03_S04,LBP03,-1552,99,4,98,-1552,1715747653.92,2024-05-15 04:34:13.920000+00:00,2024-05-15 13:34:13.920000+09:00,2024,5,15,4,34,13,920,,,,,,,,,-0.11084,-0.702148,1.810059,-155.761719,-8.239746,83.80127,,,,,,,,,,,0.0,1.0,1.0,4.0,0.0,0.0,0.0,4.0,0.0,0.08693356000000001,-0.19260422666666666,0.9850586533333334,-3.16406252,-2.5317382533333324,4.20328768,-6.703851008884935,6.556355406949079,5.77760589851893,11.957914253127486,0.0963413134839704,1.112542513569186,12.009943620947274,-1.1412063873341718,10.676627141462644,-1.152589317678897,-0.19777356000000001,-0.5095437733333333,0.8250003466666667,1.53231768,0.9896336746382295,0.7964976740481471,0.7971203334321718,0.799352314253626
LBP03_S04,LBP03,-1551,100,4,99,-1551,1715747653.96,2024-05-15 04:34:13.960000+00:00,2024-05-15 13:34:13.960000+09:00,2024,5,15,4,34,13,960,,,,,,,,,-0.071777,-0.44751,1.811523,57.434082,-37.353516,30.273438,,,,,,,,,,,0.0,1.0,1.0,4.0,0.0,0.0,0.0,4.0,0.0,0.0780566,-0.19954433333333335,0.9904981066666666,-0.3084310000000002,-2.6277669066666656,3.2495116266666675,-17.41315254812933,4.770422948251885,5.970715133475292,11.261388151202313,0.28715823141404584,1.3513711189081976,11.345815389073096,-1.1921879614795603,10.48367932301873,-1.156467714225689,-0.1498336,-0.24796566666666667,0.8210248933333334,1.21882416,0.8706428400942696,0.798803412684332,0.8109009810616482,0.8004839099018902
LBP03_S04,LBP03,-1550,101,4,100,-1550,1715747654.0,2024-05-15 04:34:14+00:00,2024-05-15 13:34:14+09:00,2024,5,15,4,34,14,0,4.0,34.0,14.0,40.541458,141.522156,10.323,3.0,13.0,0.317871,-0.338623,1.260498,38.635254,82.15332,27.099609,-269.0,57.0,353.0,2737.0,0.0,1018.400024,32.299999,0.053513,-42.764385,3.895313,0.0,1.0,1.0,4.0,0.0,0.0,0.0,5.0,0.0,0.08448889333333334,-0.19892258666666668,0.9884570933333333,0.5240885199999998,-2.740885399999999,3.268229066666667,-25.356630126040145,2.2232071288439204,5.936292642573552,10.247122946160708,0.3760865165678027,1.5888228246111398,10.376383170916672,-1.1632864321512815,10.148387434595964,-1.1590991003585334,0.23338210666666667,-0.13970041333333333,0.2720409066666666,0.6451234266666666,0.384694252748462,0.7751010950729749,0.7916366369820166,0.7939871965088678
LBP03_S04,LBP03,-1549,102,4,101,-1549,1715747654.04,2024-05-15 04:34:14.040000+00:00,2024-05-15 13:34:14.040000+09:00,2024,5,15,4,34,14,40,,,,,,,,,-0.520752,0.283691,-0.022217,24.597168,188.781738,-7.69043,,,,,,,,,,,0.0,1.0,1.0,4.0,0.0,0.0,0.0,5.0,0.0,0.0827148,-0.19835617333333333,0.9774577466666666,1.6153971199999997,-0.9138997199999994,3.2584634400000003,-29.215689249197215,-1.1126913812245358,5.7405372882044325,9.07849537619282,0.33157886131882125,1.8184443161393171,9.26475917483705,-1.169785160877114,9.745809581002487,-1.162403697972151,-0.6034668,0.48204717333333336,-0.9996747466666667,2.0851887199999997,1.2632858960441065,0.7883084929059773,0.802697432094752,0.8012071765017177
LBP03_S04,LBP03,-1548,103,4,102,-1548,1715747654.08,2024-05-15 04:34:14.080000+00:00,2024-05-15 13:34:14.080000+09:00,2024,5,15,4,34,14,80,,,,,,,,,0.000977,-0.514893,0.389648,-170.10498,-174.316406,-27.832031,,,,,,,,,,,0.0,1.0,1.0,4.0,0.0,0.0,0.0,5.0,0.0,0.07432938666666668,-0.19238286666666665,0.9622591733333333,2.406412733333333,-1.6764322666666662,1.9612629200000007,-28.173177387447407,-4.98996284103325,5.629339520265926,7.951568280694923,0.13198034767749123,2.043617896949954,8.21104323721784,-1.196479654673355,9.36806746347484,-1.1636626644812198,-0.07335238666666667,-0.3225101333333334,-0.5726111733333333,0.9684736933333333,0.6612691695206706,0.7854516592308275,0.8056110502456412,0.7990869036686714
LBP03_S04,LBP03,-1547,104,4,103,-1547,1715747654.12,2024-05-15 04:34:14.120000+00:00,2024-05-15 13:34:14.120000+09:00,2024,5,15,4,34,14,120,,,,,,,,,0.247314,-0.253418,0.571777,91.125488,-57.312012,-85.754395,,,,,,,,,,,0.0,1.0,1.0,4.0,0.0,0.0,0.0,5.0,0.0,0.08139644,-0.19459316000000002,0.9681120266666666,1.8969726266666664,-3.098958306666666,2.1289061466666674,-22.0465054055752,-8.96444661916366,5.811316212940359,7.069708064471915,-0.22659751708905518,2.2760705454675687,7.43051920659352,-1.1687931240775875,9.109308244904845,-1.168166926824478,0.16591756000000002,-0.05882483999999996,-0.39633502666666665,0.6210774266666667,0.433670902736449,0.761559686804788,0.8035042381977573,0.793632933505504
LBP03_S04,LBP03,-1546,105,4,104,-1546,1715747654.16,2024-05-15 04:34:14.160000+00:00,2024-05-15 13:34:14.160000+09:00,2024,5,15,4,34,14,160,,,,,,,,,0.552002,0.13916,1.065186,-4.821777,-35.27832,9.82666,,,,,,,,,,,0.0,1.0,1.0,4.0,0.0,0.0,0.0,5.0,0.0,0.07972652,-0.19397792,0.9674316799999999,1.9270832933333335,-2.9956054399999994,2.361653546666667,-11.42184043989555,-12.607765016143402,6.2990323830622525,6.612834446876093,-0.7309081177347913,2.528031840790059,7.117215121549301,-1.1750632871193851,9.050350817126162,-1.1671655183270484,0.47227547999999997,0.33313792,0.09775432000000006,0.90316772,0.586157751658902,0.7396606431129022,0.7805387363118608,0.7905818278901128
LBP03_S04,LBP03,-1545,106,4,105,-1545,1715747654.2,2024-05-15 04:34:14.200000+00:00,2024-05-15 13:34:14.200000+09:00,2024,5,15,4,34,14,200,,,,,,,,,0.172607,-0.302246,1.553467,-127.990723,19.592285,80.566406,,,,,,,,,,,0.0,1.0,1.0,4.0,0.0,0.0,0.0,5.0,0.0,0.07935868,-0.19294277333333335,0.9597038133333332,1.33056636,-2.4934895599999995,2.60253896,2.282871898075319,-15.677176280592292,6.918516184926151,6.704149322799106,-1.357995168958483,2.804772488187105,7.393004648435815,-1.17477626569915,9.244999045409212,-1.1630376180806214,0.09324832000000001,-0.10930322666666667,0.5937631866666667,0.7963147333333334,0.6108986547563532,0.7376116861298486,0.7782030782804595,0.7879777239316526
LBP03_S04,LBP03,-1544,107,4,106,-1544,1715747654.24,2024-05-15 04:34:14.240000+00:00,2024-05-15 13:34:14.240000+09:00,2024,5,15,4,34,14,240,,,,,,,,,-0.270996,-0.897461,2.006592,18.493652,-59.631348,28.320312,,,,,,,,,,,0.0,1.0,1.0,4.0,0.0,0.0,0.0,5.0,0.0,0.08352209333333334,-0.18844408,0.9561784133333333,2.511393173333334,-3.321940079999999,2.4178058933333335,16.913438377911103,-18.11106413920752,7.4716054555811695,7.38068685791555,-2.082437734526784,3.1036367064103514,8.273067521673328,-1.1479162982295743,9.710853834242469,-1.1616896287686456,-0.35451809333333334,-0.7090169199999999,1.0504135866666666,2.1139485999999996,1.3159622997642901,0.762692008581781,0.8015953980720993,0.7955203607292616
LBP03_S04,LBP03,-1543,108,4,107,-1543,1715747654.28,2024-05-15 04:34:14.280000+00:00,2024-05-15 13:34:14.280000+09:00,2024,5,15,4,34,14,280,,,,,,,,,0.097168,-0.542236,1.51709,15.625,-8.422852,43.518066,,,,,,,,,,,0.0,1.0,1.0,4.0,0.0,0.0,0.0,5.0,0.0,0.08433914666666667,-0.19263678666666667,0.9536784133333334,1.1328124533333332,-3.3829752399999995,2.390136626666667,29.897987626392563,-19.861174262102182,7.922268169359133,8.576606362971253,-2.8768847050108715,3.420527433184717,9.671331357804556,-1.1521746966036015,10.426708542612982,-1.159781630272931,0.012828853333333334,-0.3495992133333334,0.5634115866666667,0.9258396533333334,0.6631868555930407,0.7658879440201738,0.7843799805821314,0.7936565085442444
LBP03_S04,LBP03,-1542,109,4,108,-1542,1715747654.32,2024-05-15 04:34:14.320000+00:00,2024-05-15 13:34:14.320000+09:00,2024,5,15,4,34,14,320,,,,,,,,,-0.079102,-0.217041,0.570557,115.844727,151.123047,20.080566,,,,,,,,,,,0.0,1.0,1.0,4.0,0.0,0.0,0.0,5.0,0.0,0.08670568000000001,-0.18713874666666666,0.9482942933333334,1.4656575066666668,-2.8320312266666665,2.1598306400000005,38.77811613394962,-20.692842838005767,8.461049717095234,10.127731008329238,-3.704598418531102,3.7589694218685263,11.420369343160461,-1.1311923023598747,11.33656613048152,-1.157403211514122,-0.16580768,-0.02990225333333335,-0.3777372933333334,0.5734472266666668,0.4136082618567791,0.7312578283448112,0.7786271684408136,0.7883780606735852
LBP03_S04,LBP03,-1541,110,4,109,-1541,1715747654.36,2024-05-15 04:34:14.360000+00:00,2024-05-15 13:34:14.360000+09:00,2024,5,15,4,34,14,360,,,,,,,,,-0.292725,0.469971,-0.368164,83.068848,-10.070801,-52.062988,,,,,,,,,,,0.0,1.0,1.0,4.0,0.0,0.0,0.0,5.0,0.0,0.08400060000000001,-0.19119473333333334,0.9483691599999999,1.5592447466666668,-2.5032551733333332,2.0581053866666674,41.822861353024685,-20.12109288536181,9.390639134687358,11.800645462450227,-4.509442133945575,4.134594987256021,13.292297671903581,-1.1509089590152906,12.358785237352734,-1.1542263527886945,-0.3767256,0.6611657333333334,-1.3165331599999999,2.354424493333333,1.5206320613511835,0.7676032254827905,0.8001794706415025,0.7984089373951961
LBP03_S04,LBP03,-1540,111,4,110,-1540,1715747654.4,2024-05-15 04:34:14.400000+00:00,2024-05-15 13:34:14.400000+09:00,2024,5,15,4,34,14,400,,,,,,,,,0.231445,-0.209473,0.236084,29.846191,-114.257812,-39.733887,,,,,,,,,,,0.0,1.0,1.0,4.0,0.0,0.0,0.0,5.0,0.0,0.08374344,-0.1900065866666667,0.9480859599999999,1.5429687066666669,-1.90511064,2.736002533333334,38.50969102775269,-17.587902012146063,10.901957614428225,13.341033103560335,-5.212958214431417,4.57067329183315,15.034931059249242,-1.1498065390315246,13.398645270798017,-1.1505958023853438,0.14770156,-0.019466413333333293,-0.7120019599999999,0.8791699333333333,0.7274211181415751,0.7813737208308247,0.8012846584366151,0.7974496425404174
LBP03_S04,LBP03,-1539,112,4,111,-1539,1715747654.44,2024-05-15 04:34:14.440000+00:00,2024-05-15 13:34:14.440000+09:00,2024,5,15,4,34,14,440,,,,,,,,,0.501221,-0.024902,0.57251,105.163574,-145.446777,-19.287109,,,,,,,,,,,0.0,1.0,1.0,4.0,0.0,0.0,0.0,5.0,0.0,0.08234044,-0.18723965333333334,0.94045576,1.0839843200000001,-1.8408202666666662,3.3553059200000006,29.677180990246974,-12.830493445504874,12.88856921985061,14.528120343170214,-5.7261779522516125,5.086216060627175,16.423306258542173,-1.1507051759199638,14.362699571504578,-1.146446451755125,0.41888056,0.16233765333333333,-0.36794576,0.9491639733333334,0.5806879708911359,0.7521404770586884,0.7997175864304374,0.794559486918427
LBP03_S04,LBP03,-1538,113,4,112,-1538,1715747654.48,2024-05-15 04:34:14.480000+00:00,2024-05-15 13:34:14.480000+09:00,2024,5,15,4,34,14,480,,,,,,,,,0.460693,0.300781,0.869629,32.775879,30.639648,52.79541,,,,,,,,,,,0.0,1.0,1.0,4.0,0.0,0.0,0.0,5.0,0.0,0.08067377333333332,-0.19526048000000001,0.9320540666666667,0.3068033333333335,-3.5408528133333332,3.1152343066666672,17.27286651154041,-6.228136191801,14.92652197991424,15.21903500363183,-5.975303399923653,5.683276939823744,17.309619115903228,-1.1726954670852683,15.171525550611296,-1.1440398179729667,0.3800192266666667,0.49604148000000003,-0.062425066666666695,0.9384857733333335,0.6279877797101306,0.7409480832077624,0.7906831153983831,0.7948346479519786
LBP03_S04,LBP03,-1537,114,4,113,-1537,1715747654.52,2024-05-15 04:34:14.520000+00:00,2024-05-15 13:34:14.520000+09:00,2024,5,15,4,34,14,520,,,,,,,,,0.028809,-0.018555,1.530762,-178.222656,5.249023,89.782715,,,,,,,,,,,0.0,1.0,1.0,4.0,0.0,0.0,0.0,5.0,0.0,0.08304356,-0.18202805333333333,0.91864912,3.8671874533333335,-2.87760412,2.4674478533333337,3.7756888439065297,1.1137854391924167,16.43766908218405,15.370062557388092,-5.930751982355956,6.340783703111106,17.652710275305655,-1.1370245368233103,15.767137985790603,-1.1430659003439776,-0.05423456,0.16347305333333334,0.61211288,0.8298204933333333,0.6358828544051262,0.74309530602252,0.7870512642180418,0.7974340702283562
LBP03_S04,LBP03,-1536,115,4,114,-1536,1715747654.56,2024-05-15 04:34:14.560000+00:00,2024-05-15 13:34:14.560000+09:00,2024,5,15,4,34,14,560,,,,,,,,,0.022217,-0.872803,1.907227,-8.544922,-23.864746,20.263672,,,,,,,,,,,0.0,1.0,1.0,4.0,0.0,0.0,0.0,5.0,0.0,0.08284825333333334,-0.18248377333333335,0.91286788,-0.6241862399999994,-2.5724283466666664,3.173828066666667,-8.496201476703128,7.637562881736584,16.931632226044275,15.030214498319967,-5.625249467086492,7.0180489921528775,17.515815456002116,-1.1387577830858806,16.115691070119734,-1.1453027251632906,-0.06063125333333334,-0.6903192266666667,0.99435912,1.7453096000000001,1.2120094236901007,0.7685582524985715,0.8077163802537588,0.8028430961022267
LBP03_S04,LBP03,-1535,116,4,115,-1535,1715747654.6,2024-05-15 04:34:14.600000+00:00,2024-05-15 13:34:14.600000+09:00,2024,5,15,4,34,14,600,,,,,,,,,0.099365,-0.043945,1.274414,-1.953125,92.529297,35.095215,,,,,,,,,,,0.0,1.0,1.0,4.0,0.0,0.0,0.0,5.0,0.0,0.08116856,-0.17603521333333333,0.9125716533333333,0.2880859066666672,-2.837727826666667,2.7091470800000006,-17.937254050303675,11.851802389833722,16.175103457259056,14.31272433630782,-5.1511773714931435,7.66505313044324,17.033547655501447,-1.1332827593969608,16.208150504440944,-1.1478287568446828,0.018196439999999994,0.13209021333333332,0.3618423466666666,0.5121289999999998,0.3856278241107081,0.763798104862881,0.7844001605316733,0.790045993109585
LBP03_S04,LBP03,-1534,117,4,116,-1534,1715747654.64,2024-05-15 04:34:14.640000+00:00,2024-05-15 13:34:14.640000+09:00,2024,5,15,4,34,14,640,,,,,,,,,-0.360352,-0.012695,0.132568,59.997559,226.745605,-17.089844,,,,,,,,,,,0.0,1.0,1.0,4.0,0.0,0.0,0.0,5.0,0.0,0.08709304,-0.18445318666666666,0.9283235999999999,-1.1482747733333327,-4.104003866666667,3.1168619200000003,-23.89598992155414,12.847960747312431,14.198978431781391,13.356884739445654,-4.6372589416006464,8.233012267714495,16.361327312740514,-1.1238499604079915,16.059589047707654,-1.1478457955461552,-0.44744504,0.17175818666666665,-0.7957555999999999,1.4149588266666666,0.9289429010649595,0.7352888771536322,0.7949527178555214,0.7863103593599738
LBP03_S04,LBP03,-1533,118,4,117,-1533,1715747654.68,2024-05-15 04:34:14.680000+00:00,2024-05-15 13:34:14.680000+09:00,2024,5,15,4,34,14,680,,,,,,,,,-0.014404,-0.010498,0.09668,-107.299805,-133.361816,-47.790527,,,,,,,,,,,0.0,1.0,1.0,4.0,0.0,0.0,0.0,5.0,0.0,0.08350254666666666,-0.18571946666666667,0.9312467733333333,-0.20263674666666603,-1.1303710533333333,3.4871418800000007,-26.601464388357325,10.566685252626725,11.172698888319468,12.29282616391136,-4.214591531495578,8.679920223247274,15.62745570959761,-1.1424355203137118,15.706430560615692,-1.141794730950285,-0.09790654666666666,0.17522146666666666,-0.8345667733333333,1.1076947866666667,0.8583646972080231,0.7471166196575587,0.7953823313397689,0.7951059321021099
LBP03_S04,LBP03,-1532,119,4,118,-1532,1715747654.72,2024-05-15 04:34:14.720000+00:00,2024-05-15 13:34:14.720000+09:00,2024,5,15,4,34,14,720,,,,,,,,,0.16626,-0.452148,0.59082,-6.103516,-94.726562,-27.038574,,,,,,,,,,,0.0,1.0,1.0,4.0,0.0,0.0,0.0,5.0,0.0,0.08053705333333333,-0.1845476,0.9294368800000001,-0.41097007999999935,-1.1368814800000002,3.4000650666666674,-26.893699818804343,5.701029264970479,7.265279826005923,11.217078171159187,-3.9865503608967585,8.97053141628751,14.905900186451781,-1.1535605505530035,15.20130157201216,-1.138900288044783,0.08572294666666666,-0.26760039999999996,-0.3386168800000001,0.6919402266666668,0.4400224870234596,0.7576231190996829,0.7846245068273545,0.7812862924451304
LBP03_S04,LBP03,-1531,120,4,119,-1531,1715747654.76,2024-05-15 04:34:14.760000+00:00,2024-05-15 13:34:14.760000+09:00,2024,5,15,4,34,14,760,,,,,,,,,0.64624,0.216309,1.164062,91.491699,-37.719727,2.563477,,,,,,,,,,,0.0,1.0,1.0,4.0,0.0,0.0,0.0,5.0,0.0,0.07417964,-0.18091478666666666,0.9237565333333333,-0.8707682666666661,-1.43229164,2.3470051733333337,-25.89705138365782,-0.6635407142757939,2.6154775159948,10.181196115812874,-4.0130919894677906,9.075150516927302,14.216892015115665,-1.1761692758292122,14.605873141069043,-1.1402820801548628,0.57206036,0.3972237866666667,0.24030546666666663,1.2095896133333333,0.7367404627730308,0.738769187189983,0.7764585755179815,0.7817952978968677
LBP03_S04,LBP03,-1530,121,4,120,-1530,1715747654.8,2024-05-15 04:34:14.800000+00:00,2024-05-15 13:34:14.800000+09:00,2024,5,15,4,34,14,800,,,,,,,,,0.070801,0.186279,1.633301,-118.652344,53.405762,82.580566,,,,,,,,,,,0.0,1.0,1.0,4.0,0.0,0.0,0.0,5.0,0.0,0.08204421333333334,-0.18628262666666667,0.9222591333333334,-1.6284179999999995,-3.8924153466666667,1.333007786666667,-24.733274010431682,-7.429433313224656,-2.5531475571003184,9.191865155395607,-4.310269321996777,8.97302461464329,13.549316491916366,-1.1499769260462485,13.982517857001596,-1.1381279423487616,-0.011243213333333335,0.3725616266666667,0.7110418666666665,1.0948467066666665,0.8028132483108317,0.7409468701701738,0.7772816324584119,0.7848846813085861
LBP03_S04,LBP03,-1529,122,4,121,-1529,1715747654.84,2024-05-15 04:34:14.840000+00:00,2024-05-15 13:34:14.840000+09:00,2024,5,15,4,34,14,840,,,,,,,,,-0.318115,-1.166016,2.315674,-81.604004,-65.124512,23.132324,,,,,,,,,,,0.0,1.0,1.0,4.0,0.0,0.0,0.0,5.0,0.0,0.08712884,-0.16919604,0.9116439066666667,-1.2044271199999996,-3.0957031066666674,1.3378906000000002,-24.3152126123632,-13.688268585371638,-7.758537178991508,8.21925665090108,-4.857800065411642,8.66268312748363,12.891721387622546,-1.0901945299612634,13.386063714225935,-1.1394196712412006,-0.40524383999999997,-0.99681996,1.4040300933333332,2.8060938933333333,1.7689468916555848,0.7926138242860742,0.790132685074096,0.8018190235486568
LBP03_S04,LBP03,-1528,123,4,122,-1528,1715747654.88,2024-05-15 04:34:14.880000+00:00,2024-05-15 13:34:14.880000+09:00,2024,5,15,4,34,14,880,,,,,,,,,0.224365,0.027344,1.445068,5.981445,22.216797,13.793945,,,,,,,,,,,0.0,1.0,1.0,4.0,0.0,0.0,0.0,5.0,0.0,0.08006504,-0.17858405333333335,0.9152343999999999,-4.171549506666666,-3.30322264,1.5738932000000003,-25.206698573355546,-18.718329433137036,-12.185293346361641,7.210988707966859,-5.6065332427371235,8.175271393629165,12.258329229867885,-1.1437510380302476,12.857740280431809,-1.1417344755480336,0.14429996,0.20592805333333336,0.5298336000000001,0.8800616133333334,0.5864746245956579,0.8002225961737224,0.7842757221911181,0.7912963145688686
LBP03_S04,LBP03,-1527,124,4,123,-1527,1715747654.92,2024-05-15 04:34:14.920000+00:00,2024-05-15 13:34:14.920000+09:00,2024,5,15,4,34,14,920,,,,,,,,,-0.147705,-0.205811,0.540527,-15.991211,146.66748,-12.817383,,,,,,,,,,,0.0,1.0,1.0,4.0,0.0,0.0,0.0,5.0,0.0,0.07973952000000001,-0.18131192,0.9241439066666666,-4.0519206,-5.30517576,1.6821288800000005,-27.511447704994136,-21.904169104715045,-14.827729152864068,6.110530799767093,-6.482700006925725,7.582162227514602,11.69842596587448,-1.1508424579241072,12.42342661844749,-1.144280850054089,-0.22744452,-0.024499080000000006,-0.3836169066666666,0.6355605066666666,0.44664655565601175,0.7785031114144337,0.7875003927312904,0.7909145927595925
LBP03_S04,LBP03,-1526,125,4,124,-1526,1715747654.96,2024-05-15 04:34:14.960000+00:00,2024-05-15 13:34:14.960000+09:00,2024,5,15,4,34,14,960,,,,,,,,,-0.261963,-0.072266,-0.121094,5.737305,-57.250977,-86.05957,,,,,,,,,,,0.0,1.0,1.0,4.0,0.0,0.0,0.0,5.0,0.0,0.08846673333333334,-0.1841179066666667,0.93916344,-3.2568359733333327,-5.3141275866666655,2.535807266666667,-30.795048988754104,-22.741932814465013,-14.839624059181729,4.8787288402169295,-7.392377319504326,6.988577265147333,11.28226261532768,-1.1172164050248703,12.096194154422431,-1.143466120746893,-0.3504297333333333,0.1118519066666667,-1.06025744,1.52253908,1.1222556242248882,0.7885676227796584,0.7936855177319951,0.8034565283009849
LBP03_S04,LBP03,-1525,126,4,125,-1525,1715747655.0,2024-05-15 04:34:15+00:00,2024-05-15 13:34:15+09:00,2024,5,15,4,34,15,0,4.0,34.0,15.0,40.5415,141.521973,10.514,3.0,12.0,0.158691,0.037354,0.112305,31.982422,-141.906738,-86.486816,-276.0,62.0,353.0,2909.0,0.0,1017.900024,32.349998,0.048558,-38.620209,3.895313,0.0,1.0,1.0,4.0,0.0,0.0,0.0,4.0,0.0,0.08138014666666667,-0.1827084,0.9369987200000001,-0.8911133199999994,-2.596028626666666,2.268880186666667,-34.10966705998168,-21.010153992505053,-11.938561464798086,3.514342157817662,-8.232783479204528,6.51103480655541,11.069006227744817,-1.1462000483213497,11.880666628234305,-1.1363123435816327,0.07731085333333333,0.2200624,-0.8246937200000001,1.1220669733333333,0.8570438493708048,0.8074616066445521,0.7912813508587634,0.7969116268695284
LBP03_S04,LBP03,-1524,127,4,126,-1524,1715747655.04,2024-05-15 04:34:15.040000+00:00,2024-05-15 13:34:15.040000+09:00,2024,5,15,4,34,15,40,,,,,,,,,0.606689,0.052734,0.523926,-50.476074,-135.681152,-25.878906,,,,,,,,,,,0.0,1.0,1.0,4.0,0.0,0.0,0.0,4.0,0.0,0.08037754666666667,-0.18080084000000002,0.9349479466666666,-0.7698568133333327,-1.9856770666666663,2.271321586666667,-36.20075801979006,-17.021854087321657,-6.648504730952666,2.06631183702606,-8.913657642697395,6.245094617317303,11.078092974799283,-1.1469980034763227,11.776522536366159,-1.1350185652977192,0.5263114533333334,0.23353484000000002,-0.4110219466666666,1.17086824,0.7074470355053636,0.7852280522230025,0.7867682725644899,0.7968743054708354
LBP03_S04,LBP03,-1523,128,4,127,-1523,1715747655.08,2024-05-15 04:34:15.080000+00:00,2024-05-15 13:34:15.080000+09:00,2024,5,15,4,34,15,80,,,,,,,,,0.321289,0.044434,1.058594,-24.047852,42.297363,9.094238,,,,,,,,,,,0.0,1.0,1.0,4.0,0.0,0.0,0.0,4.0,0.0,0.07603836,-0.1811556533333333,0.9296354400000001,-0.6372070666666659,-2.423502586666666,1.4046223733333336,-35.897491411652425,-11.743661258499136,-0.22241556610047702,0.6304121805599627,-9.38340409303736,6.236197994673284,11.284319089754407,-1.1678992653742644,11.779857478707662,-1.139146188099779,0.24525064,0.2255896533333333,0.12895855999999994,0.5997988533333333,0.35730782010576917,0.7730695982464063,0.779260628738617,0.7947638995792295
LBP03_S04,LBP03,-1522,129,4,128,-1522,1715747655.12,2024-05-15 04:34:15.120000+00:00,2024-05-15 13:34:15.120000+09:00,2024,5,15,4,34,15,120,,,,,,,,,-0.034912,-0.229248,1.591553,-262.268066,12.939453,87.280273,,,,,,,,,,,0.0,1.0,1.0,4.0,0.0,0.0,0.0,4.0,0.0,0.08181310666666668,-0.18336919999999998,0.9273698133333332,0.13102209333333414,-3.420410133333333,0.5167642933333334,-32.56221567070624,-6.602055001648925,5.755190288227061,-0.6720764462682869,-9.647486293103317,6.4664056062023665,11.633575546201191,-1.145413257481043,11.88223864959494,-1.1361138780207243,-0.11672510666666668,-0.045878800000000025,0.6641831866666668,0.8267870933333334,0.6759207943734776,0.7827595939118875,0.7721596403583377,0.7965893567691341
LBP03_S04,LBP03,-1521,130,4,129,-1521,1715747655.16,2024-05-15 04:34:15.160000+00:00,2024-05-15 13:34:15.160000+09:00,2024,5,15,4,34,15,160,,,,,,,,,-0.04834,-0.729492,1.744629,-13.122559,15.441895,51.757812,,,,,,,,,,,0.0,1.0,1.0,4.0,0.0,0.0,0.0,4.0,0.0,0.08183589333333334,-0.16458338666666666,0.9190039199999999,0.28320308000000066,-2.049967426666666,0.5818684666666668,-26.38185057512762,-2.992444732873511,9.915233511955138,-1.7273504692733916,-9.767184082418257,6.863014946680572,12.061616753234391,-1.10463150417661,12.068195464540167,-1.1344536267983236,-0.13017589333333335,-0.5649086133333334,0.8256250800000001,1.520709586666667,1.008823214120456,0.7996662124103497,0.7696634277616261,0.7869145616780238
LBP03_S04,LBP03,-1520,131,4,130,-1520,1715747655.2,2024-05-15 04:34:15.200000+00:00,2024-05-15 13:34:15.200000+09:00,2024,5,15,4,34,15,200,,,,,,,,,0.092041,-0.392578,1.147705,56.091309,88.012695,51.940918,,,,,,,,,,,0.0,1.0,1.0,4.0,0.0,0.0,0.0,4.0,0.0,0.08103185333333333,-0.17745448,0.9258138133333333,-1.8098958799999996,-3.3886718533333333,0.4394531066666668,-18.316945817228177,-1.7115747978342324,11.549001311887567,-2.460028301962519,-9.835647074331627,7.324974999156074,12.507875573234905,-1.1370391432071147,12.313224532857665,-1.1368829195533905,0.011009146666666664,-0.21512351999999998,0.22189118666666663,0.4480238533333333,0.3092491372467514,0.7876002317099656,0.7626059589199072,0.7813354627569615
LBP03_S04,LBP03,-1519,132,4,131,-1519,1715747655.24,2024-05-15 04:34:15.240000+00:00,2024-05-15 13:34:15.240000+09:00,2024,5,15,4,34,15,240,,,,,,,,,-0.249023,0.050781,0.193604,114.257812,159.484863,0.671387,,,,,,,,,,,0.0,1.0,1.0,4.0,0.0,0.0,0.0,4.0,0.0,0.08238602666666668,-0.17777022666666667,0.9324902533333334,-2.7433268799999997,-5.111490866666667,0.4842122133333335,-9.705247944571825,-2.6067341976860163,10.75550992929086,-2.848238219745392,-9.939916442239067,7.755195396327709,12.925070811037573,-1.131470757981861,12.5850226806087,-1.1358040177464044,-0.33140902666666666,0.22855122666666666,-0.7388862533333334,1.2988465066666666,0.8414395412220395,0.7686193213682756,0.7656556649750282,0.7906033725041581
LBP03_S04,LBP03,-1518,133,4,132,-1518,1715747655.28,2024-05-15 04:34:15.280000+00:00,2024-05-15 13:34:15.280000+09:00,2024,5,15,4,34,15,280,,,,,,,,,-0.036377,-0.05835,0.209717,-24.414062,-151.733398,-46.99707,,,,,,,,,,,0.0,1.0,1.0,4.0,0.0,0.0,0.0,4.0,0.0,0.08765946666666667,-0.18057296,0.9411881733333333,-2.4902344266666656,-3.625488253333333,1.7846679466666668,-1.732977411882221,-4.645264447973838,8.253702627964906,-2.9175573162206807,-10.12572702015802,8.085343501446305,13.282140938740676,-1.1134279372396996,12.848860428591788,-1.1297774656703239,-0.12403646666666668,0.12222296,-0.7314711733333332,0.9777305999999999,0.7519132758715967,0.7721683781794177,0.7690281610997958,0.7803094464478936
LBP03_S04,LBP03,-1517,134,4,133,-1517,1715747655.32,2024-05-15 04:34:15.320000+00:00,2024-05-15 13:34:15.320000+09:00,2024,5,15,4,34,15,320,,,,,,,,,0.240479,0.006592,0.557617,39.855957,-112.670898,-87.95166,,,,,,,,,,,0.0,1.0,1.0,4.0,0.0,0.0,0.0,4.0,0.0,0.08161454666666666,-0.17736333333333335,0.9354264533333333,-1.6739909333333327,-3.2918293999999997,1.7911783733333337,4.934403885615304,-6.398061749070598,4.9913336285207395,-2.7201811607960686,-10.381649490120845,8.284996846587134,13.557994115326757,-1.134239945700103,13.074856706871646,-1.1201793887372868,0.15886445333333332,0.18395533333333333,-0.37780945333333327,0.72062924,0.449240984575883,0.773593687088182,0.7524257577164967,0.7769493413232698
LBP03_S04,LBP03,-1516,135,4,134,-1516,1715747655.36,2024-05-15 04:34:15.360000+00:00,2024-05-15 13:34:15.360000+09:00,2024,5,15,4,34,15,360,,,,,,,,,0.73877,-0.155518,1.225586,33.38623,-68.54248,0.854492,,,,,,,,,,,0.0,1.0,1.0,4.0,0.0,0.0,0.0,4.0,0.0,0.08009110666666668,-0.17745448,0.931709,-1.1311849466666661,-3.204752586666666,1.2768554533333334,10.187430866951152,-6.699957697350399,1.7702602845491127,-2.3126839261180225,-10.649647798014861,8.355807257969099,13.732553298502669,-1.1415093325755372,13.243697038445251,-1.1156496195907966,0.6586788933333334,0.021936480000000008,0.29387700000000005,0.9744923733333335,0.7215973841461839,0.7416322999999819,0.7546177627413863,0.7806637470943291
LBP03_S04,LBP03,-1515,136,4,135,-1515,1715747655.4,2024-05-15 04:34:15.400000+00:00,2024-05-15 13:34:15.400000+09:00,2024,5,15,4,34,15,400,,,,,,,,,0.000732,0.0979,1.571289,-129.211426,61.401367,65.002441,,,,,,,,,,,0.0,1.0,1.0,4.0,0.0,0.0,0.0,4.0,0.0,0.08213212000000002,-0.1791472,0.9246842533333334,-0.06510421333333265,-5.624186186666666,0.16194660000000027,14.209771911619555,-5.146799752896855,-0.9346054508993185,-1.7442930496532403,-10.855519788130735,8.318423039933126,13.786987705255155,-1.1354110302514882,13.348703022966669,-1.1135946103358458,-0.08140012000000002,0.2770472,0.6466047466666666,1.0050520666666665,0.7081516991264785,0.7408615232393782,0.7611176220351014,0.7811436133708696
LBP03_S04,LBP03,-1514,137,4,136,-1514,1715747655.44,2024-05-15 04:34:15.440000+00:00,2024-05-15 13:34:15.440000+09:00,2024,5,15,4,34,15,440,,,,,,,,,-0.393555,-0.905762,2.123047,-12.634277,-21.057129,6.408691,,,,,,,,,,,0.0,1.0,1.0,4.0,0.0,0.0,0.0,4.0,0.0,0.08755529333333333,-0.16856126666666668,0.91345052,2.3990884933333336,-4.952799466666666,-0.5932617333333332,17.118271211138357,-2.196881898814552,-2.9285752248040677,-1.0595622012077062,-10.943395064083317,8.201280030940964,13.716470454630166,-1.086732482715519,13.394182221907318,-1.1091804348168148,-0.4811102933333333,-0.7372007333333332,1.20959648,2.4279075066666667,1.496013261975602,0.7774745348827569,0.7648075059707228,0.7923032359145439
LBP03_S04,LBP03,-1513,138,4,137,-1513,1715747655.48,2024-05-15 04:34:15.480000+00:00,2024-05-15 13:34:15.480000+09:00,2024,5,15,4,34,15,480,,,,,,,,,0.275635,-0.633545,1.893555,-32.287598,-37.04834,29.785156,,,,,,,,,,,0.0,1.0,1.0,4.0,0.0,0.0,0.0,4.0,0.0,0.0894726,-0.16612637333333333,0.9106673200000001,-0.6290690533333323,-4.855143213333333,-0.21891278666666628,18.749365431713294,1.1253855499496666,-4.132386307714132,-0.3095875839391744,-10.898379642085331,8.035984578632398,13.544281872552972,-1.0719184960438939,13.391573351027395,-1.1050955298313787,0.1861624,-0.46741862666666667,0.98288768,1.6364687066666668,1.104176074376046,0.7965220666693934,0.7687350749385778,0.7926294324887198
LBP03_S04,LBP03,-1512,139,4,138,-1512,1715747655.52,2024-05-15 04:34:15.520000+00:00,2024-05-15 13:34:15.520000+09:00,2024,5,15,4,34,15,520,,,,,,,,,0.133545,-0.411621,1.054932,87.097168,145.935059,39.978027,,,,,,,,,,,0.0,1.0,1.0,4.0,0.0,0.0,0.0,4.0,0.0,0.08518224,-0.16951830666666667,0.9167513066666667,-0.8015950933333323,-5.881347639999999,-0.5541992399999996,18.737242154566825,3.737242399291021,-4.457873953704869,0.43990210224349857,-10.74888994611369,7.857669620484203,13.32197886193724,-1.1001155660161404,13.355534016633118,-1.1054174007456203,0.04836275999999999,-0.24210269333333334,0.13818069333333327,0.4286461466666666,0.28292503368233846,0.7824037538404819,0.7627495299315009,0.7855020940921885
LBP03_S04,LBP03,-1511,140,4,139,-1511,1715747655.56,2024-05-15 04:34:15.560000+00:00,2024-05-15 13:34:15.560000+09:00,2024,5,15,4,34,15,560,,,,,,,,,-0.616943,0.06665,-0.041748,143.127441,115.234375,-55.419922,,,,,,,,,,,0.0,1.0,1.0,4.0,0.0,0.0,0.0,4.0,0.0,0.09484369333333334,-0.18163418666666667,0.9376171999999999,-1.072591186666666,-7.630208306666667,0.025227853333333692,16.835663169424002,4.961097942595863,-3.820591641260925,1.1133286290204587,-10.550446028409857,7.704845954833766,13.11167659844858,-1.0840814116271005,13.301405274699416,-1.100721288888666,-0.7117866933333333,0.24828418666666668,-0.9793651999999999,1.93943608,1.2358970544208643,0.7833592590697124,0.7759587557841421,0.7995973398590767
LBP03_S04,LBP03,-1510,141,4,140,-1510,1715747655.6,2024-05-15 04:34:15.600000+00:00,2024-05-15 13:34:15.600000+09:00,2024,5,15,4,34,15,600,,,,,,,,,0.053955,0.097656,0.141357,20.202637,-105.59082,-67.932129,,,,,,,,,,,0.0,1.0,1.0,4.0,0.0,0.0,0.0,4.0,0.0,0.08943353333333333,-0.1748666,0.9349284,2.5463866666666677,-3.2397460666666658,0.25146482666666703,13.262845467395913,4.731433983507778,-2.2690052813476194,1.6438424477162952,-10.361188669069545,7.614085743579862,12.962667562641386,-1.092897388016805,13.244054028710144,-1.0917737511488066,-0.035478533333333326,0.2725226,-0.7935714,1.1015725333333335,0.8398112054123859,0.8015265943217794,0.7826623495923302,0.790108971795042
LBP03_S04,LBP03,-1509,142,4,141,-1509,1715747655.64,2024-05-15 04:34:15.640000+00:00,2024-05-15 13:34:15.640000+09:00,2024,5,15,4,34,15,640,,,,,,,,,0.25708,-0.208496,0.741943,11.84082,-98.144531,-46.447754,,,,,,,,,,,0.0,1.0,1.0,4.0,0.0,0.0,0.0,4.0,0.0,0.08757806666666666,-0.17018561333333332,0.9308691600000001,1.2898762533333343,-4.408365853333333,0.8805338400000005,8.818362608011515,3.4762757152349195,-0.11327760788960457,1.9965769520367558,-10.222137640460149,7.609554639264278,12.89898210223834,-1.0906217081275003,13.196967100796758,-1.0851769627896444,0.1695019333333333,-0.03831038666666667,-0.18892616000000007,0.39673848,0.25669375735033545,0.7746366285731946,0.7549627528634134,0.7881806880947457
LBP03_S04,LBP03,-1508,143,4,142,-1508,1715747655.68,2024-05-15 04:34:15.680000+00:00,2024-05-15 13:34:15.680000+09:00,2024,5,15,4,34,15,680,,,,,,,,,0.571533,0.214355,1.067871,0.427246,34.362793,36.743164,,,,,,,,,,,0.0,1.0,1.0,4.0,0.0,0.0,0.0,4.0,0.0,0.08372389333333333,-0.1737923866666667,0.9247656400000002,1.1848957866666676,-5.484212213333333,-0.23274741333333301,4.658084488507147,1.794504984827469,2.0772001449675535,2.1829003315770414,-10.150357441067051,7.69264264506298,12.921747594797926,-1.116646646382116,13.170272101105255,-1.0816311843787623,0.48780910666666666,0.3881473866666667,0.14310535999999985,1.019061853333333,0.6396055521833935,0.7658862627722094,0.756501441214884,0.7855503084839157
LBP03_S04,LBP03,-1507,144,4,143,-1507,1715747655.72,2024-05-15 04:34:15.720000+00:00,2024-05-15 13:34:15.720000+09:00,2024,5,15,4,34,15,720,,,,,,,,,0.184082,-0.105225,1.749023,-124.511719,-38.269043,79.223633,,,,,,,,,,,0.0,1.0,1.0,4.0,0.0,0.0,0.0,4.0,0.0,0.08857416,-0.17076178666666667,0.9230175866666666,3.5074869333333343,-5.698242159999999,-1.1482747599999996,1.82416684533295,0.15847119176222793,3.6504553130574817,2.2558670053903596,-10.144018593396561,7.838660857585279,13.01670669598972,-1.0872788271305591,13.1673644577961,-1.0803249307109584,0.09550784,0.06553678666666667,0.8260054133333334,0.9870500400000001,0.8340873819714747,0.78164885857013,0.7696359888349065,0.7836326240749463
LBP03_S04,LBP03,-1506,145,4,144,-1506,1715747655.76,2024-05-15 04:34:15.760000+00:00,2024-05-15 13:34:15.760000+09:00,2024,5,15,4,34,15,760,,,,,,,,,-0.247803,-0.929932,1.904297,-72.021484,-44.555664,19.958496,,,,,,,,,,,0.0,1.0,1.0,4.0,0.0,0.0,0.0,4.0,0.0,0.09249668,-0.16372728,0.9217285199999999,0.4638671466666676,-4.631347626666666,-0.6030273599999998,0.7782277635026611,-1.185677159221225,4.134139969686229,2.286996115930466,-10.19144567976541,8.004026456372728,13.159040838609958,-1.052033955176943,13.181616664602867,-1.0796779995305843,-0.34029968,-0.76620472,0.98256848,2.08907288,1.2916324411564968,0.8038445377054686,0.7713068624477257,0.7855872295804772
LBP03_S04,LBP03,-1505,146,4,145,-1505,1715747655.8,2024-05-15 04:34:15.800000+00:00,2024-05-15 13:34:15.800000+09:00,2024,5,15,4,34,15,800,,,,,,,,,0.2854,-0.244141,1.316162,34.729004,90.576172,18.066406,,,,,,,,,,,0.0,1.0,1.0,4.0,0.0,0.0,0.0,4.0,0.0,0.09020501333333333,-0.16641608,0.9317187466666667,1.267903600000001,-5.557454386666667,-1.0237630266666666,1.1916850284241067,-2.110153092174144,3.4233327443900876,2.33466351706743,-10.275851803452376,8.140959766148331,13.316118426121292,-1.0694431466598666,13.19576530952171,-1.081891336937098,0.19519498666666665,-0.07772492,0.3844432533333334,0.6573631600000001,0.43810827547801945,0.7892563387921563,0.7651016044811649,0.7812732012363266
LBP03_S04,LBP03,-1504,147,4,146,-1504,1715747655.84,2024-05-15 04:34:15.840000+00:00,2024-05-15 13:34:15.840000+09:00,2024,5,15,4,34,15,840,,,,,,,,,-0.443848,-0.051758,0.102539,122.802734,202.575684,-18.798828,,,,,,,,,,,0.0,1.0,1.0,4.0,0.0,0.0,0.0,4.0,0.0,0.09607090666666666,-0.16976894666666667,0.9510481733333334,0.31494136000000095,-7.844238239999999,-0.9334309866666665,2.104098424628361,-2.4295200866510256,1.7792401514091165,2.4188274540525647,-10.373032606918416,8.212129372204696,13.449520457715144,-1.051274698606697,13.18558728720843,-1.0841164974080042,-0.5399189066666666,0.11801094666666667,-0.8485091733333333,1.5064390266666665,1.0126237339407507,0.7590034124835628,0.7758086183848184,0.7797562608772515
LBP03_S04,LBP03,-1503,148,4,147,-1503,1715747655.88,2024-05-15 04:34:15.880000+00:00,2024-05-15 13:34:15.880000+09:00,2024,5,15,4,34,15,880,,,,,,,,,-0.059326,0.012695,0.148682,-10.986328,-112.243652,-33.752441,,,,,,,,,,,0.0,1.0,1.0,4.0,0.0,0.0,0.0,4.0,0.0,0.09966792000000001,-0.17944017333333334,0.9695996,-0.1570638533333325,-5.030110626666667,-0.10009765333333324,2.352610532598948,-1.848496464843031,-0.35397569842077425,2.512931875356523,-10.446972465512138,8.197970344267866,13.515205439461399,-1.0588559593658555,13.126993496955858,-1.0853694304221322,-0.15899392,0.19213517333333335,-0.8209176,1.1720466933333333,0.8579631095907077,0.7698629518833647,0.7850427740285436,0.7794714654218671
LBP03_S04,LBP03,-1502,149,4,148,-1502,1715747655.92,2024-05-15 04:34:15.920000+00:00,2024-05-15 13:34:15.920000+09:00,2024,5,15,4,34,15,920,,,,,,,,,0.1875,-0.045166,0.25293,4.882812,-104.431152,-55.541992,,,,,,,,,,,0.0,1.0,1.0,4.0,0.0,0.0,0.0,4.0,0.0,0.08953446666666666,-0.17527025333333332,0.9633984266666666,0.12695308000000077,-3.1624348533333335,-1.1865234266666664,1.0414164958388485,-0.13596285253316392,-2.597511296420376,2.554588535190077,-10.452410979613465,8.094069892411051,13.464500930004935,-1.0936462542124015,13.003983791300794,-1.0855043126179005,0.09796553333333334,0.1301042533333333,-0.7104684266666667,0.9385382133333333,0.728896253075098,0.7811529397801281,0.7798280255972808,0.7853845750809029
LBP03_S04,LBP03,-1501,150,4,149,-1501,1715747655.96,2024-05-15 04:34:15.960000+00:00,2024-05-15 13:34:15.960000+09:00,2024,5,15,4,34,15,960,,,,,,,,,0.541504,-0.245361,0.527344,4.699707,-114.196777,-16.784668,,,,,,,,,,,0.0,1.0,1.0,4.0,0.0,0.0,0.0,4.0,0.0,0.08651362666666666,-0.17474617333333334,0.9614257733333333,-1.494140666666666,-2.4552408533333336,-1.5209960933333333,-2.1585430385668185,2.5722743027735753,-4.8018737838754655,2.4682468136474043,-10.349520007502521,7.901994941056032,13.253163047636994,-1.1062147856922342,12.814859614644712,-1.0897894850506955,0.4549903733333333,-0.07061482666666666,-0.4340817733333333,0.9596869733333333,0.632795132338564,0.7615745201046752,0.7750710714421668,0.7829818518562218
LBP03_S04,LBP03,-1500,151,4,150,-1500,1715747656.0,2024-05-15 04:34:16+00:00,2024-05-15 13:34:16+09:00,2024,5,15,4,34,16,0,4.0,34.0,16.0,40.541534,141.52179,10.254,3.0,12.0,0.228027,0.308838,0.875488,59.265137,73.486328,18.371582,-268.0,59.0,350.0,2763.0,0.0,1018.0,32.400002,0.049549,-39.448975,3.895313,0.0,1.0,1.0,4.0,0.0,0.0,0.0,4.0,0.0,0.08821285333333333,-0.18244148,0.9646972533333333,-3.1998698399999994,-4.24723304,-2.4300130133333333,-6.96188122322417,5.592074921265254,-7.032898417234108,2.1897715647184377,-10.125837010651912,7.620679004366668,12.860887339508594,-1.115148992725869,12.574205857248906,-1.094968797981713,0.1398141466666667,0.49127948,-0.0892092533333333,0.72030288,0.5185188655752936,0.7480335207528548,0.7777475636987035,0.7768654074901272
LBP03_S04,LBP03,-1499,152,4,151,-1499,1715747656.04,2024-05-15 04:34:16.040000+00:00,2024-05-15 13:34:16.040000+09:00,2024,5,15,4,34,16,40,,,,,,,,,-0.077148,-0.397949,1.504639,-205.078125,17.272949,54.321289,,,,,,,,,,,0.0,1.0,1.0,4.0,0.0,0.0,0.0,4.0,0.0,0.08999018666666665,-0.18050462666666667,0.9647167866666666,-2.1687825999999997,-3.458658813333334,-2.4096679599999993,-12.626834175238448,7.832012263923181,-9.397912082496102,1.6846981977088997,-9.812556520094985,7.244762521066824,12.313044199712627,-1.1031510382687801,12.30830138609974,-1.1007743625155482,-0.16713818666666663,-0.21744437333333333,0.5399222133333335,0.9245047733333334,0.6055850273803945,0.743959040427856,0.7645935463254291,0.7724985285189452
LBP03_S04,LBP03,-1498,153,4,152,-1498,1715747656.08,2024-05-15 04:34:16.080000+00:00,2024-05-15 13:34:16.080000+09:00,2024,5,15,4,34,16,80,,,,,,,,,0.074951,-0.218506,1.548828,62.744141,33.203125,1.586914,,,,,,,,,,,0.0,1.0,1.0,4.0,0.0,0.0,0.0,4.0,0.0,0.08774084,-0.18278001333333332,0.9686913866666667,-3.0598958799999996,-3.227539026666667,-2.024739573333333,-18.199656694977847,8.23921998267163,-11.833175991143644,0.9567119299097858,-9.48298772078812,6.771435481421078,11.691650538247297,-1.1179954683397992,12.044690428921855,-1.107406425583868,-0.012789839999999997,-0.03572598666666668,0.5801366133333334,0.6286524400000001,0.5813763120908885,0.7529217801072609,0.7629956891768336,0.7704810125281649
LBP03_S04,LBP03,-1497,154,4,153,-1497,1715747656.12,2024-05-15 04:34:16.120000+00:00,2024-05-15 13:34:16.120000+09:00,2024,5,15,4,34,16,120,,,,,,,,,0.163818,-0.459473,1.322021,-32.043457,94.116211,14.099121,,,,,,,,,,,0.0,1.0,1.0,4.0,0.0,0.0,0.0,4.0,0.0,0.08863927999999999,-0.19071946666666667,0.9772949066666666,-2.6847331199999993,-4.189453093333334,-1.7993163999999995,-22.72062910427687,6.324269761995458,-14.002951278243835,0.04788676573871098,-9.230016930308302,6.211317430291325,11.125464929428865,-1.130130551458508,11.802055912722535,-1.1148989189361571,0.07517872,-0.26875353333333335,0.34472609333333326,0.6886583466666666,0.4435272044022232,0.7436260365084106,0.763192815210149,0.7626484390750287
LBP03_S04,LBP03,-1496,155,4,154,-1496,1715747656.16,2024-05-15 04:34:16.160000+00:00,2024-05-15 13:34:16.160000+09:00,2024,5,15,4,34,16,160,,,,,,,,,-0.459717,-0.060791,0.140625,3.479004,131.164551,-29.846191,,,,,,,,,,,0.0,1.0,1.0,4.0,0.0,0.0,0.0,4.0,0.0,0.09678381333333334,-0.19470384000000002,0.99296548,-2.561035213333333,-5.222167933333334,-0.9423827999999995,-25.331462111027808,2.476487438419013,-15.394586836631042,-0.9653717187024013,-9.130957432771542,5.595533956826084,10.752503264651914,-1.1038270844871199,11.587022405344232,-1.1164888890929379,-0.5565008133333333,0.13391284000000003,-0.85234048,1.5427541333333332,1.026698640207611,0.7443410535518967,0.7720036329811232,0.7612226363583829
LBP03_S04,LBP03,-1495,156,4,155,-1495,1715747656.2,2024-05-15 04:34:16.200000+00:00,2024-05-15 13:34:16.200000+09:00,2024,5,15,4,34,16,200,,,,,,,,,-0.05542,-0.088135,0.187744,-16.357422,-101.44043,-77.087402,,,,,,,,,,,0.0,1.0,1.0,4.0,0.0,0.0,0.0,4.0,0.0,0.08911128,-0.19035162666666666,0.9885351333333333,0.7413736400000005,-1.284993453333334,-1.26708984,-25.31912001815644,-2.123787105563361,-15.57217211926476,-1.9781365194286589,-9.215908916994076,4.972647072055493,10.657073714629655,-1.127498791998216,11.398639624206174,-1.1167450831036079,-0.14453127999999998,0.10221662666666666,-0.8007911333333333,1.04753904,0.8201243618444921,0.7647760625358064,0.776188147122886,0.7633293267918736
LBP03_S04,LBP03,-1494,157,4,156,-1494,1715747656.24,2024-05-15 04:34:16.240000+00:00,2024-05-15 13:34:16.240000+09:00,2024,5,15,4,34,16,240,,,,,,,,,0.289307,-0.063477,0.467773,45.410156,-119.384766,-93.87207,,,,,,,,,,,0.0,1.0,1.0,4.0,0.0,0.0,0.0,4.0,0.0,0.08988926666666666,-0.18708665333333332,0.9869466,0.44759109333333374,-2.0068359066666672,-1.4851887999999998,-22.183480486825335,-5.986444275129355,-14.44424973023686,-2.8654757389016723,-9.45536668799925,4.394877082846019,10.813410885936275,-1.1175953292898964,11.236223989983467,-1.119008685324874,0.19941773333333332,0.12360965333333332,-0.5191736,0.8422009866666667,0.5697262550575946,0.7539075310892287,0.7612634262287521,0.7617396203464284
LBP03_S04,LBP03,-1493,158,4,157,-1493,1715747656.28,2024-05-15 04:34:16.280000+00:00,2024-05-15 13:34:16.280000+09:00,2024,5,15,4,34,16,280,,,,,,,,,0.582031,-0.025635,0.893066,-16.784668,-88.195801,-20.446777,,,,,,,,,,,0.0,1.0,1.0,4.0,0.0,0.0,0.0,4.0,0.0,0.08838536,-0.19198574666666668,0.9865722533333333,0.31982417333333385,-2.051595013333334,-1.8579101599999996,-15.789195658198095,-7.956341581368942,-12.372395708008147,-3.497043565229596,-9.773620351254008,3.8999812545256933,11.088860277468196,-1.1337808928887456,11.105168007891852,-1.121058557436862,0.49364564,0.1663507466666667,-0.09350625333333329,0.75350264,0.5292466421433438,0.7450008657400986,0.7585846219597582,0.7610190626465634
LBP03_S04,LBP03,-1492,159,4,158,-1492,1715747656.32,2024-05-15 04:34:16.320000+00:00,2024-05-15 13:34:16.320000+09:00,2024,5,15,4,34,16,320,,,,,,,,,0.227783,0.282471,1.178467,-77.209473,49.255371,62.988281,,,,,,,,,,,0.0,1.0,1.0,4.0,0.0,0.0,0.0,4.0,0.0,0.09287754666666666,-0.18945970666666664,0.9848209466666666,1.5462239200000005,-2.272949186666667,-2.0947265599999993,-6.575170353373749,-7.688678621291648,-10.026563816731757,-3.760050379364546,-10.081167496105675,3.498918701856423,11.31416585622191,-1.109545955780212,11.016673001147058,-1.1230319359564227,0.13490545333333337,0.4719307066666667,0.1936460533333333,0.8004822133333334,0.5276522218332335,0.7481373152303925,0.7608655011592873,0.7509962768877952
LBP03_S04,LBP03,-1491,160,4,159,-1491,1715747656.36,2024-05-15 04:34:16.360000+00:00,2024-05-15 13:34:16.360000+09:00,2024,5,15,4,34,16,360,,,,,,,,,-0.248047,-0.894775,1.873047,-189.575195,-32.104492,51.940918,,,,,,,,,,,0.0,1.0,1.0,4.0,0.0,0.0,0.0,4.0,0.0,0.09210605333333333,-0.18746752,0.9848242000000001,0.9749348533333337,-1.705729133333334,-2.036946613333333,4.307544948675414,-5.721241436135644,-8.047727051023221,-3.5877485814175296,-10.310017153551101,3.177009619815494,11.369335236256411,-1.108776725798931,10.980836751110461,-1.122147791873491,-0.34015305333333334,-0.70730748,0.8882227999999998,1.935683333333333,1.1852964664571388,0.7666852785228307,0.7541587892614063,0.7586402680018677
LBP03_S04,LBP03,-1490,161,4,160,-1490,1715747656.4,2024-05-15 04:34:16.400000+00:00,2024-05-15 13:34:16.400000+09:00,2024,5,15,4,34,16,400,,,,,,,,,0.05957,-0.191162,1.362061,66.833496,12.756348,25.085449,,,,,,,,,,,0.0,1.0,1.0,4.0,0.0,0.0,0.0,4.0,0.0,0.08981763999999999,-0.19728849333333334,0.9930631333333332,1.489257773333334,-2.2119140266666673,-1.5478515599999996,15.106124174547428,-3.1413659846268427,-6.711830805216049,-2.9835036144356324,-10.435671792936175,2.908536387606852,11.23673099728152,-1.1377850149385313,10.998419012185348,-1.126160775620875,-0.030247639999999992,0.006126493333333344,0.3689978666666668,0.4053720000000001,0.37028621261219563,0.7531706590622594,0.7470160911508188,0.7584686343774873
LBP03_S04,LBP03,-1489,162,4,161,-1489,1715747656.44,2024-05-15 04:34:16.440000+00:00,2024-05-15 13:34:16.440000+09:00,2024,5,15,4,34,16,440,,,,,,,,,0.277832,-0.123047,0.935303,136.413574,140.319824,28.808594,,,,,,,,,,,0.0,1.0,1.0,4.0,0.0,0.0,0.0,4.0,0.0,0.09374342666666666,-0.19841153333333333,1.0026204266666667,2.8588866800000003,-1.8066405866666677,-0.7975260399999995,23.913067845015327,-1.0515676281438955,-5.8035322324843746,-2.0269809006350195,-10.477734498061931,2.676395098307477,11.00248437879648,-1.1236497593886592,11.060085299335615,-1.1293823307943434,0.18408857333333337,0.07536453333333333,-0.06731742666666674,0.32677053333333345,0.210000122974905,0.7017301335022316,0.7396023341924941,0.7437817151478923
LBP03_S04,LBP03,-1488,163,4,162,-1488,1715747656.48,2024-05-15 04:34:16.480000+00:00,2024-05-15 13:34:16.480000+09:00,2024,5,15,4,34,16,480,,,,,,,,,-0.542969,0.082031,-0.062012,145.690918,76.477051,-73.120117,,,,,,,,,,,0.0,1.0,1.0,4.0,0.0,0.0,0.0,4.0,0.0,0.08851881333333332,-0.19427741333333332,1.0002799333333334,4.007975213333334,-0.12532548000000096,-0.7690429733333329,29.32319669279595,-0.11660180936485942,-4.787575237389942,-0.8540530329231815,-10.482398570436526,2.4848920888118795,10.806700470799349,-1.1377292535354067,11.156102630454294,-1.1364914383385394,-0.6314878133333334,0.27630841333333334,-1.0622919333333334,1.97008816,1.2663282944372563,0.70821622230468,0.7523691444870366,0.7485621240606118
LBP03_S04,LBP03,-1487,164,4,163,-1487,1715747656.52,2024-05-15 04:34:16.520000+00:00,2024-05-15 13:34:16.520000+09:00,2024,5,15,4,34,16,520,,,,,,,,,0.239746,-0.062744,0.297852,20.874023,-107.116699,-74.951172,,,,,,,,,,,0.0,1.0,1.0,4.0,0.0,0.0,0.0,4.0,0.0,0.09274733333333332,-0.19499356,1.0061685999999999,3.142089800000001,-0.12288408000000117,-0.4947916799999995,30.984107335016425,-0.4096818803150114,-3.1862896850967495,0.38531126047747555,-10.498785845649127,2.3574405014080098,10.767102429062893,-1.1212891106291922,11.288868042874666,-1.1377787869922815,0.14699866666666667,0.13224956000000002,-0.7083165999999999,0.9875648266666666,0.7353985041849971,0.7263151611247863,0.7543594574826341,0.7506047403292627
LBP03_S04,LBP03,-1486,165,4,164,-1486,1715747656.56,2024-05-15 04:34:16.560000+00:00,2024-05-15 13:34:16.560000+09:00,2024,5,15,4,34,16,560,,,,,,,,,0.319092,-0.068115,0.513916,47.607422,-102.416992,-62.255859,,,,,,,,,,,0.0,1.0,1.0,4.0,0.0,0.0,0.0,4.0,0.0,0.09017572,-0.20132168,1.0188639066666667,3.5205077600000005,1.2475586266666654,-0.22135418666666615,29.730095019381814,-1.5946126025477763,-0.9418513667957504,1.574515061252748,-10.562570349751038,2.3197664467361796,10.928325875400793,-1.1439569219609584,11.47809983279591,-1.1415497406167645,0.22891627999999997,0.13320668000000002,-0.5049479066666667,0.8670708666666667,0.5701921354181496,0.6996869643646778,0.741523111717195,0.7505348253109873
LBP03_S04,LBP03,-1485,166,4,165,-1485,1715747656.6,2024-05-15 04:34:16.600000+00:00,2024-05-15 13:34:16.600000+09:00,2024,5,15,4,34,16,600,,,,,,,,,0.579346,0.12915,0.929443,44.189453,-24.719238,-3.78418,,,,,,,,,,,0.0,1.0,1.0,4.0,0.0,0.0,0.0,4.0,0.0,0.08690424000000001,-0.20246101333333333,1.0289159866666666,3.085123653333334,1.1596679999999988,0.40120441333333384,27.200528939252976,-3.2747967012776664,1.460467493653142,2.662536218822867,-10.693562217802144,2.378185146482305,11.273736586132308,-1.1597143437329007,11.75515153360765,-1.146848857028886,0.49244176,0.3316110133333333,-0.0994729866666666,0.92352576,0.6019631435829311,0.6901730418914995,0.7458498181066396,0.75183258035872
LBP03_S04,LBP03,-1484,167,4,166,-1484,1715747656.64,2024-05-15 04:34:16.640000+00:00,2024-05-15 13:34:16.640000+09:00,2024,5,15,4,34,16,640,,,,,,,,,0.103516,-0.038574,1.431152,-160.400391,23.071289,94.787598,,,,,,,,,,,0.0,1.0,1.0,4.0,0.0,0.0,0.0,4.0,0.0,0.08329096,-0.21082689333333335,1.0365754933333333,7.024739533333333,-0.11474606666666792,-0.5379231866666662,25.11105752200127,-5.252670601433606,3.1979591155958267,3.6669785197029183,-10.903669041859489,2.5061035111061383,11.773584197123073,-1.188686404731856,12.149694334483923,-1.1489022159536546,0.02022504,0.17225289333333335,0.39457650666666666,0.58705444,0.43101128885213247,0.6971457431515714,0.735891185862383,0.7356904162927995
LBP03_S04,LBP03,-1483,168,4,167,-1483,1715747656.68,2024-05-15 04:34:16.680000+00:00,2024-05-15 13:34:16.680000+09:00,2024,5,15,4,34,16,680,,,,,,,,,0.009277,-0.858643,1.971191,-24.536133,-19.042969,52.246094,,,,,,,,,,,0.0,1.0,1.0,4.0,0.0,0.0,0.0,4.0,0.0,0.08945306666666666,-0.20104173333333333,1.0374511466666667,6.302897093333335,-0.6998697733333347,-1.211751306666666,24.518320621345335,-7.540441444142786,3.5391749453616383,4.647711344556732,-11.2052866996252,2.6476705089206036,12.416514401671936,-1.146654379426168,12.675462696421159,-1.1537410443530771,-0.08017606666666666,-0.6576012666666667,0.9337398533333332,1.6715171866666667,1.1448745526435187,0.7173565031699763,0.7416213829710929,0.7434531285332482
LBP03_S04,LBP03,-1482,169,4,168,-1482,1715747656.72,2024-05-15 04:34:16.720000+00:00,2024-05-15 13:34:16.720000+09:00,2024,5,15,4,34,16,720,,,,,,,,,0.126465,-0.378906,1.485596,0.12207,20.019531,44.189453,,,,,,,,,,,0.0,1.0,1.0,4.0,0.0,0.0,0.0,4.0,0.0,0.08846673333333333,-0.19912441333333333,1.0314908666666667,6.305338493333334,0.4012044533333324,-1.5136718799999995,25.42327646780087,-10.155861869788556,2.2535422735305137,5.664642403268767,-11.611521174416742,2.7378121998618243,13.206483755434341,-1.1472554920250424,13.322576364410162,-1.1590925538158714,0.03799826666666667,-0.1797815866666667,0.45410513333333324,0.6718849866666666,0.4898742280358701,0.7035879770125522,0.7426184177913412,0.7476199848941217
LBP03_S04,LBP03,-1481,170,4,169,-1481,1715747656.76,2024-05-15 04:34:16.760000+00:00,2024-05-15 13:34:16.760000+09:00,2024,5,15,4,34,16,760,,,,,,,,,-0.043701,-0.159668,0.553223,130.493164,172.912598,17.211914,,,,,,,,,,,0.0,1.0,1.0,4.0,0.0,0.0,0.0,4.0,0.0,0.08573234666666667,-0.20082687999999999,1.0268294,4.9397786,-1.8424478800000013,-2.5577799599999995,26.88996060224457,-12.88201422902838,-0.23032060029587037,6.74024082735855,-12.126801743577877,2.7285993758499894,14.139852244373824,-1.161767889920144,14.060877170328647,-1.167081817721694,-0.12943334666666667,0.04115887999999998,-0.4736064,0.6441986266666666,0.49269672898563865,0.6716305485257179,0.7377375431155933,0.738081424473723
LBP03_S04,LBP03,-1480,171,4,170,-1480,1715747656.8,2024-05-15 04:34:16.800000+00:00,2024-05-15 13:34:16.800000+09:00,2024,5,15,4,34,16,800,,,,,,,,,-0.249512,0.216064,-0.182617,86.242676,-74.645996,-71.228027,,,,,,,,,,,0.0,1.0,1.0,4.0,0.0,0.0,0.0,4.0,0.0,0.08621737333333333,-0.20004887999999998,1.0240331733333332,5.265299426666667,0.18066409333333205,-1.9311523599999993,27.590818288130638,-15.192563616218784,-3.0037880311327343,7.843873558883775,-12.734504288226628,2.60844785460468,15.182159006044238,-1.1583186041862175,14.851569639703886,-1.1705854906469084,-0.33572937333333336,0.41611288,-1.2066501733333332,1.9584924266666666,1.3197987656556018,0.706898168132821,0.7480772534624888,0.7457004590317171
LBP03_S04,LBP03,-1479,172,4,171,-1479,1715747656.84,2024-05-15 04:34:16.840000+00:00,2024-05-15 13:34:16.840000+09:00,2024,5,15,4,34,16,840,,,,,,,,,0.251953,-0.062988,0.328613,67.321777,-118.652344,-85.021973,,,,,,,,,,,0.0,1.0,1.0,4.0,0.0,0.0,0.0,4.0,0.0,0.08301098666666666,-0.20013677333333335,1.01659828,4.733886666666667,1.682942733333332,-0.7584635599999994,26.477840763205116,-16.43852037652191,-5.091470061302709,8.90298718941198,-13.392045103287504,2.4047890521525717,16.260167998168825,-1.1720380433828856,15.6589376458117,-1.1718087241265498,0.1689420133333333,0.13714877333333336,-0.6879852799999999,0.9940760666666666,0.7215780868295798,0.6952563422483743,0.7271298773659686,0.7489578596726705
LBP03_S04,LBP03,-1478,173,4,172,-1478,1715747656.88,2024-05-15 04:34:16.880000+00:00,2024-05-15 13:34:16.880000+09:00,2024,5,15,4,34,16,880,,,,,,,,,0.394287,0.044189,0.523193,52.246094,-117.06543,-36.987305,,,,,,,,,,,0.0,1.0,1.0,4.0,0.0,0.0,0.0,4.0,0.0,0.07858064,-0.20019536,1.0145930666666667,4.616699173333334,2.617187519999999,-0.2783203333333327,23.2455151701481,-16.207267229653468,-5.87192517924423,9.832807796217905,-14.040335792473643,2.1699120449828024,17.277837150689365,-1.1912443481633506,16.455999946765328,-1.1698900718308063,0.31570636,0.24438436,-0.4914000666666667,1.0514907866666667,0.6331415692221319,0.6862634806336314,0.728063216258498,0.7521163428969061
LBP03_S04,LBP03,-1477,174,4,173,-1477,1715747656.92,2024-05-15 04:34:16.920000+00:00,2024-05-15 13:34:16.920000+09:00,2024,5,15,4,34,16,920,,,,,,,,,0.295898,0.091797,0.967529,29.052734,42.114258,27.160645,,,,,,,,,,,0.0,1.0,1.0,4.0,0.0,0.0,0.0,4.0,0.0,0.07806306666666665,-0.20495772,1.0148111599999998,4.700520786666668,2.2436523599999987,-0.1733398533333328,18.39637900304721,-14.620363692447475,-5.29085844612855,10.568662956339793,-14.625150340171542,1.9582777071376605,18.15011048824775,-1.201181749687415,17.22410242718536,-1.1713348873060536,0.21783493333333334,0.29675472,-0.04728215999999985,0.5618718133333332,0.3711482516150141,0.671953560575228,0.7265532501776781,0.7438698705899299
LBP03_S04,LBP03,-1476,175,4,174,-1476,1715747656.96,2024-05-15 04:34:16.960000+00:00,2024-05-15 13:34:16.960000+09:00,2024,5,15,4,34,16,960,,,,,,,,,0.072021,-0.264893,1.602783,-169.677734,-30.029297,58.349609,,,,,,,,,,,0.0,1.0,1.0,4.0,0.0,0.0,0.0,4.0,0.0,0.08439119999999999,-0.20778649333333335,1.0133560799999999,5.829264266666668,1.6870117333333319,-0.03906250666666613,12.939495741582524,-12.357186551554934,-3.7872249673097524,11.086242786003094,-15.11943780223374,1.8067887084452703,18.835250569153192,-1.178993651213104,17.94970798819204,-1.1722247611426995,-0.012370199999999984,-0.05710650666666664,0.5894269200000002,0.6589036266666668,0.5923160212018552,0.6703343961297595,0.7159544581172175,0.7401588463380311
LBP03_S04,LBP03,-1475,176,4,175,-1475,1715747657.0,2024-05-15 04:34:17+00:00,2024-05-15 13:34:17+09:00,2024,5,15,4,34,17,0,4.0,34.0,17.0,40.54158,141.521606,9.433,3.0,12.0,-0.003906,-0.593018,1.716797,25.695801,5.187988,1.953125,-261.0,55.0,352.0,2529.0,0.0,1018.400024,32.450001,0.053513,-42.764385,3.895313,0.0,1.0,1.0,4.0,0.0,0.0,0.0,15.0,0.0,0.08399731999999999,-0.20257490666666667,1.0110058133333335,7.11263016,3.3968099066666655,0.16601562666666722,7.9272959623999535,-10.365936886359325,-2.0202997720144764,11.403334624499092,-15.534075277688114,1.7259767175646912,19.347416647210455,-1.1719466785293138,18.621438729740852,-1.1697010154509278,-0.08790332,-0.3904430933333334,0.7057911866666664,1.1841375999999997,0.8113655168757578,0.6820482621817783,0.7150408914673165,0.7458477965263951
LBP03_S04,LBP03,-1474,177,4,176,-1474,1715747657.04,2024-05-15 04:34:17.040000+00:00,2024-05-15 13:34:17.040000+09:00,2024,5,15,4,34,17,40,,,,,,,,,0.203857,-0.625,1.542725,4.272461,57.617188,35.766602,,,,,,,,,,,0.0,1.0,1.0,4.0,0.0,0.0,0.0,15.0,0.0,0.08208325333333333,-0.19643233333333332,1.00832352,7.210286413333333,4.442545573333332,-0.1668294266666661,4.081347878942241,-9.413520595709828,-0.5756360720510237,11.566588539656781,-15.910616101516506,1.7029512746826503,19.744207206659354,-1.169499881774423,19.22905058111158,-1.1695354061526388,0.12177374666666668,-0.4285676666666667,0.5344014799999999,1.0847428933333332,0.6957614764526266,0.6856553201446673,0.7148071802862617,0.7382808042651753
LBP03_S04,LBP03,-1473,178,4,177,-1473,1715747657.08,2024-05-15 04:34:17.080000+00:00,2024-05-15 13:34:17.080000+09:00,2024,5,15,4,34,17,80,,,,,,,,,-0.404785,-0.007324,0.187988,101.318359,154.968262,-10.864258,,,,,,,,,,,0.0,1.0,1.0,4.0,0.0,0.0,0.0,15.0,0.0,0.08416658666666665,-0.1967871466666667,1.00796544,5.118001266666667,2.307128906666665,-0.9488932266666662,1.6529587156064087,-9.714233139448764,0.20301526133754735,11.632706888281037,-16.299185427094457,1.7110718851361522,20.097539205872266,-1.161102534178641,19.76426323523973,-1.170102090281171,-0.48895158666666666,0.1894631466666667,-0.81997744,1.4983921733333334,0.9733103000367556,0.7013326796625021,0.7271272298848815,0.7424413526720565
LBP03_S04,LBP03,-1472,179,4,178,-1472,1715747657.12,2024-05-15 04:34:17.120000+00:00,2024-05-15 13:34:17.120000+09:00,2024,5,15,4,34,17,120,,,,,,,,,0.108154,0.097656,0.267334,-3.112793,-144.958496,-38.574219,,,,,,,,,,,0.0,1.0,1.0,4.0,0.0,0.0,0.0,15.0,0.0,0.08683585333333332,-0.20036786666666667,1.0132160933333332,4.803059853333333,2.438964839999998,-1.392415359999999,0.49084111805287894,-10.836191595824964,0.21642350006505753,11.652340533003152,-16.732633090927457,1.7197288251387544,20.462539365501094,-1.1561542303915,20.221800452886832,-1.1667473717062773,0.021318146666666676,0.2980238666666667,-0.7458820933333332,1.0652241066666666,0.803500333313912,0.7157316048189696,0.7296788206636902,0.7473724117464227
LBP03_S04,LBP03,-1471,180,4,179,-1471,1715747657.16,2024-05-15 04:34:17.160000+00:00,2024-05-15 13:34:17.160000+09:00,2024,5,15,4,34,17,160,,,,,,,,,0.262939,-0.131348,0.607422,-12.695312,-115.966797,-73.669434,,,,,,,,,,,0.0,1.0,1.0,4.0,0.0,0.0,0.0,15.0,0.0,0.09084301333333333,-0.19878909333333333,1.01617508,5.597330693333333,2.9744466133333316,-1.1425781199999991,0.18132943130086998,-11.933992563248697,-0.48490057598714725,11.659593710255187,-17.209992793457406,1.7003328020992685,20.857159659861956,-1.1365304330024266,20.59884291441709,-1.1642114967735224,0.17209598666666664,0.06744109333333334,-0.40875308,0.64829016,0.44860273082790664,0.6926077684437816,0.7184744109978393,0.7455383448020094
LBP03_S04,LBP03,-1470,181,4,180,-1470,1715747657.2,2024-05-15 04:34:17.200000+00:00,2024-05-15 13:34:17.200000+09:00,2024,5,15,4,34,17,200,,,,,,,,,0.536377,-0.074951,1.422363,46.203613,3.540039,11.901855,,,,,,,,,,,0.0,1.0,1.0,4.0,0.0,0.0,0.0,15.0,0.0,0.08553052,-0.19753257333333335,1.0154198666666667,4.951985639999999,3.2267252533333317,-0.9700520799999992,0.1536920229631232,-12.165849041767792,-1.7787055908248925,11.665741391173713,-17.69662675512812,1.6291845784662728,21.25827751975151,-1.1566625112033295,20.892548605475433,-1.1636726886978501,0.45084648,0.12258157333333335,0.4069431333333333,0.9803711866666667,0.6195897872111974,0.6845863854584497,0.7246812239971281,0.7456542265680739
LBP03_S04,LBP03,-1469,182,4,181,-1469,1715747657.24,2024-05-15 04:34:17.240000+00:00,2024-05-15 13:34:17.240000+09:00,2024,5,15,4,34,17,240,,,,,,,,,0.023193,-0.369873,1.909912,-209.777832,20.385742,69.213867,,,,,,,,,,,0.0,1.0,1.0,4.0,0.0,0.0,0.0,15.0,0.0,0.08277010666666666,-0.20287110666666666,1.0160351066666666,3.90136716,3.3846028533333317,-1.0481770799999992,-0.25055908326175896,-11.052116278669372,-3.4583309128290836,11.655719027843242,-18.138711406274894,1.4908513419531095,21.612294539450396,-1.1777048846682054,21.097015745522967,-1.1632753403504987,-0.059577106666666664,-0.16700189333333335,0.8938768933333334,1.1204558933333335,0.9112930178877379,0.6982490559716555,0.7260782935304421,0.7402586361430533
LBP03_S04,LBP03,-1468,183,4,182,-1468,1715747657.28,2024-05-15 04:34:17.280000+00:00,2024-05-15 13:34:17.280000+09:00,2024,5,15,4,34,17,280,,,,,,,,,-0.074707,-0.743896,2.266357,75.927734,-77.880859,11.962891,,,,,,,,,,,0.0,1.0,1.0,4.0,0.0,0.0,0.0,15.0,0.0,0.08671217333333332,-0.20093750666666668,1.01466792,5.012206999999999,3.6661783733333313,-0.8154296799999992,-1.6649327020485187,-8.596079821466068,-5.156342017551892,11.589121719761302,-18.482554599133536,1.284597661251034,21.85320932716032,-1.1576971624144161,21.201703540738613,-1.1637359493513704,-0.16141917333333333,-0.5429584933333333,1.2516890800000002,1.956066746666667,1.3738943292675994,0.7320349634566257,0.7385179145983622,0.7497347357920474
