file_name,test_id,_program_index,program_index,session_id,index,_index,unixtime,datetime_utc,datetime_jst,rtc_year,rtc_month,rtc_day,rtc_hour,rtc_min,rtc_sec,rtc_msec,gps_hour,gps_min,gps_sec,latitude,longitude,altitude,fix_type,SIV,acc_x,acc_y,acc_z,gyro_x,gyro_y,gyro_z,mag_x,mag_y,mag_z,illuminance,atmopress,water_pressure,water_temp,depth,alt_wps,battery_level,behavior_class,camera_command,camera_recording,camera_count,play_audio,speaker_on,audio_file,prev_sd_write_time_ms,delay_occurred_counter,acc_x_ma,acc_y_ma,acc_z_ma,gyro_x_ma,gyro_y_ma,gyro_z_ma,gyro_x_lowpass,gyro_y_lowpass,gyro_z_lowpass,angle_x,angle_y,angle_z,combined_angle_change,gravity_adjusted_angle,smoothed_angle_change,smoothed_gravity_angle,acc_x_dy,acc_y_dy,acc_z_dy,ODBA,VeDBA,smoothed_VeDBA_1s,smoothed_VeDBA_2s,smoothed_VeDBA_3s
LBP03_S07,LBP03,0,1,7,0,0,1715754803.0,2024-05-15 06:33:23+00:00,2024-05-15 15:33:23+09:00,2024,5,15,6,33,23,0,6.0,33.0,23.0,40.533031,141.467316,1.947,3.0,14.0,0.502197,-0.024658,1.083496,2.990723,28.869629,86.730957,-255.0,11.0,361.0,1722.0,0.0,1022.099976,30.9,0.090179,-73.379799,3.803906,0.0,1.0,1.0,7.0,0.0,0.0,0.0,4.0,0.0,,,,,,,2.587075536221172,28.38705474408046,86.17586762920786,0.10348302144884688,1.1354821897632184,3.4470347051683143,3.630712987504309,,6.86382030838128,,,,,,,,,
LBP03_S07,LBP03,1,2,7,1,1,1715754803.04,2024-05-15 06:33:23.040000+00:00,2024-05-15 15:33:23.040000+09:00,2024,5,15,6,33,23,40,,,,,,,,,-0.283691,-0.44458,1.557861,-128.295898,72.265625,74.279785,,,,,,,,,,,0.0,1.0,1.0,7.0,0.0,0.0,0.0,4.0,0.0,,,,,,,19.016968257983713,22.632290426417782,54.372349128235584,0.8641617517681954,2.0407738068199297,5.621928670297738,6.042980658395083,,7.276899888620073,,,,,,,,,
LBP03_S07,LBP03,2,3,7,2,2,1715754803.08,2024-05-15 06:33:23.080000+00:00,2024-05-15 15:33:23.080000+09:00,2024,5,15,6,33,23,80,,,,,,,,,0.115723,-0.300537,1.44751,110.107422,-23.193359,30.639648,,,,,,,,,,,0.0,1.0,1.0,7.0,0.0,0.0,0.0,4.0,0.0,,,,,,,32.52367101993746,16.669556777711392,25.29092868594003,2.165108592565694,2.7075560779283854,6.633565817735339,7.484834706989558,,7.641812885059167,,,,,,,,,
LBP03_S07,LBP03,3,4,7,3,3,1715754803.12,2024-05-15 06:33:23.120000+00:00,2024-05-15 15:33:23.120000+09:00,2024,5,15,6,33,23,120,,,,,,,,,0.210693,-0.692871,1.097656,38.208008,93.811035,19.836426,,,,,,,,,,,0.0,1.0,1.0,7.0,0.0,0.0,0.0,4.0,0.0,,,,,,,40.84214976364079,10.778624067709593,1.356326582877052,3.7987945831113255,3.1387010406367692,6.687818881050421,8.307177974071868,,7.97227313988021,,,,,,,,,
LBP03_S07,LBP03,4,5,7,4,4,1715754803.16,2024-05-15 06:33:23.160000+00:00,2024-05-15 15:33:23.160000+09:00,2024,5,15,6,33,23,160,,,,,,,,,-0.421875,0.247803,-0.366943,288.94043,158.02002,-97.961426,,,,,,,,,,,0.0,1.0,1.0,7.0,0.0,0.0,0.0,4.0,0.0,,,,,,,43.00594185375295,5.585701130313982,-15.911430845822972,5.519032257261443,3.3621290858493285,6.051361647217503,8.85339521494558,,8.272127876318198,,,,,,,,,
LBP03_S07,LBP03,5,6,7,5,5,1715754803.2,2024-05-15 06:33:23.200000+00:00,2024-05-15 15:33:23.200000+09:00,2024,5,15,6,33,23,200,,,,,,,,,0.019043,0.226562,0.214355,-70.3125,-141.113281,-47.485352,,,,,,,,,,,0.0,1.0,1.0,7.0,0.0,0.0,0.0,4.0,0.0,,,,,,,39.55070742552527,1.8679046548785097,-26.180180393680427,7.101060554282454,3.4368452720444687,5.004154431470285,9.342297789814042,,8.54434202284671,,,,,,,,,
LBP03_S07,LBP03,6,7,7,6,6,1715754803.24,2024-05-15 06:33:23.240000+00:00,2024-05-15 15:33:23.240000+09:00,2024,5,15,6,33,23,240,,,,,,,,,0.608643,-0.387451,0.438965,-99.243164,-241.210938,-105.163574,,,,,,,,,,,0.0,1.0,1.0,7.0,0.0,0.0,0.0,4.0,0.0,,,,,,,32.25113508741372,0.18609622129835154,-30.29980858054761,8.391105957779002,3.4442891208964026,3.7921620882483804,9.831290863693734,,9.309847259631589,,,,,,,,,
LBP03_S07,LBP03,7,8,7,7,7,1715754803.28,2024-05-15 06:33:23.280000+00:00,2024-05-15 15:33:23.280000+09:00,2024,5,15,6,33,23,280,,,,,,,,,0.52417,-0.125732,1.030029,154.541016,122.070312,42.114258,,,,,,,,,,,0.0,1.0,1.0,7.0,0.0,0.0,0.0,4.0,0.0,,,,,,,23.471926876822863,0.5549475656622875,-29.966321358297975,9.329983032851917,3.466487023522894,2.5935092339164614,10.285494923627507,,9.86193400356846,,,,,,,,,
LBP03_S07,LBP03,8,9,7,8,8,1715754803.32,2024-05-15 06:33:23.320000+00:00,2024-05-15 15:33:23.320000+09:00,2024,5,15,6,33,23,320,,,,,,,,,-0.255371,0.2854,1.446045,-92.468262,99.42627,75.622559,,,,,,,,,,,0.0,1.0,1.0,7.0,0.0,0.0,0.0,4.0,0.0,,,,,,,15.386758629452657,2.376182171550388,-27.147041684229027,9.945453378030024,3.5615343103849098,1.5076275665473002,10.670965767822098,,10.294746912772952,,,,,,,,,
LBP03_S07,LBP03,9,10,7,9,9,1715754803.36,2024-05-15 06:33:23.360000+00:00,2024-05-15 15:33:23.360000+09:00,2024,5,15,6,33,23,360,,,,,,,,,0.09082,-1.124756,2.06543,-82.336426,-117.614746,-8.789062,,,,,,,,,,,0.0,1.0,1.0,7.0,0.0,0.0,0.0,4.0,0.0,,,,,,,9.353736698924662,4.6932516980084085,-23.487430770213702,10.31960284598701,3.749264378305246,0.5681303357387522,10.994269341603308,,10.66260289633501,,,,,,,,,
LBP03_S07,LBP03,10,11,7,10,10,1715754803.4,2024-05-15 06:33:23.400000+00:00,2024-05-15 15:33:23.400000+09:00,2024,5,15,6,33,23,400,,,,,,,,,0.025391,0.037598,0.659668,38.879395,120.727539,29.907227,,,,,,,,,,,0.0,1.0,1.0,7.0,0.0,0.0,0.0,4.0,0.0,,,,,,,5.645314519127156,6.61125441604836,-19.948289111000754,10.545415426752097,4.01371455494718,-0.22980122870127806,11.285765355353114,,10.979300925831485,,,,,,,,,
LBP03_S07,LBP03,11,12,7,11,11,1715754803.44,2024-05-15 06:33:23.440000+00:00,2024-05-15 15:33:23.440000+09:00,2024,5,15,6,33,23,440,,,,,,,,,-0.258789,-0.022949,-0.195068,71.228027,157.348633,-86.547852,,,,,,,,,,,0.0,1.0,1.0,7.0,0.0,0.0,0.0,4.0,0.0,,,,,,,3.5875827013986332,7.638260069355889,-16.8066059196252,10.688918734808043,4.319244957721415,-0.902065465486286,11.56384809776379,,11.231018586001742,,,,,,,,,
LBP03_S07,LBP03,12,13,7,12,12,1715754803.48,2024-05-15 06:33:23.480000+00:00,2024-05-15 15:33:23.480000+09:00,2024,5,15,6,33,23,480,,,,,,,,,-0.128662,-0.008789,-0.158203,-0.488281,-67.504883,-99.304199,,,,,,,,,,,0.0,1.0,1.0,7.0,0.0,0.0,0.0,4.0,0.0,,,,,,,2.0091544778741492,7.766840627290719,-13.955811888554647,10.76928491392301,4.629918582813044,-1.4602979410284718,11.812963799034485,,11.394101010623697,,,,,,,,,
LBP03_S07,LBP03,13,14,7,13,13,1715754803.52,2024-05-15 06:33:23.520000+00:00,2024-05-15 15:33:23.520000+09:00,2024,5,15,6,33,23,520,,,,,,,,,0.233887,-0.217285,0.52832,68.237305,-132.69043,-60.72998,,,,,,,,,,,0.0,1.0,1.0,7.0,0.0,0.0,0.0,4.0,0.0,,,,,,,-0.21622358128469163,7.266494021534863,-11.284634455814002,10.760635970671622,4.920578343674438,-1.9116833192610319,11.985737809692433,,11.446475839996332,,,,,,,,,
LBP03_S07,LBP03,14,15,7,14,14,1715754803.56,2024-05-15 06:33:23.560000+00:00,2024-05-15 15:33:23.560000+09:00,2024,5,15,6,33,23,560,,,,,,,,,0.676514,0.236084,0.749023,2.563477,-104.980469,-11.59668,,,,,,,,,,,0.0,1.0,1.0,7.0,0.0,0.0,0.0,4.0,0.0,,,,,,,-3.761279462958928,6.339574460099681,-8.89489021734639,10.610184792153264,5.174161322078425,-2.2674789279548877,12.020375509910338,,11.370102311089994,,,,,,,,,
LBP03_S07,LBP03,15,16,7,15,15,1715754803.6,2024-05-15 06:33:23.600000+00:00,2024-05-15 15:33:23.600000+09:00,2024,5,15,6,33,23,600,,,,,,,,,0.220703,0.169434,1.412354,-12.023926,138.183594,91.064453,,,,,,,,,,,0.0,1.0,1.0,7.0,0.0,0.0,0.0,4.0,0.0,,,,,,,-8.702264987196354,4.896321085880603,-7.0483363147909674,10.26209419266541,5.370014165513649,-2.5494123805465265,11.859474391516612,,11.150040597162143,,,,,,,,,
LBP03_S07,LBP03,16,17,7,16,16,1715754803.64,2024-05-15 06:33:23.640000+00:00,2024-05-15 15:33:23.640000+09:00,2024,5,15,6,33,23,640,,,,,,,,,-0.283447,-0.916992,1.889648,-154.11377,-32.104492,51.391602,,,,,,,,,,,0.0,1.0,1.0,7.0,0.0,0.0,0.0,4.0,0.0,,,,,,,-14.63013333699643,2.6196902199281777,-5.926598710436526,9.676888859185553,5.474801774310777,-2.7864763289639876,11.462115109913288,,10.775975298247468,,,,,,,,,
LBP03_S07,LBP03,17,18,7,17,17,1715754803.68,2024-05-15 06:33:23.680000+00:00,2024-05-15 15:33:23.680000+09:00,2024,5,15,6,33,23,680,,,,,,,,,0.306152,0.390381,1.050049,90.148926,60.48584,7.507324,,,,,,,,,,,0.0,1.0,1.0,7.0,0.0,0.0,0.0,4.0,0.0,,,,,,,-20.891654519197346,-0.7311941864748037,-5.414977537281653,8.841222678417658,5.4455540068517845,-3.0030754304552536,10.80924321735385,,10.248048202221634,,,,,,,,,
LBP03_S07,LBP03,18,19,7,18,18,1715754803.72,2024-05-15 06:33:23.720000+00:00,2024-05-15 15:33:23.720000+09:00,2024,5,15,6,33,23,720,,,,,,,,,-0.312256,-0.60498,0.470703,-122.924805,138.061523,-2.685547,,,,,,,,,,,0.0,1.0,1.0,7.0,0.0,0.0,0.0,4.0,0.0,,,,,,,-26.808302326492466,-5.005831478732556,-5.095448485321747,7.768890585357959,5.245320747702483,-3.2068933698681237,9.907230478758724,,9.585172124637158,,,,,,,,,
LBP03_S07,LBP03,19,20,7,19,19,1715754803.76,2024-05-15 06:33:23.760000+00:00,2024-05-15 15:33:23.760000+09:00,2024,5,15,6,33,23,760,,,,,,,,,-0.205566,0.262207,-0.273438,28.015137,-42.236328,-73.669434,,,,,,,,,,,0.0,1.0,1.0,7.0,0.0,0.0,0.0,4.0,0.0,,,,,,,-31.783547576303736,-9.569671660142188,-4.481166972082931,6.49754868230581,4.862533881296795,-3.386140048751441,8.793652202324791,,8.831017177741726,,,,,,,,,
LBP03_S07,LBP03,20,21,7,20,20,1715754803.8,2024-05-15 06:33:23.800000+00:00,2024-05-15 15:33:23.800000+09:00,2024,5,15,6,33,23,800,,,,,,,,,0.106689,-0.128418,0.137207,-24.658203,-135.314941,-79.467773,,,,,,,,,,,0.0,1.0,1.0,7.0,0.0,0.0,0.0,4.0,0.0,,,,,,,-35.30762530314883,-13.52147429240963,-3.3526896476322197,5.085243670179857,4.321674909600409,-3.5202476346567297,7.545112366206371,,8.048834689874361,,,,,,,,,
LBP03_S07,LBP03,21,22,7,21,21,1715754803.84,2024-05-15 06:33:23.840000+00:00,2024-05-15 15:33:23.840000+09:00,2024,5,15,6,33,23,840,,,,,,,,,0.445557,0.06958,0.499756,17.76123,-136.59668,-49.499512,,,,,,,,,,,0.0,1.0,1.0,7.0,0.0,0.0,0.0,4.0,0.0,,,,,,,-36.93646888377764,-16.09959476069186,-1.974313402382441,3.607784914828751,3.6776911191727346,-3.5992201707520275,6.284577137505447,,7.302113462695391,,,,,,,,,
LBP03_S07,LBP03,22,23,7,22,22,1715754803.88,2024-05-15 06:33:23.880000+00:00,2024-05-15 15:33:23.880000+09:00,2024,5,15,6,33,23,880,,,,,,,,,0.535645,-0.138184,1.182373,-26.184082,37.414551,47.790527,,,,,,,,,,,0.0,1.0,1.0,7.0,0.0,0.0,0.0,4.0,0.0,,,,,,,-36.32794534758023,-17.018660795253876,-1.026683670970623,2.1546671009255416,2.9969446873625794,-3.6402875175908522,5.1842030231897205,,6.639645630505288,,,,,,,,,
LBP03_S07,LBP03,23,24,7,23,23,1715754803.92,2024-05-15 06:33:23.920000+00:00,2024-05-15 15:33:23.920000+09:00,2024,5,15,6,33,23,920,,,,,,,,,-0.034668,0.252686,1.541016,-87.524414,70.739746,91.918945,,,,,,,,,,,0.0,1.0,1.0,7.0,0.0,0.0,0.0,4.0,0.0,,,,,,,-33.36284219941769,-16.522996240664813,-1.2599051401209984,0.8201534129488339,2.336024837735987,-3.690683723195692,4.444188340738124,,6.095520876829565,,,,,,,,,
LBP03_S07,LBP03,24,25,7,24,24,1715754803.96,2024-05-15 06:33:23.960000+00:00,2024-05-15 15:33:23.960000+09:00,2024,5,15,6,33,23,960,,,,,,,,,-0.064209,-1.133057,2.048584,-180.114746,-107.116699,19.897461,,,,,,,,,,,0.0,1.0,1.0,7.0,0.0,0.0,0.0,4.0,0.0,,,,,,,-28.28524880259564,-15.141683912127307,-3.050828100263554,-0.31125653915499174,1.7303574812508946,-3.8127168472062345,4.198550631236681,,5.6929336243482735,,,,,,,,,
LBP03_S07,LBP03,25,26,7,25,25,1715754804.0,2024-05-15 06:33:24+00:00,2024-05-15 15:33:24+09:00,2024,5,15,6,33,24,0,6.0,33.0,24.0,40.533081,141.467346,2.622,3.0,14.0,0.137695,0.014648,0.744385,36.193848,96.069336,59.204102,-255.0,26.0,360.0,1640.0,0.0,1022.0,30.9,0.089188,-72.553726,3.803906,0.0,1.0,1.0,7.0,0.0,0.0,0.0,9.0,0.0,,,,,,,-21.73395787467185,-13.320900887248815,-6.12189312341969,-1.180614854141866,1.197521445760942,-4.057592572143022,4.3922621197269205,,5.445552847545988,,,,,,,,,
LBP03_S07,LBP03,26,27,7,26,26,1715754804.04,2024-05-15 06:33:24.040000+00:00,2024-05-15 15:33:24.040000+09:00,2024,5,15,6,33,24,40,,,,,,,,,-0.192871,-0.060303,0.166748,76.293945,161.621094,-44.189453,,,,,,,,,,,0.0,1.0,1.0,7.0,0.0,0.0,0.0,9.0,0.0,,,,,,,-14.579507295514832,-11.167836181650108,-9.595396076087251,-1.7637951459624592,0.7508079984949376,-4.441408415186513,4.83743678801225,,5.357604651239859,,,,,,,,,
LBP03_S07,LBP03,27,28,7,27,27,1715754804.08,2024-05-15 06:33:24.080000+00:00,2024-05-15 15:33:24.080000+09:00,2024,5,15,6,33,24,80,,,,,,,,,-0.069336,0.073486,-0.098145,46.203613,-154.35791,-99.609375,,,,,,,,,,,0.0,1.0,1.0,7.0,0.0,0.0,0.0,9.0,0.0,,,,,,,-7.625901839580677,-8.466378246829535,-12.36820586362817,-2.0688312195456864,0.4121528686217562,-4.9361366497316395,5.367995680596616,,5.423406479548245,,,,,,,,,
LBP03_S07,LBP03,28,29,7,28,28,1715754804.12,2024-05-15 06:33:24.120000+00:00,2024-05-15 15:33:24.120000+09:00,2024,5,15,6,33,24,120,,,,,,,,,0.390137,0.077393,0.298584,23.55957,-119.20166,-99.243164,,,,,,,,,,,0.0,1.0,1.0,7.0,0.0,0.0,0.0,9.0,0.0,,,,,,,-1.3623137571874202,-4.962907073956944,-13.609874535763632,-2.123323769833183,0.21363658566347843,-5.480531631162185,5.881357953945822,,5.62506171372034,,,,,,,,,
LBP03_S07,LBP03,29,30,7,29,29,1715754804.16,2024-05-15 06:33:24.160000+00:00,2024-05-15 15:33:24.160000+09:00,2024,5,15,6,33,24,160,,,,,,,,,0.654541,-0.123291,0.711914,-56.640625,-94.909668,-25.817871,,,,,,,,,,,0.0,1.0,1.0,7.0,0.0,0.0,0.0,9.0,0.0,,,,,,,4.067062585565311,-0.7345203688611772,-13.1165890523598,-1.9606412664105706,0.18425577090903134,-6.005195193256577,6.319844434301941,,5.92897761194687,,,,,,,,,
LBP03_S07,LBP03,30,31,7,30,30,1715754804.2,2024-05-15 06:33:24.200000+00:00,2024-05-15 15:33:24.200000+09:00,2024,5,15,6,33,24,200,,,,,,,,,0.290283,-0.004883,1.140137,36.92627,117.248535,70.739746,,,,,,,,,,,0.0,1.0,1.0,7.0,0.0,0.0,0.0,9.0,0.0,,,,,,,8.661430482044379,3.630890411385005,-11.34084886069926,-1.6141840471287954,0.3294913873644315,-6.458829147684547,6.665630403145071,,6.289469980581248,,,,,,,,,
LBP03_S07,LBP03,31,32,7,31,31,1715754804.24,2024-05-15 06:33:24.240000+00:00,2024-05-15 15:33:24.240000+09:00,2024,5,15,6,33,24,240,,,,,,,,,0.024658,-0.124023,1.407715,-183.105469,14.587402,47.729492,,,,,,,,,,,0.0,1.0,1.0,7.0,0.0,0.0,0.0,9.0,0.0,,,,,,,12.285303581237503,7.195445843055666,-9.112725501515888,-1.1227719038792952,0.6173092210866582,-6.823338167745183,6.942595420589302,,6.6654950512294135,,,,,,,,,
LBP03_S07,LBP03,32,33,7,32,32,1715754804.28,2024-05-15 06:33:24.280000+00:00,2024-05-15 15:33:24.280000+09:00,2024,5,15,6,33,24,280,,,,,,,,,0.127686,-0.507812,1.273926,-0.976562,31.066895,10.559082,,,,,,,,,,,0.0,1.0,1.0,7.0,0.0,0.0,0.0,9.0,0.0,,,,,,,14.53387909671883,9.088533847497317,-7.243143030454905,-0.541416740010542,0.9808505749865508,-7.113063888963379,7.200755364910678,,7.034553706163348,,,,,,,,,
LBP03_S07,LBP03,33,34,7,33,33,1715754804.32,2024-05-15 06:33:24.320000+00:00,2024-05-15 15:33:24.320000+09:00,2024,5,15,6,33,24,320,,,,,,,,,0.200684,-0.398438,0.93457,113.891602,125.793457,20.324707,,,,,,,,,,,0.0,1.0,1.0,7.0,0.0,0.0,0.0,9.0,0.0,,,,,,,14.877319422097429,8.931372967656664,-6.23704619769002,0.053676036873355204,1.3381054936928174,-7.362545736870979,7.483347323003414,,7.3927246052094775,-1.03541024385392,,,,,,,,
LBP03_S07,LBP03,34,35,7,34,34,1715754804.36,2024-05-15 06:33:24.360000+00:00,2024-05-15 15:33:24.360000+09:00,2024,5,15,6,33,24,360,,,,,,,,,-0.573486,0.315186,-0.114258,226.44043,15.869141,-63.110352,,,,,,,,,,,0.0,1.0,1.0,7.0,0.0,0.0,0.0,9.0,0.0,,,,,,,13.019705854794717,7.028420370351887,-6.235884580708841,0.5744642710651439,1.6192423085068928,-7.611981120099333,7.80347431758046,,7.749433682201992,-1.0608753521899121,,,,,,,,
LBP03_S07,LBP03,35,36,7,35,35,1715754804.4,2024-05-15 06:33:24.400000+00:00,2024-05-15 15:33:24.400000+09:00,2024,5,15,6,33,24,400,,,,,,,,,0.366943,0.288086,0.578857,-2.807617,-146.606445,-96.252441,,,,,,,,,,,0.0,1.0,1.0,7.0,0.0,0.0,0.0,9.0,0.0,,,,,,,9.220651035552459,4.228820651841442,-7.145577676398733,0.9432903124872423,1.7883951345805504,-7.897804227155283,8.152512826208588,,8.121431639069652,-1.0516203400047859,,,,,,,,
LBP03_S07,LBP03,36,37,7,36,36,1715754804.44,2024-05-15 06:33:24.440000+00:00,2024-05-15 15:33:24.440000+09:00,2024,5,15,6,33,24,440,,,,,,,,,0.539551,-0.510254,1.267334,-143.737793,-43.762207,-22.094727,,,,,,,,,,,0.0,1.0,1.0,7.0,0.0,0.0,0.0,9.0,0.0,,,,,,,4.319611928606355,1.5462987041157477,-8.798295487002664,1.1160747896314964,1.8502470827451805,-8.24973604663539,8.52802333735159,,8.525194527549038,-1.0377121657432808,,,,,,,,
LBP03_S07,LBP03,37,38,7,37,37,1715754804.48,2024-05-15 06:33:24.480000+00:00,2024-05-15 15:33:24.480000+09:00,2024,5,15,6,33,24,480,,,,,,,,,0.23584,0.220215,1.623779,37.536621,132.141113,71.655273,,,,,,,,,,,0.0,1.0,1.0,7.0,0.0,0.0,0.0,9.0,0.0,0.10084968,-0.17178056,0.9576041333333334,0.9545898666666678,5.737304733333334,-5.98144532,-0.5850390167627598,-0.25181446916998534,-11.007946224608277,1.092673228960986,1.840174503978381,-8.69005389561972,8.9497046710579,-1.03541024385392,8.96885356393023,-1.0212322004077312,0.13499032,0.39199556,0.6661748666666667,1.1931607466666667,0.7846476014949432,0.7846476014949432,0.7846476014949432,0.7846476014949432
LBP03_S07,LBP03,38,39,7,38,38,1715754804.52,2024-05-15 06:33:24.520000+00:00,2024-05-15 15:33:24.520000+09:00,2024,5,15,6,33,24,520,,,,,,,,,-0.293945,-0.750977,1.969482,-191.52832,-100.830078,7.019043,,,,,,,,,,,0.0,1.0,1.0,7.0,0.0,0.0,0.0,9.0,0.0,0.08847338666666667,-0.17009435999999997,0.9381770533333335,2.236328146666668,4.68343104,-7.985026053333333,-4.589218956996719,-0.8909371252015732,-13.495210677244199,0.9091044706811172,1.804537018970318,-9.229862322709488,9.448448723870966,-1.0863404605259044,9.447055595335303,-1.0122384379142886,-0.38241838666666667,-0.58088264,1.0313049466666664,1.994605973333333,1.2438884021218468,1.014268001808395,1.014268001808395,1.014268001808395
LBP03_S07,LBP03,39,40,7,39,39,1715754804.56,2024-05-15 06:33:24.560000+00:00,2024-05-15 15:33:24.560000+09:00,2024,5,15,6,33,24,560,,,,,,,,,0.115479,-0.515381,1.97583,10.131836,-67.199707,11.59668,,,,,,,,,,,0.0,1.0,1.0,7.0,0.0,0.0,0.0,9.0,0.0,0.09579109333333334,-0.16225256,0.9185611733333333,5.174967466666667,0.46305344000000065,-10.332845066666668,-7.263847199844686,-0.5945609693138634,-15.784847528671865,0.6185505826873298,1.7807545801977636,-9.861256223856362,10.039824002978538,-1.0331103156345331,9.941398585126207,-1.007382452761293,0.019687906666666657,-0.35312844,1.0572688266666668,1.4300851733333335,1.1148563497809298,1.0477974511325734,1.0477974511325734,1.0477974511325734
LBP03_S07,LBP03,40,41,7,40,40,1715754804.6,2024-05-15 06:33:24.600000+00:00,2024-05-15 15:33:24.600000+09:00,2024,5,15,6,33,24,600,,,,,,,,,0.375977,-0.268799,1.039795,62.805176,117.614746,13.73291,,,,,,,,,,,0.0,1.0,1.0,7.0,0.0,0.0,0.0,9.0,0.0,0.10198900000000001,-0.15884436000000002,0.9057584400000002,2.9427083466666675,-0.27994786666666643,-11.162923186666667,-8.593796381289575,0.11051044343416869,-17.212546077129666,0.27479872743574674,1.7851749979351303,-10.549758066941548,10.703259287938943,-0.9959876429587653,10.425698698696298,-1.0067763498247677,0.273988,-0.10995463999999999,0.13403655999999986,0.5179791999999999,0.3242302367426011,0.8669056475350803,0.8669056475350803,0.8669056475350803
LBP03_S07,LBP03,41,42,7,41,41,1715754804.64,2024-05-15 06:33:24.640000+00:00,2024-05-15 15:33:24.640000+09:00,2024,5,15,6,33,24,640,,,,,,,,,-0.652344,0.18335,-0.375,207.763672,157.287598,-72.875977,,,,,,,,,,,0.0,1.0,1.0,7.0,0.0,0.0,0.0,9.0,0.0,0.10454109333333333,-0.14883785333333333,0.9052538800000001,3.335774746666668,-0.9293619333333332,-10.65185548,-8.657902265347955,0.678738564842344,-17.09879140352561,-0.07151736317817148,1.8123245405288242,-11.233709723082573,11.379185784401225,-0.9553123390655325,10.87258803137426,-1.0141176447626528,-0.7568850933333333,0.33218785333333334,-1.28025388,2.3693268266666667,1.5239008536212162,0.9983046887523074,0.9983046887523074,0.9983046887523074
LBP03_S07,LBP03,42,43,7,42,42,1715754804.68,2024-05-15 06:33:24.680000+00:00,2024-05-15 15:33:24.680000+09:00,2024,5,15,6,33,24,680,,,,,,,,,0.298828,-0.048584,0.444824,-58.654785,-202.941895,-119.812012,,,,,,,,,,,0.0,1.0,1.0,7.0,0.0,0.0,0.0,9.0,0.0,0.10783861333333332,-0.15761064,0.93180336,-3.082682293333332,-3.2169595999999996,-8.531087253333334,-7.327881608070728,0.7827956711235786,-15.019303496342726,-0.3646326275010006,1.8436363673737672,-11.834481862936281,11.982775678961415,-0.9672696254470768,11.258553864693038,-1.0183980498562188,0.19098938666666665,0.10902664,-0.48697936,0.7869953866666666,0.5343338386392993,0.9209762137334727,0.9209762137334727,0.9209762137334727
LBP03_S07,LBP03,43,44,7,43,43,1715754804.72,2024-05-15 06:33:24.720000+00:00,2024-05-15 15:33:24.720000+09:00,2024,5,15,6,33,24,720,,,,,,,,,0.564209,-0.089111,1.129883,6.896973,-10.559082,-23.498535,,,,,,,,,,,0.0,1.0,1.0,7.0,0.0,0.0,0.0,9.0,0.0,0.11214525333333332,-0.16797521333333335,0.9547883866666667,-2.106119786666665,-1.5787760133333328,-7.360026053333333,-4.258743371441093,0.40810478062451644,-11.016525392169443,-0.5349823623586443,1.859960558598748,-12.27514287862306,12.426777220912436,-0.9782465418433179,11.566866829588275,-1.0135833016703808,0.45206374666666665,0.07886421333333335,0.17509461333333332,0.7060225733333333,0.49116119432762523,0.8595740681040659,0.8595740681040659,0.8595740681040659
LBP03_S07,LBP03,44,45,7,44,44,1715754804.76,2024-05-15 06:33:24.760000+00:00,2024-05-15 15:33:24.760000+09:00,2024,5,15,6,33,24,760,,,,,,,,,0.245605,0.155029,1.621582,-94.970703,46.75293,84.16748,,,,,,,,,,,0.0,1.0,1.0,7.0,0.0,0.0,0.0,9.0,0.0,0.10735031999999999,-0.16964188,0.9692740666666666,-1.7626953066666655,3.184407586666667,-5.04069012,0.7752598946719238,-0.1814646481466281,-5.61827706634998,-0.5039719665717673,1.8527019726728828,-12.499873961277059,12.646475453281377,-1.0025336292690916,11.78895997355023,-1.0019998431005386,0.13825468000000002,0.32467088,0.6523079333333335,1.1152334933333334,0.741640867773265,0.8448324180627158,0.8448324180627158,0.8448324180627158
LBP03_S07,LBP03,45,46,7,45,45,1715754804.8,2024-05-15 06:33:24.800000+00:00,2024-05-15 15:33:24.800000+09:00,2024,5,15,6,33,24,800,,,,,,,,,-0.377686,-0.650146,2.045898,-200.805664,8.911133,42.96875,,,,,,,,,,,0.0,1.0,1.0,7.0,0.0,0.0,0.0,9.0,0.0,0.09258469333333333,-0.17224605333333334,0.9547428266666668,-1.7073567733333324,4.62483728,-6.75862632,7.421630059000758,-0.5236775859330662,0.3453692120941668,-0.20710676421173702,1.83175486923556,-12.486059192793292,12.621406152988197,-1.0728480042657322,11.924829869670104,-0.9990905091138952,-0.4702706933333334,-0.4778999466666667,1.0911551733333336,2.039325813333334,1.2806882900707393,0.8932608482858294,0.8932608482858294,0.8932608482858294
LBP03_S07,LBP03,46,47,7,46,46,1715754804.84,2024-05-15 06:33:24.840000+00:00,2024-05-15 15:33:24.840000+09:00,2024,5,15,6,33,24,840,,,,,,,,,0.167725,-0.721924,1.97583,12.878418,-20.996094,24.841309,,,,,,,,,,,0.0,1.0,1.0,7.0,0.0,0.0,0.0,9.0,0.0,0.09659836,-0.17310868000000001,0.9381998533333332,0.033365893333334305,1.4257812800000011,-9.24316408,14.51763453567438,-0.03998557077336988,6.000360797473765,0.37359861721523824,1.8301554464046252,-12.24604476089434,12.387681670539383,-1.0569216956983156,11.983315888735225,-1.001704398588521,0.07112664000000002,-0.54881532,1.0376301466666669,1.6575721066666669,1.175981962300392,0.9215329596872858,0.9215329596872858,0.9215329596872858
LBP03_S07,LBP03,47,48,7,47,47,1715754804.88,2024-05-15 06:33:24.880000+00:00,2024-05-15 15:33:24.880000+09:00,2024,5,15,6,33,24,880,,,,,,,,,0.110107,-0.456299,0.829102,164.489746,134.216309,9.094238,,,,,,,,,,,0.0,1.0,1.0,7.0,0.0,0.0,0.0,9.0,0.0,0.10560552,-0.16131832,0.9251627333333332,0.20670573333333436,2.20865888,-9.298502626666666,20.31251185241537,1.8475616692599184,10.604132295118946,1.186099091311853,1.904057913175022,-11.821879469089582,12.03283432001027,-0.9872627619955392,11.983106939327538,-1.0092965211792109,0.004501480000000002,-0.29498068,-0.0960607333333332,0.3955428933333332,0.31026042187812247,0.8659627289773618,0.8659627289773618,0.8659627289773618
LBP03_S07,LBP03,48,49,7,48,48,1715754804.92,2024-05-15 06:33:24.920000+00:00,2024-05-15 15:33:24.920000+09:00,2024,5,15,6,33,24,920,,,,,,,,,-0.565186,0.479004,-0.421143,252.380371,-3.967285,-72.20459,,,,,,,,,,,0.0,1.0,1.0,7.0,0.0,0.0,0.0,9.0,0.0,0.10831058666666667,-0.15942705333333335,0.9384635200000001,-1.044921879999999,2.0288086266666676,-8.126627626666666,23.068180613321367,5.518971640093221,13.575757447673508,2.108826315844708,2.124816778778751,-11.278849171182642,11.66938016349053,-0.9705058748274805,11.953928961816459,-1.0212652175775363,-0.6734965866666667,0.6384310533333333,-1.35960652,2.67153416,1.6461232491336943,0.9309761056570562,0.9309761056570562,0.9309761056570562
LBP03_S07,LBP03,49,50,7,49,49,1715754804.96,2024-05-15 06:33:24.960000+00:00,2024-05-15 15:33:24.960000+09:00,2024,5,15,6,33,24,960,,,,,,,,,0.572266,0.219238,0.818604,-58.959961,-217.407227,-49.377441,,,,,,,,,,,0.0,1.0,1.0,7.0,0.0,0.0,0.0,9.0,0.0,0.10847009333333335,-0.1720279733333333,0.9679849999999999,-5.0846354133333325,-1.8448892933333325,-6.82128908,21.696062615945948,10.903541308836319,14.451066006710583,2.976668820482546,2.5609584311322036,-10.70080653091422,11.398522964177266,-1.0040169757680997,11.935941081798578,-1.0318702407561893,0.4637959066666667,0.3912659733333333,-0.14938099999999987,1.00444288,0.6249083037456263,0.9074324285869462,0.9074324285869462,0.9074324285869462
LBP03_S07,LBP03,50,51,7,50,50,1715754805.0,2024-05-15 06:33:25+00:00,2024-05-15 15:33:25+09:00,2024,5,15,6,33,25,0,6.0,33.0,25.0,40.533123,141.467392,2.081,3.0,14.0,0.783691,-0.351074,1.841309,-2.624512,24.841309,57.067871,-258.0,17.0,359.0,1889.0,0.0,1022.099976,30.93,0.090179,-73.379799,3.803906,0.0,1.0,1.0,7.0,0.0,0.0,0.0,4.0,0.0,0.11092777333333333,-0.18340493333333333,0.9910839599999999,-4.746907546666666,-1.0563150666666656,-4.942220066666667,16.076530357490668,17.29889794703422,12.890844364707414,3.619730034782173,3.2529143490135723,-10.185172756325922,11.288119478590149,-1.0221265377050257,11.975626695434057,-1.0314587902780024,0.6727632266666667,-0.16766906666666667,0.8502250400000002,1.6906573333333337,1.0970897382232767,0.9209793792752555,0.9209793792752555,0.9209793792752555
LBP03_S07,LBP03,51,52,7,51,51,1715754805.04,2024-05-15 06:33:25.040000+00:00,2024-05-15 15:33:25.040000+09:00,2024,5,15,6,33,25,40,,,,,,,,,-0.210693,0.117188,1.795898,-194.030762,126.098633,67.565918,,,,,,,,,,,0.0,1.0,1.0,7.0,0.0,0.0,0.0,4.0,0.0,0.10902998666666666,-0.18407550666666667,0.9905175600000001,-2.792968746666666,2.8352865066666677,-3.683268253333333,6.965261857289099,23.4261001148319,8.807342838997375,3.8983405090737366,4.1899583536068485,-9.832879042766027,11.377096290324365,-1.031233564972429,12.117788523307025,-1.0246310118710702,-0.31972298666666665,0.3012635066666667,0.8053804399999999,1.426366933333333,0.9173985730241484,0.9207406588585151,0.9207406588585151,0.9207406588585151
LBP03_S07,LBP03,52,53,7,52,52,1715754805.08,2024-05-15 06:33:25.080000+00:00,2024-05-15 15:33:25.080000+09:00,2024,5,15,6,33,25,80,,,,,,,,,0.145264,-1.111572,2.011719,-62.5,-27.22168,47.973633,,,,,,,,,,,0.0,1.0,1.0,7.0,0.0,0.0,0.0,4.0,0.0,0.09628258666666667,-0.18559244000000003,0.9781510266666665,1.1393229200000008,3.6336263600000005,-4.640299493333333,-4.314349738876929,27.78072477043598,2.5429929484318303,3.7257665195186593,5.301187344424288,-9.731159324828754,11.690995903850622,-1.0869565894303315,12.39499790954549,-1.019210007482771,0.048981413333333335,-0.92597956,1.0335679733333332,2.0085289466666665,1.3885604343672975,0.9499793948278139,0.9499793948278139,0.9499793948278139
LBP03_S07,LBP03,53,54,7,53,53,1715754805.12,2024-05-15 06:33:25.120000+00:00,2024-05-15 15:33:25.120000+09:00,2024,5,15,6,33,25,120,,,,,,,,,0.402344,-0.246338,1.416992,95.581055,131.835938,44.494629,,,,,,,,,,,0.0,1.0,1.0,7.0,0.0,0.0,0.0,4.0,0.0,0.09636722666666667,-0.18460286666666667,0.96212888,4.57763672,0.4728190666666675,-7.288411466666666,-16.11837039528093,29.15089910739618,-5.051425865555282,3.081031703707422,6.467223308720135,-9.933216359450965,12.246898420733617,-1.0842967736298466,12.818193231985779,-1.0225854356701725,0.3059767733333333,-0.06173513333333333,0.45486312000000007,0.8225750266666667,0.5516642733069606,0.9265490935618814,0.9265490935618814,0.9265490935618814
LBP03_S07,LBP03,54,55,7,54,54,1715754805.16,2024-05-15 06:33:25.160000+00:00,2024-05-15 15:33:25.160000+09:00,2024,5,15,6,33,25,160,,,,,,,,,-0.979492,-0.286133,-0.270996,250.549316,184.387207,-76.843262,,,,,,,,,,,0.0,1.0,1.0,7.0,0.0,0.0,0.0,4.0,0.0,0.10698897333333332,-0.16756510666666666,0.9456575333333332,6.895345053333334,0.19287114666666744,-8.277181,-26.58298168588867,27.054309098034043,-12.753821267604543,2.017712436271875,7.549395672641497,-10.443369210155147,13.043331589636173,-0.998419124487225,13.373319988123106,-1.02702670713382,-1.0864809733333334,-0.11856789333333337,-1.2166535333333333,2.4217024,1.6354647874281294,0.965933298776673,0.965933298776673,0.965933298776673
LBP03_S07,LBP03,55,56,7,55,55,1715754805.2,2024-05-15 06:33:25.200000+00:00,2024-05-15 15:33:25.200000+09:00,2024,5,15,6,33,25,200,,,,,,,,,0.268799,0.534668,0.327393,-58.959961,-170.532227,-123.474121,,,,,,,,,,,0.0,1.0,1.0,7.0,0.0,0.0,0.0,4.0,0.0,0.10777673333333332,-0.17118816,0.9488866933333334,5.14078776,0.2937826000000008,-7.36979168,-33.74439216979351,21.886532029644357,-19.297408093824494,0.6679367494801347,8.424856953827272,-11.215265533908127,14.043024431717884,-1.0045702201964075,14.026353522608591,-1.0321331247122176,0.1610222666666667,0.7058561600000001,-0.6214936933333335,1.4883721200000002,0.954156957646657,0.9653134913487774,0.9653134913487774,0.9653134913487774
LBP03_S07,LBP03,56,57,7,56,56,1715754805.24,2024-05-15 06:33:25.240000+00:00,2024-05-15 15:33:25.240000+09:00,2024,5,15,6,33,25,240,,,,,,,,,0.406738,-0.569824,1.084473,-248.657227,-73.425293,-62.194824,,,,,,,,,,,0.0,1.0,1.0,7.0,0.0,0.0,0.0,4.0,0.0,0.10722334666666666,-0.16951498666666664,0.9664973733333335,3.7898763066666667,-1.2866210399999993,-6.297200533333334,-35.89416667076429,14.739302830124098,-23.72494249825144,-0.767829917350437,9.014429067032236,-12.164263233838184,15.159775532924009,-1.0027116518153254,14.733819291166416,-1.0378017741940488,0.2995146533333333,-0.40030901333333335,0.1179756266666665,0.8177992933333331,0.5136872416214815,0.9427321788624126,0.9427321788624126,0.9427321788624126
LBP03_S07,LBP03,57,58,7,57,57,1715754805.28,2024-05-15 06:33:25.280000+00:00,2024-05-15 15:33:25.280000+09:00,2024,5,15,6,33,25,280,,,,,,,,,0.475342,0.262207,1.594482,25.57373,100.219727,59.875488,,,,,,,,,,,0.0,1.0,1.0,7.0,0.0,0.0,0.0,4.0,0.0,0.11124677333333333,-0.18345378666666667,0.9952604,2.8499348933333337,-1.5462239066666659,-5.04475912,-32.161917626477454,7.029123007668945,-25.58557726196285,-2.054306622409535,9.295593987338993,-13.187686324316699,16.26478754441318,-1.0210170438695532,15.452923162442469,-1.038815179321796,0.36409522666666666,0.4456607866666667,0.5992215999999999,1.4089776133333332,0.8308100846525417,0.9374025553286093,0.9374025553286093,0.9374025553286093
LBP03_S07,LBP03,58,59,7,58,58,1715754805.32,2024-05-15 06:33:25.320000+00:00,2024-05-15 15:33:25.320000+09:00,2024,5,15,6,33,25,320,,,,,,,,,-0.568359,-0.731445,1.881348,-272.338867,-18.432617,12.023926,,,,,,,,,,,0.0,1.0,1.0,7.0,0.0,0.0,0.0,4.0,0.0,0.11361982666666665,-0.18477214666666666,1.00868488,3.2275390533333335,1.5706380666666675,-3.5416666800000005,-23.029428251263198,0.14339534889940247,-24.904856500077702,-2.975483752460063,9.301329801294969,-14.183880584319807,17.22064772486378,-1.0149185894639559,16.147588101366516,-1.0288101536188803,-0.6819788266666666,-0.5466728533333334,0.8726631200000001,2.1013148,1.2351061693641507,0.9509345377847702,0.9509345377847702,0.9509345377847702
LBP03_S07,LBP03,59,60,7,59,59,1715754805.36,2024-05-15 06:33:25.360000+00:00,2024-05-15 15:33:25.360000+09:00,2024,5,15,6,33,25,360,,,,,,,,,0.190186,-0.681152,1.938721,25.512695,-55.480957,15.136719,,,,,,,,,,,0.0,1.0,1.0,7.0,0.0,0.0,0.0,4.0,0.0,0.10359378666666667,-0.18484701333333334,1.0003157333333332,5.085449213333333,5.310872440000001,-3.7190755333333336,-10.405507549623431,-4.776521168013919,-22.01892325819617,-3.391704054445,9.110268954574412,-15.064637514647654,17.92885830903213,-1.0550811515520762,16.791021250295806,-1.0207728690424762,0.08659221333333332,-0.49630498666666667,0.9384052666666667,1.5213024666666666,1.0650921536223537,0.9558979123864042,0.9558979123864042,0.9558979123864042
LBP03_S07,LBP03,60,61,7,60,60,1715754805.4,2024-05-15 06:33:25.400000+00:00,2024-05-15 15:33:25.400000+09:00,2024,5,15,6,33,25,400,,,,,,,,,0.050049,-0.691895,0.861084,81.359863,139.526367,7.873535,,,,,,,,,,,0.0,1.0,1.0,7.0,0.0,0.0,0.0,4.0,0.0,0.0975098,-0.18418294666666665,0.98774412,5.839029946666666,2.3917643600000003,-5.32470704,2.8996242985710374,-6.934495226226549,-17.434597452801437,-3.2757190825021585,8.83288914552535,-15.762021412759712,18.36277716416839,-1.0788130325233372,17.367157237863907,-1.0227194413487293,-0.04746079999999999,-0.5077120533333334,-0.12666012000000004,0.6818329733333334,0.5254206340019433,0.937961359120385,0.937961359120385,0.937961359120385
LBP03_S07,LBP03,61,62,7,61,61,1715754805.44,2024-05-15 06:33:25.440000+00:00,2024-05-15 15:33:25.440000+09:00,2024,5,15,6,33,25,440,,,,,,,,,-0.32251,0.272461,-0.366455,272.399902,30.822754,-101.68457,,,,,,,,,,,0.0,1.0,1.0,7.0,0.0,0.0,0.0,4.0,0.0,0.10549157333333332,-0.18234701333333334,0.9740103866666667,7.9972330666666664,0.3295898800000007,-7.569986986666668,14.115603326319478,-5.949932371446954,-11.807687881537657,-2.7110949494493792,8.594891850667471,-16.234328928021217,18.568135003084898,-1.0413676162499022,17.87191578773906,-1.0249719076187584,-0.42800157333333333,0.4548080133333333,-1.3404653866666667,2.2232749733333335,1.4788113904820448,0.9595953603748515,0.9595953603748515,0.9595953603748515
LBP03_S07,LBP03,62,63,7,62,62,1715754805.48,2024-05-15 06:33:25.480000+00:00,2024-05-15 15:33:25.480000+09:00,2024,5,15,6,33,25,480,,,,,,,,,0.23999,0.197266,0.326904,42.785645,-153.503418,-85.388184,,,,,,,,,,,0.0,1.0,1.0,7.0,0.0,0.0,0.0,4.0,0.0,0.11199548,-0.17099284,0.9647655999999999,10.4703776,1.523437533333334,-7.424316413333334,21.423295853946595,-1.960297427495888,-5.992379577234849,-1.8541631152915155,8.516479953567636,-16.474024111110612,18.637645293091097,-0.9869063324011734,18.313372356536696,-1.029837988768163,0.12799452,0.36825884,-0.6378615999999999,1.1341149599999998,0.7475724654792577,0.958112354934224,0.9514406336480978,0.9514406336480978
LBP03_S07,LBP03,63,64,7,63,63,1715754805.52,2024-05-15 06:33:25.520000+00:00,2024-05-15 15:33:25.520000+09:00,2024,5,15,6,33,25,520,,,,,,,,,0.642578,-0.264404,0.967529,-92.346191,-101.135254,-21.789551,,,,,,,,,,,0.0,1.0,1.0,7.0,0.0,0.0,0.0,4.0,0.0,0.10907556,-0.17293945333333333,0.9770377333333332,7.441406240000001,1.6984049866666673,-6.979980480000001,24.393039621630273,4.278173106727465,-1.0220911039689358,-0.8784415304263046,8.687606877836734,-16.51490775526937,18.68122991002654,-1.0039239278658056,18.70958082447725,-1.0375175657329572,0.53350244,-0.09146454666666665,-0.009508733333333241,0.63447572,0.5413695898298102,0.9300116024425426,0.9362528172103834,0.9362528172103834
LBP03_S07,LBP03,64,65,7,64,64,1715754805.56,2024-05-15 06:33:25.560000+00:00,2024-05-15 15:33:25.560000+09:00,2024,5,15,6,33,25,560,,,,,,,,,0.388672,0.513428,1.473633,73.303223,137.329102,104.370117,,,,,,,,,,,0.0,1.0,1.0,7.0,0.0,0.0,0.0,4.0,0.0,0.11265954666666665,-0.18445962666666665,1.0028515333333332,5.604654946666666,-1.6748046533333327,-5.9375000133333335,23.788872845568708,11.41339355130114,2.0840230864014826,0.0731133833964438,9.144142619888779,-16.43154683181331,18.804691465317163,-1.0178848475497557,19.083827533690116,-1.0447380939772666,0.27601245333333335,0.6978876266666667,0.47078146666666676,1.4446815466666667,0.8859261838360666,0.9208543958047481,0.9344554374470151,0.9344554374470151
LBP03_S07,LBP03,65,66,7,65,65,1715754805.6,2024-05-15 06:33:25.600000+00:00,2024-05-15 15:33:25.600000+09:00,2024,5,15,6,33,25,600,,,,,,,,,-0.06665,-0.537109,1.91748,-257.507324,-12.329102,57.006836,,,,,,,,,,,0.0,1.0,1.0,7.0,0.0,0.0,0.0,4.0,0.0,0.116377,-0.19470701333333332,1.0277148266666667,4.225260413333333,0.9285482133333338,-3.99658204,20.94783438289569,17.743902357744858,2.651057749374993,0.9110267587122713,9.853898714198573,-16.32550452183831,19.09060993046941,-1.0270948828967006,19.458436269019547,-1.0448022195750197,-0.183027,-0.34240198666666666,0.8897651733333334,1.41519416,0.9707832234228077,0.9467165152719563,0.9357081197220424,0.9357081197220424
LBP03_S07,LBP03,66,67,7,66,66,1715754805.64,2024-05-15 06:33:25.640000+00:00,2024-05-15 15:33:25.640000+09:00,2024,5,15,6,33,25,640,,,,,,,,,0.059326,-0.75293,1.722412,31.37207,42.053223,21.54541,,,,,,,,,,,0.0,1.0,1.0,7.0,0.0,0.0,0.0,4.0,0.0,0.11045252,-0.19549804,1.02936196,6.389160159999999,5.89192712,-2.6676432400000007,17.147963701189745,21.64771889675493,0.6373617238606986,1.5969453067598611,10.71980747006877,-16.300010052883884,19.57434122090039,-1.0513724633093695,19.84913253836115,-1.0418559629800122,-0.05112652,-0.55743196,0.6930500400000001,1.30160852,0.8908774713846758,0.9213955799824948,0.9342137647774635,0.9342137647774635
LBP03_S07,LBP03,67,68,7,67,67,1715754805.68,2024-05-15 06:33:25.680000+00:00,2024-05-15 15:33:25.680000+09:00,2024,5,15,6,33,25,680,,,,,,,,,0.162354,-0.19751,0.925049,71.838379,161.804199,22.644043,,,,,,,,,,,0.0,1.0,1.0,7.0,0.0,0.0,0.0,4.0,0.0,0.09642908,-0.19085610666666666,1.0205501066666667,8.086751306666667,5.507812533333334,-3.343912773333334,13.304373808668961,22.016381234944802,-3.3087611575601468,2.1291202591066196,11.600462719466563,-16.43236049918629,20.22687222381873,-1.0978128135174963,20.26211283659113,-1.047481336092025,0.06592492,-0.006653893333333327,-0.09550110666666667,0.16807992,0.11623609916052681,0.9046716704033438,0.9078273884672398,0.9078273884672398
LBP03_S07,LBP03,68,69,7,68,68,1715754805.72,2024-05-15 06:33:25.720000+00:00,2024-05-15 15:33:25.720000+09:00,2024,5,15,6,33,25,720,,,,,,,,,-0.47998,0.064941,-0.309326,211.853027,22.277832,-82.885742,,,,,,,,,,,0.0,1.0,1.0,7.0,0.0,0.0,0.0,4.0,0.0,0.09859380000000001,-0.19006182666666666,1.01516924,7.9231770799999985,2.241210973333334,-5.092773453333334,10.052225024352136,18.50029869704493,-8.086743867178898,2.531209260080705,12.34047466734836,-16.755830253873448,20.963114816992384,-1.0871238719070475,20.69480222755655,-1.0554586649642927,-0.5785738,0.2550028266666666,-1.32449524,2.158071866666667,1.4676722128721684,0.9437321111451255,0.9253225392298937,0.9253225392298937
LBP03_S07,LBP03,69,70,7,69,69,1715754805.76,2024-05-15 06:33:25.760000+00:00,2024-05-15 15:33:25.760000+09:00,2024,5,15,6,33,25,760,,,,,,,,,0.322021,0.168213,0.259521,57.556152,-176.147461,-114.440918,,,,,,,,,,,0.0,1.0,1.0,7.0,0.0,0.0,0.0,4.0,0.0,0.10531906666666666,-0.18822914666666668,1.0140168933333333,10.293782546666668,2.0817057733333337,-5.138346373333333,7.983447095719784,11.479557749126984,-12.559942210577855,2.8505471439094965,12.79965697731344,-17.25822794229656,21.67494566232647,-1.055722407529608,21.13892436104963,-1.0651929090039955,0.21670193333333335,0.3564421466666667,-0.7544958933333333,1.3276399733333335,0.8621338555512194,0.9485518306562437,0.9234077306335703,0.9234077306335703
LBP03_S07,LBP03,70,71,7,70,70,1715754805.8,2024-05-15 06:33:25.800000+00:00,2024-05-15 15:33:25.800000+09:00,2024,5,15,6,33,25,800,,,,,,,,,0.53418,0.023438,0.789795,-58.837891,-36.865234,-36.621094,,,,,,,,,,,0.0,1.0,1.0,7.0,0.0,0.0,0.0,4.0,0.0,0.10413415999999999,-0.18321288,1.0203970933333333,7.880859360000001,2.496744826666667,-3.5164388266666675,7.71215930155813,1.8380584976022156,-15.92771840462955,3.1590335159718217,12.873179317217529,-17.895336678481744,22.269739857584426,-1.0493504665732631,21.582820306007815,-1.0761917648319126,0.43004584,0.20665087999999998,-0.23060209333333326,0.8672988133333333,0.5299257836299299,0.9185213303986113,0.9118347321922867,0.9118347321922867
LBP03_S07,LBP03,71,72,7,71,71,1715754805.84,2024-05-15 06:33:25.840000+00:00,2024-05-15 15:33:25.840000+09:00,2024,5,15,6,33,25,840,,,,,,,,,0.368164,0.143066,1.35376,-31.921387,80.078125,53.039551,,,,,,,,,,,0.0,1.0,1.0,7.0,0.0,0.0,0.0,4.0,0.0,0.09820642666666667,-0.19429034666666667,1.0370051733333334,4.94466144,-0.4817707999999995,-2.946777373333334,9.623006855183595,-9.273002964922357,-17.865370819793032,3.5439537901791653,12.502259198620635,-18.609951511273465,22.697937985384687,-1.0976213473700287,22.011053518790597,-1.0866765537519743,0.2699575733333333,0.3373563466666667,0.31675482666666666,0.9240687466666666,0.5357424906173975,0.8929117515312914,0.9010892395758613,0.9010892395758613
LBP03_S07,LBP03,72,73,7,72,72,1715754805.88,2024-05-15 06:33:25.880000+00:00,2024-05-15 15:33:25.880000+09:00,2024,5,15,6,33,25,880,,,,,,,,,-0.361084,-0.630371,1.691162,-218.505859,-26.062012,34.606934,,,,,,,,,,,0.0,1.0,1.0,7.0,0.0,0.0,0.0,4.0,0.0,0.11154951999999999,-0.20481769333333336,1.0596972266666667,2.8670247200000003,-0.7421874666666661,-1.3549804933333338,13.45830841878031,-20.54034172003345,-18.40108608032115,4.082286126930378,11.680645529819298,-19.34599495448631,22.964539202745296,-1.0666796211238514,22.402737666274653,-1.0878195041491803,-0.47263352000000003,-0.4255533066666667,0.6314647733333334,1.5296516000000002,0.8962286655778439,0.9163504812792804,0.9009542236314719,0.9009542236314719
LBP03_S07,LBP03,73,74,7,73,73,1715754805.92,2024-05-15 06:33:25.920000+00:00,2024-05-15 15:33:25.920000+09:00,2024,5,15,6,33,25,920,,,,,,,,,0.100098,-0.615723,1.561523,57.678223,-28.991699,28.503418,,,,,,,,,,,0.0,1.0,1.0,7.0,0.0,0.0,0.0,4.0,0.0,0.10322270666666666,-0.20631834666666668,1.0540754933333334,4.732259093333334,4.4563802400000005,-0.3043620133333338,18.08007660528546,-30.482632367466614,-17.670498812776056,4.805489191141796,10.461340235120634,-20.052814906997355,23.12245124495735,-1.1012663682628325,22.732331903716762,-1.0818081442846395,-0.0031247066666666573,-0.4094046533333333,0.5074475066666666,0.9199768666666666,0.6520160319999473,0.8765861925939304,0.8942261643981876,0.8942261643981876
LBP03_S07,LBP03,74,75,7,74,74,1715754805.96,2024-05-15 06:33:25.960000+00:00,2024-05-15 15:33:25.960000+09:00,2024,5,15,6,33,25,960,,,,,,,,,-0.053955,-0.214844,0.478271,119.32373,136.962891,-8.361816,,,,,,,,,,,0.0,1.0,1.0,7.0,0.0,0.0,0.0,4.0,0.0,0.09302088,-0.19887042666666666,1.03771156,5.720214826666667,2.478841173333334,-0.8317057600000005,21.664467339149784,-37.4845606671718,-15.749657643013823,5.672067884707788,8.961957808433763,-20.68280121271791,23.243650914899014,-1.1278734058289275,22.975218912227213,-1.0818087551758355,-0.14697588,-0.015973573333333352,-0.55944056,0.7223900133333333,0.5786456640465937,0.8747356870059693,0.885921414388935,0.885921414388935
LBP03_S07,LBP03,75,76,7,75,75,1715754806.0,2024-05-15 06:33:26+00:00,2024-05-15 15:33:26+09:00,2024,5,15,6,33,26,0,6.0,33.0,26.0,40.533154,141.467468,2.016,3.0,14.0,-0.426025,0.101807,-0.373535,99.121094,-50.170898,-63.537598,-271.0,11.0,363.0,1933.0,0.0,1022.0,30.99,0.089188,-72.553726,3.803906,0.0,1.0,1.0,7.0,0.0,0.0,0.0,4.0,0.0,0.09469405333333333,-0.20488605333333332,1.0208463333333335,4.768880186666667,-1.0107421599999995,-2.701822946666667,22.310514360512393,-40.019743763486275,-12.679389546014146,6.564488459128284,7.361168057894312,-21.189976794558476,23.37294205829721,-1.1319427720973192,23.116566711941875,-1.0817720797637809,-0.5207190533333333,0.3066930533333333,-1.3943813333333335,2.22179344,1.5197066375507249,0.891640362979067,0.9021723175469296,0.9021723175469296
LBP03_S07,LBP03,76,77,7,76,76,1715754806.04,2024-05-15 06:33:26.040000+00:00,2024-05-15 15:33:26.040000+09:00,2024,5,15,6,33,26,40,,,,,,,,,0.265137,0.143555,0.08667,92.102051,-244.262695,-101.806641,,,,,,,,,,,0.0,1.0,1.0,7.0,0.0,0.0,0.0,4.0,0.0,0.10801110666666666,-0.19653969333333332,1.0078059733333333,7.5374348666666675,-0.09195961333333273,-2.4397786800000008,18.777009003879233,-37.08454007748993,-8.63342700643647,7.315568819283453,5.877786454794714,-21.535313874815934,23.491182695740974,-1.0628019672814273,23.1589242164024,-1.0845339680627928,0.15712589333333335,0.3400946933333333,-0.9211359733333333,1.4183565599999999,0.9944065708542152,0.8947206828922698,0.9044781738796118,0.9044781738796118
LBP03_S07,LBP03,77,78,7,77,77,1715754806.08,2024-05-15 06:33:26.080000+00:00,2024-05-15 15:33:26.080000+09:00,2024,5,15,6,33,26,80,,,,,,,,,0.580566,-0.044922,0.487305,-57.312012,-78.918457,-31.616211,,,,,,,,,,,0.0,1.0,1.0,7.0,0.0,0.0,0.0,4.0,0.0,0.10923832,-0.18722328,1.0006217333333334,6.6512044,1.9531250266666673,-0.8715820666666673,10.991006015213687,-28.68388834130148,-4.066783487591277,7.7552090598920005,4.730430921142656,-21.697985214319583,23.52281459823983,-1.0376992148720907,23.12332740394428,-1.0872747016387674,0.47132768,0.14230128,-0.5133167333333334,1.1269456933333335,0.7112619102298572,0.8676287419267722,0.8997655820832764,0.8997655820832764
LBP03_S07,LBP03,78,79,7,78,78,1715754806.12,2024-05-15 06:33:26.120000+00:00,2024-05-15 15:33:26.120000+09:00,2024,5,15,6,33,26,120,,,,,,,,,0.4021,0.057617,1.059814,67.687988,45.10498,58.166504,,,,,,,,,,,0.0,1.0,1.0,7.0,0.0,0.0,0.0,4.0,0.0,0.10348961333333333,-0.19976885333333333,1.0137239466666668,3.148600226666667,-0.5875650799999992,-0.305175813333334,0.1232026795264376,-16.09498598356644,0.3099620412689626,7.760137167073058,4.086631481799998,-21.685586732668824,23.391984902096908,-1.087129980819007,23.04126361965645,-1.0939930799789486,0.29861038666666667,0.2573858533333333,0.04609005333333327,0.6020862933333333,0.3969130049993498,0.8614386911944678,0.8877929016765161,0.8877929016765161
LBP03_S07,LBP03,79,80,7,79,79,1715754806.16,2024-05-15 06:33:26.160000+00:00,2024-05-15 15:33:26.160000+09:00,2024,5,15,6,33,26,160,,,,,,,,,-0.174561,-0.410156,1.624268,-192.443848,-13.549805,61.096191,,,,,,,,,,,0.0,1.0,1.0,7.0,0.0,0.0,0.0,4.0,0.0,0.11430341333333334,-0.20441729333333333,1.0350585866666668,0.5639648133333335,-2.1443684666666663,1.3118489333333327,-11.736379910115627,-1.6985580316184086,3.7558595236340624,7.290681970668433,4.018689160535262,-21.53535235172346,23.08842365947304,-1.0553556534090605,22.940982866639768,-1.0904005992889918,-0.28886441333333335,-0.2057387066666667,0.5892094133333332,1.0838125333333333,0.6877054583700017,0.8235283180321425,0.8831397053205507,0.8831397053205507
LBP03_S07,LBP03,80,81,7,80,80,1715754806.2,2024-05-15 06:33:26.200000+00:00,2024-05-15 15:33:26.200000+09:00,2024,5,15,6,33,26,200,,,,,,,,,0.342041,-0.550781,1.938232,2.929688,-18.249512,40.344238,,,,,,,,,,,0.0,1.0,1.0,7.0,0.0,0.0,0.0,4.0,0.0,0.10974286666666666,-0.20672849333333332,1.0356445333333333,2.6049804400000003,2.626139346666667,3.0061848799999997,-22.10089448546149,11.617137579945895,5.795331721739725,6.4066461912499735,4.483374663733097,-21.30353908285387,22.693314902189677,-1.0769693495633827,22.837750567262944,-1.0811710186673307,0.23229813333333332,-0.34405250666666665,0.9025874666666667,1.4789381066666667,0.9934780747845012,0.8251011627176564,0.8856473955356404,0.8856473955356404
LBP03_S07,LBP03,81,82,7,81,81,1715754806.24,2024-05-15 06:33:26.240000+00:00,2024-05-15 15:33:26.240000+09:00,2024,5,15,6,33,26,240,,,,,,,,,0.249023,-0.512451,1.525391,-73.486328,116.027832,68.786621,,,,,,,,,,,0.0,1.0,1.0,7.0,0.0,0.0,0.0,4.0,0.0,0.09677412,-0.20568357333333334,1.0185253866666666,4.444986946666666,3.4497070533333334,1.5974934666666658,-28.583619007244167,21.265635368794612,6.3935758758467385,5.263301430960206,5.334000078484882,-21.04779604782,22.341969860803495,-1.1250286831297749,22.736995122957435,-1.072424814004951,0.15224887999999998,-0.3067674266666667,0.5068656133333334,0.96588192,0.6117178479533839,0.8290223869709326,0.8795600722560348,0.8795600722560348
LBP03_S07,LBP03,82,83,7,82,82,1715754806.28,2024-05-15 06:33:26.280000+00:00,2024-05-15 15:33:26.280000+09:00,2024,5,15,6,33,26,280,,,,,,,,,-0.583252,-0.321045,-0.059814,158.691406,230.102539,-86.730957,,,,,,,,,,,0.0,1.0,1.0,7.0,0.0,0.0,0.0,4.0,0.0,0.09494469333333333,-0.20666663999999998,0.9985937466666667,6.350097626666667,1.1661784000000004,-1.296386733333334,-29.257453701110418,25.680811714963298,5.8978634111400225,4.09300328291579,6.361232547083414,-20.8118815113744,22.143901359867016,-1.1338634045256641,22.650143474307324,-1.0704602768728457,-0.6781966933333333,-0.11437836000000004,-1.0584077466666666,1.8509828,1.2622440818988092,0.8462797468607832,0.8878792898569646,0.8878792898569646
LBP03_S07,LBP03,83,84,7,83,83,1715754806.32,2024-05-15 06:33:26.320000+00:00,2024-05-15 15:33:26.320000+09:00,2024,5,15,6,33,26,320,,,,,,,,,0.045654,0.220703,0.205322,38.085938,-140.50293,-110.717773,,,,,,,,,,,0.0,1.0,1.0,7.0,0.0,0.0,0.0,4.0,0.0,0.10598310666666666,-0.19411781333333333,0.9764941466666668,8.90055336,-0.17985025333333302,-2.749023453333334,-22.923820855433632,24.67784406947323,4.79173463091059,3.1760504486984447,7.348346309862343,-20.620212126137975,22.11964371479054,-1.065341561363264,22.611353925594134,-1.0747926262815486,-0.06032910666666666,0.4148208133333333,-0.7711721466666668,1.2463220666666668,0.8777370836874794,0.8319849834337163,0.8876634982363373,0.8876634982363373
LBP03_S07,LBP03,84,85,7,84,84,1715754806.36,2024-05-15 06:33:26.360000+00:00,2024-05-15 15:33:26.360000+09:00,2024,5,15,6,33,26,360,,,,,,,,,0.766357,-0.240479,1.087646,-69.335938,-58.898926,-12.939453,,,,,,,,,,,0.0,1.0,1.0,7.0,0.0,0.0,0.0,4.0,0.0,0.10930341333333334,-0.18655921333333333,0.9649446666666667,7.4169921599999995,0.5216471466666671,-2.7384440266666674,-9.409078612556602,19.34050546326546,3.4393291750043793,2.7996873041961807,8.121966528392962,-20.4826389591378,22.211327921130753,-1.035577599612318,22.678648689923946,-1.0801495897722513,0.6570535866666666,-0.053919786666666664,0.12270133333333322,0.8336747066666664,0.6705836087673835,0.8162046416395176,0.8831410005390675,0.8831410005390675
LBP03_S07,LBP03,85,86,7,85,85,1715754806.4,2024-05-15 06:33:26.400000+00:00,2024-05-15 15:33:26.400000+09:00,2024,5,15,6,33,26,400,,,,,,,,,0.228271,0.179443,1.657227,-54.992676,107.23877,117.797852,,,,,,,,,,,0.0,1.0,1.0,7.0,0.0,0.0,0.0,4.0,0.0,0.10755862666666668,-0.18737626666666665,0.9768554666666666,2.6318359066666663,-1.272786453333333,-1.5852864666666675,10.094672806522937,11.533292610081697,1.9953247227531434,3.2034742164570984,8.58329823279623,-20.402825970227678,22.365387615242113,-1.0444807254735224,22.912755924762614,-1.0873145661035406,0.12071237333333332,0.36681926666666664,0.6803715333333334,1.1679031733333334,0.7823255555355382,0.8264808385008614,0.8810835424777709,0.8810835424777709
LBP03_S07,LBP03,86,87,7,86,86,1715754806.44,2024-05-15 06:33:26.440000+00:00,2024-05-15 15:33:26.440000+09:00,2024,5,15,6,33,26,440,,,,,,,,,-0.246826,-0.968018,2.019043,-231.750488,-133.178711,11.352539,,,,,,,,,,,0.0,1.0,1.0,7.0,0.0,0.0,0.0,4.0,0.0,0.11772790666666666,-0.20476558666666667,1.00608724,0.5452473599999998,-0.8902994799999995,0.3548177066666659,32.83372434443504,3.286750486559802,0.5143784472873647,4.5168231902345,8.714768252258622,-20.382250832336183,22.62266620923988,-1.043156595960374,23.346909180024646,-1.0877253959563458,-0.36455390666666665,-0.7632524133333334,1.0129557599999999,2.14076208,1.3196716140927878,0.820115247445291,0.8898553039100713,0.8898553039100713
LBP03_S07,LBP03,87,88,7,87,87,1715754806.48,2024-05-15 06:33:26.480000+00:00,2024-05-15 15:33:26.480000+09:00,2024,5,15,6,33,26,480,,,,,,,,,0.055664,-0.862061,1.574219,24.841309,-8.361816,41.625977,,,,,,,,,,,0.0,1.0,1.0,7.0,0.0,0.0,0.0,4.0,0.0,0.11295902666666668,-0.21531245333333332,1.0097558533333333,1.876627573333333,2.644042973333334,1.783040359999999,54.74889002813442,-3.7052859806485627,-0.8710654075073909,6.706778791359877,8.56655681303268,-20.41709344863648,23.13491911110791,-1.0810227089591193,23.97000852319855,-1.082150862011056,-0.057295026666666686,-0.6467485466666667,0.5644631466666667,1.26850672,0.8603400761565245,0.8246259518723817,0.8913691534033028,0.8892765739541193
LBP03_S07,LBP03,88,89,7,88,88,1715754806.52,2024-05-15 06:33:26.520000+00:00,2024-05-15 15:33:26.520000+09:00,2024,5,15,6,33,26,520,,,,,,,,,0.091553,-0.267578,0.48584,214.782715,159.179688,33.691406,,,,,,,,,,,0.0,1.0,1.0,7.0,0.0,0.0,0.0,4.0,0.0,0.09598637333333333,-0.21307938666666668,0.9838509066666665,5.335286426666666,5.5143229200000015,0.3393554666666659,71.35850382088536,-8.36258345829603,-1.883164444471379,9.561118944195291,8.23205347470084,-20.492420026415335,24.064932545395024,-1.1406996157260323,24.73360096297243,-1.0712214738116195,-0.0044333733333333375,-0.05449861333333331,-0.49801090666666653,0.5569428933333331,0.5010036095811328,0.8230113126624348,0.8765114575524885,0.8818097861777157
LBP03_S07,LBP03,89,90,7,89,89,1715754806.56,2024-05-15 06:33:26.560000+00:00,2024-05-15 15:33:26.560000+09:00,2024,5,15,6,33,26,560,,,,,,,,,-0.279541,0.122314,-0.178467,297.485352,-45.10498,-83.374023,,,,,,,,,,,0.0,1.0,1.0,7.0,0.0,0.0,0.0,4.0,0.0,0.09858402666666667,-0.21117834666666666,0.9639388000000001,7.8336588266666665,1.6235351600000005,-1.0546875066666672,79.08365847274125,-10.288625082220427,-2.220170024916186,12.72446528310494,7.820508471412022,-20.58122682741198,25.429496007859708,-1.1270054167219552,25.574964016820214,-1.0704292211181095,-0.37812502666666664,0.33349234666666666,-1.1424058000000001,1.8540231733333334,1.2487140156779486,0.8375228259361098,0.879188610870429,0.888732507489041
LBP03_S07,LBP03,90,91,7,90,90,1715754806.6,2024-05-15 06:33:26.600000+00:00,2024-05-15 15:33:26.600000+09:00,2024,5,15,6,33,26,600,,,,,,,,,0.227051,0.243652,0.210693,245.849609,-98.876953,-107.543945,,,,,,,,,,,0.0,1.0,1.0,7.0,0.0,0.0,0.0,4.0,0.0,0.10471032,-0.19953772,0.9476757733333333,8.658854133333334,-0.06673175999999974,-2.1223958400000003,76.47390345079238,-9.717974711320629,-1.7874787079734555,15.783421421136635,7.431789482959196,-20.65272597573092,27.03484745481003,-1.0810776480914344,26.439518828170993,-1.0737000027190096,0.12234068000000001,0.44318972,-0.7369827733333333,1.3025131733333333,0.8686356992932261,0.8334369249709266,0.8900767201214415,0.8883603443743036
LBP03_S07,LBP03,91,92,7,91,91,1715754806.64,2024-05-15 06:33:26.640000+00:00,2024-05-15 15:33:26.640000+09:00,2024,5,15,6,33,26,640,,,,,,,,,0.513184,0.36084,0.654297,19.714355,-53.100586,-22.766113,,,,,,,,,,,0.0,1.0,1.0,7.0,0.0,0.0,0.0,4.0,0.0,0.10407229333333333,-0.19255854666666666,0.9446093733333332,8.15673824,-0.37353514666666643,-1.804199226666667,64.72184756108591,-7.395279303826961,-0.8561499294049911,18.372295323580072,7.135978310806118,-20.68697197290712,28.57296329254252,-1.0692833436768765,27.28927513118837,-1.0813654981703655,0.40911170666666663,0.5533985466666667,-0.29031237333333315,1.2528226266666664,0.7469294572413945,0.8276790044051954,0.874537292193845,0.8857888736991597
LBP03_S07,LBP03,92,93,7,92,92,1715754806.68,2024-05-15 06:33:26.680000+00:00,2024-05-15 15:33:26.680000+09:00,2024,5,15,6,33,26,680,,,,,,,,,0.365234,0.118652,1.292236,-41.442871,68.054199,75.561523,,,,,,,,,,,0.0,1.0,1.0,7.0,0.0,0.0,0.0,4.0,0.0,0.11666669333333334,-0.19430984,0.9724186133333335,2.1085611600000003,-2.791341133333333,0.13590494666666605,47.17431133556285,-4.3724138023523915,0.004457756102439573,20.259267777002584,6.961081758712023,-20.68679366266302,29.779825757605828,-1.0245695225312987,28.095381340379674,-1.0838545737005012,0.24856730666666665,0.31296184,0.3198173866666665,0.8813465333333331,0.5118730116483993,0.8435044809047102,0.8740880756540271,0.8791118047339677
LBP03_S07,LBP03,93,94,7,93,93,1715754806.72,2024-05-15 06:33:26.720000+00:00,2024-05-15 15:33:26.720000+09:00,2024,5,15,6,33,26,720,,,,,,,,,-0.35376,-0.479492,1.791504,-224.243164,19.53125,77.758789,,,,,,,,,,,0.0,1.0,1.0,7.0,0.0,0.0,0.0,4.0,0.0,0.11388022666666667,-0.20490229333333332,0.9924023333333334,2.62451168,-0.6648762799999995,2.187499999999999,28.06828888730275,-1.7074998521562879,0.21934785626051176,21.381999332494694,6.892781764625772,-20.678019748412602,30.533274253268395,-1.0574190344281633,28.824432158009547,-1.0797125757118073,-0.4676402266666667,-0.27458970666666666,0.7991016666666666,1.5413316,0.9657382472873184,0.8234271222813163,0.883579616713221,0.8806315668840266
LBP03_S07,LBP03,94,95,7,94,94,1715754806.76,2024-05-15 06:33:26.760000+00:00,2024-05-15 15:33:26.760000+09:00,2024,5,15,6,33,26,760,,,,,,,,,0.096191,-0.783203,1.883789,-42.480469,-61.706543,20.263672,,,,,,,,,,,0.0,1.0,1.0,7.0,0.0,0.0,0.0,4.0,0.0,0.10898440000000001,-0.20113602666666666,0.9917382666666666,5.506998666666667,2.2420247600000005,3.242187493333333,11.107641482913305,-0.1269033580640397,-0.44606610368213956,21.826304991811227,6.88770563030321,-20.69586239255989,30.856876034638518,-1.0682854156213186,29.433448430642905,-1.0651636147709846,-0.01279340000000001,-0.5820669733333333,0.8920507333333333,1.4869111066666667,1.0652324363112142,0.831551065511716,0.8900514480839798,0.8838143404948401
LBP03_S07,LBP03,95,96,7,95,95,1715754806.8,2024-05-15 06:33:26.800000+00:00,2024-05-15 15:33:26.800000+09:00,2024,5,15,6,33,26,800,,,,,,,,,0.284668,-0.227295,1.144043,3.662109,98.449707,33.26416,,,,,,,,,,,0.0,1.0,1.0,7.0,0.0,0.0,0.0,4.0,0.0,0.09532554666666666,-0.20076818666666668,0.9640885333333333,5.4606119600000005,2.0776367333333337,2.0426432266666663,-1.482469045471886,0.22115668669219574,-1.711289196087409,21.76700622999235,6.896551897770898,-20.764313960403385,30.862950645415875,-1.121135679987083,29.881446248633857,-1.054486333261805,0.18934245333333333,-0.026526813333333316,0.1799544666666666,0.3958237333333332,0.2625601769750916,0.8208564412455226,0.869688885822067,0.8732846089097596
LBP03_S07,LBP03,96,97,7,96,96,1715754806.84,2024-05-15 06:33:26.840000+00:00,2024-05-15 15:33:26.840000+09:00,2024,5,15,6,33,26,840,,,,,,,,,-0.306396,0.063965,-0.12793,157.104492,143.920898,-62.805176,,,,,,,,,,,0.0,1.0,1.0,7.0,0.0,0.0,0.0,4.0,0.0,0.10548505333333333,-0.19465816,0.9440234266666666,7.47884112,-0.18473306666666645,1.3354492133333327,-9.11717196986302,-0.2016156041165571,-2.895893750491803,21.40231935119783,6.888487273606236,-20.88014971042306,30.68372830115291,-1.0680473512617308,30.148685449443924,-1.0512437630384994,-0.41188105333333336,0.25862315999999996,-1.0719534266666666,1.74245764,1.1771219520193184,0.8465116197015995,0.8697116856164455,0.8783485646282522
LBP03_S07,LBP03,97,98,7,97,97,1715754806.88,2024-05-15 06:33:26.880000+00:00,2024-05-15 15:33:26.880000+09:00,2024,5,15,6,33,26,880,,,,,,,,,0.079346,-0.088379,0.239502,30.334473,-181.518555,-72.631836,,,,,,,,,,,0.0,1.0,1.0,7.0,0.0,0.0,0.0,4.0,0.0,0.11011069333333334,-0.18995438666666667,0.9307193866666668,6.630859346666666,-1.2849934799999996,0.5232747333333327,-12.372703244470177,-0.557876738847671,-3.2595607977738577,20.90741122141902,6.866172204052329,-21.010532142334014,30.425427287406656,-1.0396027290721823,30.246485384492406,-1.052151290865606,-0.030764693333333343,0.10157538666666667,-0.6912173866666668,0.8235574666666667,0.6993178827705417,0.8386351883893073,0.8774928348342939,0.8754136354174701
LBP03_S07,LBP03,98,99,7,98,98,1715754806.92,2024-05-15 06:33:26.920000+00:00,2024-05-15 15:33:26.920000+09:00,2024,5,15,6,33,26,920,,,,,,,,,0.563965,0.390381,0.510986,74.34082,-83.92334,-76.477051,,,,,,,,,,,0.0,1.0,1.0,7.0,0.0,0.0,0.0,4.0,0.0,0.11443034666666667,-0.17819005333333332,0.9363834533333333,5.064290346666667,-2.1085611866666665,1.4371744799999993,-12.29639024311902,-0.06448431270671094,-2.364615383837374,20.41555561169426,6.863592831544061,-21.105116757687508,30.15509527172856,-0.9952100063178027,30.210326764318086,-1.0646901422527573,0.44953465333333337,0.5685710533333332,-0.42539745333333323,1.4435031599999997,0.8404269394412471,0.8461716246869594,0.861378908640445,0.8748493338694665
LBP03_S07,LBP03,99,100,7,99,99,1715754806.96,2024-05-15 06:33:26.960000+00:00,2024-05-15 15:33:26.960000+09:00,2024,5,15,6,33,26,960,,,,,,,,,0.423584,-0.281494,1.355225,5.371094,-17.578125,30.822754,,,,,,,,,,,0.0,1.0,1.0,7.0,0.0,0.0,0.0,4.0,0.0,0.11547201333333333,-0.19036778666666665,0.9652018133333333,-1.6365560000000006,-2.8002929599999997,3.5123697866666657,-9.921526414295101,1.5823620628310895,-0.249165848804845,20.018694555122455,6.926887314057304,-21.1150833916397,29.909474187769266,-1.0202326016301602,30.082389543596275,-1.0703498590169542,0.30811198666666667,-0.09112621333333337,0.3900231866666666,0.7892613866666667,0.5053266955364359,0.843238865946553,0.858987276476261,0.8689838951657676
LBP03_S07,LBP03,100,101,7,100,100,1715754807.0,2024-05-15 06:33:27+00:00,2024-05-15 15:33:27+09:00,2024,5,15,6,33,27,0,6.0,33.0,27.0,40.533173,141.46756,2.07,3.0,13.0,-0.081299,-0.131348,1.664795,-190.979004,109.191895,92.529297,-267.0,1.0,360.0,2363.0,0.0,1022.200012,31.049999,0.09117,-74.206306,3.803906,0.0,1.0,1.0,7.0,0.0,0.0,0.0,4.0,0.0,0.11311523999999999,-0.19925776,0.9841894533333332,-1.8286132933333337,-0.8902994666666664,5.109049479999999,-6.155980848851787,4.016730845447252,2.6767484550675755,19.772455321168383,7.087556547875194,-21.008013453436998,29.707239462910692,-1.048651945858378,29.894411510651235,-1.0713337355246249,-0.19441424,0.06790976000000001,0.6806055466666668,0.9429295466666668,0.7110784361598006,0.8108937378909161,0.8512670504349916,0.8665166223687993
LBP03_S07,LBP03,101,102,7,101,101,1715754807.04,2024-05-15 06:33:27.040000+00:00,2024-05-15 15:33:27.040000+09:00,2024,5,15,6,33,27,40,,,,,,,,,0.075928,-0.924316,2.102783,-61.462402,-91.369629,33.996582,,,,,,,,,,,0.0,1.0,1.0,7.0,0.0,0.0,0.0,4.0,0.0,0.10850911999999999,-0.20532221333333334,0.98948568,0.05533851999999949,1.597493506666667,5.909830733333332,-1.9205837677196935,6.3488187130216005,5.91975486723398,19.695631970459594,7.341509296396058,-20.77122325874764,29.55096264302736,-1.0783586219479433,29.658679313255266,-1.0636587642110227,-0.03258111999999999,-0.7189937866666667,1.11329732,1.8648722266666669,1.3256864325189834,0.8241449323575067,0.8594328076248884,0.8735807732941868
LBP03_S07,LBP03,102,103,7,102,102,1715754807.08,2024-05-15 06:33:27.080000+00:00,2024-05-15 15:33:27.080000+09:00,2024,5,15,6,33,27,80,,,,,,,,,0.209473,-0.695068,1.766602,-57.250977,40.893555,45.959473,,,,,,,,,,,0.0,1.0,1.0,7.0,0.0,0.0,0.0,4.0,0.0,0.09314453333333333,-0.21208653333333333,0.9652897200000001,2.709960906666666,2.242838546666667,3.3951822933333324,1.7423778174832614,7.557406598289779,9.172198121479841,19.765327083158926,7.64380556032765,-20.404335333888447,29.41823955586262,-1.1499580364028084,29.368839762286292,-1.062267401469857,0.11632846666666666,-0.4829814666666667,0.8013122799999999,1.4006222133333333,0.9428174687495456,0.8334071546982943,0.8505179483125334,0.8746298141344195
LBP03_S07,LBP03,103,104,7,103,103,1715754807.12,2024-05-15 06:33:27.120000+00:00,2024-05-15 15:33:27.120000+09:00,2024,5,15,6,33,27,120,,,,,,,,,-0.054199,0.018066,0.422119,185.852051,253.051758,0.427246,,,,,,,,,,,0.0,1.0,1.0,7.0,0.0,0.0,0.0,4.0,0.0,0.09728841333333332,-0.20136713333333334,0.9417675866666665,5.021972626666666,-0.40608722666666647,1.2858072933333327,3.7974233647297657,6.922411022594141,12.390182357414403,19.917224017748115,7.920702001231415,-19.90872803959187,29.25390204605029,-1.1140162020701354,29.007069937749815,-1.066592197561199,-0.15148741333333332,0.21943313333333334,-0.5196485866666665,0.8905691333333331,0.5840667684670756,0.8408933052370032,0.8511659982157356,0.8702930522587875
LBP03_S07,LBP03,104,105,7,104,104,1715754807.16,2024-05-15 06:33:27.160000+00:00,2024-05-15 15:33:27.160000+09:00,2024,5,15,6,33,27,160,,,,,,,,,-0.397217,0.224854,0.051025,70.678711,-123.718262,-76.538086,,,,,,,,,,,0.0,1.0,1.0,7.0,0.0,0.0,0.0,4.0,0.0,0.10363281333333334,-0.19608066666666668,0.9295866,3.5196939866666663,-2.31445312,0.0675455733333329,3.549599562453307,4.289894433346872,15.6555970590959,20.059208000246247,8.09229777856529,-19.282504157228036,28.977095705188127,-1.0781241806980233,28.552380971178486,-1.0796461391715817,-0.5008498133333333,0.4209346666666667,-0.8785616,1.8003460800000002,1.095402672131291,0.857201193787455,0.8403647559097988,0.8736034878451477
LBP03_S07,LBP03,105,106,7,105,105,1715754807.2,2024-05-15 06:33:27.200000+00:00,2024-05-15 15:33:27.200000+09:00,2024,5,15,6,33,27,200,,,,,,,,,0.452637,0.054688,0.736572,24.658203,-127.746582,-60.424805,,,,,,,,,,,0.0,1.0,1.0,7.0,0.0,0.0,0.0,4.0,0.0,0.10883137333333333,-0.18982414666666667,0.9347037866666666,2.0141601333333323,-3.1070963466666672,0.7633463599999996,0.9446088589602168,0.0613920728648278,18.950353329020405,20.096992354604655,8.094753461479884,-18.52449002406722,28.50562867145618,-1.0443859668510618,27.986485627409394,-1.0932643384237424,0.3438056266666667,0.24451214666666665,-0.19813178666666664,0.78644956,0.4660951659081291,0.8361058774324001,0.8306035200750281,0.8676975701359156
LBP03_S07,LBP03,106,107,7,106,106,1715754807.24,2024-05-15 06:33:27.240000+00:00,2024-05-15 15:33:27.240000+09:00,2024,5,15,6,33,27,240,,,,,,,,,0.529053,0.013428,1.321289,-5.310059,2.624512,44.311523,,,,,,,,,,,0.0,1.0,1.0,7.0,0.0,0.0,0.0,4.0,0.0,0.11141925333333333,-0.19892570666666667,0.96307292,-4.337565120000001,-3.3951822799999998,2.7701822933333333,-3.4068668999266816,-5.03526152699526,22.027221691921362,19.960717678607587,7.893343000400074,-17.643401156390365,27.78533279146318,-1.0541337238500743,27.2968313246332,-1.1003930290572639,0.41763374666666664,0.21235370666666667,0.35821607999999994,0.9882035333333332,0.5897718228776927,0.8352280364293725,0.8321252117001524,0.863727202317941
LBP03_S07,LBP03,107,108,7,107,107,1715754807.28,2024-05-15 06:33:27.280000+00:00,2024-05-15 15:33:27.280000+09:00,2024,5,15,6,33,27,280,,,,,,,,,0.038818,-0.131592,1.752441,-181.945801,62.194824,132.202148,,,,,,,,,,,0.0,1.0,1.0,7.0,0.0,0.0,0.0,4.0,0.0,0.11072264,-0.21203117333333335,0.98887696,-5.241699226666668,-1.0774739466666665,4.676106773333333,-8.523707176016428,-10.21236011082907,24.479679906711578,19.61976939156693,7.484848595966912,-16.664213960121902,26.80772904204189,-1.0828506899856014,26.478716450040917,-1.1001017158034272,-0.07190463999999999,0.08043917333333336,0.7635640399999999,0.9159078533333332,0.7711490005447722,0.8155842331752109,0.830931990017997,0.8624232839831077
LBP03_S07,LBP03,108,109,7,108,108,1715754807.32,2024-05-15 06:33:27.320000+00:00,2024-05-15 15:33:27.320000+09:00,2024,5,15,6,33,27,320,,,,,,,,,-0.243896,-1.229248,2.180176,-106.323242,-97.595215,63.049316,,,,,,,,,,,0.0,1.0,1.0,7.0,0.0,0.0,0.0,4.0,0.0,0.10424151999999999,-0.22271802666666662,0.9980175866666665,-4.1300455733333346,0.7413737066666668,6.008300786666666,-13.477076154622544,-14.77057668868159,25.948838303910257,19.080686345382027,6.8940255284196486,-15.62626042796549,25.608205606015236,-1.1257494224216298,25.538449883736803,-1.0873976293103709,-0.34813752,-1.0065299733333333,1.1821584133333334,2.5368259066666665,1.5911633587614236,0.8441212841781688,0.8380531338059424,0.8725446739105842
LBP03_S07,LBP03,109,110,7,109,109,1715754807.36,2024-05-15 06:33:27.360000+00:00,2024-05-15 15:33:27.360000+09:00,2024,5,15,6,33,27,360,,,,,,,,,0.427246,-0.474365,1.587646,70.617676,-3.662109,56.274414,,,,,,,,,,,0.0,1.0,1.0,7.0,0.0,0.0,0.0,4.0,0.0,0.09735023999999999,-0.22598950666666667,0.9834505199999999,-1.6080729200000008,2.05647788,5.3116862,-17.6681410926046,-18.110468832945184,26.289527919586714,18.37396070167784,6.169606775101841,-14.574679311182022,24.25052075007837,-1.1564145941517676,24.497565262318687,-1.0884845831422154,0.32989576000000004,-0.2483754933333333,0.60419548,1.1824667333333334,0.7318290621497514,0.8465711023134633,0.8313878719764906,0.8706170627905729
LBP03_S07,LBP03,110,111,7,110,110,1715754807.4,2024-05-15 06:33:27.400000+00:00,2024-05-15 15:33:27.400000+09:00,2024,5,15,6,33,27,400,,,,,,,,,-0.257568,0.175537,0.157227,137.084961,243.286133,-17.456055,,,,,,,,,,,0.0,1.0,1.0,7.0,0.0,0.0,0.0,4.0,0.0,0.10131182666666666,-0.21316073333333332,0.9631803333333333,2.7213541599999993,0.79020184,3.8020833333333335,-20.81934314696242,-19.70366691244641,25.55055152243962,17.541186975799345,5.381460098603985,-13.552657250284437,22.810696435148724,-1.1199388521935927,23.395827423015692,-1.0786883363140656,-0.3588798266666667,0.38869773333333335,-0.8059533333333333,1.5535308933333334,0.9640754293092832,0.8538410972644133,0.8401609678826373,0.8718800136894744
LBP03_S07,LBP03,111,112,7,111,111,1715754807.44,2024-05-15 06:33:27.440000+00:00,2024-05-15 15:33:27.440000+09:00,2024,5,15,6,33,27,440,,,,,,,,,-0.225586,0.04834,0.040039,-69.641113,-192.077637,-61.645508,,,,,,,,,,,0.0,1.0,1.0,7.0,0.0,0.0,0.0,4.0,0.0,0.10934567999999999,-0.20568026666666667,0.9554752666666667,1.8253580666666658,-0.09114581333333338,2.5618489599999994,-22.771490991071,-19.142116237385036,23.780941497847174,16.630327336156505,4.615775449108583,-12.60141959037055,21.369813897104546,-1.0754454894095768,22.29000392570324,-1.084018961860102,-0.33493168,0.25402026666666666,-0.9154362666666667,1.5043882133333333,1.0073376218893202,0.8413477375762746,0.8307314925107828,0.873686115132139
LBP03_S07,LBP03,112,113,7,112,112,1715754807.48,2024-05-15 06:33:27.480000+00:00,2024-05-15 15:33:27.480000+09:00,2024,5,15,6,33,27,480,,,,,,,,,0.361328,-0.230957,0.358887,-33.813477,-129.577637,-68.603516,,,,,,,,,,,0.0,1.0,1.0,7.0,0.0,0.0,0.0,4.0,0.0,0.12290362666666667,-0.20415357333333334,0.9781087333333333,0.8805338533333323,-0.9960937333333336,2.996419266666666,-23.31167707756056,-16.30824878258128,20.829480387738794,15.697860253054083,3.963445497805332,-11.768240374861,20.015573892821486,-1.022917171472246,21.246894443021496,-1.0892109426591086,0.23842437333333333,-0.026803426666666658,-0.6192217333333332,0.8844495333333332,0.6640784294891724,0.8334972717095803,0.829061611790981,0.872078526172062
LBP03_S07,LBP03,113,114,7,113,113,1715754807.52,2024-05-15 06:33:27.520000+00:00,2024-05-15 15:33:27.520000+09:00,2024,5,15,6,33,27,520,,,,,,,,,0.704834,-0.125,0.991455,16.113281,-31.921387,26.672363,,,,,,,,,,,0.0,1.0,1.0,7.0,0.0,0.0,0.0,4.0,0.0,0.13530270666666663,-0.29159824,1.0342057333333332,-0.03824870666666759,0.012207039999999789,3.238118493333333,-22.188684631249522,-11.57121880750031,16.33847743254184,14.810312867804102,3.5005967455053195,-11.114701277559327,18.84505583186914,-1.12488574038858,20.332150878611355,-1.0863232049990423,0.5695312933333333,0.16659824,-0.042750733333333235,0.7788802666666665,0.5949357048098347,0.8372545555187284,0.8301329340905816,0.8634258235412352
LBP03_S07,LBP03,114,115,7,114,114,1715754807.56,2024-05-15 06:33:27.560000+00:00,2024-05-15 15:33:27.560000+09:00,2024,5,15,6,33,27,560,,,,,,,,,0.20752,0.18335,1.437012,-56.335449,86.181641,129.211426,,,,,,,,,,,0.0,1.0,1.0,7.0,0.0,0.0,0.0,4.0,0.0,0.15603186666666666,-0.2359504533333333,1.0467415333333334,3.109537746666666,10.157877613333333,4.082845066666667,-19.295788024273616,-5.828220123123554,10.010129735251697,14.038481346833157,3.2674679405803775,-10.71429608814926,17.959717312158162,-0.9801617124165275,19.59902752810249,-1.0874264980545592,0.05148813333333335,0.4193004533333333,0.39027046666666654,0.8610590533333332,0.5751303636497621,0.810311209437601,0.8239170176868555,0.8562294770594863
LBP03_S07,LBP03,115,116,7,115,115,1715754807.6,2024-05-15 06:33:27.600000+00:00,2024-05-15 15:33:27.600000+09:00,2024,5,15,6,33,27,600,,,,,,,,,-0.055176,-1.209717,2.022461,-199.890137,-72.937012,56.213379,,,,,,,,,,,0.0,1.0,1.0,7.0,0.0,0.0,0.0,4.0,0.0,0.14259112000000002,-0.2854979733333334,1.0925292933333333,0.3426106666666654,14.789225266666666,4.243977879999999,-14.866360485516973,-0.28192302358727844,2.0187711063134,13.443826927412477,3.256191019636886,-10.633545243896723,17.44739369833166,-1.0976922223114247,19.081401398428508,-1.0809987525408429,-0.19776712000000002,-0.9242190266666666,0.9299317066666666,2.0519178533333333,1.3259206695989598,0.8286026082498305,0.8310197666103786,0.869585349497571
LBP03_S07,LBP03,116,117,7,116,116,1715754807.64,2024-05-15 06:33:27.640000+00:00,2024-05-15 15:33:27.640000+09:00,2024,5,15,6,33,27,640,,,,,,,,,0.158691,-0.165283,1.225098,13.916016,40.527344,48.400879,,,,,,,,,,,0.0,1.0,1.0,7.0,0.0,0.0,0.0,4.0,0.0,0.14269527999999998,-0.29177726666666665,1.1179654933333334,0.6437174399999989,17.3404948,5.335286466666666,-9.502659225981336,3.9788109734853787,-6.700597232936502,13.063720558373223,3.4153434585763014,-10.901569133214183,17.354237964645737,-1.1060535318401388,18.792994895008395,-1.0778099419200944,0.01599572000000002,0.12649426666666663,0.10713250666666663,0.24962249333333328,0.16653539126125574,0.8053868456106248,0.8165329250079101,0.8514871433327716
LBP03_S07,LBP03,117,118,7,117,117,1715754807.68,2024-05-15 06:33:27.680000+00:00,2024-05-15 15:33:27.680000+09:00,2024,5,15,6,33,27,680,,,,,,,,,-0.043213,-0.221924,0.48877,94.421387,154.846191,7.263184,,,,,,,,,,,0.0,1.0,1.0,7.0,0.0,0.0,0.0,4.0,0.0,0.15120765333333333,-0.27122062666666663,1.12601236,2.5984700533333323,16.91162110666667,4.94628908,-3.9495151135422186,6.396844589224664,-14.525663186345858,12.905739953831535,3.671217242145288,-11.482595660668018,17.66029339794049,-1.0539733133849398,18.73152068974431,-1.0797347483510458,-0.19442065333333333,0.04929662666666662,-0.6372423600000001,0.88095964,0.6680624021913242,0.8116344212323419,0.8275694510685261,0.8532701908467987
LBP03_S07,LBP03,118,119,7,118,118,1715754807.72,2024-05-15 06:33:27.720000+00:00,2024-05-15 15:33:27.720000+09:00,2024,5,15,6,33,27,720,,,,,,,,,-0.408447,-0.010742,-0.154053,144.897461,51.208496,-129.150391,,,,,,,,,,,0.0,1.0,1.0,7.0,0.0,0.0,0.0,4.0,0.0,0.137207,-0.3043586533333333,1.1291080666666669,0.0846354133333322,16.155598973333333,3.9282226799999997,1.2914969847806594,7.150021193465058,-19.62502082264202,12.95739983322276,3.9572180898838907,-12.267596493573699,18.276972100926546,-1.136782352976797,18.884253844183572,-1.087761659841218,-0.545654,0.2936166533333333,-1.2831610666666668,2.1224317200000002,1.42493906881656,0.8300024540935115,0.8267147881874137,0.8657205625066511
LBP03_S07,LBP03,119,120,7,119,119,1715754807.76,2024-05-15 06:33:27.760000+00:00,2024-05-15 15:33:27.760000+09:00,2024,5,15,6,33,27,760,,,,,,,,,0.108398,0.081299,0.126709,47.912598,-124.511719,-132.873535,,,,,,,,,,,0.0,1.0,1.0,7.0,0.0,0.0,0.0,4.0,0.0,0.14234371999999998,-0.28036777333333335,1.1345507733333335,5.393880199999999,16.208496106666665,4.08365888,6.245094667589581,7.017925898122828,-20.645019443569065,13.207203619926345,4.237935125808804,-13.09339727131646,19.074259453338602,-1.0921371390146053,19.231036714968532,-1.084514601856058,-0.033945719999999985,0.36166677333333336,-1.0078417733333336,1.403454266666667,1.0713077087911491,0.830245464992709,0.8308982652522126,0.8701161203868896
LBP03_S07,LBP03,120,121,7,120,120,1715754807.8,2024-05-15 06:33:27.800000+00:00,2024-05-15 15:33:27.800000+09:00,2024,5,15,6,33,27,800,,,,,,,,,0.450195,0.291016,0.388428,-9.521484,-92.041016,-65.979004,,,,,,,,,,,0.0,1.0,1.0,7.0,0.0,0.0,0.0,4.0,0.0,0.15891273333333333,-0.31078118666666665,1.1768554533333333,-0.11637370666666812,7.954915373333332,5.668131533333333,11.387376044510578,6.963803841584418,-17.26868736069181,13.662698661706768,4.51648727947218,-13.784144765744132,19.92663140094756,-1.0880507459861075,19.74238353943424,-1.0910443643183718,0.2912822666666667,0.6017971866666667,-0.7884274533333333,1.6815069066666668,1.033742260877474,0.8610927483488042,0.8409745947971633,0.8668235066643126
LBP03_S07,LBP03,121,122,7,121,121,1715754807.84,2024-05-15 06:33:27.840000+00:00,2024-05-15 15:33:27.840000+09:00,2024,5,15,6,33,27,840,,,,,,,,,0.416748,-0.155029,1.109619,-98.388672,31.616211,25.634766,,,,,,,,,,,0.0,1.0,1.0,7.0,0.0,0.0,0.0,4.0,0.0,0.15667641333333335,-0.3116600933333333,1.1688508933333333,4.020996079999998,15.71695965333333,8.727213560000001,17.17849295787761,7.6558410451958325,-10.358094154069574,14.349838380021872,4.8227209212800135,-14.198468531906915,20.755071844463743,-1.0946935537190916,20.374170985855596,-1.0827512795362648,0.26007158666666663,0.15663109333333328,-0.05923189333333334,0.4759345733333332,0.30932013639264455,0.8263806757237372,0.8364461477126683,0.8552680156522094
LBP03_S07,LBP03,122,123,7,122,122,1715754807.88,2024-05-15 06:33:27.880000+00:00,2024-05-15 15:33:27.880000+09:00,2024,5,15,6,33,27,880,,,,,,,,,-0.020752,-0.517578,1.722412,-194.396973,-0.366211,95.581055,,,,,,,,,,,0.0,1.0,1.0,7.0,0.0,0.0,0.0,4.0,0.0,0.14655922666666665,-0.2973762266666667,1.15024088,9.708658853333331,11.796061213333333,8.994954439999999,23.45751715492707,9.189329167203478,-1.6108826147002488,15.288139066218955,5.1902940879681525,-14.262903836494925,21.542905437214102,-1.1031862863739708,21.06404638411819,-1.0807383767535346,-0.16731122666666665,-0.2202017733333333,0.5721711200000001,0.9596841200000001,0.6355011078746472,0.8238280047279015,0.8312315965586043,0.859604558132163
LBP03_S07,LBP03,123,124,7,123,123,1715754807.92,2024-05-15 06:33:27.920000+00:00,2024-05-15 15:33:27.920000+09:00,2024,5,15,6,33,27,920,,,,,,,,,0.19751,-0.825195,1.77124,95.88623,24.719238,73.303223,,,,,,,,,,,0.0,1.0,1.0,7.0,0.0,0.0,0.0,4.0,0.0,0.14990233333333333,-0.29621410666666664,1.1328222533333334,9.366048173333331,8.515625013333333,6.554361986666666,29.098265294860592,11.133363469619844,7.0783990954456355,16.45206967801338,5.635628626752946,-13.9797678726771,22.312884539718734,-1.0924151605369774,21.734397714098957,-1.0805848003594927,0.04760766666666666,-0.5289808933333333,0.6384177466666665,1.2150063066666665,0.8304604112756487,0.8234293436012776,0.8348004841441184,0.8487290536273892
LBP03_S07,LBP03,124,125,7,124,124,1715754807.96,2024-05-15 06:33:27.960000+00:00,2024-05-15 15:33:27.960000+09:00,2024,5,15,6,33,27,960,,,,,,,,,0.2146,-0.571777,1.09375,40.893555,47.668457,57.739258,,,,,,,,,,,0.0,1.0,1.0,7.0,0.0,0.0,0.0,4.0,0.0,0.16257810666666667,-0.28654613333333334,1.1153743333333332,11.573893226666664,10.949707039999998,6.258138026666666,32.20533778562708,12.825131569601,14.22513938861456,17.740283189438465,6.1486338895369865,-13.410762297132518,23.073185556815226,-1.045459337039666,22.302229222846456,-1.0734987206744662,0.05202189333333335,-0.28523086666666664,-0.021624333333333245,0.35887709333333323,0.29074135666862666,0.8148459300465651,0.8290423979965591,0.8442734943330291
LBP03_S07,LBP03,125,126,7,125,125,1715754808.0,2024-05-15 06:33:28+00:00,2024-05-15 15:33:28+09:00,2024,5,15,6,33,28,0,6.0,33.0,28.0,40.533192,141.467651,2.99,3.0,14.0,-0.489258,-0.183594,-0.101562,256.774902,240.112305,-51.208496,-270.0,4.0,361.0,1950.0,0.0,1021.900024,31.1,0.088197,-71.727585,3.803906,0.0,1.0,1.0,7.0,0.0,0.0,0.0,4.0,0.0,0.16818682666666668,-0.27571930666666666,1.10985024,11.61702473333333,12.963053386666665,9.142252599999999,30.810789932048017,13.708333795176975,19.06629986224964,18.972714786720385,6.6969672413440655,-12.648110302642532,23.765268162545233,-1.0147613744903516,22.69182718803095,-1.073106195352555,-0.6574448266666667,0.09212530666666666,-1.21141224,1.9609823733333334,1.3813907439464796,0.8416584223580322,0.8262760801244741,0.8480641744093385
LBP03_S07,LBP03,126,127,7,126,126,1715754808.04,2024-05-15 06:33:28.040000+00:00,2024-05-15 15:33:28.040000+09:00,2024,5,15,6,33,28,40,,,,,,,,,-0.015869,0.259766,0.30249,-6.652832,-165.710449,-36.987305,,,,,,,,,,,0.0,1.0,1.0,7.0,0.0,0.0,0.0,4.0,0.0,0.15052406666666668,-0.29260733333333333,1.1261751066666668,7.525227853333331,11.067708333333334,9.250488279999999,23.728347380734935,13.517205651538267,21.516582518085198,19.921848681949783,7.237655467405596,-11.787447001919125,24.25299194727163,-1.0859245040128385,22.845179913716372,-1.0748319876608279,-0.16639306666666667,0.5523733333333334,-0.8236851066666668,1.5424515066666669,1.0056142933336787,0.8288555367906202,0.8265002345740633,0.8492403840134656
LBP03_S07,LBP03,127,128,7,127,127,1715754808.08,2024-05-15 06:33:28.080000+00:00,2024-05-15 15:33:28.080000+09:00,2024,5,15,6,33,28,80,,,,,,,,,0.604736,-0.238525,0.791992,-0.610352,-153.991699,-32.104492,,,,,,,,,,,0.0,1.0,1.0,7.0,0.0,0.0,0.0,4.0,0.0,0.16424802666666666,-0.29439444,1.1375227600000002,6.555989559999998,8.805338533333332,10.92447916,11.140344174151167,12.237060933817782,21.907773687446145,20.36746244891583,7.727137904758307,-10.911136054421279,24.36380669774822,-1.0524375494445202,22.72734596594743,-1.0724533337676418,0.4404879733333334,0.05586943999999999,-0.34553076000000016,0.8418881733333335,0.5626211470282634,0.8136476839217689,0.8235274193100315,0.8382278601822785
LBP03_S07,LBP03,128,129,7,128,128,1715754808.12,2024-05-15 06:33:28.120000+00:00,2024-05-15 15:33:28.120000+09:00,2024,5,15,6,33,28,120,,,,,,,,,0.354492,0.2771,1.187012,57.922363,108.825684,68.359375,,,,,,,,,,,0.0,1.0,1.0,7.0,0.0,0.0,0.0,4.0,0.0,0.15592770666666667,-0.2884862266666667,1.1277896933333333,5.979003893333332,15.819498693333335,12.338867173333332,-5.336026670077743,9.950839342514781,20.720874625839443,20.15402138211272,8.125171478458899,-10.082301069387702,23.95528718840154,-1.0659215561265334,22.327114504555468,-1.067688252398636,0.1985642933333333,0.5655862266666667,0.05922230666666661,0.8233728266666667,0.6023477732912481,0.8143789241147357,0.8276361146758695,0.838903640182069
LBP03_S07,LBP03,129,130,7,129,129,1715754808.16,2024-05-15 06:33:28.160000+00:00,2024-05-15 15:33:28.160000+09:00,2024,5,15,6,33,28,160,,,,,,,,,-0.034912,-0.41748,1.814697,-203.063965,3.051758,68.664551,,,,,,,,,,,0.0,1.0,1.0,7.0,0.0,0.0,0.0,4.0,0.0,0.14618812,-0.2856151333333333,1.1139518,4.213867186666665,12.95572916,11.973470039999999,-23.08059024973598,6.760914074791806,18.441833753502202,19.23079777212328,8.395608041450572,-9.344627719247613,22.970239105183516,-1.0882118857954914,21.655414990840143,-1.063266391551051,-0.18110012,-0.1318648666666667,0.7007452000000001,1.0137101866666667,0.7356829696602146,0.7999901360158926,0.8285956649016737,0.8269065492784967
LBP03_S07,LBP03,130,131,7,130,130,1715754808.2,2024-05-15 06:33:28.200000+00:00,2024-05-15 15:33:28.200000+09:00,2024,5,15,6,33,28,200,,,,,,,,,0.059814,-0.259766,1.826172,-20.263672,-11.047363,30.395508,,,,,,,,,,,0.0,1.0,1.0,7.0,0.0,0.0,0.0,4.0,0.0,0.1452408533333333,-0.29681304000000003,1.1074967199999999,4.332682293333332,6.754557293333333,10.855305986666666,-39.17404358699778,2.8738677521636964,15.530806951441082,17.66383602864337,8.51056275153712,-8.72339544118997,21.460158657801777,-1.1053086690688385,20.743735654848923,-1.0613561047612523,-0.0854268533333333,0.03704704000000003,0.71867528,0.8411491733333334,0.7246822672911728,0.8103336200712143,0.8232197487518071,0.8238468867404236
LBP03_S07,LBP03,131,132,7,131,131,1715754808.24,2024-05-15 06:33:28.240000+00:00,2024-05-15 15:33:28.240000+09:00,2024,5,15,6,33,28,240,,,,,,,,,0.039551,-0.287354,1.034668,-32.470703,144.592285,16.906738,,,,,,,,,,,0.0,1.0,1.0,7.0,0.0,0.0,0.0,4.0,0.0,0.15636065333333335,-0.2935610933333333,1.0843619466666667,10.209147133333332,5.419108079999999,9.614257813333333,-51.09829706646437,-1.2448727423506314,12.411522177941826,15.619904145984796,8.460767841843095,-8.226934554072297,19.576732366774287,-1.070907014787231,19.64249259929743,-1.0703810088092556,-0.11680965333333335,0.006207093333333302,-0.04969394666666682,0.17271069333333347,0.12709253107406332,0.7918264483990691,0.8135272424142208,0.8186922905997914
LBP03_S07,LBP03,132,133,7,132,132,1715754808.28,2024-05-15 06:33:28.280000+00:00,2024-05-15 15:33:28.280000+09:00,2024,5,15,6,33,28,280,,,,,,,,,-0.549072,0.289795,-0.479248,22.094727,87.890625,-30.090332,,,,,,,,,,,0.0,1.0,1.0,7.0,0.0,0.0,0.0,4.0,0.0,0.15674477333333334,-0.28333648,1.06780596,8.991699226666666,8.491210946666667,10.673014319999998,-57.244420998823756,-4.832161102221306,9.4133580988912,13.330127306031846,8.267481397754244,-7.85040023011665,17.54059082329452,-1.05553547268391,18.41735430687248,-1.07383674722222,-0.7058167733333334,0.57313148,-1.54705396,2.826002213333333,1.794445030096311,0.8327582895811309,0.8241712613781708,0.8315407565390416
LBP03_S07,LBP03,133,134,7,133,133,1715754808.32,2024-05-15 06:33:28.320000+00:00,2024-05-15 15:33:28.320000+09:00,2024,5,15,6,33,28,320,,,,,,,,,0.193604,-0.273193,0.376465,-120.97168,-188.110352,-41.015625,,,,,,,,,,,0.0,1.0,1.0,7.0,0.0,0.0,0.0,4.0,0.0,0.15525714666666665,-0.2756314,1.0533853866666667,13.090820319999999,5.889485679999999,11.447753906666668,-57.17626655851465,-7.027682887557219,6.688031431570441,11.04307664369126,7.986374082251955,-7.582878972853832,15.59588940256547,-1.0481965520611287,17.142227469303023,-1.0803453225516064,0.03834685333333335,0.0024384000000000072,-0.6769203866666667,0.71770564,0.6780100565921405,0.7962321574943594,0.820176720836264,0.8241128083687481
LBP03_S07,LBP03,134,135,7,134,134,1715754808.36,2024-05-15 06:33:28.360000+00:00,2024-05-15 15:33:28.360000+09:00,2024,5,15,6,33,28,360,,,,,,,,,0.537109,-0.328369,0.940918,-38.085938,-138.000488,-45.776367,,,,,,,,,,,0.0,1.0,1.0,7.0,0.0,0.0,0.0,4.0,0.0,0.1578450266666667,-0.26584298666666667,1.0592577866666666,12.90771485333333,6.218261733333334,14.261067706666665,-51.679812953063504,-7.262685616510309,4.187199281177239,8.975884125568719,7.695866657591543,-7.415391001606743,13.956392196903037,-1.0263564691416796,15.889751973805076,-1.0866084899794963,0.3792639733333333,-0.06252601333333335,-0.11833978666666656,0.5601297733333332,0.4021877284555804,0.7830465041465926,0.8148088032300279,0.8152740826998578
LBP03_S07,LBP03,135,136,7,135,135,1715754808.4,2024-05-15 06:33:28.400000+00:00,2024-05-15 15:33:28.400000+09:00,2024,5,15,6,33,28,400,,,,,,,,,0.374023,0.19043,1.285889,-36.132812,77.758789,76.416016,,,,,,,,,,,0.0,1.0,1.0,7.0,0.0,0.0,0.0,4.0,0.0,0.1424544,-0.2911424666666667,1.06888344,2.555338546666664,10.922037773333333,14.527994786666666,-42.61715578314398,-5.6135851476295215,1.768536170118587,7.27119789424296,7.4713232516863615,-7.344649554801999,12.752837607030276,-1.1050104149703832,14.721885412554986,-1.090598993712843,0.23156859999999999,0.4815724666666667,0.21700556000000004,0.9301466266666667,0.5767386498478244,0.7675530329681343,0.8106970651162737,0.8159583229111362
LBP03_S07,LBP03,136,137,7,136,136,1715754808.44,2024-05-15 06:33:28.440000+00:00,2024-05-15 15:33:28.440000+09:00,2024,5,15,6,33,28,440,,,,,,,,,-0.244385,-0.640869,1.794922,-230.163574,-21.057129,53.955078,,,,,,,,,,,0.0,1.0,1.0,7.0,0.0,0.0,0.0,4.0,0.0,0.14231117333333335,-0.3033918133333333,1.0645963333333333,7.73437501333333,8.539225279999998,16.36149088,-32.55849309247094,-2.8747758914491324,-0.5978478755730645,5.968858170544122,7.356332216028396,-7.368563469824922,12.001609023022157,-1.1204818881424823,13.683836753753592,-1.0910533892961527,-0.38669617333333334,-0.3374771866666667,0.7303256666666667,1.4544990266666666,0.8926367466014395,0.762964997956619,0.8021563677664467,0.8081426609927281
LBP03_S07,LBP03,137,138,7,137,137,1715754808.48,2024-05-15 06:33:28.480000+00:00,2024-05-15 15:33:28.480000+09:00,2024,5,15,6,33,28,480,,,,,,,,,0.063232,-0.469482,1.750977,28.381348,-10.253906,34.362793,,,,,,,,,,,0.0,1.0,1.0,7.0,0.0,0.0,0.0,4.0,0.0,0.13692054666666667,-0.28926421333333335,1.0402831733333333,3.3113606933333313,10.922037773333331,15.951334626666666,-24.167643074406236,-0.2684850391435956,-2.6544890245049704,5.002152447567872,7.345592814462652,-7.474743030805121,11.61253832205364,-1.1175233027383857,12.803021298943762,-1.0939277045821547,-0.07368854666666667,-0.18021778666666666,0.7106938266666667,0.96460016,0.7368813797369206,0.765877115966529,0.7996871938380548,0.8080001131828304
LBP03_S07,LBP03,138,139,7,138,138,1715754808.52,2024-05-15 06:33:28.520000+00:00,2024-05-15 15:33:28.520000+09:00,2024,5,15,6,33,28,520,,,,,,,,,0.297119,-0.719238,1.364746,48.950195,85.449219,38.269043,,,,,,,,,,,0.0,1.0,1.0,7.0,0.0,0.0,0.0,4.0,0.0,0.13345049333333334,-0.29075834666666667,1.0091047866666667,4.744466159999997,9.23177084,14.558919266666665,-19.409413339791545,1.0755700545498572,-3.867243384328784,4.225775913976211,7.388615616644646,-7.629432766178272,11.430532233422085,-1.1285532304054324,12.091517526752538,-1.0933499630924275,0.16366850666666669,-0.4284796533333334,0.3556412133333333,0.9477893733333334,0.5803988852645702,0.7652956431847184,0.8012750993517236,0.8085205037886272
LBP03_S07,LBP03,139,140,7,139,139,1715754808.56,2024-05-15 06:33:28.560000+00:00,2024-05-15 15:33:28.560000+09:00,2024,5,15,6,33,28,560,,,,,,,,,-0.763672,0.006104,-0.341064,272.399902,185.72998,-84.228516,,,,,,,,,,,0.0,1.0,1.0,7.0,0.0,0.0,0.0,4.0,0.0,0.12700842666666667,-0.27605457333333333,0.97881508,5.850423186666664,9.675292973333331,14.493815106666668,-18.81097369682363,0.6226429469689784,-3.6787888408004057,3.4733369661032656,7.413521334523406,-7.776584319810288,11.291573492682602,-1.128116923128961,11.549628004591742,-1.0976416672087042,-0.8906804266666667,0.28215857333333333,-1.31987908,2.49271808,1.6170979774813472,0.8069743477379818,0.8086427785877913,0.8182694610372309
LBP03_S07,LBP03,140,141,7,140,140,1715754808.6,2024-05-15 06:33:28.600000+00:00,2024-05-15 15:33:28.600000+09:00,2024,5,15,6,33,28,600,,,,,,,,,0.244141,0.266846,0.15332,-84.106445,-210.998535,-101.196289,,,,,,,,,,,0.0,1.0,1.0,7.0,0.0,0.0,0.0,4.0,0.0,0.12882157333333333,-0.26691069333333334,0.9554394266666666,2.4291992399999973,5.029296879999999,12.78157552,-21.13018949018431,-1.3030798881372063,-1.8980994083769105,2.628129386495893,7.3613981389979175,-7.8525082961453645,11.079672069787854,-1.1098526249019343,11.172380797730266,-1.1033473695435592,0.11531942666666667,0.5337566933333333,-0.8021194266666666,1.4511955466666664,0.9703557865447727,0.7927517524158142,0.8106771803328223,0.8182637618788571
LBP03_S07,LBP03,141,142,7,141,141,1715754808.64,2024-05-15 06:33:28.640000+00:00,2024-05-15 15:33:28.640000+09:00,2024,5,15,6,33,28,640,,,,,,,,,0.535156,-0.356445,0.808838,-81.298828,-101.074219,-69.824219,,,,,,,,,,,0.0,1.0,1.0,7.0,0.0,0.0,0.0,4.0,0.0,0.13805985333333334,-0.27937488,0.9608170266666667,0.5338541866666645,0.13509114666666563,13.428548173333333,-23.70341836582221,-3.5715424168160643,1.0042581538184487,1.6799926518630046,7.218536442325275,-7.812337969992627,10.768577818675976,-1.099650167647249,10.965089280529709,-1.103286004077745,0.3970961466666666,-0.07707012000000002,-0.15197902666666674,0.6261452933333334,0.4321143108494286,0.8033749091993411,0.804380877404983,0.8121469197383872
LBP03_S07,LBP03,142,143,7,142,142,1715754808.68,2024-05-15 06:33:28.680000+00:00,2024-05-15 15:33:28.680000+09:00,2024,5,15,6,33,28,680,,,,,,,,,0.552246,0.271729,1.308838,-41.07666,102.355957,74.829102,,,,,,,,,,,0.0,1.0,1.0,7.0,0.0,0.0,0.0,4.0,0.0,0.15082678666666666,-0.26968088,0.9581770533333334,1.6381836133333312,1.8424479199999988,16.19222005333333,-23.43690970987733,-4.521755930788378,3.912130296986964,0.7425162634679114,7.03766620509374,-7.655852758113149,10.425553101382276,-1.049758057786639,10.966055756995974,-1.0965426122304098,0.40141921333333336,0.54140988,0.3506609466666666,1.29349004,0.7597533432054968,0.8070425468399081,0.8093384840361249,0.8207271496589867
LBP03_S07,LBP03,143,144,7,143,143,1715754808.72,2024-05-15 06:33:28.720000+00:00,2024-05-15 15:33:28.720000+09:00,2024,5,15,6,33,28,720,,,,,,,,,-0.285889,-0.617676,1.818359,-264.526367,0.671387,67.626953,,,,,,,,,,,0.0,1.0,1.0,7.0,0.0,0.0,0.0,4.0,0.0,0.14304683999999998,-0.28345693333333327,0.9675357866666667,-1.5511067466666688,2.583007813333332,18.064778653333335,-18.05496377922063,-2.2930887691206565,5.4449167119066,0.0203177122990863,6.945942654328913,-7.438056089636884,10.176994180957518,-1.0911135932238956,11.257186025877763,-1.0915623857780163,-0.42893583999999996,-0.33421906666666673,0.8508232133333333,1.61397812,1.009746740379439,0.7904348537024233,0.8102186538979673,0.814621476692417
LBP03_S07,LBP03,144,145,7,144,144,1715754808.76,2024-05-15 06:33:28.760000+00:00,2024-05-15 15:33:28.760000+09:00,2024,5,15,6,33,28,760,,,,,,,,,0.269775,-0.814697,2.194824,-10.253906,-2.319336,28.503418,,,,,,,,,,,0.0,1.0,1.0,7.0,0.0,0.0,0.0,4.0,0.0,0.13983069333333334,-0.2712726933333333,0.9607421733333334,0.3238932533333311,1.9425455733333323,19.998372413333332,-7.06044774469917,4.86763185638509,4.5425411256294845,-0.2621001974888805,7.1406479285843165,-7.256354444611705,10.183920128288284,-1.0834134924902288,11.949066827631876,-1.0858461484312116,0.12994430666666665,-0.5434243066666666,1.2340818266666667,1.9074504399999999,1.3546783584379596,0.8017696796882956,0.8160075723405023,0.8211887367309069
LBP03_S07,LBP03,145,146,7,145,145,1715754808.8,2024-05-15 06:33:28.800000+00:00,2024-05-15 15:33:28.800000+09:00,2024,5,15,6,33,28,800,,,,,,,,,0.048096,-0.778076,1.475342,24.536133,99.54834,63.293457,,,,,,,,,,,0.0,1.0,1.0,7.0,0.0,0.0,0.0,4.0,0.0,0.13996741333333332,-0.28721018666666664,0.95722656,0.24983726666666448,-1.5852864533333344,18.15511070666667,8.010131377511003,18.27855806223361,0.9714377839917532,0.05830505761155963,7.871790251073661,-7.2174969332520345,10.679922435024702,-1.104396760312242,13.153281832189299,-1.0780347170675002,-0.09187141333333332,-0.49086581333333335,0.51811544,1.1008526666666665,0.7196062898930585,0.789204240848919,0.8251484945988615,0.8237178101477486
LBP03_S07,LBP03,146,147,7,146,146,1715754808.84,2024-05-15 06:33:28.840000+00:00,2024-05-15 15:33:28.840000+09:00,2024,5,15,6,33,28,840,,,,,,,,,-0.148682,-0.102295,0.26123,157.226562,178.710938,0.793457,,,,,,,,,,,0.0,1.0,1.0,7.0,0.0,0.0,0.0,4.0,0.0,0.14628576000000001,-0.2637303733333333,0.9291048133333334,3.581542999999997,1.9628906266666657,18.46842452,24.125177428353158,38.40125963046084,-4.488346909769798,1.023312154745686,9.407840636292095,-7.3970308096428266,12.011273787684814,-1.0530479696691315,14.955731999837571,-1.0712306155063893,-0.29496776,0.16143537333333333,-0.6678748133333334,1.1242779466666668,0.7477460300715245,0.8067412765960742,0.8165609761599057,0.826544524007137
LBP03_S07,LBP03,147,148,7,147,147,1715754808.88,2024-05-15 06:33:28.880000+00:00,2024-05-15 15:33:28.880000+09:00,2024,5,15,6,33,28,880,,,,,,,,,-0.063965,0.331787,0.170898,106.201172,-121.032715,-78.613281,,,,,,,,,,,0.0,1.0,1.0,7.0,0.0,0.0,0.0,4.0,0.0,0.13641272,-0.25463532,0.90502604,2.6326497733333305,3.2112630133333324,16.69514978666667,37.826130590995,64.34190989867525,-10.25379222056899,2.5363573783854862,11.981517032239104,-7.807182498465586,14.523841010871525,-1.06772103821445,17.39370777961001,-1.066901531809496,-0.20037771999999998,0.58642232,-0.73412804,1.52092808,0.960721784483324,0.8197501036604212,0.8217890541941614,0.82740443225921
LBP03_S07,LBP03,148,149,7,148,148,1715754808.92,2024-05-15 06:33:28.920000+00:00,2024-05-15 15:33:28.920000+09:00,2024,5,15,6,33,28,920,,,,,,,,,0.702637,-0.054688,0.983643,-9.521484,-95.092773,-64.51416,,,,,,,,,,,0.0,1.0,1.0,7.0,0.0,0.0,0.0,4.0,0.0,0.13801428000000002,-0.26024404,0.90438476,-0.24820960000000242,-1.8155924533333343,16.283365933333332,46.374130963349685,93.4520178872489,-14.446324491375847,4.3913226169194735,15.719597747729061,-8.38503547812062,18.34934025096321,-1.0713908569373858,20.440543229299383,-1.0684205782966165,0.5646227199999999,0.20555604,0.07925824000000004,0.8494369999999999,0.6060808280490132,0.8107749203313559,0.8171021319663168,0.8267919628731976
LBP03_S07,LBP03,149,150,7,149,149,1715754808.96,2024-05-15 06:33:28.960000+00:00,2024-05-15 15:33:28.960000+09:00,2024,5,15,6,33,28,960,,,,,,,,,0.962891,-0.100342,2.175781,48.461914,69.091797,24.230957,,,,,,,,,,,0.0,1.0,1.0,7.0,0.0,0.0,0.0,4.0,0.0,0.14500646666666667,-0.25967112,0.9057096266666668,0.3312174799999976,-1.2231445333333344,16.4664714,48.5770485305535,121.34212057947981,-15.482444344325643,6.334404558141613,20.573282570908255,-9.004333251893646,23.333723538256816,-1.0500026094918462,24.00381742422692,-1.0637053245721773,0.8178845333333333,0.15932912,1.2700713733333333,2.247285026666667,1.5190135521800583,0.8599058081518132,0.8373758690991892,0.8393302013816438
LBP03_S07,LBP03,150,151,7,150,150,1715754809.0,2024-05-15 06:33:29+00:00,2024-05-15 15:33:29+09:00,2024,5,15,6,33,29,0,6.0,33.0,29.0,40.533215,141.467728,4.045,3.0,14.0,0.503906,-6.456543,3.83374,30.212402,25.45166,-45.410156,-268.0,20.0,364.0,1936.0,0.0,1021.299988,31.15,0.082251,-66.767876,3.803906,0.0,1.0,1.0,7.0,0.0,0.0,0.0,4.0,0.0,0.14791987999999998,-0.2597752933333333,0.9080045466666666,-0.16601558666666905,-1.1645507733333342,17.13216150666667,45.09535942677516,142.58609135018136,-12.531076362260205,8.13821893521262,26.27672622491551,-9.505576306384054,29.10417374627058,-1.0418116092908247,27.936968536964024,-1.0600923833580536,0.35598611999999996,-6.196767706666667,2.9257354533333335,9.47848928,6.861966487160304,1.079128837880366,0.9603936301191992,0.9105603327097715
LBP03_S07,LBP03,151,152,7,151,151,1715754809.04,2024-05-15 06:33:29.040000+00:00,2024-05-15 15:33:29.040000+09:00,2024,5,15,6,33,29,40,,,,,,,,,1.819824,4.317139,1.026855,328.186035,516.662598,-38.452148,,,,,,,,,,,0.0,1.0,1.0,7.0,0.0,0.0,0.0,4.0,0.0,0.14294917333333332,-0.25992829333333334,0.90452148,-0.12207026666666915,0.279134119999999,17.51302088,38.2041766412926,152.1011206854254,-5.705737124421231,9.666386000864325,32.360771052332524,-9.733805791360902,35.14833561640038,-1.0563593306783188,32.05542451383991,-1.0540458891510112,1.6768748266666669,4.577067293333333,0.12233352000000008,6.376275639999999,4.876107021192796,1.2339485469947309,1.0314020418926753,0.962316338714286
LBP03_S07,LBP03,152,153,7,152,152,1715754809.08,2024-05-15 06:33:29.080000+00:00,2024-05-15 15:33:29.080000+09:00,2024,5,15,6,33,29,80,,,,,,,,,-0.42749,-3.760986,3.921387,-264.831543,268.432617,-19.53125,,,,,,,,,,,0.0,1.0,1.0,7.0,0.0,0.0,0.0,4.0,0.0,0.14001297333333332,-0.26004548,0.8957910133333333,0.2718099333333308,-0.40364582666666765,17.174479213333335,31.090223331785133,146.76959776636764,4.03377033439012,10.90999493413573,38.23155496298723,-9.572454977985297,40.89390759827601,-1.0649485226578408,36.15122044129646,-1.0528556511197755,-0.5675029733333333,-3.50094052,3.0255959866666666,7.09403948,4.661853196300102,1.3979178289656045,1.1057827564436866,1.0149908891952224
LBP03_S07,LBP03,153,154,7,153,153,1715754809.12,2024-05-15 06:33:29.120000+00:00,2024-05-15 15:33:29.120000+09:00,2024,5,15,6,33,29,120,,,,,,,,,0.409912,-0.41333,2.967529,90.270996,236.450195,140.014648,,,,,,,,,,,0.0,1.0,1.0,7.0,0.0,0.0,0.0,4.0,0.0,0.14338212,-0.25304351999999997,0.88737956,0.7478841599999976,-0.24007160000000102,17.07356776,26.85394599219196,126.61468246755604,15.207503623552725,11.984152773823409,43.296142261689475,-8.964154833043187,45.809736130232885,-1.0439610559795065,40.01430897192028,-1.0498589752861658,0.26652988,-0.16028648,2.08014944,2.5069658,2.103271648013142,1.4579547839544802,1.136166854034608,1.0377423377687396
LBP03_S07,LBP03,154,155,7,154,154,1715754809.16,2024-05-15 06:33:29.160000+00:00,2024-05-15 15:33:29.160000+09:00,2024,5,15,6,33,29,160,,,,,,,,,0.463867,1.131592,2.227783,-45.837402,-45.715332,31.921387,,,,,,,,,,,0.0,1.0,1.0,7.0,0.0,0.0,0.0,4.0,0.0,0.14233394666666666,-0.25325185333333333,0.8829492133333334,2.4837239999999974,0.06022135999999894,17.1704102,27.508862069095265,94.97002956724943,26.2404326658465,13.08450725658722,47.09494344437945,-7.914537526409327,49.51543125565932,-1.0472840803489905,43.46464512713427,-1.0475246624362478,0.3215330533333333,1.3848438533333334,1.3448337866666666,3.051210693333333,1.956975706609864,1.506806493432466,1.1533983147241793,1.0546659410786046
LBP03_S07,LBP03,155,156,7,155,155,1715754809.2,2024-05-15 06:33:29.200000+00:00,2024-05-15 15:33:29.200000+09:00,2024,5,15,6,33,29,200,,,,,,,,,-0.708008,-3.036133,2.17041,-185.60791,-74.951172,-36.010742,,,,,,,,,,,0.0,1.0,1.0,7.0,0.0,0.0,0.0,4.0,0.0,0.14304358666666667,-0.2524575866666666,0.8833430933333333,1.9230143599999978,-0.6933593600000012,17.013346386666665,33.33599490392996,57.545611061401836,35.8321152143756,14.417947052744418,49.396767886835526,-6.481252917834303,51.864482203783574,-1.0439318182418156,46.3784191882598,-1.0466828220073927,-0.8510515866666666,-2.7836754133333335,1.2870669066666667,4.921793906666666,3.182715637973468,1.605127828259758,1.2077307241654862,1.0838557752544575
LBP03_S07,LBP03,156,157,7,156,156,1715754809.24,2024-05-15 06:33:29.240000+00:00,2024-05-15 15:33:29.240000+09:00,2024,5,15,6,33,29,240,,,,,,,,,0.634277,1.286865,1.933594,324.707031,119.995117,80.444336,,,,,,,,,,,0.0,1.0,1.0,7.0,0.0,0.0,0.0,4.0,0.0,0.14266597333333333,-0.2500161866666667,0.8835970000000001,1.3859049866666646,-0.8365885200000011,17.581380239999998,42.85830220862927,20.788249753544516,43.16345171221422,16.13227914108959,50.22829787697731,-4.754714849345735,52.96923306225026,-1.0411455893567771,48.69724966244662,-1.0455564475545072,0.4916110266666667,1.5368811866666667,1.0499969999999998,3.078489213333333,1.9251438604632112,1.6770498814353239,1.2344381649171965,1.101368122087922
LBP03_S07,LBP03,157,158,7,157,157,1715754809.28,2024-05-15 06:33:29.280000+00:00,2024-05-15 15:33:29.280000+09:00,2024,5,15,6,33,29,280,,,,,,,,,0.659424,-2.602051,3.113037,-254.577637,-388.916016,32.104492,,,,,,,,,,,0.0,1.0,1.0,7.0,0.0,0.0,0.0,4.0,0.0,0.14471025333333334,-0.25160473333333333,0.8878938799999999,0.3092448266666646,-1.5909830533333342,18.562011746666666,53.46536395546139,-9.827557328668949,47.92487300274177,18.270893699308047,49.83519558383055,-2.837719929236064,53.15472631710977,-1.0377542798783534,50.42582784402201,-1.0430960392524615,0.5147137466666667,-2.3504462666666663,2.22514312,5.090303133333332,3.27731441854123,1.7363646569731208,1.2845614732771256,1.1282357265764873
LBP03_S07,LBP03,158,159,7,158,158,1715754809.32,2024-05-15 06:33:29.320000+00:00,2024-05-15 15:33:29.320000+09:00,2024,5,15,6,33,29,320,,,,,,,,,-0.12207,0.154785,-0.39502,348.388672,441.650391,118.713379,,,,,,,,,,,0.0,1.0,1.0,7.0,0.0,0.0,0.0,4.0,0.0,0.14401364,-0.2567772666666666,0.8904264266666666,0.35319013333333127,-0.618489560000001,19.22037764,62.45207277956982,-31.031591204061723,50.214432912143366,20.76897661049084,48.59393193566808,-0.8291426127503292,52.85270180310309,-1.0480477284382042,51.624920278774894,-1.0395823930931525,-0.26608364,0.4115622666666666,-1.2854464266666665,1.9630923333333332,1.3757021911189775,1.764272342354194,1.280252249924277,1.1348752613422408
LBP03_S07,LBP03,159,160,7,159,159,1715754809.36,2024-05-15 06:33:29.360000+00:00,2024-05-15 15:33:29.360000+09:00,2024,5,15,6,33,29,360,,,,,,,,,0.007568,0.830811,-0.308105,357.23877,-352.966309,7.141113,,,,,,,,,,,0.0,1.0,1.0,7.0,0.0,0.0,0.0,4.0,0.0,0.14496090666666664,-0.25447584,0.8872037733333333,1.564941439999998,-1.1401366933333343,19.375000026666665,68.0461938874225,-42.236322685156296,50.36772530182159,23.490824365987738,46.90447902826183,1.1855663993225343,52.47146414951216,-1.041584205203294,52.40109012726151,-1.0354874968875556,-0.13739290666666665,1.08528684,-1.1953087733333334,2.4179885199999998,1.6203355823677819,1.8129982565106821,1.2980223803286373,1.147538620990246
LBP03_S07,LBP03,160,161,7,160,160,1715754809.4,2024-05-15 06:33:29.400000+00:00,2024-05-15 15:33:29.400000+09:00,2024,5,15,6,33,29,400,,,,,,,,,0.479004,0.266602,0.35083,-80.688477,-138.793945,-65.246582,,,,,,,,,,,0.0,1.0,1.0,7.0,0.0,0.0,0.0,4.0,0.0,0.14577470666666664,-0.24918938666666668,0.8817285200000001,3.742675813333331,0.015462266666665793,19.240722679999998,69.97217985552932,-45.24965195738922,48.78707167334943,26.28971156020891,45.094492949966266,3.1370492662565113,52.292478488138805,-1.0305478647619708,52.8916704886606,-1.0331500773412388,0.33322929333333334,0.5157913866666667,-0.5308985200000002,1.3799192000000002,0.811748578707192,1.822398653665057,1.2949758433165954,1.147930927965868
LBP03_S07,LBP03,161,162,7,161,161,1715754809.44,2024-05-15 06:33:29.440000+00:00,2024-05-15 15:33:29.440000+09:00,2024,5,15,6,33,29,440,,,,,,,,,0.703857,-0.24292,0.710449,-66.162109,49.377441,-10.864258,,,,,,,,,,,0.0,1.0,1.0,7.0,0.0,0.0,0.0,4.0,0.0,0.1427668933333333,-0.24454094666666668,0.8797200533333334,1.1254883199999977,-1.0636392933333343,18.6645508,69.2938416681179,-43.372124299803644,45.85245152443628,29.061465226933628,43.35960797797412,4.971147327233963,52.43411743215418,-1.0317552476578604,53.24438456372794,-1.0320470713370018,0.5610901066666667,0.0016209466666666783,-0.16927105333333337,0.7319821066666667,0.5860694709365808,1.8101359626384623,1.286550480297541,1.1381495660571188
LBP03_S07,LBP03,162,163,7,162,162,1715754809.48,2024-05-15 06:33:29.480000+00:00,2024-05-15 15:33:29.480000+09:00,2024,5,15,6,33,29,480,,,,,,,,,0.476318,-0.050049,1.159912,28.076172,142.63916,257.93457,,,,,,,,,,,0.0,1.0,1.0,7.0,0.0,0.0,0.0,4.0,0.0,0.14158850666666667,-0.24122714666666667,0.8835579466666666,1.0432943066666645,-1.5584309600000008,18.355306,67.65027528265531,-40.13566156851106,41.968928421929846,31.76747623823984,41.75418151523368,6.649904464111157,52.88483194580484,-1.0298120610647519,53.5933088957682,-1.031668152363344,0.33472949333333335,0.19117814666666666,0.2763540533333334,0.8022616933333334,0.47430420645810684,1.79963287570731,1.2827549958369195,1.1330024211278065
LBP03_S07,LBP03,163,164,7,163,163,1715754809.52,2024-05-15 06:33:29.520000+00:00,2024-05-15 15:33:29.520000+09:00,2024,5,15,6,33,29,520,,,,,,,,,-1.233154,-1.53418,1.710205,-92.102051,17.028809,41.809082,,,,,,,,,,,0.0,1.0,1.0,7.0,0.0,0.0,0.0,4.0,0.0,0.15165036,-0.24281894666666667,0.9011686133333334,-2.437337200000002,-3.9086913866666677,19.564615893333333,66.31980535612077,-38.0609426044797,37.69863790369389,34.42026845248467,40.23174381105449,8.157849980258913,53.57143461509915,-1.003012093923538,54.03524919475611,-1.0298441894528305,-1.3848043600000002,-1.2913610533333335,0.8090363866666666,3.4852018000000005,2.0590862926288063,1.8587803720018792,1.3120380075932987,1.1537768569017754
LBP03_S07,LBP03,164,165,7,164,164,1715754809.56,2024-05-15 06:33:29.560000+00:00,2024-05-15 15:33:29.560000+09:00,2024,5,15,6,33,29,560,,,,,,,,,0.749756,-0.011719,0.672607,224.79248,-214.782715,42.175293,,,,,,,,,,,0.0,1.0,1.0,7.0,0.0,0.0,0.0,4.0,0.0,0.14505530666666666,-0.24374342666666668,0.8955208266666667,-1.1157226133333358,1.2500000133333329,19.366048186666667,65.57825896713054,-37.868585796711194,33.818459413335226,37.043398811169894,38.71700037918605,9.510588356792322,54.421234869650185,-1.0239098848858201,54.612556876996756,-1.0281780410862373,0.6047006933333333,0.23202442666666667,-0.2229138266666667,1.0596389466666667,0.6849736032921168,1.8214953970343104,1.314234872386146,1.1462603180699642
LBP03_S07,LBP03,165,166,7,165,165,1715754809.6,2024-05-15 06:33:29.600000+00:00,2024-05-15 15:33:29.600000+09:00,2024,5,15,6,33,29,600,,,,,,,,,-0.396973,0.686768,-0.519287,202.575684,427.185059,-1.464844,,,,,,,,,,,0.0,1.0,1.0,7.0,0.0,0.0,0.0,4.0,0.0,0.14131182666666667,-0.24243158666666667,0.8929101466666667,-2.5073241733333353,-0.3491210799999999,18.823242200000003,64.57079267978115,-38.45115294133075,31.167332278896026,39.62623051836114,37.178954261532816,10.757281647948163,55.391622954457,-1.0329017581994477,55.308261293070316,-1.0274450397659178,-0.5382848266666667,0.9291995866666667,-1.4121971466666667,2.87968156,1.7741091306722208,1.853645530799408,1.3231986416076111,1.1583332971550178
LBP03_S07,LBP03,166,167,7,166,166,1715754809.64,2024-05-15 06:33:29.640000+00:00,2024-05-15 15:33:29.640000+09:00,2024,5,15,6,33,29,640,,,,,,,,,-0.217285,0.576172,-0.383545,-112.670898,-267.883301,-50.170898,,,,,,,,,,,0.0,1.0,1.0,7.0,0.0,0.0,0.0,4.0,0.0,0.14428709333333334,-0.2505338,0.8913867066666668,-2.1313476133333356,-1.1726887999999998,18.18033856,61.6245247609711,-37.63002258635045,30.30949013405346,42.09121150879999,35.6737533580788,11.969661253310301,56.45847638265288,-1.0373563996201995,56.05529418356561,-1.0258194555799764,-0.36157209333333334,0.8267058,-1.2749317066666668,2.4632096,1.561930765141358,1.8988381889710855,1.3511065490852132,1.1691999812603504
LBP03_S07,LBP03,167,168,7,167,167,1715754809.68,2024-05-15 06:33:29.680000+00:00,2024-05-15 15:33:29.680000+09:00,2024,5,15,6,33,29,680,,,,,,,,,0.294189,-0.721191,0.808105,-32.531738,-397.033691,-8.300781,,,,,,,,,,,0.0,1.0,1.0,7.0,0.0,0.0,0.0,4.0,0.0,0.14441078666666668,-0.2402115466666667,0.8827148400000001,0.5566406666666645,-0.41015625333333333,18.295898453333333,54.802375363500666,-33.408510487263584,31.204380942098755,44.283306523340016,34.33741293858826,13.217836490994252,57.57412930698888,-1.0195146507732173,56.755424780466456,-1.0261831720017214,0.1497782133333333,-0.48097945333333336,-0.07460984000000015,0.7053675066666668,0.5092557078158116,1.888818283555498,1.347930415197703,1.169165083875916
LBP03_S07,LBP03,168,169,7,168,168,1715754809.72,2024-05-15 06:33:29.720000+00:00,2024-05-15 15:33:29.720000+09:00,2024,5,15,6,33,29,720,,,,,,,,,0.480225,-0.235596,0.056396,216.491699,-80.627441,-15.319824,,,,,,,,,,,0.0,1.0,1.0,7.0,0.0,0.0,0.0,4.0,0.0,0.14435545333333336,-0.24713211999999998,0.8828124933333333,-1.4583332933333355,-1.3004557333333333,18.26334637333333,42.54109450693928,-25.184600558158458,33.108964482261165,45.98495030361759,33.33002891626192,14.542195070284698,58.62577862550951,-1.031386244772273,57.300263552670025,-1.0268392257123313,0.3358695466666667,0.011536119999999983,-0.8264164933333333,1.17382216,0.8921354464968253,1.8841138318001933,1.3372743427513083,1.1681837131987094
LBP03_S07,LBP03,169,170,7,169,169,1715754809.76,2024-05-15 06:33:29.760000+00:00,2024-05-15 15:33:29.760000+09:00,2024,5,15,6,33,29,760,,,,,,,,,0.125,-0.016357,0.64209,-133.789062,168.701172,99.67041,,,,,,,,,,,0.0,1.0,1.0,7.0,0.0,0.0,0.0,4.0,0.0,0.14416338666666667,-0.24843094666666668,0.8896256400000001,-0.5419921466666688,-3.494466146666667,18.544108093333335,24.26775797443171,-14.340401997685275,34.825401346589956,46.955660622594856,32.75641283635451,15.935211124148296,59.42850831024766,-1.0342541920001003,57.58852205369779,-1.0297801278020033,-0.01916338666666667,0.23207394666666667,-0.24753564000000006,0.49877297333333337,0.339852093093729,1.8435207811864243,1.3226452304373602,1.1585119752891428
LBP03_S07,LBP03,170,171,7,170,170,1715754809.8,2024-05-15 06:33:29.800000+00:00,2024-05-15 15:33:29.800000+09:00,2024,5,15,6,33,29,800,,,,,,,,,0.173096,0.350586,0.0625,311.096191,-96.679688,91.369629,,,,,,,,,,,0.0,1.0,1.0,7.0,0.0,0.0,0.0,4.0,0.0,0.15661455999999999,-0.2578450133333333,0.9123372266666666,-0.9399413733333355,-3.7898763066666667,19.475911479999997,0.8456525591574141,-3.907172130377544,35.21881149284046,46.989486724961154,32.600125951139404,17.343963583861914,59.76280739309175,-1.0142920229025572,57.538065185220624,-1.027636689526143,0.016481440000000014,0.6084310133333333,-0.8498372266666666,1.47474968,1.0453149035954628,1.8565491257345204,1.3228766832917196,1.1689487049774145
LBP03_S07,LBP03,171,172,7,171,171,1715754809.84,2024-05-15 06:33:29.840000+00:00,2024-05-15 15:33:29.840000+09:00,2024,5,15,6,33,29,840,,,,,,,,,-0.112305,0.798096,0.3125,143.371582,168.579102,148.193359,,,,,,,,,,,0.0,1.0,1.0,7.0,0.0,0.0,0.0,4.0,0.0,0.1469530933333333,-0.25396156,0.9058300666666668,2.6505534266666646,1.1922200533333334,19.53776044,-25.354832334573974,2.5188025926236177,33.77022582620304,45.975293431578194,32.700878054844345,18.694772616910036,59.435423401162765,-1.0353924118753073,57.09474062579153,-1.0247513646381876,-0.25925809333333333,1.05205756,-0.5933300666666668,1.90464572,1.2353462820289136,1.8760531358128159,1.3413972062044448,1.1697250293775423
LBP03_S07,LBP03,172,173,7,172,172,1715754809.88,2024-05-15 06:33:29.880000+00:00,2024-05-15 15:33:29.880000+09:00,2024,5,15,6,33,29,880,,,,,,,,,-1.074951,-1.98584,0.961426,-746.09375,171.264648,-52.612305,,,,,,,,,,,0.0,1.0,1.0,7.0,0.0,0.0,0.0,4.0,0.0,0.14321937333333334,-0.2478873466666667,0.8984374933333331,2.8458659333333314,0.30843098666666646,19.25862632,-50.88613275658535,2.0943439826618726,30.890700355421743,43.93984812131478,32.78465181415082,19.930400631126908,58.333219667840524,-1.0363725981708523,56.24078051972854,-1.0218823003487185,-1.2181703733333333,-1.7379526533333334,0.06298850666666689,3.0191115333333336,2.1232960310958866,1.9225561056773182,1.3711531046688696,1.188711404688547
LBP03_S07,LBP03,173,174,7,173,173,1715754809.92,2024-05-15 06:33:29.920000+00:00,2024-05-15 15:33:29.920000+09:00,2024,5,15,6,33,29,920,,,,,,,,,0.553223,-0.52832,0.189453,462.768555,-262.634277,61.035156,,,,,,,,,,,0.0,1.0,1.0,7.0,0.0,0.0,0.0,4.0,0.0,0.14680988,-0.25201821333333335,0.89457356,2.914225306666665,-0.9358724,18.164062506666667,-72.05254738802729,-6.258108254842266,27.83131534182237,41.05774622579369,32.53432748395713,21.043653244799803,56.454019625376695,-1.032421114820258,55.003069519521446,-1.018661943861788,0.40641312,-0.27630178666666666,-0.70512056,1.3878354666666666,0.8594819983909147,1.9326921524909944,1.3717335364111753,1.188965472141209
LBP03_S07,LBP03,174,175,7,174,174,1715754809.96,2024-05-15 06:33:29.960000+00:00,2024-05-15 15:33:29.960000+09:00,2024,5,15,6,33,29,960,,,,,,,,,0.019287,0.778076,-0.468262,-326.35498,161.132812,0.061035,,,,,,,,,,,0.0,1.0,1.0,7.0,0.0,0.0,0.0,4.0,0.0,0.15263670666666668,-0.24430012,0.8892382666666666,5.762532599999998,0.0146484399999999,17.9679362,-85.83108670813806,-21.471112357156343,26.214891751410423,37.62450275746817,31.675482989670876,22.09224891485622,53.91666618487854,-1.002475502127219,53.45674788971451,-1.0169020294157733,-0.13334970666666668,1.02237612,-1.3575002666666667,2.5132260933333335,1.704653058253911,1.9401177327339485,1.400011770442881,1.2049564903107755
LBP03_S07,LBP03,175,176,7,175,175,1715754810.0,2024-05-15 06:33:30+00:00,2024-05-15 15:33:30+09:00,2024,5,15,6,33,30,0,6.0,33.0,30.0,40.533234,141.467773,6.233,3.0,13.0,-0.341553,-0.243408,-0.673584,-83.496094,-17.578125,-11.901855,-263.0,-10.0,347.0,3788.0,0.0,1021.400024,31.200001,0.083242,-67.59491,3.803906,1.0,1.0,1.0,7.0,0.0,0.0,0.0,4.0,0.0,0.15285155999999997,-0.24558593333333334,0.8883398266666668,2.6334635866666654,-0.29947917333333346,18.2779948,-90.57325204587649,-40.63910950009459,27.376702483653958,34.00157267563311,30.049918609667092,23.187317014202378,50.95837736016617,-1.0040485093198919,51.7171628325137,-1.015458869441862,-0.49440456,0.002177933333333326,-1.5619238266666668,2.0585063200000002,1.6383060314396216,1.7311713145051213,1.4051500761927438,1.2173195249145066
LBP03_S07,LBP03,176,177,7,176,176,1715754810.04,2024-05-15 06:33:30.040000+00:00,2024-05-15 15:33:30.040000+09:00,2024,5,15,6,33,30,40,,,,,,,,,-0.407227,0.178467,-0.168945,21.484375,-58.105469,29.11377,,,,,,,,,,,1.0,1.0,1.0,7.0,0.0,0.0,0.0,4.0,0.0,0.14972981333333335,-0.24291666666666667,0.8952571466666666,3.3235677599999986,-1.3411458400000003,18.33984376,-86.33248606492923,-59.85895134148281,31.765960969638158,30.548273233035943,27.655560556007778,24.457955452987903,47.91887532202289,-1.0086657567255086,49.918643703201184,-1.0169580742370994,-0.5569568133333334,0.42138366666666666,-1.0642021466666667,2.0425426266666666,1.2729066326411405,1.5870432989630552,1.410495922978893,1.2166157942494686
LBP03_S07,LBP03,177,178,7,177,177,1715754810.08,2024-05-15 06:33:30.080000+00:00,2024-05-15 15:33:30.080000+09:00,2024,5,15,6,33,30,80,,,,,,,,,0.345459,-0.009277,0.013428,-313.842773,-307.556152,-82.458496,,,,,,,,,,,1.0,1.0,1.0,7.0,0.0,0.0,0.0,4.0,0.0,0.16386393333333332,-0.25347332,0.9203710666666666,-0.7958983866666681,-3.72070312,19.80550132,-74.79601421168454,-75.33299965027528,38.63454704300886,27.55643266456856,24.642240569996765,26.003337334708256,45.19701930491797,-0.9873110859039141,48.1887785491903,-1.0119490369520743,0.1815950666666667,0.24419632,-0.9069430666666666,1.3327344533333334,0.9566369933856579,1.4388346508464773,1.4183762399060411,1.21680005457795
LBP03_S07,LBP03,178,179,7,178,178,1715754810.12,2024-05-15 06:33:30.120000+00:00,2024-05-15 15:33:30.120000+09:00,2024,5,15,6,33,30,120,,,,,,,,,0.638672,-0.916748,0.825439,43.701172,-114.013672,48.950195,,,,,,,,,,,1.0,1.0,1.0,7.0,0.0,0.0,0.0,4.0,0.0,0.15806965333333334,-0.2598828266666667,0.9238606533333334,1.8334961466666653,2.0483398533333332,20.851236999999998,-58.8581029349509,-84.3909965205117,46.15296942737376,25.202108547170525,21.2666007091763,27.849456111803207,43.16256232744016,-1.0137871003121246,46.63000375918431,-1.0055409222284264,0.4806023466666667,-0.6568651733333333,-0.09842165333333341,1.2358891733333333,0.8198397974022752,1.3874973768220427,1.4227260803882613,1.219943694963753
LBP03_S07,LBP03,179,180,7,179,179,1715754810.16,2024-05-15 06:33:30.160000+00:00,2024-05-15 15:33:30.160000+09:00,2024,5,15,6,33,30,160,,,,,,,,,0.560303,0.951904,-0.146973,153.503418,4.333496,130.737305,,,,,,,,,,,1.0,1.0,1.0,7.0,0.0,0.0,0.0,4.0,0.0,0.14945312000000002,-0.24880536,0.9117870799999999,4.245605519999998,1.2288411599999998,21.204427106666664,-41.92901804752475,-86.09388495230866,51.956140678651195,23.524947825269535,17.822845311083952,29.927701738949253,42.03265773823953,-1.0198225922609867,45.313161879300125,-0.9989997567668791,0.41084988,1.20070936,-1.0587600799999999,2.67031932,1.652717004840584,1.3753270287512713,1.4410667610918686,1.22737455273321
LBP03_S07,LBP03,180,181,7,180,180,1715754810.2,2024-05-15 06:33:30.200000+00:00,2024-05-15 15:33:30.200000+09:00,2024,5,15,6,33,30,200,,,,,,,,,-0.130859,-0.978516,1.438477,-214.538574,-72.20459,80.01709,,,,,,,,,,,1.0,1.0,1.0,7.0,0.0,0.0,0.0,4.0,0.0,0.14966796,-0.25508141333333334,0.9034277066666667,3.382161506666665,-1.8937174400000003,19.74121096,-27.156063773024286,-81.24247514328134,53.951894645853606,22.438705274348564,14.573146305352699,32.085777524783396,41.7776160999666,-1.0292840708549298,44.27949060082456,-0.9947632357439666,-0.28052696,-0.7234345866666667,0.5350492933333333,1.53901084,0.9425129828118612,1.285718922544807,1.4454233754022823,1.2337267902919264
LBP03_S07,LBP03,181,182,7,181,181,1715754810.24,2024-05-15 06:33:30.240000+00:00,2024-05-15 15:33:30.240000+09:00,2024,5,15,6,33,30,240,,,,,,,,,0.287842,0.927246,0.811768,135.314941,-45.410156,189.331055,,,,,,,,,,,1.0,1.0,1.0,7.0,0.0,0.0,0.0,4.0,0.0,0.16188476,-0.24935549333333337,0.8993163866666667,7.957356813333331,-1.670735666666667,19.189453146666665,-16.771202955878703,-71.86572156178944,51.08934701060853,21.767857156113415,11.698517442881121,34.129351405207736,42.13677186105394,-0.985302039025058,43.54470855304366,-0.9915694437017898,0.12595724,1.1766014933333333,-0.08754838666666664,1.39010712,1.1865584774593219,1.2561755072246514,1.4666126943299878,1.241683945686348
LBP03_S07,LBP03,182,183,7,182,182,1715754810.28,2024-05-15 06:33:30.280000+00:00,2024-05-15 15:33:30.280000+09:00,2024,5,15,6,33,30,280,,,,,,,,,0.049072,-1.326904,1.48877,-187.5,-202.392578,-6.04248,,,,,,,,,,,1.0,1.0,1.0,7.0,0.0,0.0,0.0,4.0,0.0,0.15766601333333333,-0.2354752933333333,0.8915396933333333,5.894368533333331,-0.3531900933333336,19.875488306666668,-11.716186031976811,-60.438559467381715,43.769045143908095,21.299209714834344,9.280975064185853,35.88011321096406,42.745471767780636,-0.9722914509343729,43.100663044720825,-0.9915784999187736,-0.10859401333333332,-1.0914287066666668,0.5972303066666667,1.7972530266666669,1.2488768236575911,1.175038003429306,1.4557013302012134,1.2480536499945192
LBP03_S07,LBP03,183,184,7,183,183,1715754810.32,2024-05-15 06:33:30.320000+00:00,2024-05-15 15:33:30.320000+09:00,2024,5,15,6,33,30,320,,,,,,,,,0.22998,0.531738,0.071045,143.554688,168.518066,86.547852,,,,,,,,,,,1.0,1.0,1.0,7.0,0.0,0.0,0.0,4.0,0.0,0.16066730666666665,-0.23713870666666664,0.9012922933333334,5.029296919999998,-2.0385742133333338,19.42789716,-11.58064419723103,-49.10692400313557,33.712936196387396,20.835983946945102,7.31669810406043,37.228630658819554,43.28560082653485,-0.9670094602047852,42.9142636288281,-0.9956820972246792,0.06931269333333334,0.7688767066666666,-0.8302472933333334,1.6684366933333332,1.1337046386069989,1.1653581013288268,1.4648152218415103,1.2419542003924602
LBP03_S07,LBP03,184,185,7,184,184,1715754810.36,2024-05-15 06:33:30.360000+00:00,2024-05-15 15:33:30.360000+09:00,2024,5,15,6,33,30,360,,,,,,,,,-0.313232,0.207764,-0.218262,-0.549316,89.96582,-76.721191,,,,,,,,,,,1.0,1.0,1.0,7.0,0.0,0.0,0.0,4.0,0.0,0.16549803999999999,-0.2405338933333334,0.9198600133333333,2.789713586666665,-3.2218424533333336,19.924316426666664,-14.817873616581174,-39.15247145210831,23.339069076946465,20.243269002281856,5.7505992459760975,38.16219342189741,43.57995340012282,-0.9601102918980937,42.9282145612493,-0.978760949613495,-0.47873003999999997,0.44829789333333336,-1.1381220133333334,2.0651499466666667,1.3135734351757524,1.1530876154411456,1.4830429359759136,1.2497107920328068
