file_name,test_id,_program_index,program_index,session_id,index,_index,unixtime,datetime_utc,datetime_jst,rtc_year,rtc_month,rtc_day,rtc_hour,rtc_min,rtc_sec,rtc_msec,gps_hour,gps_min,gps_sec,latitude,longitude,altitude,fix_type,SIV,acc_x,acc_y,acc_z,gyro_x,gyro_y,gyro_z,mag_x,mag_y,mag_z,illuminance,atmopress,water_pressure,water_temp,depth,alt_wps,battery_level,behavior_class,camera_command,camera_recording,camera_count,play_audio,speaker_on,audio_file,prev_sd_write_time_ms,delay_occurred_counter,acc_x_ma,acc_y_ma,acc_z_ma,gyro_x_ma,gyro_y_ma,gyro_z_ma,gyro_x_lowpass,gyro_y_lowpass,gyro_z_lowpass,angle_x,angle_y,angle_z,combined_angle_change,gravity_adjusted_angle,smoothed_angle_change,smoothed_gravity_angle,acc_x_dy,acc_y_dy,acc_z_dy,ODBA,VeDBA,smoothed_VeDBA_1s,smoothed_VeDBA_2s,smoothed_VeDBA_3s
LBP03_S09,LBP03,-1650,1,9,0,-1650,1715756007.0,2024-05-15 06:53:27+00:00,2024-05-15 15:53:27+09:00,2024,5,15,6,53,27,0,6.0,53.0,27.0,40.533741,141.46962,3.889,3.0,15.0,-0.685547,0.124512,-0.189697,117.370605,-45.593262,-83.251953,-277.0,59.0,346.0,2725.0,0.0,1022.299988,31.15,0.092161,-75.032249,3.754688,0.0,1.0,1.0,9.0,0.0,0.0,0.0,5.0,0.0,,,,,,,114.59914110965197,-45.29221069124198,-82.17181396465615,4.583965644386079,-1.8116884276496794,-3.2868725585862464,5.924397623740235,,12.533128495563346,,,,,,,,,
LBP03_S09,LBP03,-1649,2,9,1,-1649,1715756007.04,2024-05-15 06:53:27.040000+00:00,2024-05-15 15:53:27.040000+09:00,2024,5,15,6,53,27,40,,,,,,,,,0.415283,-0.021973,0.147217,-70.617676,-161.071777,-98.022461,,,,,,,,,,,0.0,1.0,1.0,9.0,0.0,0.0,0.0,5.0,0.0,,,,,,,90.34849865642359,-32.554026682165436,-51.56368183811374,8.197905590643023,-3.113849494936297,-5.3494198321107955,10.272195835866423,,13.724925218723394,,,,,,,,,
LBP03_S09,LBP03,-1648,3,9,2,-1648,1715756007.08,2024-05-15 06:53:27.080000+00:00,2024-05-15 15:53:27.080000+09:00,2024,5,15,6,53,27,80,,,,,,,,,0.725098,-0.030273,0.806396,29.418945,23.071289,-55.053711,,,,,,,,,,,0.0,1.0,1.0,9.0,0.0,0.0,0.0,5.0,0.0,,,,,,,70.74143700963603,-21.35632881804717,-25.12707927865468,11.027563071028464,-3.968102647658184,-6.3545030032569825,13.331642596704452,,14.934440381301371,,,,,,,,,
LBP03_S09,LBP03,-1647,4,9,3,-1647,1715756007.12,2024-05-15 06:53:27.120000+00:00,2024-05-15 15:53:27.120000+09:00,2024,5,15,6,53,27,120,,,,,,,,,0.136719,-0.147217,1.554688,-68.17627,123.901367,134.155273,,,,,,,,,,,0.0,1.0,1.0,9.0,0.0,0.0,0.0,5.0,0.0,,,,,,,59.07916541445182,-12.684674308788624,-5.931637309906123,13.390729687606537,-4.4754896200097285,-6.591768495653227,15.58181827662126,,16.203675906716505,,,,,,,,,
LBP03_S09,LBP03,-1646,5,9,4,-1646,1715756007.16,2024-05-15 06:53:27.160000+00:00,2024-05-15 15:53:27.160000+09:00,2024,5,15,6,53,27,160,,,,,,,,,-0.385986,-0.581299,1.777344,-80.566406,-105.895996,58.227539,,,,,,,,,,,0.0,1.0,1.0,9.0,0.0,0.0,0.0,5.0,0.0,,,,,,,56.18131365730702,-6.998476527156374,4.641775584863797,15.637982233898818,-4.755428681095983,-6.406097472258675,17.55558814488436,,17.54035230316702,,,,,,,,,
LBP03_S09,LBP03,-1645,6,9,5,-1645,1715756007.2,2024-05-15 06:53:27.200000+00:00,2024-05-15 15:53:27.200000+09:00,2024,5,15,6,53,27,200,,,,,,,,,0.537598,-1.645264,1.729004,-37.231445,-107.910156,85.205078,,,,,,,,,,,0.0,1.0,1.0,9.0,0.0,0.0,0.0,5.0,0.0,,,,,,,60.29579166780511,-4.146142674532695,7.178698136226796,18.04981390061102,-4.921274388077292,-6.118949546809603,19.68390883452364,,18.92832634587262,,,,,,,,,
LBP03_S09,LBP03,-1644,7,9,6,-1644,1715756007.24,2024-05-15 06:53:27.240000+00:00,2024-05-15 15:53:27.240000+09:00,2024,5,15,6,53,27,240,,,,,,,,,-0.747314,0.204346,-0.755615,493.164062,294.73877,-71.166992,,,,,,,,,,,0.0,1.0,1.0,9.0,0.0,0.0,0.0,5.0,0.0,,,,,,,67.96738876259933,-3.4298326124619334,3.9247036587162403,20.768509451114994,-5.058467692575769,-5.961961400460953,22.19153135676923,,21.779605498826584,,,,,,,,,
LBP03_S09,LBP03,-1643,8,9,7,-1643,1715756007.28,2024-05-15 06:53:27.280000+00:00,2024-05-15 15:53:27.280000+09:00,2024,5,15,6,53,27,280,,,,,,,,,0.012451,0.302246,-0.072021,135.253906,-195.251465,-103.637695,,,,,,,,,,,0.0,1.0,1.0,9.0,0.0,0.0,0.0,5.0,0.0,,,,,,,75.42901588373657,-3.8099410058274716,-2.015544482999613,23.785670086464457,-5.210865332808868,-6.042583179780937,25.08832458462244,,24.463054126362284,,,,,,,,,
LBP03_S09,LBP03,-1642,9,9,8,-1642,1715756007.32,2024-05-15 06:53:27.320000+00:00,2024-05-15 15:53:27.320000+09:00,2024,5,15,6,53,27,320,,,,,,,,,0.500488,0.23291,0.410889,98.327637,-79.89502,-100.463867,,,,,,,,,,,0.0,1.0,1.0,9.0,0.0,0.0,0.0,5.0,0.0,,,,,,,79.84907728740144,-4.204043472159443,-7.662508013373311,26.979633177960515,-5.379027071695245,-6.34908350031587,28.23376347477115,,27.058787355915648,,,,,,,,,
LBP03_S09,LBP03,-1641,10,9,9,-1641,1715756007.36,2024-05-15 06:53:27.360000+00:00,2024-05-15 15:53:27.360000+09:00,2024,5,15,6,53,27,360,,,,,,,,,0.473877,-0.009521,1.205078,57.922363,50.598145,-56.945801,,,,,,,,,,,0.0,1.0,1.0,9.0,0.0,0.0,0.0,5.0,0.0,,,,,,,79.9020381738895,-3.7966020409528407,-10.937493860207018,30.175714704916096,-5.530891153333359,-6.7865832547241505,31.42009273022301,,29.588328262916757,,,,,,,,,
LBP03_S09,LBP03,-1640,11,9,10,-1640,1715756007.4,2024-05-15 06:53:27.400000+00:00,2024-05-15 15:53:27.400000+09:00,2024,5,15,6,53,27,400,,,,,,,,,-0.364258,-0.481201,1.650391,-135.803223,102.905273,124.87793,,,,,,,,,,,0.0,1.0,1.0,9.0,0.0,0.0,0.0,5.0,0.0,,,,,,,75.56166665527581,-2.2543967943744128,-10.966873408890239,33.19818137112713,-5.621067025108335,-7.22525819107976,34.43718915327988,,32.012256832443,,,,,,,,,
LBP03_S09,LBP03,-1639,12,9,11,-1639,1715756007.44,2024-05-15 06:53:27.440000+00:00,2024-05-15 15:53:27.440000+09:00,2024,5,15,6,53,27,440,,,,,,,,,-0.362061,-0.509766,1.783203,75.561523,-127.929688,41.19873,,,,,,,,,,,0.0,1.0,1.0,9.0,0.0,0.0,0.0,5.0,0.0,,,,,,,67.44674367172621,0.21455159060503076,-7.914600595932944,35.89605111799617,-5.6124849614841334,-7.541842214917078,37.106682111223385,,34.24447334620426,,,,,,,,,
LBP03_S09,LBP03,-1638,13,9,12,-1638,1715756007.48,2024-05-15 06:53:27.480000+00:00,2024-05-15 15:53:27.480000+09:00,2024,5,15,6,53,27,480,,,,,,,,,0.779785,-0.699463,1.865723,-43.273926,-87.95166,53.833008,,,,,,,,,,,0.0,1.0,1.0,9.0,0.0,0.0,0.0,5.0,0.0,,,,,,,56.20860547408573,2.9504511257901793,-2.568252314676948,38.144395336959604,-5.494466916452526,-7.644572307504156,39.28897489223811,,36.178916253696265,,,,,,,,,
LBP03_S09,LBP03,-1637,14,9,13,-1637,1715756007.52,2024-05-15 06:53:27.520000+00:00,2024-05-15 15:53:27.520000+09:00,2024,5,15,6,53,27,520,,,,,,,,,-0.759277,0.455322,-0.614502,147.216797,325.500488,-65.429688,,,,,,,,,,,0.0,1.0,1.0,9.0,0.0,0.0,0.0,5.0,0.0,,,,,,,42.3020940034445,5.040966248870276,4.0504522194837165,39.83647909709738,-5.2928282664977155,-7.482554218724807,40.87722734663238,,37.71884500040394,,,,,,,,,
LBP03_S09,LBP03,-1636,15,9,14,-1636,1715756007.56,2024-05-15 06:53:27.560000+00:00,2024-05-15 15:53:27.560000+09:00,2024,5,15,6,53,27,560,,,,,,,,,0.236084,-0.513428,0.42749,17.089844,-279.23584,-68.17627,,,,,,,,,,,0.0,1.0,1.0,9.0,0.0,0.0,0.0,5.0,0.0,,,,,,,26.177290614512703,5.584244098062523,10.914567132177046,40.88357072167789,-5.069458502575214,-7.045971533437725,41.794873840146764,,38.799584156543844,,,,,,,,,
LBP03_S09,LBP03,-1635,16,9,15,-1635,1715756007.6,2024-05-15 06:53:27.600000+00:00,2024-05-15 15:53:27.600000+09:00,2024,5,15,6,53,27,600,,,,,,,,,0.69043,0.576416,0.750732,234.313965,55.175781,-16.174316,,,,,,,,,,,0.0,1.0,1.0,9.0,0.0,0.0,0.0,5.0,0.0,,,,,,,8.662028105067227,3.956557081304535,17.102858334576588,41.23005184588058,-4.911196219323033,-6.361857200054661,42.00607397213623,,39.4002946803092,,,,,,,,,
LBP03_S09,LBP03,-1634,17,9,16,-1634,1715756007.64,2024-05-15 06:53:27.640000+00:00,2024-05-15 15:53:27.640000+09:00,2024,5,15,6,53,27,640,,,,,,,,,0.2771,-0.157959,1.223145,-88.684082,44.677734,86.608887,,,,,,,,,,,0.0,1.0,1.0,9.0,0.0,0.0,0.0,5.0,0.0,,,,,,,-8.79377120682588,0.028965928906945163,21.905882857284077,40.878300997607546,-4.910037582166755,-5.485621885763298,41.535960431689276,,39.544372598260146,,,,,,,,,
LBP03_S09,LBP03,-1633,18,9,17,-1633,1715756007.68,2024-05-15 06:53:27.680000+00:00,2024-05-15 15:53:27.680000+09:00,2024,5,15,6,53,27,680,,,,,,,,,-0.412109,-0.083252,1.722168,-61.706543,127.929688,120.361328,,,,,,,,,,,0.0,1.0,1.0,9.0,0.0,0.0,0.0,5.0,0.0,,,,,,,-24.238512811104062,-5.710800756271405,24.964078385530993,39.908760485163384,-5.138469612417611,-4.487058750342059,40.48761205169921,,39.29082596179633,,,,,,,,,
LBP03_S09,LBP03,-1632,19,9,18,-1632,1715756007.72,2024-05-15 06:53:27.720000+00:00,2024-05-15 15:53:27.720000+09:00,2024,5,15,6,53,27,720,,,,,,,,,-0.164795,-0.352051,1.937744,-107.788086,-214.416504,34.057617,,,,,,,,,,,0.0,1.0,1.0,9.0,0.0,0.0,0.0,5.0,0.0,,,,,,,-35.69771153359474,-12.183961544295352,26.350072182248933,38.480852023819594,-5.625828074189425,-3.4330558630521013,39.04115503617017,,38.720857829695625,,,,,,,,,
LBP03_S09,LBP03,-1631,20,9,19,-1631,1715756007.76,2024-05-15 06:53:27.760000+00:00,2024-05-15 15:53:27.760000+09:00,2024,5,15,6,53,27,760,,,,,,,,,0.702881,0.029297,0.857178,-3.295898,131.286621,65.307617,,,,,,,,,,,0.0,1.0,1.0,9.0,0.0,0.0,0.0,5.0,0.0,,,,,,,-41.78989530479617,-17.936557733838224,26.473258583099412,36.80925621162775,-6.3432903835429535,-2.374125519728125,37.42719796787663,,37.92424356316317,,,,,,,,,
LBP03_S09,LBP03,-1630,21,9,20,-1630,1715756007.8,2024-05-15 06:53:27.800000+00:00,2024-05-15 15:53:27.800000+09:00,2024,5,15,6,53,27,800,,,,,,,,,-1.290771,-0.693604,-0.454102,-212.097168,46.325684,-127.624512,,,,,,,,,,,0.0,1.0,1.0,9.0,0.0,0.0,0.0,5.0,0.0,,,,,,,-42.19132271883803,-21.52084289476138,25.791728927435532,35.12160330287423,-7.204124099333408,-1.3424563626307036,35.87796833278927,,36.988424764657324,,,,,,,,,
LBP03_S09,LBP03,-1629,22,9,21,-1629,1715756007.84,2024-05-15 06:53:27.840000+00:00,2024-05-15 15:53:27.840000+09:00,2024,5,15,6,53,27,840,,,,,,,,,0.492676,-0.486572,0.395996,68.237305,-324.401855,-97.717285,,,,,,,,,,,0.0,1.0,1.0,9.0,0.0,0.0,0.0,5.0,0.0,,,,,,,-37.75486109446875,-21.933868647978183,24.483538397200295,33.61140885909548,-8.081478845252535,-0.3631148267426917,34.57121574658529,,35.99066678068232,,,,,,,,,
LBP03_S09,LBP03,-1628,23,9,22,-1628,1715756007.88,2024-05-15 06:53:27.880000+00:00,2024-05-15 15:53:27.880000+09:00,2024,5,15,6,53,27,880,,,,,,,,,0.645752,0.281738,0.898438,118.774414,69.091797,67.687988,,,,,,,,,,,0.0,1.0,1.0,9.0,0.0,0.0,0.0,5.0,0.0,,,,,,,-30.261947143896858,-18.95532838004734,22.310414970289308,32.400930973339605,-8.839691980454429,0.5293017720688806,33.589293571231046,,34.99219608476629,,,,,,,,,
LBP03_S09,LBP03,-1627,24,9,23,-1627,1715756007.92,2024-05-15 06:53:27.920000+00:00,2024-05-15 15:53:27.920000+09:00,2024,5,15,6,53,27,920,,,,,,,,,0.578857,0.230713,1.197266,-115.05127,48.095703,132.019043,,,,,,,,,,,0.0,1.0,1.0,9.0,0.0,0.0,0.0,5.0,0.0,,,,,,,-21.942425795911703,-13.238677067911867,18.808212425363024,31.523233941503136,-9.369239063170903,1.2816302690834016,32.91108468130781,,34.03372764526553,,,,,,,,,
LBP03_S09,LBP03,-1626,25,9,24,-1626,1715756007.96,2024-05-15 06:53:27.960000+00:00,2024-05-15 15:53:27.960000+09:00,2024,5,15,6,53,27,960,,,,,,,,,-0.757324,-0.912109,1.796631,-107.727051,73.425293,86.791992,,,,,,,,,,,0.0,1.0,1.0,9.0,0.0,0.0,0.0,5.0,0.0,,,,,,,-14.95117438665938,-6.110510437981261,13.709596869175382,30.92518696603676,-9.613659480690155,1.830014143850417,32.436685855088314,,33.133164760214264,,,,,,,,,
LBP03_S09,LBP03,-1625,26,9,25,-1625,1715756008.0,2024-05-15 06:53:28+00:00,2024-05-15 15:53:28+09:00,2024,5,15,6,53,28,0,6.0,53.0,28.0,40.533726,141.469498,4.589,3.0,15.0,0.025391,-0.349854,1.841797,38.879395,-193.42041,30.212402,-275.0,57.0,354.0,2389.0,0.0,1022.099976,31.16,0.090179,-73.379799,3.754688,0.0,1.0,1.0,9.0,0.0,0.0,0.0,4.0,0.0,,,,,,,-10.925920235670906,0.8234723683420071,7.323471579907737,30.488150156609926,-9.580720585956474,2.1229530070467266,32.02849413238613,,32.28704791688306,,,,,,,,,
LBP03_S09,LBP03,-1624,27,9,26,-1624,1715756008.04,2024-05-15 06:53:28.040000+00:00,2024-05-15 15:53:28.040000+09:00,2024,5,15,6,53,28,40,,,,,,,,,0.630371,-0.02417,0.717041,60.48584,189.331055,0.244141,,,,,,,,,,,0.0,1.0,1.0,9.0,0.0,0.0,0.0,4.0,0.0,,,,,,,-10.665584111731544,6.099743120826159,0.6131113175495596,30.061526792140665,-9.336730861123428,2.147477459748709,31.55125347252902,,31.476815041125427,,,,,,,,,
LBP03_S09,LBP03,-1623,28,9,27,-1623,1715756008.08,2024-05-15 06:53:28.080000+00:00,2024-05-15 15:53:28.080000+09:00,2024,5,15,6,53,28,80,,,,,,,,,-0.868652,-0.093506,-0.479248,12.084961,56.640625,-119.140625,,,,,,,,,,,0.0,1.0,1.0,9.0,0.0,0.0,0.0,4.0,0.0,,,,,,,-13.963386217061565,8.716595493288514,-5.087229691697402,29.502991343458202,-8.988067041391888,1.943988272080813,30.902927656691567,,30.679187673173466,,,,,,,,,
LBP03_S09,LBP03,-1622,29,9,28,-1622,1715756008.12,2024-05-15 06:53:28.120000+00:00,2024-05-15 15:53:28.120000+09:00,2024,5,15,6,53,28,120,,,,,,,,,0.334229,-0.076416,0.234131,-18.066406,-170.776367,-78.24707,,,,,,,,,,,0.0,1.0,1.0,9.0,0.0,0.0,0.0,4.0,0.0,,,,,,,-19.6641956645041,8.290792877221486,-8.55300679636554,28.716423516878038,-8.65643532630303,1.6018680002261914,30.03552618565757,,29.87775506670365,,,,,,,,,
LBP03_S09,LBP03,-1621,30,9,29,-1621,1715756008.16,2024-05-15 06:53:28.160000+00:00,2024-05-15 15:53:28.160000+09:00,2024,5,15,6,53,28,160,,,,,,,,,0.66748,-0.040039,0.790527,-73.913574,42.602539,-16.113281,,,,,,,,,,,0.0,1.0,1.0,9.0,0.0,0.0,0.0,4.0,0.0,,,,,,,-25.984235561489538,5.049971184335182,-9.082532452162463,27.677054094418455,-8.454436478929622,1.2385667021396929,28.966029534564633,,29.071514981079737,,,,,,,,,
LBP03_S09,LBP03,-1620,31,9,30,-1620,1715756008.2,2024-05-15 06:53:28.200000+00:00,2024-05-15 15:53:28.200000+09:00,2024,5,15,6,53,28,200,,,,,,,,,0.294189,-0.026855,1.590332,-6.408691,100.158691,115.661621,,,,,,,,,,,0.0,1.0,1.0,9.0,0.0,0.0,0.0,4.0,0.0,,,,,,,-31.023206080996886,-0.28708877291242624,-6.653652325601149,26.43612585117858,-8.465920029846119,0.9724206091156469,27.775639575212935,,28.277091368105737,,,,,,,,,
LBP03_S09,LBP03,-1619,32,9,31,-1619,1715756008.24,2024-05-15 06:53:28.240000+00:00,2024-05-15 15:53:28.240000+09:00,2024,5,15,6,53,28,240,,,,,,,,,-0.960205,-0.831299,1.609375,-142.76123,-44.616699,0.549316,,,,,,,,,,,0.0,1.0,1.0,9.0,0.0,0.0,0.0,4.0,0.0,,,,,,,-33.3006360708965,-6.677667995778837,-1.8198223216319174,25.10410040834272,-8.733026749677272,0.8996277162503702,26.59494206706564,,27.524283170289447,,,,,,,,,
LBP03_S09,LBP03,-1618,33,9,32,-1618,1715756008.28,2024-05-15 06:53:28.280000+00:00,2024-05-15 15:53:28.280000+09:00,2024,5,15,6,53,28,280,,,,,,,,,0.497559,-0.678955,1.852295,-64.025879,-173.583984,28.625488,,,,,,,,,,,0.0,1.0,1.0,9.0,0.0,0.0,0.0,4.0,0.0,,,,,,,-32.13002783404133,-12.938076165495298,4.508471455728668,23.818899294981065,-9.250549796297085,1.0799665744795168,25.574967506532918,,26.847436414155503,,,,,,,,,
LBP03_S09,LBP03,-1617,34,9,33,-1617,1715756008.32,2024-05-15 06:53:28.320000+00:00,2024-05-15 15:53:28.320000+09:00,2024,5,15,6,53,28,320,,,,,,,,,-0.32959,0.104736,-0.12793,115.844727,287.17041,-9.460449,,,,,,,,,,,0.0,1.0,1.0,9.0,0.0,0.0,0.0,4.0,0.0,,,,,,,-27.71453163535738,-17.933381024924255,11.241935235262076,22.71031802956677,-9.967885037294055,1.5296439838899998,24.848683825068626,,26.276073753818423,-1.1588229058554211,,,,,,,,
LBP03_S09,LBP03,-1616,35,9,34,-1616,1715756008.36,2024-05-15 06:53:28.360000+00:00,2024-05-15 15:53:28.360000+09:00,2024,5,15,6,53,28,360,,,,,,,,,-0.224365,-0.249023,0.061768,-103.759766,-206.054688,-52.978516,,,,,,,,,,,0.0,1.0,1.0,9.0,0.0,0.0,0.0,4.0,0.0,,,,,,,-20.972428177773573,-20.75886333704418,17.206304695384546,21.871420902455828,-10.798239570775822,2.2178961717053816,24.492449725348337,,25.827369667455088,-1.158511274908479,,,,,,,,
LBP03_S09,LBP03,-1615,36,9,35,-1615,1715756008.4,2024-05-15 06:53:28.400000+00:00,2024-05-15 15:53:28.400000+09:00,2024,5,15,6,53,28,400,,,,,,,,,0.489502,-0.103271,0.506836,100.524902,-110.229492,-34.484863,,,,,,,,,,,0.0,1.0,1.0,9.0,0.0,0.0,0.0,4.0,0.0,,,,,,,-13.212171776188521,-20.886618155863328,21.22677237186225,21.342934031408287,-11.633704297010356,3.0669670665798714,24.500412154223216,,25.50176501369406,-1.1601565375169305,,,,,,,,
LBP03_S09,LBP03,-1614,37,9,36,-1614,1715756008.44,2024-05-15 06:53:28.440000+00:00,2024-05-15 15:53:28.440000+09:00,2024,5,15,6,53,28,440,,,,,,,,,0.486084,-0.240479,1.275391,-48.217773,48.583984,27.282715,,,,,,,,,,,0.0,1.0,1.0,9.0,0.0,0.0,0.0,4.0,0.0,,,,,,,-5.804442849693896,-18.23535566131525,22.307341816085,21.11075631742053,-12.363118523462965,3.9592607392232715,24.78278591118962,,25.282178030645962,-1.163999846463867,,,,,,,,
LBP03_S09,LBP03,-1613,38,9,37,-1613,1715756008.48,2024-05-15 06:53:28.480000+00:00,2024-05-15 15:53:28.480000+09:00,2024,5,15,6,53,28,480,,,,,,,,,0.114746,0.162354,1.572266,-86.05957,118.225098,132.751465,,,,,,,,,,,0.0,1.0,1.0,9.0,0.0,0.0,0.0,4.0,0.0,0.09132486666666667,-0.21347654666666666,0.9218750533333334,4.031575506666666,-3.872070319999999,8.951822933333334,0.06688403707974876,-13.122821183252173,19.926370451736,21.11343167890372,-12.888031370793053,4.756315557292711,25.189301053320747,-1.1588229058554211,25.136918499912788,-1.1616431910400367,0.02342113333333333,0.37583054666666665,0.6503909466666665,1.0496426266666665,0.7515354501288319,0.7515354501288319,0.7515354501288319,0.7515354501288319
LBP03_S09,LBP03,-1612,39,9,38,-1612,1715756008.52,2024-05-15 06:53:28.520000+00:00,2024-05-15 15:53:28.520000+09:00,2024,5,15,6,53,28,520,,,,,,,,,-0.452881,-1.027344,2.124756,-22.521973,-168.823242,62.438965,,,,,,,,,,,0.0,1.0,1.0,9.0,0.0,0.0,0.0,4.0,0.0,0.08976562666666667,-0.2093522,0.9168034399999999,4.0690104133333325,-0.02034505333333186,8.567708346666668,3.5867566040068124,-6.1137094741821425,14.331958590940397,21.25690194306399,-13.132579749760339,5.329593900930327,25.548485322024217,-1.158199643961537,25.026208649677773,-1.1622906784347182,-0.5426466266666666,-0.8179918,1.2079525600000003,2.568590986666667,1.556510627496808,1.1540230388128199,1.1540230388128199,1.1540230388128199
LBP03_S09,LBP03,-1611,40,9,39,-1611,1715756008.56,2024-05-15 06:53:28.560000+00:00,2024-05-15 15:53:28.560000+09:00,2024,5,15,6,53,28,560,,,,,,,,,0.708496,-0.264404,1.553955,35.400391,-21.66748,77.453613,,,,,,,,,,,0.0,1.0,1.0,9.0,0.0,0.0,0.0,4.0,0.0,0.09016601333333334,-0.21347979999999997,0.9217578666666666,3.9420572933333324,-1.2508138133333317,8.825683613333334,4.473920772791717,2.1614092137618326,6.639227591872615,21.43585877397566,-13.046123381209865,5.595163004605231,25.709982996954373,-1.1634470627338336,24.911727564452114,-1.1611465887315913,0.6183299866666667,-0.0509242,0.6321971333333334,1.30145132,0.8857756273186369,1.0646072349814257,1.0646072349814257,1.0646072349814257
LBP03_S09,LBP03,-1610,41,9,40,-1610,1715756008.6,2024-05-15 06:53:28.600000+00:00,2024-05-15 15:53:28.600000+09:00,2024,5,15,6,53,28,600,,,,,,,,,-0.650879,-0.090576,-0.268311,133.605957,304.931641,-93.933105,,,,,,,,,,,0.0,1.0,1.0,9.0,0.0,0.0,0.0,4.0,0.0,0.08758137333333334,-0.214541,0.9235547466666668,4.0974934933333325,-0.8536783999999985,9.56380210666667,3.1225969161995772,11.134378917761788,-1.4068795763010964,21.560762650623644,-12.600748224499394,5.538887821553187,25.579769744731916,-1.1755297733046766,24.767439407185226,-1.1549876064903204,-0.7384603733333334,0.123965,-1.191865746666667,2.0542911200000002,1.4075634984915948,1.1503463008589678,1.1503463008589678,1.1503463008589678
LBP03_S09,LBP03,-1609,42,9,41,-1609,1715756008.64,2024-05-15 06:53:28.640000+00:00,2024-05-15 15:53:28.640000+09:00,2024,5,15,6,53,28,640,,,,,,,,,0.267578,0.290039,-0.00708,58.837891,-195.19043,-135.803223,,,,,,,,,,,0.0,1.0,1.0,9.0,0.0,0.0,0.0,4.0,0.0,0.09105468000000001,-0.20884113333333332,0.9225423733333334,4.258626306666666,-1.547037773333332,8.906250026666669,0.6157759833369296,20.32366206952881,-7.9537343585099265,21.585393689957122,-11.787801741718242,5.22073844721279,25.142346759733908,-1.1522165693447153,24.58834223205287,-1.1540328994575608,0.17652331999999998,0.4988801333333333,-0.9296223733333334,1.6050258266666666,1.0696913699476154,1.1342153146766976,1.1342153146766976,1.1342153146766976
LBP03_S09,LBP03,-1608,43,9,42,-1608,1715756008.68,2024-05-15 06:53:28.680000+00:00,2024-05-15 15:53:28.680000+09:00,2024,5,15,6,53,28,680,,,,,,,,,0.686035,0.006592,1.048096,-39.855957,11.047363,-34.667969,,,,,,,,,,,0.0,1.0,1.0,9.0,0.0,0.0,0.0,4.0,0.0,0.08906574666666667,-0.21201495999999997,0.9241634666666666,2.371419266666666,-0.39225261333333206,8.685709666666668,-1.5175776254045974,29.242561235311182,-11.616515635002925,21.524690584940938,-10.618099292305795,4.756077821812673,24.467869004182774,-1.1655281154081256,24.393298932387268,-1.1548044759702538,0.5969692533333333,0.21860695999999996,0.12393253333333332,0.9395087466666666,0.6477040722461275,1.0531301076049358,1.0531301076049358,1.0531301076049358
LBP03_S09,LBP03,-1607,44,9,43,-1607,1715756008.72,2024-05-15 06:53:28.720000+00:00,2024-05-15 15:53:28.720000+09:00,2024,5,15,6,53,28,720,,,,,,,,,0.322021,-0.100586,1.462891,-88.684082,78.430176,52.79541,,,,,,,,,,,0.0,1.0,1.0,9.0,0.0,0.0,0.0,4.0,0.0,0.08481118666666668,-0.19511717333333334,0.9237337733333334,3.8964843733333328,0.5053710800000012,7.753906280000001,-1.8042967572213398,37.248633948652106,-11.839345693217282,21.452518714652083,-9.12815393435971,4.282503994083982,23.703872972812054,-1.1542820505128297,24.22084674556808,-1.1549852418966724,0.23720981333333332,0.09453117333333334,0.5391572266666665,0.8708982133333332,0.5965694874365457,0.9879071618665943,0.9879071618665943,0.9879071618665943
LBP03_S09,LBP03,-1606,45,9,44,-1606,1715756008.76,2024-05-15 06:53:28.760000+00:00,2024-05-15 15:53:28.760000+09:00,2024,5,15,6,53,28,760,,,,,,,,,-0.364258,-0.778076,1.954346,-195.678711,15.258789,30.273438,,,,,,,,,,,0.0,1.0,1.0,9.0,0.0,0.0,0.0,4.0,0.0,0.09773110666666668,-0.20115233333333335,0.9449674933333334,-1.856282546666667,-1.1938476799999986,8.939615906666667,0.611436830316458,43.45788616955983,-8.916111827740304,21.47697618786474,-7.389838487577317,3.9258595209743703,23.049568152679416,-1.1118747308014238,24.121312423353917,-1.1486403538757408,-0.4619891066666667,-0.5769236666666666,1.0093785066666665,2.04829128,1.2510474897298685,1.0207997028495037,1.0207997028495037,1.0207997028495037
LBP03_S09,LBP03,-1605,46,9,45,-1605,1715756008.8,2024-05-15 06:53:28.800000+00:00,2024-05-15 15:53:28.800000+09:00,2024,5,15,6,53,28,800,,,,,,,,,0.096191,-0.542969,2.009521,30.578613,-98.266602,24.353027,,,,,,,,,,,0.0,1.0,1.0,9.0,0.0,0.0,0.0,4.0,0.0,0.08974933333333335,-0.20222329333333333,0.9429752933333333,-1.4005533733333335,1.0742187333333346,8.747558613333336,5.656038528538934,46.83396868841695,-3.748808968146202,21.703217729006298,-5.516479740040639,3.7759071622485223,22.709440402899666,-1.1463952431954845,24.149601498015603,-1.141313451248028,0.006441666666666651,-0.3407457066666667,1.0665457066666666,1.41373308,1.1196735578240247,1.0317856867355615,1.0317856867355615,1.0317856867355615
LBP03_S09,LBP03,-1604,47,9,46,-1604,1715756008.84,2024-05-15 06:53:28.840000+00:00,2024-05-15 15:53:28.840000+09:00,2024,5,15,6,53,28,840,,,,,,,,,0.551758,-0.754639,1.321777,86.486816,159.423828,40.95459,,,,,,,,,,,0.0,1.0,1.0,9.0,0.0,0.0,0.0,4.0,0.0,0.08780597333333334,-0.20645181333333334,0.9434993733333334,-3.073730466666667,-0.4410807333333321,8.691406266666668,12.466786967474066,46.46815059255545,2.4697979845996287,22.20188920770526,-3.657753716338421,3.8746990816325075,22.832352914533594,-1.161748664584491,24.359775399853884,-1.1352080276509375,0.46395202666666663,-0.5481871866666665,0.37827762666666653,1.3904168399999997,0.8116986124850701,1.0097769793105125,1.0097769793105125,1.0097769793105125
LBP03_S09,LBP03,-1603,48,9,47,-1603,1715756008.88,2024-05-15 06:53:28.880000+00:00,2024-05-15 15:53:28.880000+09:00,2024,5,15,6,53,28,880,,,,,,,,,-0.810303,0.183838,-0.474121,270.385742,335.327148,-70.068359,,,,,,,,,,,0.0,1.0,1.0,9.0,0.0,0.0,0.0,4.0,0.0,0.08826821333333333,-0.2069466133333333,0.93997724,-4.292805986666667,-1.1197916799999987,9.062500013333333,19.90438965722929,41.94706157693777,8.503853733390617,22.99806479399443,-1.9798712532609102,4.214853230968132,23.46477918512888,-1.1606305651196072,24.799664473950756,-1.130450733381923,-0.8985712133333333,0.3907846133333333,-1.41409824,2.7034540666666667,1.720411773913594,1.0743801424562471,1.0743801424562471,1.0743801424562471
LBP03_S09,LBP03,-1602,49,9,48,-1602,1715756008.92,2024-05-15 06:53:28.920000+00:00,2024-05-15 15:53:28.920000+09:00,2024,5,15,6,53,28,920,,,,,,,,,0.407471,0.245605,0.243652,21.606445,-251.647949,-58.654785,,,,,,,,,,,0.0,1.0,1.0,9.0,0.0,0.0,0.0,4.0,0.0,0.10067381333333335,-0.19844076000000002,0.9378255466666667,-2.916666653333334,-2.062174493333332,8.693033866666667,27.100654352714045,33.62003865977667,13.230861576040201,24.082090968102992,-0.6350697068698434,4.744087694009741,24.553142099882574,-1.0947507637522205,25.50401329906902,-1.1252675286326472,0.30679718666666667,0.44404576,-0.6941735466666668,1.4450164933333334,0.8793054438659743,1.0581239175737245,1.0581239175737245,1.0581239175737245
LBP03_S09,LBP03,-1601,50,9,49,-1601,1715756008.96,2024-05-15 06:53:28.960000+00:00,2024-05-15 15:53:28.960000+09:00,2024,5,15,6,53,28,960,,,,,,,,,0.644531,-0.203125,1.060303,-53.283691,54.748535,11.71875,,,,,,,,,,,0.0,1.0,1.0,9.0,0.0,0.0,0.0,4.0,0.0,0.10112629333333333,-0.19705403999999999,0.9365169600000002,-6.730143213333334,-0.2815755333333321,8.844401066666668,33.68705275023053,22.603334776236476,15.780431266152577,25.429573078112213,0.2690636841796157,5.375304944655844,25.99287374357124,-1.090178036456706,26.486750825887917,-1.1234188319266851,0.5434047066666666,-0.006070960000000014,0.12378603999999982,0.6732617066666665,0.5573585161112093,1.0196035020766077,1.0196035020766077,1.0196035020766077
LBP03_S09,LBP03,-1600,51,9,50,-1600,1715756009.0,2024-05-15 06:53:29+00:00,2024-05-15 15:53:29+09:00,2024,5,15,6,53,29,0,6.0,53.0,29.0,40.533703,141.46936,4.984,3.0,15.0,0.123535,-0.018311,1.453369,-45.898438,75.500488,123.291016,-275.0,58.0,355.0,2593.0,0.0,1022.400024,31.200001,0.093152,-75.858627,3.754688,0.0,1.0,1.0,9.0,0.0,0.0,0.0,4.0,0.0,0.09461588000000001,-0.19594401333333333,0.9338021066666666,-6.057128893333333,0.8976236800000014,8.745117213333335,39.60379727643529,10.510808244906956,15.719812113277984,27.013724969169626,0.6894960139758939,6.004097429186963,27.681508763114714,-1.1144755373337727,27.735047429059126,-1.12485732661446,0.028919119999999993,0.17763301333333334,0.5195668933333333,0.7261190266666666,0.5498541257238195,0.9860499751942658,0.9860499751942658,0.9860499751942658
LBP03_S09,LBP03,-1599,52,9,51,-1599,1715756009.04,2024-05-15 06:53:29.040000+00:00,2024-05-15 15:53:29.040000+09:00,2024,5,15,6,53,29,40,,,,,,,,,-0.574951,-1.197754,1.856689,-153.198242,-91.369629,32.775879,,,,,,,,,,,0.0,1.0,1.0,9.0,0.0,0.0,0.0,4.0,0.0,0.1029134,-0.20819010666666665,0.94869468,-6.405436186666668,-0.7307942799999986,9.806315133333333,44.7119236118744,-0.9487665410069006,13.247967262669365,28.802201913644602,0.6515453523356178,6.534016119693738,29.541237500702646,-1.1046436266545692,29.20871663233595,-1.1185874154042117,-0.6778644,-0.9895638933333333,0.90799432,2.575422613333333,1.504390417720296,1.0206060046960013,1.0206060046960013,1.0206060046960013
LBP03_S09,LBP03,-1598,53,9,52,-1598,1715756009.08,2024-05-15 06:53:29.080000+00:00,2024-05-15 15:53:29.080000+09:00,2024,5,15,6,53,29,80,,,,,,,,,0.35498,0.192139,1.571533,135.681152,-59.387207,56.152344,,,,,,,,,,,0.0,1.0,1.0,9.0,0.0,0.0,0.0,4.0,0.0,0.09554034666666668,-0.19745117333333334,0.94306968,-5.406087226666667,1.008300773333335,9.728190133333335,48.562278518458186,-10.343418766824566,9.263566850814405,30.744693054382928,0.23780860166263518,6.904558793726314,31.511357255365407,-1.1136960679153671,30.847166912383518,-1.1141979643864808,0.25943965333333335,0.38959017333333334,0.62846332,1.2774931466666668,0.783616986457695,1.005794191056107,1.005794191056107,1.005794191056107
LBP03_S09,LBP03,-1597,54,9,53,-1597,1715756009.12,2024-05-15 06:53:29.120000+00:00,2024-05-15 15:53:29.120000+09:00,2024,5,15,6,53,29,120,,,,,,,,,-0.064453,-0.469482,0.284668,202.697754,176.879883,-14.099121,,,,,,,,,,,0.0,1.0,1.0,9.0,0.0,0.0,0.0,4.0,0.0,0.09305010666666667,-0.20388672,0.9419564,-7.525227853333334,-1.316731773333332,8.671875026666669,50.51957647508431,-16.766961365803322,5.186493023818999,32.7654761133863,-0.43286985296949776,7.1120185146790735,33.531248241001045,-1.1357950834532076,32.58198173062725,-1.1122653235704114,-0.15750310666666667,-0.26559528,-0.6572884000000001,1.0803867866666668,0.7262066662751657,0.9893478660689927,0.9893478660689927,0.9893478660689927
LBP03_S09,LBP03,-1596,55,9,54,-1596,1715756009.16,2024-05-15 06:53:29.160000+00:00,2024-05-15 15:53:29.160000+09:00,2024,5,15,6,53,29,160,,,,,,,,,-0.349609,0.259766,-0.292236,167.236328,-77.758789,-67.260742,,,,,,,,,,,0.0,1.0,1.0,9.0,0.0,0.0,0.0,4.0,0.0,0.0958268,-0.2048112,0.942959,-7.032063786666668,-2.0084635333333316,7.530924506666668,50.132947731117895,-19.951344106318754,2.5424321436142083,34.770794022631016,-1.230923617222248,7.213715800423642,35.532534184391494,-1.1262596776791751,34.34894151892556,-1.111778633976055,-0.4454358,0.4645772,-1.235195,2.1452080000000002,1.3928214942003443,1.0117630676318456,1.0117630676318456,1.0117630676318456
LBP03_S09,LBP03,-1595,56,9,55,-1595,1715756009.2,2024-05-15 06:53:29.200000+00:00,2024-05-15 15:53:29.200000+09:00,2024,5,15,6,53,29,200,,,,,,,,,0.563721,0.229492,0.417969,25.878906,-204.040527,-103.69873,,,,,,,,,,,0.0,1.0,1.0,9.0,0.0,0.0,0.0,4.0,0.0,0.10495765333333335,-0.201403,0.9399674666666668,-7.184244773333333,-3.0387369733333323,7.242838573333335,47.440123407800684,-20.26153183157133,2.472072761238787,36.668398958943044,-2.041384890485101,7.312598710873194,37.44613243566791,-1.0836961310929993,36.09378730657134,-1.1124295472530137,0.4587633466666667,0.43089500000000003,-0.5219984666666668,1.4116568133333336,0.8176898608104123,1.0015486883254545,1.0015486883254545,1.0015486883254545
LBP03_S09,LBP03,-1594,57,9,56,-1594,1715756009.24,2024-05-15 06:53:29.240000+00:00,2024-05-15 15:53:29.240000+09:00,2024,5,15,6,53,29,240,,,,,,,,,0.690674,-0.352783,1.167236,-110.961914,23.071289,2.990723,,,,,,,,,,,0.0,1.0,1.0,9.0,0.0,0.0,0.0,4.0,0.0,0.10162757333333333,-0.21288412,0.9373698133333335,-7.2615559733333335,-1.0685221333333317,7.089843786666669,42.95651606709984,-18.571435225252685,5.39059075788414,38.38665960162704,-2.7842422994952085,7.52822234118856,39.21685571500925,-1.1178541544071834,37.77118814934423,-1.1125650514166743,0.5890464266666666,-0.13989888,0.22986618666666647,0.9588114933333332,0.6476000719322828,0.9838512575057958,0.9838512575057958,0.9838512575057958
LBP03_S09,LBP03,-1593,58,9,57,-1593,1715756009.28,2024-05-15 06:53:29.280000+00:00,2024-05-15 15:53:29.280000+09:00,2024,5,15,6,53,29,280,,,,,,,,,0.205078,0.169434,1.290039,40.161133,137.939453,138.48877,,,,,,,,,,,0.0,1.0,1.0,9.0,0.0,0.0,0.0,4.0,0.0,0.09746416,-0.2171972666666667,0.9449739733333333,-6.147460933333334,-3.206380199999998,6.899414106666668,37.36382198345948,-16.00179661686882,10.945771906756846,39.88121248096542,-3.4243141641699615,7.966053217458834,40.81292736756618,-1.1413041569589135,39.34057713586827,-1.114758968013131,0.10761384000000002,0.3866312666666667,0.3450650266666666,0.8393101333333333,0.5292771934934323,0.962204873505207,0.962204873505207,0.962204873505207
LBP03_S09,LBP03,-1592,59,9,58,-1592,1715756009.32,2024-05-15 06:53:29.320000+00:00,2024-05-15 15:53:29.320000+09:00,2024,5,15,6,53,29,320,,,,,,,,,-0.333252,-1.595947,1.874512,-77.026367,-95.64209,32.653809,,,,,,,,,,,0.0,1.0,1.0,9.0,0.0,0.0,0.0,4.0,0.0,0.10688146666666669,-0.20842448,0.94678388,-1.1816406266666668,-0.8748372399999986,8.557942760000001,31.137281380122477,-13.561563041072494,18.246194536285024,41.12670373617031,-3.966776685812861,8.695900998910234,42.22273998286565,-1.0898838678086544,40.762674536123136,-1.10934206255614,-0.4401334666666667,-1.38752252,0.9277281199999999,2.755384106666667,1.7261563302974336,0.9969299397230356,0.9969299397230356,0.9969299397230356
LBP03_S09,LBP03,-1591,60,9,59,-1591,1715756009.36,2024-05-15 06:53:29.360000+00:00,2024-05-15 15:53:29.360000+09:00,2024,5,15,6,53,29,360,,,,,,,,,0.352051,0.070557,1.232666,157.043457,-15.50293,65.246582,,,,,,,,,,,0.0,1.0,1.0,9.0,0.0,0.0,0.0,4.0,0.0,0.10092117333333334,-0.19989584000000002,0.9436230800000001,-1.211751306666667,1.0180664000000017,8.547363333333335,24.360833813933972,-11.832121991873402,26.181776862621327,42.101137088727675,-4.440061565487797,9.743172073415087,43.44133162002908,-1.0966871692262958,41.99834763395827,-1.1049447176669047,0.25112982666666667,0.27045284,0.28904292,0.8106255866666667,0.46878218620999457,0.9739669939181208,0.9739669939181208,0.9739669939181208
LBP03_S09,LBP03,-1590,61,9,60,-1590,1715756009.4,2024-05-15 06:53:29.400000+00:00,2024-05-15 15:53:29.400000+09:00,2024,5,15,6,53,29,400,,,,,,,,,-0.122314,-0.260498,0.384766,77.880859,212.95166,-7.8125,,,,,,,,,,,0.0,1.0,1.0,9.0,0.0,0.0,0.0,4.0,0.0,0.09639317333333333,-0.20043294666666667,0.9386360933333333,-2.21598308,-0.9895833466666649,6.535644586666668,16.806631051960693,-10.852251198458223,33.652221220852404,42.7734023308061,-4.874151613426126,11.089260922249183,44.45551719084366,-1.115830578970377,43.00954895595028,-1.105491809925234,-0.21870717333333334,-0.06006505333333334,-0.5538700933333334,0.83264232,0.5985087456240454,0.958322900239201,0.958322900239201,0.958322900239201
LBP03_S09,LBP03,-1589,62,9,61,-1589,1715756009.44,2024-05-15 06:53:29.440000+00:00,2024-05-15 15:53:29.440000+09:00,2024,5,15,6,53,29,440,,,,,,,,,-0.303467,0.440674,-0.661865,-38.94043,-138.000488,-19.348145,,,,,,,,,,,0.0,1.0,1.0,9.0,0.0,0.0,0.0,4.0,0.0,0.09778314666666668,-0.20936849333333332,0.93875328,-2.15820312,-2.836100266666665,4.506835986666668,8.169539681736525,-10.27368190662523,39.64643429420463,43.10018391807556,-5.2850988896911355,12.675118294017368,45.23512736594302,-1.1265827926191365,43.76150330475923,-1.1052301255063597,-0.4012501466666667,0.6500424933333333,-1.60061828,2.6519109199999997,1.77356584360694,0.9909326179739105,0.9909326179739105,0.9909326179739105
LBP03_S09,LBP03,-1588,63,9,62,-1588,1715756009.48,2024-05-15 06:53:29.480000+00:00,2024-05-15 15:53:29.480000+09:00,2024,5,15,6,53,29,480,,,,,,,,,0.431396,-0.126465,0.199707,-17.211914,-181.70166,-23.620605,,,,,,,,,,,0.0,1.0,1.0,9.0,0.0,0.0,0.0,4.0,0.0,0.10914708,-0.19751628,0.9325944266666668,-1.1165364533333333,-2.027180999999999,5.019531306666668,-1.7100002834281793,-9.717783615320029,43.26053468462403,43.03178390673843,-5.673810234303937,14.40553968140233,45.73233125791405,-1.059527013345459,44.2257299529772,-1.104301621500335,0.32224892,0.07105128,-0.7328874266666668,1.1261876266666668,0.8037515978191855,0.9930212638815248,0.9837333479679595,0.9837333479679595
LBP03_S09,LBP03,-1587,64,9,63,-1587,1715756009.52,2024-05-15 06:53:29.520000+00:00,2024-05-15 15:53:29.520000+09:00,2024,5,15,6,53,29,520,,,,,,,,,0.637939,-0.493652,0.972656,-20.019531,-65.673828,33.38623,,,,,,,,,,,0.0,1.0,1.0,9.0,0.0,0.0,0.0,4.0,0.0,0.10348301333333333,-0.20267904,0.9325260666666666,-3.3430989600000003,-0.021972666666665173,5.000000066666668,-12.725358017998799,-9.12920229914271,43.788670601459074,42.522769586018484,-6.038978326269645,16.157086505460693,45.88797921935235,-1.0918216345608522,44.38384687128212,-1.1032599192773478,0.5344559866666667,-0.29097295999999995,0.04012993333333337,0.86555888,0.6098515201951534,0.9551548995894585,0.9698858728652631,0.9698858728652631
LBP03_S09,LBP03,-1586,65,9,64,-1586,1715756009.56,2024-05-15 06:53:29.560000+00:00,2024-05-15 15:53:29.560000+09:00,2024,5,15,6,53,29,560,,,,,,,,,0.393066,0.315186,1.131348,3.417969,107.60498,174.804688,,,,,,,,,,,0.0,1.0,1.0,9.0,0.0,0.0,0.0,4.0,0.0,0.09481765333333335,-0.20562174666666666,0.9404069199999999,-5.087890626666667,-3.356933613333332,5.432942773333334,-24.47313645488742,-8.882025756754912,40.937402504454546,41.543844127822986,-6.394259356539842,17.794582605638876,45.64454740431167,-1.1317306002624694,44.23161923519374,-1.1039393659581482,0.29824834666666666,0.5208077466666667,0.1909410800000001,1.0099971733333335,0.629802573279101,0.944915977427877,0.9577400407371858,0.9577400407371858
LBP03_S09,LBP03,-1585,66,9,65,-1585,1715756009.6,2024-05-15 06:53:29.600000+00:00,2024-05-15 15:53:29.600000+09:00,2024,5,15,6,53,29,600,,,,,,,,,-0.325195,-0.785889,1.703613,-168.640137,-14.709473,100.891113,,,,,,,,,,,0.0,1.0,1.0,9.0,0.0,0.0,0.0,4.0,0.0,0.10939446666666666,-0.20871418666666666,0.9547916799999999,-3.4383138,-2.303059919999998,7.541503973333334,-36.262788341102095,-9.53194529481789,35.063026307382934,40.093332594178904,-6.775537168332558,19.197103657934193,44.96567592375739,-1.0810792869042551,43.78172509329655,-1.0972811061968273,-0.43458946666666665,-0.5771748133333333,0.7488213200000001,1.7605856000000002,1.0405441552238561,0.9302352036971675,0.9605953550298296,0.9605953550298296
LBP03_S09,LBP03,-1584,67,9,66,-1584,1715756009.64,2024-05-15 06:53:29.640000+00:00,2024-05-15 15:53:29.640000+09:00,2024,5,15,6,53,29,640,,,,,,,,,0.137695,-0.115479,1.377197,144.348145,16.113281,60.48584,,,,,,,,,,,0.0,1.0,1.0,9.0,0.0,0.0,0.0,4.0,0.0,0.09911777333333334,-0.20229492000000002,0.9512793066666667,0.16276041333333297,-0.6258138266666651,7.757975320000002,-47.145942364365574,-11.352574000185934,27.235003916386493,38.20749489960428,-7.2296401283399945,20.28650381458965,43.85912219718894,-1.1085691143469363,43.06354002528947,-1.0940152238702692,0.03857722666666667,0.08681592000000002,0.4259176933333333,0.55131084,0.4363841058942513,0.9049029131350329,0.9431216467253104,0.9431216467253104
LBP03_S09,LBP03,-1583,68,9,67,-1583,1715756009.68,2024-05-15 06:53:29.680000+00:00,2024-05-15 15:53:29.680000+09:00,2024,5,15,6,53,29,680,,,,,,,,,-0.225342,0.156982,0.352295,-20.324707,246.826172,-59.082031,,,,,,,,,,,0.0,1.0,1.0,9.0,0.0,0.0,0.0,4.0,0.0,0.09295241333333334,-0.20092448,0.9464192799999999,0.8911132799999998,-3.4667968933333317,6.447753960000002,-55.99507617282748,-13.955001604251901,18.98740123121116,35.967691852691175,-7.78784019251007,21.045999863838098,42.394096550615345,-1.1308871347290417,42.119708143103594,-1.0892136861731105,-0.3182944133333333,0.35790648,-0.5941242799999998,1.2703251733333332,0.763146147255373,0.9095205961354027,0.9373159854520866,0.9373159854520866
LBP03_S09,LBP03,-1582,69,9,68,-1582,1715756009.72,2024-05-15 06:53:29.720000+00:00,2024-05-15 15:53:29.720000+09:00,2024,5,15,6,53,29,720,,,,,,,,,-0.289307,-0.17041,-0.038818,-195.739746,-175.109863,-103.45459,,,,,,,,,,,0.0,1.0,1.0,9.0,0.0,0.0,0.0,4.0,0.0,0.10001622666666667,-0.19805013333333335,0.9422070400000001,1.2687174399999999,-5.232747413333332,4.777018280000001,-61.682061457819444,-16.256036549487174,11.814388520222883,33.500409394378394,-8.438081654489558,21.518575404647013,40.70046362198186,-1.0966783346166613,41.001332495827924,-1.0887899632839135,-0.38932322666666663,0.027640133333333344,-0.9810250400000001,1.3979884,1.0558156472130118,0.9278904425264615,0.9410190998821155,0.9410190998821155
LBP03_S09,LBP03,-1581,70,9,69,-1581,1715756009.76,2024-05-15 06:53:29.760000+00:00,2024-05-15 15:53:29.760000+09:00,2024,5,15,6,53,29,760,,,,,,,,,0.367676,-0.375244,0.393311,-64.27002,-147.094727,-35.400391,,,,,,,,,,,0.0,1.0,1.0,9.0,0.0,0.0,0.0,4.0,0.0,0.11430658666666665,-0.19292642666666665,0.9427311333333334,1.431477853333333,-3.117675799999998,6.334635466666668,-63.35858119690819,-16.86202574559287,6.653430022523759,30.966066146502065,-9.112562684313273,21.784712605547963,38.94239020105726,-1.0301045716130834,39.76416614548101,-1.0897816135542495,0.25336941333333335,-0.18231757333333337,-0.5494201333333333,0.98510712,0.6319004985526208,0.9031245628793714,0.9316518695387974,0.9316518695387974
LBP03_S09,LBP03,-1580,71,9,70,-1580,1715756009.8,2024-05-15 06:53:29.800000+00:00,2024-05-15 15:53:29.800000+09:00,2024,5,15,6,53,29,800,,,,,,,,,0.748291,-0.206299,0.923584,-39.672852,-68.908691,10.559082,,,,,,,,,,,0.0,1.0,1.0,9.0,0.0,0.0,0.0,4.0,0.0,0.10123041333333332,-0.1937565066666667,0.9423112133333335,1.5747070266666663,-2.137044293333332,6.067708386666668,-60.746808860543425,-14.683380283723388,3.6315805693978396,28.53619379208033,-9.69989789566221,21.929975828323876,37.2736665107728,-1.0831717557047982,38.466499646023884,-1.0852004991410993,0.6470605866666668,-0.012542493333333321,-0.018727213333333492,0.6783302933333336,0.6474530295516887,0.8842357417484782,0.923293080127412,0.923293080127412
LBP03_S09,LBP03,-1579,72,9,71,-1579,1715756009.84,2024-05-15 06:53:29.840000+00:00,2024-05-15 15:53:29.840000+09:00,2024,5,15,6,53,29,840,,,,,,,,,0.325195,0.271729,1.265137,-30.822754,77.697754,95.581055,,,,,,,,,,,0.0,1.0,1.0,9.0,0.0,0.0,0.0,4.0,0.0,0.10893549333333333,-0.20640624,0.9678483333333332,-0.22054037333333373,-7.254231786666664,6.533203173333335,-54.30361414162049,-9.450746643055957,2.1957550365515996,26.36404922641551,-10.077927761384448,22.01780602978594,35.79680854408423,-1.0785674156475478,37.16723270592054,-1.0864263493774593,0.21625950666666668,0.47813523999999996,0.29728866666666676,0.9916834133333334,0.6031268799199817,0.8758928724458745,0.9141454744071996,0.9141454744071996
LBP03_S09,LBP03,-1578,73,9,72,-1578,1715756009.88,2024-05-15 06:53:29.880000+00:00,2024-05-15 15:53:29.880000+09:00,2024,5,15,6,53,29,880,,,,,,,,,-0.389893,-1.021484,1.841553,-212.097168,-41.442871,62.683105,,,,,,,,,,,0.0,1.0,1.0,9.0,0.0,0.0,0.0,4.0,0.0,0.11513666666666668,-0.20626626666666667,0.9750716399999999,3.911946613333333,-1.2304687599999982,7.596028693333334,-45.168699460147344,-1.8760187176440057,1.517373760658277,24.557301248009615,-10.152968510090208,22.078500980212272,34.54857478515738,-1.0552897844534896,35.92209041932325,-1.080258787910704,-0.5050296666666667,-0.8152177333333334,0.8664813600000001,2.1867287600000003,1.2924491727654253,0.8587743683999478,0.9246539104727058,0.9246539104727058
LBP03_S09,LBP03,-1577,74,9,73,-1577,1715756009.92,2024-05-15 06:53:29.920000+00:00,2024-05-15 15:53:29.920000+09:00,2024,5,15,6,53,29,920,,,,,,,,,0.287598,-0.042969,1.594238,99.182129,-21.66748,18.798828,,,,,,,,,,,0.0,1.0,1.0,9.0,0.0,0.0,0.0,4.0,0.0,0.10003901333333334,-0.20053710666666666,0.9659603066666667,4.6875,-0.39388022666666483,7.552083373333335,-34.8927524199361,6.582601461740653,0.9155427172523288,23.16159115121217,-9.889664451620582,22.115122688902364,33.516315715883245,-1.101738137264212,34.77753536602622,-1.0785405142285747,0.18755898666666668,0.15756810666666665,0.6282776933333334,0.9734047866666667,0.6743433410794526,0.8505758842884868,0.9178887599485638,0.9178887599485638
LBP03_S09,LBP03,-1576,75,9,74,-1576,1715756009.96,2024-05-15 06:53:29.960000+00:00,2024-05-15 15:53:29.960000+09:00,2024,5,15,6,53,29,960,,,,,,,,,0.370117,-0.51416,1.320312,-38.452148,78.24707,17.944336,,,,,,,,,,,0.0,1.0,1.0,9.0,0.0,0.0,0.0,4.0,0.0,0.10117182666666667,-0.19487954666666668,0.9597786666666667,5.0748697866666665,-3.475748706666665,6.687011760000001,-25.02012931915584,14.206954673945019,0.06963829482238934,22.160785978445936,-9.321386264662781,22.11790822069526,32.667882409740436,-1.0859194561309664,33.764255525300015,-1.074061730911998,0.2689451733333333,-0.31928045333333327,0.36053333333333326,0.9487589599999998,0.5515938710541297,0.8503452984862037,0.9082494207671313,0.9082494207671313
LBP03_S09,LBP03,-1575,76,9,75,-1575,1715756010.0,2024-05-15 06:53:30+00:00,2024-05-15 15:53:30+09:00,2024,5,15,6,53,30,0,6.0,53.0,30.0,40.533669,141.469238,5.71,3.0,15.0,-0.80249,0.433838,-0.570068,120.178223,243.286133,-112.060547,-284.0,61.0,353.0,2502.0,0.0,1022.0,31.26,0.089188,-72.553726,3.754688,0.0,1.0,1.0,9.0,0.0,0.0,0.0,4.0,0.0,0.10350256000000001,-0.20331705333333333,0.9587304799999998,5.782063786666667,-4.046223973333332,5.5468750400000015,-16.672413425947294,19.53917708444201,-1.0434162982124335,21.493889441408044,-8.5398191812851,22.07617156876676,31.973006522723864,-1.0933377892678573,32.893370211854055,-1.0807486477134094,-0.9059925600000001,0.6371550533333333,-1.5287984799999998,3.071946093333333,1.8878596010333677,0.9038655174985857,0.9333676305175478,0.9333676305175478
LBP03_S09,LBP03,-1574,77,9,76,-1574,1715756010.04,2024-05-15 06:53:30.040000+00:00,2024-05-15 15:53:30.040000+09:00,2024,5,15,6,53,30,40,,,,,,,,,0.445312,-0.331543,0.518799,-80.13916,-253.356934,-78.674316,,,,,,,,,,,0.0,1.0,1.0,9.0,0.0,0.0,0.0,4.0,0.0,0.10802730666666668,-0.18942708,0.9520442800000001,4.86490884,-1.0571289199999983,6.451009146666667,-10.312513969812757,21.73945304464779,-2.3669712477371823,21.081388882615535,-7.6702410594991886,21.98149271885727,31.40769933121604,-1.0468934996793813,32.15765398646742,-1.0875530609054924,0.33728469333333333,-0.14211591999999998,-0.43324528000000007,0.9126458933333333,0.5671502197096335,0.8663759095781591,0.9242121952473499,0.9242121952473499
LBP03_S09,LBP03,-1573,78,9,77,-1573,1715756010.08,2024-05-15 06:53:30.080000+00:00,2024-05-15 15:53:30.080000+09:00,2024,5,15,6,53,30,80,,,,,,,,,0.53125,-0.109863,0.941162,41.07666,52.856445,0.305176,,,,,,,,,,,0.0,1.0,1.0,9.0,0.0,0.0,0.0,4.0,0.0,0.09560542666666666,-0.19748697333333332,0.9588899866666666,3.8053385200000003,-2.801106786666665,5.931803426666667,-5.804183021273977,20.68620521745382,-3.930633355711419,20.849221561764576,-6.842792850801036,21.824267384628815,30.94854601764509,-1.1137043979077486,31.537500249821694,-1.0938059091080545,0.43564457333333334,0.08762397333333331,-0.01772798666666653,0.5409965333333332,0.4447228760573895,0.8528201451621469,0.9125173338036923,0.9125173338036923
LBP03_S09,LBP03,-1572,79,9,78,-1572,1715756010.12,2024-05-15 06:53:30.120000+00:00,2024-05-15 15:53:30.120000+09:00,2024,5,15,6,53,30,120,,,,,,,,,0.397217,0.280273,1.47876,-56.091309,71.899414,84.838867,,,,,,,,,,,0.0,1.0,1.0,9.0,0.0,0.0,0.0,4.0,0.0,0.11065425333333336,-0.19633789333333332,0.9833886933333335,2.5651041466666666,-6.914062519999998,7.529296906666668,-2.728216164552128,16.86673829258709,-5.823766867069243,20.74009291518249,-6.168123319097552,21.591316709946046,30.567665214719838,-1.051890501450895,31.008837068723768,-1.0954808137348189,0.28656274666666665,0.4766108933333333,0.4953713066666666,1.2585449466666665,0.7447609568779655,0.8535623167862589,0.9085231343530799,0.9085231343530799
LBP03_S09,LBP03,-1571,80,9,79,-1571,1715756010.16,2024-05-15 06:53:30.160000+00:00,2024-05-15 15:53:30.160000+09:00,2024,5,15,6,53,30,160,,,,,,,,,-0.535156,-0.819336,1.898926,-222.106934,-19.287109,41.687012,,,,,,,,,,,0.0,1.0,1.0,9.0,0.0,0.0,0.0,4.0,0.0,0.09990556,-0.19771158666666666,0.9832194266666666,0.8374023199999999,-1.2426757999999987,8.60921228,-0.7650583019272015,11.184419467579103,-8.007105983154009,20.709490583105403,-5.720746540394388,21.271032470619886,30.233537066597602,-1.0969737396271968,30.549744472038032,-1.0922997659176115,-0.63506156,-0.6216244133333333,0.9157065733333333,2.1723925466666665,1.276024539218396,0.848890438586981,0.9170696786522733,0.9170696786522733
LBP03_S09,LBP03,-1570,81,9,80,-1570,1715756010.2,2024-05-15 06:53:30.200000+00:00,2024-05-15 15:53:30.200000+09:00,2024,5,15,6,53,30,200,,,,,,,,,0.218506,-0.37793,1.696777,77.148438,-40.588379,15.319824,,,,,,,,,,,0.0,1.0,1.0,9.0,0.0,0.0,0.0,4.0,0.0,0.09105465333333333,-0.20779622666666667,0.9764355733333334,-2.3518880399999995,-4.833170586666666,8.51481124,0.09826851751960401,4.767945948246332,-10.137654990420883,20.713421323806188,-5.530028702464534,20.865526271003052,29.91650425690657,-1.15121588762563,30.144235116117574,-1.09340186259739,0.1274513466666667,-0.17013377333333332,0.7203414266666666,1.0179265466666667,0.7510533386970285,0.8462249777024456,0.9132965800169267,0.9132965800169267
LBP03_S09,LBP03,-1569,82,9,81,-1569,1715756010.24,2024-05-15 06:53:30.240000+00:00,2024-05-15 15:53:30.240000+09:00,2024,5,15,6,53,30,240,,,,,,,,,0.22168,-0.248291,0.836914,61.706543,167.297363,17.76123,,,,,,,,,,,0.0,1.0,1.0,9.0,0.0,0.0,0.0,4.0,0.0,0.09644853333333335,-0.21448567999999998,0.9709863466666667,0.18636065333333343,-6.681315119999999,7.788085986666666,-0.32068261115251634,-1.2142916549780187,-11.586259140108202,20.700594019360086,-5.578600368663655,20.402075905398725,29.595271177626874,-1.1410958976731673,29.783625549821704,-1.0894021591488174,0.12523146666666662,-0.03380532000000003,-0.13407234666666668,0.2931091333333333,0.18655056699054462,0.8277829975047761,0.8971466686163404,0.8971466686163404
LBP03_S09,LBP03,-1568,83,9,82,-1568,1715756010.28,2024-05-15 06:53:30.280000+00:00,2024-05-15 15:53:30.280000+09:00,2024,5,15,6,53,30,280,,,,,,,,,-0.586182,0.221924,-0.221436,169.433594,-25.146484,-118.041992,,,,,,,,,,,0.0,1.0,1.0,9.0,0.0,0.0,0.0,4.0,0.0,0.10655270666666666,-0.19853516,0.9609830933333332,3.2845051866666664,-5.502115906666666,8.390299520000001,-2.046370863946019,-5.766541592916621,-11.691225222220773,20.618739184802244,-5.80926203238032,19.934426896509894,29.26194297417812,-1.0720388307211348,29.466508741765892,-1.094940541982259,-0.6927347066666667,0.42045916,-1.1824190933333332,2.2956129599999997,1.4334511471716362,0.8639499556519042,0.908805461628412,0.908805461628412
LBP03_S09,LBP03,-1567,84,9,83,-1567,1715756010.32,2024-05-15 06:53:30.320000+00:00,2024-05-15 15:53:30.320000+09:00,2024,5,15,6,53,30,320,,,,,,,,,0.354736,-0.084229,0.450195,-27.160645,-193.54248,-104.675293,,,,,,,,,,,0.0,1.0,1.0,9.0,0.0,0.0,0.0,4.0,0.0,0.10541989333333333,-0.19536133333333333,0.9570931200000001,0.8479817466666671,-3.5725911599999987,8.957519573333334,-4.617885479474686,-8.304200734496579,-10.116572553680045,20.434023765623255,-6.141430061760183,19.529763994362693,28.925389749025907,-1.069927659092139,29.19787915686794,-1.0951771592877542,0.24931610666666665,0.11113233333333333,-0.5068981200000001,0.8673465600000001,0.575720957248449,0.8179325407299448,0.9017185572799022,0.9017185572799022
LBP03_S09,LBP03,-1566,85,9,84,-1566,1715756010.36,2024-05-15 06:53:30.360000+00:00,2024-05-15 15:53:30.360000+09:00,2024,5,15,6,53,30,360,,,,,,,,,0.508545,-0.046631,0.940918,-33.508301,-0.305176,-29.11377,,,,,,,,,,,0.0,1.0,1.0,9.0,0.0,0.0,0.0,4.0,0.0,0.09824541333333334,-0.19441732,0.9655924799999999,0.12532550666666697,-6.902669279999999,8.968099,-7.0581965565630975,-8.84125447011402,-7.090037543492942,20.151695903360732,-6.495080240564744,19.246162492622975,28.612788850535832,-1.0969404229287505,28.987613080961374,-1.1005827764315388,0.41029958666666666,0.14778632,-0.024674479999999832,0.5827603866666665,0.43680130169363085,0.8166533053492904,0.8920327811218548,0.8920327811218548
LBP03_S09,LBP03,-1565,86,9,85,-1565,1715756010.4,2024-05-15 06:53:30.400000+00:00,2024-05-15 15:53:30.400000+09:00,2024,5,15,6,53,30,400,,,,,,,,,0.566162,0.156738,1.489014,-32.592773,32.226562,97.167969,,,,,,,,,,,0.0,1.0,1.0,9.0,0.0,0.0,0.0,4.0,0.0,0.11341469333333333,-0.20204427999999997,0.9897168266666667,-4.007975266666666,-10.422363279999997,10.231933626666667,-8.206378971935315,-7.998183593449409,-3.3540908305671535,19.82344074448332,-6.8150075843027205,19.111998859400288,28.366910859765166,-1.053340754782131,28.84852463305699,-1.0932043860624918,0.45274730666666674,0.35878227999999995,0.49929717333333334,1.31082676,0.7635460139602432,0.8232547960827382,0.8894106022001893,0.8894106022001893
LBP03_S09,LBP03,-1564,87,9,86,-1564,1715756010.44,2024-05-15 06:53:30.440000+00:00,2024-05-15 15:53:30.440000+09:00,2024,5,15,6,53,30,440,,,,,,,,,-0.328125,-0.405762,1.685059,-210.449219,5.615234,52.55127,,,,,,,,,,,0.0,1.0,1.0,9.0,0.0,0.0,0.0,4.0,0.0,0.10217770666666667,-0.20511068,0.9865592799999999,-3.649088546666666,-4.198404946666666,10.350748733333335,-7.225887631100302,-6.76191426167332,0.15440873283020717,19.53440523923931,-7.085484154769653,19.118175208713495,28.236531250657883,-1.102277328013798,28.794196983486707,-1.0817332174501781,-0.4303027066666667,-0.20065132000000002,0.6984997200000002,1.3294537466666667,0.8445846496488558,0.7860955483244149,0.8885140831491627,0.8885140831491627
LBP03_S09,LBP03,-1563,88,9,87,-1563,1715756010.48,2024-05-15 06:53:30.480000+00:00,2024-05-15 15:53:30.480000+09:00,2024,5,15,6,53,30,480,,,,,,,,,0.291504,-0.616211,1.662109,7.202148,0.488281,46.386719,,,,,,,,,,,0.0,1.0,1.0,9.0,0.0,0.0,0.0,4.0,0.0,0.09668617333333335,-0.20093425333333334,0.9750195600000001,-3.7565104266666665,-7.8898112,9.128418000000002,-3.9814976316993036,-6.080807543933391,2.7017097932271383,19.375145333971336,-7.328716456526989,19.22624360044258,28.26225016866562,-1.1160705709626981,28.836661657294627,-1.0760974980682214,0.19481782666666664,-0.4152767466666666,0.6870894399999999,1.2971840133333332,0.8261359818266528,0.7869909236847136,0.8900060937831191,0.8872909831232312
LBP03_S09,LBP03,-1562,89,9,88,-1562,1715756010.52,2024-05-15 06:53:30.520000+00:00,2024-05-15 15:53:30.520000+09:00,2024,5,15,6,53,30,520,,,,,,,,,-0.136963,-0.463135,0.502441,121.09375,203.369141,14.160156,,,,,,,,,,,0.0,1.0,1.0,9.0,0.0,0.0,0.0,4.0,0.0,0.10114256,-0.20505534666666667,0.9654427333333333,-4.542643226666666,-8.760579426666665,6.710612000000001,0.9358701771779331,-6.493920443846952,3.997964633146701,19.412580141058452,-7.588473274280867,19.38616218576845,28.46500445565415,-1.105946672888742,28.983958826891648,-1.0735394050408371,-0.23810556,-0.2580796533333334,-0.4630017333333333,0.9591869466666667,0.5810937706061202,0.7858406137011522,0.8704977566453053,0.8814025751902097
LBP03_S09,LBP03,-1561,90,9,89,-1561,1715756010.56,2024-05-15 06:53:30.560000+00:00,2024-05-15 15:53:30.560000+09:00,2024,5,15,6,53,30,560,,,,,,,,,-0.316895,0.291992,0.005615,92.041016,-148.803711,-74.035645,,,,,,,,,,,0.0,1.0,1.0,9.0,0.0,0.0,0.0,4.0,0.0,0.11536781333333333,-0.1915429733333333,0.9583854533333335,-1.7325846399999993,-6.895345053333332,6.053059920000001,6.522898860710816,-7.983652508871896,4.170142029119321,19.673496095486886,-7.907819374635743,19.552967866933223,28.84265258755382,-1.0231898359367289,29.23769501702615,-1.0769461190092566,-0.43226281333333333,0.4835349733333333,-0.9527704533333334,1.86856824,1.1525748335671402,0.8067515041126738,0.8758337407702754,0.8865190328954349
LBP03_S09,LBP03,-1560,91,9,90,-1560,1715756010.6,2024-05-15 06:53:30.600000+00:00,2024-05-15 15:53:30.600000+09:00,2024,5,15,6,53,30,600,,,,,,,,,0.503662,0.09375,0.667236,75.378418,-119.20166,-95.397949,,,,,,,,,,,0.0,1.0,1.0,9.0,0.0,0.0,0.0,4.0,0.0,0.11086586666666666,-0.18976237333333332,0.95411788,-4.703776039999999,-4.781087239999999,6.7211914266666675,11.783525043710197,-10.111229108310352,3.5414189858295266,20.144837097235293,-8.312268538968157,19.694624626366405,29.373227761203655,-1.0365042015024903,29.59096818757853,-1.0794995685077473,0.3927961333333334,0.28351237333333335,-0.2868818799999999,0.9631903866666667,0.5630002497930632,0.7876497478954421,0.8589424757963048,0.880527944319465
LBP03_S09,LBP03,-1559,92,9,91,-1559,1715756010.64,2024-05-15 06:53:30.640000+00:00,2024-05-15 15:53:30.640000+09:00,2024,5,15,6,53,30,640,,,,,,,,,0.485352,-0.227295,1.29834,-51.696777,-7.202148,1.037598,,,,,,,,,,,0.0,1.0,1.0,9.0,0.0,0.0,0.0,4.0,0.0,0.1038574,-0.19951823999999999,0.9752702266666667,-8.85742188,-8.226725266666666,6.7749023600000005,15.98497951975577,-12.322521303606548,2.407050571730191,20.784236278025524,-8.805169391112418,19.790906649235612,30.019917915706127,-1.084738703853601,30.027498295001227,-1.0859076826752645,0.3814946,-0.02777676000000001,0.3230697733333333,0.7323411333333334,0.5006832897819828,0.7902217152509513,0.8475623141929921,0.873621677873329
LBP03_S09,LBP03,-1558,93,9,92,-1558,1715756010.68,2024-05-15 06:53:30.680000+00:00,2024-05-15 15:53:30.680000+09:00,2024,5,15,6,53,30,680,,,,,,,,,0.272705,0.172363,1.497803,-73.120117,50.65918,98.754883,,,,,,,,,,,0.0,1.0,1.0,9.0,0.0,0.0,0.0,4.0,0.0,0.11639645333333334,-0.20404949333333333,0.9964844133333333,-10.579427079999999,-7.99967448,8.518066413333333,18.651866194390877,-14.21914386409582,0.9654394662373347,21.53031092580116,-9.373935145676251,19.829524227885106,30.73491467014834,-1.0464579004472918,30.52306199273725,-1.0792531318470584,0.15630854666666663,0.3764124933333333,0.5013185866666667,1.0340396266666667,0.6460952346488298,0.7855396787466895,0.8475301374410462,0.8695587056728915
LBP03_S09,LBP03,-1557,94,9,93,-1557,1715756010.72,2024-05-15 06:53:30.720000+00:00,2024-05-15 15:53:30.720000+09:00,2024,5,15,6,53,30,720,,,,,,,,,-0.414551,-1.213135,1.74292,-113.586426,-66.650391,22.583008,,,,,,,,,,,0.0,1.0,1.0,9.0,0.0,0.0,0.0,4.0,0.0,0.10451168000000001,-0.21084635999999998,0.9927246399999999,-9.177246093333332,-2.2102864666666657,10.058593746666666,19.429919381404588,-15.651715025347995,-0.5867610014077076,22.307507701057343,-10.00000374669017,19.806053787828798,31.462751650370915,-1.1039947987763354,31.0496687947146,-1.0739295982116468,-0.51906268,-1.0022886400000002,0.7501953600000001,2.27154668,1.3552865607713234,0.7975185152890222,0.8627044789077416,0.8780802469904078
LBP03_S09,LBP03,-1556,95,9,94,-1556,1715756010.76,2024-05-15 06:53:30.760000+00:00,2024-05-15 15:53:30.760000+09:00,2024,5,15,6,53,30,760,,,,,,,,,0.390625,-0.294189,1.42749,80.26123,-29.052734,51.025391,,,,,,,,,,,0.0,1.0,1.0,9.0,0.0,0.0,0.0,4.0,0.0,0.0950846,-0.2008724,0.9770345466666664,-5.45247396,-4.641927093333332,8.807779946666669,18.047963951706073,-16.641337660307023,-1.9324700094355918,23.029426259125586,-10.665657253102452,19.728754987451374,32.14552055605956,-1.122474917913657,31.58139786660894,-1.070810704011353,0.2955404,-0.09331659999999997,0.4504554533333335,0.8393124533333334,0.546774387938443,0.794113470864455,0.8486190168719133,0.8723680770067533
LBP03_S09,LBP03,-1555,96,9,95,-1555,1715756010.8,2024-05-15 06:53:30.800000+00:00,2024-05-15 15:53:30.800000+09:00,2024,5,15,6,53,30,800,,,,,,,,,-0.584473,-0.035645,-0.318359,160.339355,221.191406,-3.234863,,,,,,,,,,,0.0,1.0,1.0,9.0,0.0,0.0,0.0,4.0,0.0,0.09624670666666667,-0.20076498666666664,0.9664941866666668,-5.786946613333332,-7.207845066666666,6.337076813333334,14.492720191597654,-17.242334625469734,-2.6436693308831223,23.60913506678949,-11.35535063812124,19.62300821421605,32.73221193399218,-1.1174218964573033,32.09967055877708,-1.0746545094559374,-0.6807197066666667,0.16511998666666663,-1.2848531866666668,2.1306928800000002,1.463383627190301,0.8267506947699994,0.8554932182592387,0.8823852897217287
LBP03_S09,LBP03,-1554,97,9,96,-1554,1715756010.84,2024-05-15 06:53:30.840000+00:00,2024-05-15 15:53:30.840000+09:00,2024,5,15,6,53,30,840,,,,,,,,,0.045654,0.153076,0.158936,65.979004,-182.434082,-98.510742,,,,,,,,,,,0.0,1.0,1.0,9.0,0.0,0.0,0.0,4.0,0.0,0.10816077333333332,-0.18466473333333333,0.9573307733333333,-5.101725266666666,-6.032714853333332,5.493977853333334,9.282318535116186,-17.470677916977234,-2.3668018093817134,23.98042780819414,-12.05417775480033,19.528336141840782,33.19216822801817,-1.0357318197317353,32.59610137301463,-1.07917751999213,-0.06250677333333332,0.3377407333333333,-0.7983947733333333,1.19864228,0.8691433217548572,0.8373913524433945,0.8566421124446344,0.8821645902556141
LBP03_S09,LBP03,-1553,98,9,97,-1553,1715756010.88,2024-05-15 06:53:30.880000+00:00,2024-05-15 15:53:30.880000+09:00,2024,5,15,6,53,30,880,,,,,,,,,0.306152,0.241455,0.524414,43.457031,-81.481934,-83.190918,,,,,,,,,,,0.0,1.0,1.0,9.0,0.0,0.0,0.0,4.0,0.0,0.10193356,-0.18544924,0.9603516133333333,-8.177897146666666,-4.1455078133333325,5.284830720000001,3.5791444171892373,-17.35096137046309,-1.0717847665183085,24.12359358488171,-12.748216209618853,19.48546475118005,33.52831818843909,-1.062835234608583,33.07264028748317,-1.0819527343092497,0.20421843999999997,0.42690424,-0.43593761333333325,1.0670602933333333,0.6434236583191311,0.8114303318655426,0.8351023501327453,0.8782508044861637
LBP03_S09,LBP03,-1552,99,9,98,-1552,1715756010.92,2024-05-15 06:53:30.920000+00:00,2024-05-15 15:53:30.920000+09:00,2024,5,15,6,53,30,920,,,,,,,,,0.683105,-0.439453,1.206055,-110.717773,-90.393066,-20.141602,,,,,,,,,,,0.0,1.0,1.0,9.0,0.0,0.0,0.0,4.0,0.0,0.10077144,-0.18863609333333334,0.9795605866666667,-10.391438813333332,-8.056640626666665,6.005045560000001,-1.0451640195446226,-17.018220082972462,0.827542832947568,24.081787024099924,-13.428945012937751,19.51856646449795,33.78229517459756,-1.0747577308858038,33.54008898517128,-1.08840238949138,0.5823335599999999,-0.2508169066666667,0.22649441333333342,1.05964488,0.6732913299926858,0.8113882514220719,0.8309820678552795,0.8749450065104624
LBP03_S09,LBP03,-1551,100,9,99,-1551,1715756010.96,2024-05-15 06:53:30.960000+00:00,2024-05-15 15:53:30.960000+09:00,2024,5,15,6,53,30,960,,,,,,,,,0.094971,-0.023193,1.334717,-29.602051,134.094238,125.244141,,,,,,,,,,,0.0,1.0,1.0,9.0,0.0,0.0,0.0,4.0,0.0,0.10991532,-0.19953128,1.0065950933333334,-10.775553386666665,-7.536621093333333,6.891276040000001,-3.142619353244466,-16.742495106332825,2.609984349985441,23.956082249970144,-14.098644817191063,19.622965838497368,34.02537950923513,-1.061627890382573,34.016264243621634,-1.0837836063916453,-0.014944319999999997,0.17633828000000001,0.3281219066666665,0.5194045066666666,0.37280357740798226,0.8042366396762262,0.8272909690812149,0.8669745076358197
LBP03_S09,LBP03,-1550,101,9,100,-1550,1715756011.0,2024-05-15 06:53:31+00:00,2024-05-15 15:53:31+09:00,2024,5,15,6,53,31,0,6.0,53.0,31.0,40.533627,141.469116,5.861,3.0,15.0,-0.399414,-0.737061,1.83667,-128.112793,-43.029785,28.747559,-280.0,58.0,355.0,2255.0,0.0,1022.099976,31.33,0.090179,-73.379799,3.754688,0.0,1.0,1.0,9.0,0.0,0.0,0.0,4.0,0.0,0.10632157333333335,-0.20263349333333333,1.0120573333333334,-9.029134119999998,-2.576497399999999,7.553710933333334,-1.951656785438083,-16.807335876921698,3.5956806187663104,23.87801597855262,-14.770938252267932,19.76679306324802,34.33753590357928,-1.0817343068644178,34.52433477039923,-1.0764465244219266,-0.5057355733333333,-0.5344275066666666,0.8246126666666667,1.8647757466666666,1.105154866995507,0.7729284503147117,0.8383969839066486,0.8706960757508149
LBP03_S09,LBP03,-1549,102,9,101,-1549,1715756011.04,2024-05-15 06:53:31.040000+00:00,2024-05-15 15:53:31.040000+09:00,2024,5,15,6,53,31,40,,,,,,,,,-0.019531,-0.244873,1.308105,-70.373535,-60.791016,32.714844,,,,,,,,,,,0.0,1.0,1.0,9.0,0.0,0.0,0.0,4.0,0.0,0.09260088000000001,-0.19026696,0.9976888533333332,-5.086263026666665,-2.694498706666666,6.105957040000001,2.3245385176345272,-17.312067176639765,3.5069498450455976,23.970997519258002,-15.463420939333522,19.907071057049844,34.78530706039151,-1.1124908470247963,35.09097835099935,-1.0741293760913275,-0.11213188000000002,-0.054606039999999995,0.31041614666666684,0.4771540666666668,0.334534844565103,0.7636238353089305,0.8149998724435449,0.8624474414248808
LBP03_S09,LBP03,-1548,103,9,102,-1548,1715756011.08,2024-05-15 06:53:31.080000+00:00,2024-05-15 15:53:31.080000+09:00,2024,5,15,6,53,31,80,,,,,,,,,0.224609,-0.325439,0.599609,135.803223,135.681152,39.001465,,,,,,,,,,,0.0,1.0,1.0,9.0,0.0,0.0,0.0,4.0,0.0,0.09258136,-0.18951826666666666,0.9875260933333332,-5.836588546666666,-6.033528653333333,2.4202474000000005,8.685547629868811,-18.041930580611858,2.6248820542946265,24.318419424452756,-16.185098162557995,20.01206633922163,35.40940164702938,-1.1109544522685932,35.743505541974834,-1.0773688691900145,0.13202764,-0.13592073333333332,-0.38791709333333324,0.6558654666666666,0.4317237713793655,0.7631038711218097,0.8079620081419783,0.8559213252120701
LBP03_S09,LBP03,-1547,104,9,103,-1547,1715756011.12,2024-05-15 06:53:31.120000+00:00,2024-05-15 15:53:31.120000+09:00,2024,5,15,6,53,31,120,,,,,,,,,-0.436523,0.405029,-0.029297,252.01416,-44.98291,-62.011719,,,,,,,,,,,0.0,1.0,1.0,9.0,0.0,0.0,0.0,4.0,0.0,0.10452145333333335,-0.18786461333333332,0.98083664,-5.179850266666666,-6.626790373333333,0.7454427200000008,15.841688296258427,-18.51073432135092,1.6536316322448497,24.95208695630309,-16.925527535412034,20.078211604511424,36.22450423487448,-1.0578069677789892,36.50522951342508,-1.0789793209202172,-0.5410444533333334,0.5928936133333333,-1.01013364,2.144071706666667,1.2902022740151529,0.7849215238072971,0.819241920296778,0.8624031304180863
LBP03_S09,LBP03,-1546,105,9,104,-1546,1715756011.16,2024-05-15 06:53:31.160000+00:00,2024-05-15 15:53:31.160000+09:00,2024,5,15,6,53,31,160,,,,,,,,,0.205078,0.062744,0.426025,-19.287109,-170.471191,-114.379883,,,,,,,,,,,0.0,1.0,1.0,9.0,0.0,0.0,0.0,4.0,0.0,0.10510413333333335,-0.18502281333333334,0.9791634666666666,-6.6560872533333315,-5.052897146666666,1.442057306666667,22.73658718534236,-18.178953784835084,1.3803246719401,25.861550443716787,-17.652685686805437,20.133424591389026,37.22622582383556,-1.0491040982164697,37.38930762558921,-1.0850733616394383,0.09997386666666666,0.24776681333333334,-0.5531384666666667,0.9008791466666667,0.6142844057209904,0.7584519184674008,0.8036711785271909,0.8587543256431289
LBP03_S09,LBP03,-1545,106,9,105,-1545,1715756011.2,2024-05-15 06:53:31.200000+00:00,2024-05-15 15:53:31.200000+09:00,2024,5,15,6,53,31,200,,,,,,,,,0.823975,0.188721,1.274414,21.911621,-32.287598,-9.643555,,,,,,,,,,,0.0,1.0,1.0,9.0,0.0,0.0,0.0,4.0,0.0,0.10091468,-0.1983008,0.9969499199999999,-8.285319026666665,-9.084472666666667,2.4593099066666673,28.75200684649361,-16.74268620392262,2.3309403959456856,27.01163071757653,-18.322393134962343,20.226662207226855,38.39864773999338,-1.0942504131513136,38.3927124501158,-1.0915461733060912,0.72306032,0.38702179999999997,0.27746408,1.3875462,0.8657877428815846,0.7630412946347832,0.8046331361686143,0.8588562592262949
LBP03_S09,LBP03,-1544,107,9,106,-1544,1715756011.24,2024-05-15 06:53:31.240000+00:00,2024-05-15 15:53:31.240000+09:00,2024,5,15,6,53,31,240,,,,,,,,,0.111572,-0.447021,1.648682,-130.554199,114.013672,117.370605,,,,,,,,,,,0.0,1.0,1.0,9.0,0.0,0.0,0.0,4.0,0.0,0.10896156,-0.20087566666666667,1.0164648933333333,-5.139973973333332,-7.795410173333333,4.181315120000001,33.50440366566488,-14.332536535848618,4.604711127886261,28.351806864203127,-18.89569459639629,20.410850652342305,39.71744013777295,-1.0681267507186052,39.492865167096056,-1.088845916998781,0.0026104400000000055,-0.24614533333333333,0.6322171066666666,0.88097288,0.6784488259852343,0.7827172249945705,0.8052501112496734,0.8562790101799941
LBP03_S09,LBP03,-1543,108,9,107,-1543,1715756011.28,2024-05-15 06:53:31.280000+00:00,2024-05-15 15:53:31.280000+09:00,2024,5,15,6,53,31,280,,,,,,,,,-0.483154,-0.741211,1.820801,-53.283691,-100.036621,8.605957,,,,,,,,,,,0.0,1.0,1.0,9.0,0.0,0.0,0.0,4.0,0.0,0.10574541333333333,-0.20006186666666667,1.0191309066666665,-2.9492187599999986,-3.1347656400000004,4.576009133333334,36.456832234925976,-11.509604093961036,7.933731382352262,29.810080153600165,-19.35607876015473,20.728199907636395,41.14555790294156,-1.078939751910611,40.64884134891537,-1.0842643269612537,-0.5888994133333333,-0.5411491333333333,0.8016700933333334,1.93171864,1.1323956208308283,0.7706750039409382,0.8173124797964212,0.8601679765271889
LBP03_S09,LBP03,-1542,109,9,108,-1542,1715756011.32,2024-05-15 06:53:31.320000+00:00,2024-05-15 15:53:31.320000+09:00,2024,5,15,6,53,31,320,,,,,,,,,0.248291,-0.843994,1.787354,-18.798828,-96.618652,25.45166,,,,,,,,,,,0.0,1.0,1.0,9.0,0.0,0.0,0.0,4.0,0.0,0.08915361333333334,-0.19460938666666666,1.0045638533333334,0.040690093333334974,-3.3732096533333333,3.3227539200000007,36.70930202043408,-9.06445175497244,11.865535104612249,31.27845223441753,-19.718656830353627,21.202821311820884,42.623076296238835,-1.1356981380780158,41.80717651699179,-1.086993998218299,0.15913738666666666,-0.6493846133333334,0.7827901466666667,1.5913121466666666,1.029458837247804,0.7888245191409125,0.8033785299354288,0.8625192384816419
LBP03_S09,LBP03,-1541,110,9,109,-1541,1715756011.36,2024-05-15 06:53:31.360000+00:00,2024-05-15 15:53:31.360000+09:00,2024,5,15,6,53,31,360,,,,,,,,,0.240723,-0.238525,0.603516,206.176758,245.727539,26.733398,,,,,,,,,,,0.0,1.0,1.0,9.0,0.0,0.0,0.0,4.0,0.0,0.09110349333333334,-0.19410484,0.994349,0.18554686666666834,-6.788737000000001,0.9033203200000003,33.19383149919386,-7.717672038060695,15.922393019600115,32.606205494385286,-20.027363711876056,21.839717032604888,44.059427754501115,-1.126356007049101,42.91041874716306,-1.0900187537336747,0.14961950666666665,-0.044420159999999986,-0.390833,0.5848726666666666,0.42084389181572096,0.7881862227457961,0.8024197640475432,0.8564688912670403
LBP03_S09,LBP03,-1540,111,9,110,-1540,1715756011.4,2024-05-15 06:53:31.400000+00:00,2024-05-15 15:53:31.400000+09:00,2024,5,15,6,53,31,400,,,,,,,,,-0.642822,0.326416,-0.176514,158.691406,-47.485352,-37.780762,,,,,,,,,,,0.0,1.0,1.0,9.0,0.0,0.0,0.0,4.0,0.0,0.10409504000000001,-0.18566409333333334,0.9871517333333334,1.3671874933333352,-5.8097330933333335,-0.12125649333333285,25.19655467357359,-7.851443464137663,19.66579840751382,33.61406768132823,-20.341421450441562,22.62634896890544,45.33906307338174,-1.0547317437913137,43.90570062357139,-1.0979168292167798,-0.74691704,0.5120800933333334,-1.1636657333333333,2.4226628666666667,1.474526712394469,0.8166254506831652,0.8199401233829516,0.8648210239849785
LBP03_S09,LBP03,-1539,112,9,111,-1539,1715756011.44,2024-05-15 06:53:31.440000+00:00,2024-05-15 15:53:31.440000+09:00,2024,5,15,6,53,31,440,,,,,,,,,0.571045,0.183838,0.811768,-19.165039,-182.556152,-37.597656,,,,,,,,,,,0.0,1.0,1.0,9.0,0.0,0.0,0.0,4.0,0.0,0.10035480000000001,-0.18409833333333334,0.9874870266666667,-0.8626302133333315,-3.815918,1.2923177333333338,12.883894814340243,-9.382326171098898,22.700011550975425,34.12942347390184,-20.71671449728552,23.534349430944456,46.34506887858467,-1.0666749466495251,44.75086361761807,-1.1060620938054684,0.4706902,0.3679363333333333,-0.1757190266666666,1.01434556,0.622738778377819,0.8077516158323236,0.7969235820783693,0.8615932607102162
LBP03_S09,LBP03,-1538,113,9,112,-1538,1715756011.48,2024-05-15 06:53:31.480000+00:00,2024-05-15 15:53:31.480000+09:00,2024,5,15,6,53,31,480,,,,,,,,,0.289551,-0.470459,1.493652,-33.02002,75.439453,47.241211,,,,,,,,,,,0.0,1.0,1.0,9.0,0.0,0.0,0.0,4.0,0.0,0.08860676,-0.19478193333333335,0.9953418533333334,-1.2451171999999981,-6.451009146666667,1.2207031466666671,-2.4989328226146883,-11.80969862340731,24.695215674296055,34.02946616099725,-21.189102442221813,24.522158057916297,46.9927533277936,-1.138251164839045,45.416823735417076,-1.117556079033153,0.20094424,-0.2756770666666667,0.4983101466666666,0.9749314533333333,0.6038952185156545,0.7988619852998837,0.7929264544922987,0.8596247242887072
LBP03_S09,LBP03,-1537,114,9,113,-1537,1715756011.52,2024-05-15 06:53:31.520000+00:00,2024-05-15 15:53:31.520000+09:00,2024,5,15,6,53,31,520,,,,,,,,,-0.113525,0.014404,1.623291,-91.308594,55.358887,130.249023,,,,,,,,,,,0.0,1.0,1.0,9.0,0.0,0.0,0.0,4.0,0.0,0.105944,-0.20507165333333333,1.0225488800000002,-3.2788086133333314,-10.890299520000001,3.2722982000000003,-18.872945007223176,-14.378479395615097,25.469405538043514,33.27454836070832,-21.764241618046416,25.540934279438037,47.25692653658714,-1.0880545229327478,45.88657849012749,-1.121166433394173,-0.219469,0.21947565333333333,0.6007421199999998,1.039686773333333,0.6761858465756199,0.8026656683386636,0.7942531410199081,0.8478870605430915
LBP03_S09,LBP03,-1536,115,9,114,-1536,1715756011.56,2024-05-15 06:53:31.560000+00:00,2024-05-15 15:53:31.560000+09:00,2024,5,15,6,53,31,560,,,,,,,,,-0.223145,-0.868896,2.067383,-44.067383,-152.46582,38.513184,,,,,,,,,,,0.0,1.0,1.0,9.0,0.0,0.0,0.0,4.0,0.0,0.09472005333333333,-0.20287438666666666,1.0127148933333334,1.0546874800000023,-3.475748733333334,3.7849935066666665,-33.87752948288736,-16.26542505755786,25.07726315997515,31.91944718139283,-22.41485862034873,26.544024805837044,47.17904458791891,-1.1280848530475194,46.152765109247454,-1.1170720337863302,-0.31786505333333337,-0.6660216133333333,1.0546681066666665,2.0385547733333333,1.2872248431325393,0.8080516687212796,0.8074015864169768,0.8532397167539435
LBP03_S09,LBP03,-1535,116,9,115,-1535,1715756011.6,2024-05-15 06:53:31.600000+00:00,2024-05-15 15:53:31.600000+09:00,2024,5,15,6,53,31,600,,,,,,,,,0.477783,-0.004395,1.569092,40.588379,-3.540039,25.878906,,,,,,,,,,,0.0,1.0,1.0,9.0,0.0,0.0,0.0,4.0,0.0,0.07996093333333333,-0.19474938666666666,0.9956803866666667,1.9311523200000023,-5.070800813333333,3.0574544400000008,-45.48356744447392,-16.741206447628784,23.802905357658226,30.100104483613872,-23.084506878253883,27.496141020143373,46.85027768046027,-1.175703059038201,46.21593003529048,-1.1197207717061766,0.3978220666666667,0.19035438666666665,0.5734116133333332,1.1615880666666665,0.7233934389775156,0.8144673962886577,0.8010585720920499,0.8441174492937559
LBP03_S09,LBP03,-1534,117,9,116,-1534,1715756011.64,2024-05-15 06:53:31.640000+00:00,2024-05-15 15:53:31.640000+09:00,2024,5,15,6,53,31,640,,,,,,,,,-0.538574,0.187012,-0.019775,-70.739746,230.163574,-54.80957,,,,,,,,,,,0.0,1.0,1.0,9.0,0.0,0.0,0.0,4.0,0.0,0.08047200000000002,-0.20041996,0.98355148,1.8090820133333356,-8.584798213333334,1.5950520933333339,-52.4693141005894,-15.304232706589337,22.007722312276996,28.001331919590296,-23.696676186517458,28.376449912634452,46.37704131576293,-1.1830666029954495,46.084357525884634,-1.1241549639468755,-0.619046,0.38743196,-1.0033264800000001,2.00980444,1.2409615220524093,0.8440785255794748,0.8171501204152131,0.8464010513218196
LBP03_S09,LBP03,-1533,118,9,117,-1533,1715756011.68,2024-05-15 06:53:31.680000+00:00,2024-05-15 15:53:31.680000+09:00,2024,5,15,6,53,31,680,,,,,,,,,0.022217,-0.749756,0.539307,-279.052734,-258.239746,-41.748047,,,,,,,,,,,0.0,1.0,1.0,9.0,0.0,0.0,0.0,4.0,0.0,0.09434894666666667,-0.19540042666666668,0.9743555199999999,5.122884106666668,-8.034668013333333,1.4404296933333336,-54.65463040755198,-11.795134330653118,19.90907665071369,25.815146703288217,-24.168481559743583,29.172812978663,45.84310545004566,-1.1150432955208125,45.77460184548521,-1.1314274266345783,-0.07213194666666667,-0.5543555733333333,-0.43504851999999994,1.06153604,0.7083645489222635,0.8465692981504123,0.8160544884485509,0.8472098576775015
LBP03_S09,LBP03,-1532,119,9,118,-1532,1715756011.72,2024-05-15 06:53:31.720000+00:00,2024-05-15 15:53:31.720000+09:00,2024,5,15,6,53,31,720,,,,,,,,,0.726562,-0.602295,1.054199,101.68457,-60.180664,-1.708984,,,,,,,,,,,0.0,1.0,1.0,9.0,0.0,0.0,0.0,4.0,0.0,0.09373370666666668,-0.18418297333333333,0.9712468,4.300130200000003,-6.43717452,3.0330403733333338,-52.84732000621105,-6.482376360288883,17.447841199312702,23.701253903039774,-24.42777661415514,29.87072662663551,45.28494248743852,-1.094754141999587,45.31128313409909,-1.1358799971822644,0.6328282933333333,-0.4181120266666667,0.08295220000000014,1.1338925200000003,0.7630009064026902,0.8228778719756669,0.8101981936323445,0.8494289432637168
LBP03_S09,LBP03,-1531,120,9,119,-1531,1715756011.76,2024-05-15 06:53:31.760000+00:00,2024-05-15 15:53:31.760000+09:00,2024,5,15,6,53,31,760,,,,,,,,,0.393555,0.418213,1.204102,36.682129,103.69873,75.439453,,,,,,,,,,,0.0,1.0,1.0,9.0,0.0,0.0,0.0,4.0,0.0,0.08490882666666667,-0.19415042666666668,0.98377284,1.544596346666669,-10.431315146666666,3.537597666666667,-48.50886815076578,-0.06614061708005742,14.36179243696668,21.760899177009144,-24.430422238838343,30.445198324114177,44.691077014931395,-1.1528433862475653,44.72541307621735,-1.1465052847362356,0.30864617333333333,0.6123634266666667,0.22032916000000002,1.14133876,0.7202752011408956,0.8298179045037649,0.8119656876841099,0.8423519794158638
LBP03_S09,LBP03,-1530,121,9,120,-1530,1715756011.8,2024-05-15 06:53:31.800000+00:00,2024-05-15 15:53:31.800000+09:00,2024,5,15,6,53,31,800,,,,,,,,,0.01123,-0.304932,1.717773,-152.160645,46.447754,66.894531,,,,,,,,,,,0.0,1.0,1.0,9.0,0.0,0.0,0.0,4.0,0.0,0.09905270666666667,-0.19690433333333335,1.0055339200000002,-0.09684245333333129,-10.264485720000001,5.4964192800000005,-43.24171279792172,6.458413052252736,10.440824856235395,20.031230665092274,-24.172085716748235,30.862831318363593,44.023337979323216,-1.0990736661983018,44.051534715401004,-1.1481388184588475,-0.08782270666666667,-0.10802766666666663,0.7122390799999998,0.9080894533333331,0.7257184796124113,0.8003112986006493,0.8135309966853244,0.8370992450397089
LBP03_S09,LBP03,-1529,122,9,121,-1529,1715756011.84,2024-05-15 06:53:31.840000+00:00,2024-05-15 15:53:31.840000+09:00,2024,5,15,6,53,31,840,,,,,,,,,0.013672,-0.683838,1.959229,32.287598,-90.332031,41.748047,,,,,,,,,,,0.0,1.0,1.0,9.0,0.0,0.0,0.0,4.0,0.0,0.08865557333333333,-0.19547854666666667,0.9997591866666666,0.40934245333333535,-4.1772461466666675,6.431477880000001,-38.280195949301884,12.061104658505547,5.803539760763583,18.500022827120198,-23.689641530408014,31.094972908794137,43.2475120745904,-1.139399573526553,43.32456786771272,-1.1445363717806425,-0.07498357333333333,-0.4883594533333333,0.9594698133333335,1.52281284,1.079212590098804,0.8087140693344073,0.8230527108889008,0.8406660980745587
LBP03_S09,LBP03,-1528,123,9,122,-1528,1715756011.88,2024-05-15 06:53:31.880000+00:00,2024-05-15 15:53:31.880000+09:00,2024,5,15,6,53,31,880,,,,,,,,,0.327393,-0.388184,1.335205,-39.611816,71.350098,24.719238,,,,,,,,,,,0.0,1.0,1.0,9.0,0.0,0.0,0.0,4.0,0.0,0.07972978666666666,-0.19829104,0.99042976,-1.4908854133333314,-6.596679733333333,5.925292986666666,-34.15416373953976,15.956562817297629,1.0044990448030224,17.13385627753861,-23.05137901771611,31.135152870586257,42.359566213932446,-1.182776870315908,42.577412875943175,-1.1439227863551493,0.24766321333333333,-0.18989295999999997,0.3447752399999999,0.7823314133333332,0.46504448132755144,0.8015789022547442,0.8065046170601434,0.8239278675067448
LBP03_S09,LBP03,-1527,124,9,123,-1527,1715756011.92,2024-05-15 06:53:31.920000+00:00,2024-05-15 15:53:31.920000+09:00,2024,5,15,6,53,31,920,,,,,,,,,-0.435303,0.015625,0.006836,48.522949,215.148926,-49.743652,,,,,,,,,,,0.0,1.0,1.0,9.0,0.0,0.0,0.0,4.0,0.0,0.07937172,-0.20442710666666666,0.9785873066666666,-1.2727864666666648,-8.414713586666666,3.9648437600000004,-30.615124730651175,17.78822070542475,-3.120828655821044,15.90925128831256,-22.339850189499117,31.010319724353415,41.39822595776975,-1.1943073984724584,41.84010664887457,-1.1451720002411938,-0.51467472,0.22005210666666666,-0.9717513066666666,1.7064781333333334,1.121433724775517,0.8195045980460575,0.8154464247340647,0.8271562445855387
LBP03_S09,LBP03,-1526,125,9,124,-1526,1715756011.96,2024-05-15 06:53:31.960000+00:00,2024-05-15 15:53:31.960000+09:00,2024,5,15,6,53,31,960,,,,,,,,,0.232666,0.110107,0.194824,-61.340332,-222.106934,-79.956055,,,,,,,,,,,0.0,1.0,1.0,9.0,0.0,0.0,0.0,4.0,0.0,0.08991208,-0.20130536000000002,0.9682357333333332,1.4217122400000017,-8.108723999999999,2.9695638,-26.83824270951409,17.648684675916357,-5.805946663169097,14.835721579931997,-21.633902802462462,30.778081857826653,40.44026097975545,-1.1444201902736388,41.14051687727607,-1.1535967657955433,0.14275392,0.31141236,-0.7734117333333332,1.2275780133333334,0.845885363919844,0.8384278695065318,0.821332254591379,0.8310032692229873
LBP03_S09,LBP03,-1525,126,9,125,-1525,1715756012.0,2024-05-15 06:53:32+00:00,2024-05-15 15:53:32+09:00,2024,5,15,6,53,32,0,6.0,53.0,32.0,40.533581,141.468994,5.402,3.0,15.0,0.457764,-0.327393,0.735107,-104.858398,10.192871,-58.044434,-289.0,59.0,352.0,2785.0,0.0,1022.200012,31.4,0.09117,-74.206306,3.754688,0.0,1.0,1.0,9.0,0.0,0.0,0.0,4.0,0.0,0.08700842666666668,-0.19208661333333335,0.9657422533333334,0.6559244800000019,-7.1289062933333325,3.352050773333333,-21.841882105174957,15.944336112553783,-6.706823523004947,13.962046295725,-20.99612935796031,30.509808916906454,39.580609203577396,-1.1396785922561494,40.505513451104704,-1.1573306241775254,0.3707555733333333,-0.13530638666666664,-0.23063525333333346,0.7366972133333334,0.45712157410326754,0.8125065377908421,0.792717494052777,0.82976683520138
LBP03_S09,LBP03,-1524,127,9,126,-1524,1715756012.04,2024-05-15 06:53:32.040000+00:00,2024-05-15 15:53:32.040000+09:00,2024,5,15,6,53,32,40,,,,,,,,,0.491943,-0.184326,1.327393,57.556152,48.522949,-16.540527,,,,,,,,,,,0.0,1.0,1.0,9.0,0.0,0.0,0.0,4.0,0.0,0.08485348000000001,-0.20789065333333334,0.9873991600000002,-1.5869140666666648,-11.49576828,3.6580403599999998,-14.986527598586019,13.194527039278064,-6.056178155129792,13.362585191781559,-20.468348276389186,30.26756179070126,38.90549139806748,-1.1769307487405187,39.96114639808685,-1.1652940933368356,0.40708952,0.023564653333333352,0.3399938399999999,0.7706480133333332,0.5309171135106647,0.8203618285486647,0.7919928319287977,0.8167871911452514
LBP03_S09,LBP03,-1523,128,9,127,-1523,1715756012.08,2024-05-15 06:53:32.080000+00:00,2024-05-15 15:53:32.080000+09:00,2024,5,15,6,53,32,80,,,,,,,,,0.017334,0.325684,1.251465,-87.158203,99.182129,106.262207,,,,,,,,,,,0.0,1.0,1.0,9.0,0.0,0.0,0.0,4.0,0.0,0.09776364000000001,-0.20937177333333334,1.0018718133333333,-2.207845066666665,-10.383300826666668,6.02945964,-6.364531949845664,9.879500288694683,-4.528668156729403,13.108003913787732,-20.0731682648414,30.086415064432085,38.47004317935966,-1.127535434381259,39.53107134050934,-1.1612396762194646,-0.08042964000000001,0.5350557733333333,0.24959318666666674,0.8650786,0.5958610294341143,0.8269273188708547,0.795015594996332,0.814283778384937
LBP03_S09,LBP03,-1522,129,9,128,-1522,1715756012.12,2024-05-15 06:53:32.120000+00:00,2024-05-15 15:53:32.120000+09:00,2024,5,15,6,53,32,120,,,,,,,,,-0.590088,-1.201172,1.871094,-108.825684,-81.542969,-10.070801,,,,,,,,,,,0.0,1.0,1.0,9.0,0.0,0.0,0.0,4.0,0.0,0.08736325333333333,-0.2155436533333333,0.9932780666666665,-0.2213541866666651,-5.2164714000000005,7.472330733333333,3.087897661648838,6.381938942042616,-2.8986396841802846,13.231519820253686,-19.817890707159695,29.970469477064874,38.2890447714535,-1.179001797543081,39.23371420726036,-1.1560943200461697,-0.6774512533333332,-0.9856283466666667,0.8778159333333335,2.5408955333333334,1.483564710826475,0.8346618163433075,0.8097916700753022,0.8243818856456212
LBP03_S09,LBP03,-1521,130,9,129,-1521,1715756012.16,2024-05-15 06:53:32.160000+00:00,2024-05-15 15:53:32.160000+09:00,2024,5,15,6,53,32,160,,,,,,,,,0.59082,-0.080078,1.298828,38.085938,-60.72998,63.476562,,,,,,,,,,,0.0,1.0,1.0,9.0,0.0,0.0,0.0,4.0,0.0,0.08052405333333335,-0.20497073333333332,0.97201504,3.210449200000002,-6.389974013333334,6.26790364,11.838760998850542,2.9867728501308113,-1.6911440143625622,13.705070260207707,-19.69841979315446,29.90282371649037,38.34104275321771,-1.1901819700673864,39.07943463570411,-1.149623696065597,0.5102959466666667,0.12489273333333333,0.32681296000000004,0.96200164,0.6187138747820856,0.8348389951057513,0.7966454567865762,0.8140604507200444
LBP03_S09,LBP03,-1520,131,9,130,-1520,1715756012.2,2024-05-15 06:53:32.200000+00:00,2024-05-15 15:53:32.200000+09:00,2024,5,15,6,53,32,200,,,,,,,,,-0.327637,-0.280273,0.135986,131.04248,230.163574,11.84082,,,,,,,,,,,0.0,1.0,1.0,9.0,0.0,0.0,0.0,4.0,0.0,0.08255856,-0.20332033333333335,0.9622591733333333,5.4484049200000015,-8.0216472,3.620605466666667,18.313827875195532,-0.10875389165490257,-1.0174182715133642,14.437623375215528,-19.702769948820656,29.862126985629835,38.579667449144786,-1.1787083577914046,39.06882582380858,-1.1464814637300955,-0.41019556,-0.07695266666666664,-0.8262731733333333,1.3134214,0.9256940462815785,0.8372352472417512,0.8001382709382671,0.8155005065263266
LBP03_S09,LBP03,-1519,132,9,131,-1519,1715756012.24,2024-05-15 06:53:32.240000+00:00,2024-05-15 15:53:32.240000+09:00,2024,5,15,6,53,32,240,,,,,,,,,-0.016357,0.395264,-0.009521,168.395996,-159.301758,-90.820312,,,,,,,,,,,0.0,1.0,1.0,9.0,0.0,0.0,0.0,4.0,0.0,0.09567054666666668,-0.19014325333333332,0.9590527866666666,6.6259765333333345,-6.779785213333333,3.4920247333333325,21.538762965216026,-2.7977124947914214,-0.6627556656168393,15.29917389382417,-19.814678448612312,29.835616759005163,38.946761498815306,-1.0988554023528425,39.19268784257368,-1.1475757630621037,-0.11202754666666667,0.5854072533333333,-0.9685737866666666,1.6660085866666665,1.1372717369587777,0.8555881636806929,0.8191526943376317,0.8220294620600131
LBP03_S09,LBP03,-1518,133,9,132,-1518,1715756012.28,2024-05-15 06:53:32.280000+00:00,2024-05-15 15:53:32.280000+09:00,2024,5,15,6,53,32,280,,,,,,,,,0.292236,0.17749,0.499512,15.075684,-54.504395,-46.813965,,,,,,,,,,,0.0,1.0,1.0,9.0,0.0,0.0,0.0,4.0,0.0,0.08740557333333333,-0.1886654,0.9645150266666667,4.336751280000001,-4.877115946666666,4.33512368,21.554068850221302,-5.080475538636428,-0.3404661589693239,16.16133664783302,-20.01789747015777,29.82199811264639,39.38599488144262,-1.1313233085829582,39.43363173739645,-1.1472169441981916,0.20483042666666668,0.3661554,-0.46500302666666665,1.0359888533333335,0.6263011220226014,0.8353443837283637,0.803009693834651,0.8233231144404021
LBP03_S09,LBP03,-1517,134,9,133,-1517,1715756012.32,2024-05-15 06:53:32.320000+00:00,2024-05-15 15:53:32.320000+09:00,2024,5,15,6,53,32,320,,,,,,,,,0.560303,-0.388428,1.187256,-25.634766,-7.507324,-30.578613,,,,,,,,,,,0.0,1.0,1.0,9.0,0.0,0.0,0.0,4.0,0.0,0.09404294666666667,-0.20231448,0.9950749200000001,2.1183268133333346,-9.639485733333334,5.152994773333333,19.365169238257938,-7.069186189799988,0.0673016501291507,16.93594341736334,-20.30066491774977,29.824690178651558,39.85543024220719,-1.129601158666732,39.76880254332141,-1.1488880446080822,0.4662600533333333,-0.18611352,0.19218108,0.8445546533333333,0.5375595289557796,0.8156684113966827,0.8022464652687976,0.8074751570891802
LBP03_S09,LBP03,-1516,135,9,134,-1516,1715756012.36,2024-05-15 06:53:32.360000+00:00,2024-05-15 15:53:32.360000+09:00,2024,5,15,6,53,32,360,,,,,,,,,-0.11499,0.011719,1.459229,-73.669434,126.037598,49.560547,,,,,,,,,,,0.0,1.0,1.0,9.0,0.0,0.0,0.0,4.0,0.0,0.10060545333333333,-0.20743817333333334,1.00770512,1.5120442533333347,-7.419433653333334,7.4772135199999985,16.440134641076355,-8.937309035539396,0.4361445567659996,17.593548803006396,-20.658157279171345,29.8421359609222,40.33417286080023,-1.1129978669186236,40.17289451240333,-1.1395642324789905,-0.21559545333333333,0.21915717333333334,0.4515238800000001,0.8862765066666668,0.5462463549825451,0.8206845099233557,0.804435366334576,0.808508012672814
LBP03_S09,LBP03,-1515,136,9,135,-1515,1715756012.4,2024-05-15 06:53:32.400000+00:00,2024-05-15 15:53:32.400000+09:00,2024,5,15,6,53,32,400,,,,,,,,,-0.209473,-0.499512,1.825439,-88.134766,-80.383301,46.203613,,,,,,,,,,,0.0,1.0,1.0,9.0,0.0,0.0,0.0,4.0,0.0,0.09318684,-0.21231773333333334,0.9979720533333333,4.5157877466666685,-2.3551432799999996,8.547363253333334,14.03019569472427,-10.81394141909693,0.5204600414025436,18.154756630795365,-21.09071493593522,29.8629543625783,40.81922939122839,-1.150621585576232,40.62073243861679,-1.1285884671071686,-0.30265984,-0.2871942666666667,0.8274669466666668,1.4173210533333336,0.926706573506893,0.7987717043678528,0.8076985775255089,0.8128839837112519
LBP03_S09,LBP03,-1514,137,9,136,-1514,1715756012.44,2024-05-15 06:53:32.440000+00:00,2024-05-15 15:53:32.440000+09:00,2024,5,15,6,53,32,440,,,,,,,,,0.382324,-0.376465,1.365723,-67.749023,-98.999023,47.119141,,,,,,,,,,,0.0,1.0,1.0,9.0,0.0,0.0,0.0,4.0,0.0,0.08285806666666667,-0.20075197333333333,0.9811621466666666,6.417643213333334,-4.00797532,8.152669253333334,12.684215454741835,-12.684175316757667,0.1571027165138693,18.66212524898504,-21.59808194860553,29.869238471238855,41.31493034629516,-1.173342560101398,41.08915931272236,-1.1236958185344608,0.2994659333333333,-0.17571302666666666,0.38456085333333345,0.8597398133333334,0.5181138512759785,0.7945867072837791,0.8011691615580513,0.7961446238135058
LBP03_S09,LBP03,-1513,138,9,137,-1513,1715756012.48,2024-05-15 06:53:32.480000+00:00,2024-05-15 15:53:32.480000+09:00,2024,5,15,6,53,32,480,,,,,,,,,0.161865,-0.359131,0.609375,113.769531,190.307617,26.062012,,,,,,,,,,,0.0,1.0,1.0,9.0,0.0,0.0,0.0,4.0,0.0,0.09050129333333333,-0.20252606666666667,0.97472008,6.857096346666667,-7.401529999999999,6.233723933333334,12.197566350141285,-14.36203642913625,-0.6106883012810316,19.15002790299069,-22.17256340577098,29.844810939187614,41.82175123860919,-1.1442464384801638,41.55826259821163,-1.124050800653354,0.07136370666666668,-0.1566049333333333,-0.36534508,0.59331372,0.40385010988453407,0.7865849029385342,0.792723444119209,0.7908126039743771
LBP03_S09,LBP03,-1512,139,9,138,-1512,1715756012.52,2024-05-15 06:53:32.520000+00:00,2024-05-15 15:53:32.520000+09:00,2024,5,15,6,53,32,520,,,,,,,,,-0.391113,0.433838,-0.10498,275.695801,-74.523926,-75.195312,,,,,,,,,,,0.0,1.0,1.0,9.0,0.0,0.0,0.0,4.0,0.0,0.10055012,-0.19352541333333334,0.9674935200000001,8.286132800000003,-5.756022186666667,6.415201786666667,11.959753018401964,-15.559392913785658,-1.5810503386558248,19.62841802372677,-22.794939122322408,29.78156892564138,42.32996446227276,-1.0857636762521656,42.01189608484078,-1.1244174040114228,-0.49166312,0.6273634133333333,-1.0724735200000002,2.1915000533333338,1.3362323626744623,0.812986763582488,0.8078262159605759,0.8004976818741014
LBP03_S09,LBP03,-1511,140,9,139,-1511,1715756012.56,2024-05-15 06:53:32.560000+00:00,2024-05-15 15:53:32.560000+09:00,2024,5,15,6,53,32,560,,,,,,,,,0.391602,0.371338,0.369141,-52.856445,-142.822266,-101.623535,,,,,,,,,,,0.0,1.0,1.0,9.0,0.0,0.0,0.0,4.0,0.0,0.10127277333333334,-0.19232749333333332,0.9731575866666666,6.926269520000001,-4.400227906666666,7.6969400666666665,11.420016465809598,-16.028458782254173,-2.5666980173464795,20.085218682359155,-23.436077473612574,29.678901004947523,42.81942201535227,-1.0804243163491651,42.43751939391194,-1.1316957052743937,0.29032922666666666,0.5636654933333334,-0.6040165866666667,1.4580113066666667,0.8756973707851506,0.7965256646885923,0.802288666704936,0.803776279174182
LBP03_S09,LBP03,-1510,141,9,140,-1510,1715756012.6,2024-05-15 06:53:32.600000+00:00,2024-05-15 15:53:32.600000+09:00,2024,5,15,6,53,32,600,,,,,,,,,0.570312,-0.661865,1.201904,-119.384766,-59.204102,-24.719238,,,,,,,,,,,0.0,1.0,1.0,9.0,0.0,0.0,0.0,4.0,0.0,0.09302733333333335,-0.20016929333333336,0.9933008266666667,3.8492838400000013,-6.6276041999999995,8.130696573333333,10.35592322906515,-15.707522647963497,-3.5425235715183763,20.49945561152176,-24.064378379531114,29.53720006208679,43.26393619020044,-1.1297818720643273,42.82585351336296,-1.136608898291935,0.4772846666666667,-0.4616957066666667,0.20860317333333334,1.1475835466666666,0.6960451583872131,0.7954317334649804,0.804949564876819,0.7991829592163601
LBP03_S09,LBP03,-1509,142,9,141,-1509,1715756012.64,2024-05-15 06:53:32.640000+00:00,2024-05-15 15:53:32.640000+09:00,2024,5,15,6,53,32,640,,,,,,,,,0.181396,0.097656,1.251709,33.630371,134.155273,112.731934,,,,,,,,,,,0.0,1.0,1.0,9.0,0.0,0.0,0.0,4.0,0.0,0.10414386666666667,-0.20905601333333332,1.01629236,1.2532552000000015,-6.927897173333332,9.532877560000001,8.836487588348659,-14.76981571279937,-4.631847329504537,20.85291511505571,-24.655171008043087,29.35192616890661,43.637794353708024,-1.1024052235417738,43.17117987028304,-1.1319423281513157,0.07725213333333333,0.3067120133333333,0.23541663999999995,0.6193807866666666,0.3942856142651257,0.7615646971534891,0.8028216113664819,0.7986216459946384
LBP03_S09,LBP03,-1508,143,9,142,-1508,1715756012.68,2024-05-15 06:53:32.680000+00:00,2024-05-15 15:53:32.680000+09:00,2024,5,15,6,53,32,680,,,,,,,,,-0.539551,-0.838867,1.686279,-142.51709,-55.541992,17.211914,,,,,,,,,,,0.0,1.0,1.0,9.0,0.0,0.0,0.0,4.0,0.0,0.09879556,-0.2158789333333333,1.0157031733333335,2.781575506666668,-1.12223312,10.98307288,7.032143673994027,-13.525925886410812,-5.9298176477379325,21.13420086201547,-25.19620804349952,29.11473346299709,43.9223297477341,-1.1349893421636466,43.472709949126134,-1.1244652418467305,-0.63834656,-0.6229880666666667,0.6705758266666666,1.9319104533333333,1.1159177394335964,0.7778668247739422,0.8122180614621771,0.8033252672236814
LBP03_S09,LBP03,-1507,144,9,143,-1507,1715756012.72,2024-05-15 06:53:32.720000+00:00,2024-05-15 15:53:32.720000+09:00,2024,5,15,6,53,32,720,,,,,,,,,0.314209,-0.363525,1.424805,40.161133,-78.430176,25.695801,,,,,,,,,,,0.0,1.0,1.0,9.0,0.0,0.0,0.0,4.0,0.0,0.08293617333333335,-0.21918297333333334,1.0004883333333334,2.609863266666668,-2.676595093333333,10.502115853333333,5.1114393048881475,-12.241130447533513,-7.305431419072008,21.338658434210995,-25.68585326140086,28.82251620623421,44.11166333291882,-1.2023841712964394,43.736569889868946,-1.1222450723108255,0.23127282666666665,-0.14434202666666665,0.4243166666666667,0.79993152,0.5043474740967202,0.7675206874817035,0.7951992797286852,0.7959723582487974
LBP03_S09,LBP03,-1506,145,9,144,-1506,1715756012.76,2024-05-15 06:53:32.760000+00:00,2024-05-15 15:53:32.760000+09:00,2024,5,15,6,53,32,760,,,,,,,,,0.126465,-0.314209,0.593262,100.036621,202.453613,-5.79834,,,,,,,,,,,0.0,1.0,1.0,9.0,0.0,0.0,0.0,4.0,0.0,0.08911130666666667,-0.20951176,0.9868164533333333,7.006022120000001,-5.363769573333332,8.531901013333332,3.3323692690428848,-10.99319657225616,-8.349021501024307,21.47195320497271,-26.12558112429111,28.488555346193237,44.21751405531036,-1.1621297970940383,43.97729652012163,-1.1216439494826314,0.03735369333333333,-0.10469724000000002,-0.3935544533333334,0.5356053866666668,0.40895221995699843,0.7550677682343476,0.7924428363690563,0.7929997145341892
LBP03_S09,LBP03,-1505,146,9,145,-1505,1715756012.8,2024-05-15 06:53:32.800000+00:00,2024-05-15 15:53:32.800000+09:00,2024,5,15,6,53,32,800,,,,,,,,,-0.496094,0.202637,-0.168945,184.570312,-86.791992,-83.435059,,,,,,,,,,,0.0,1.0,1.0,9.0,0.0,0.0,0.0,4.0,0.0,0.09992510666666667,-0.20135746666666668,0.9808659333333333,7.201334613333335,-3.7906901466666665,9.4645182,2.218012399045514,-9.666056256640777,-8.52139300697228,21.56067370093453,-26.51222337455674,28.147699625914345,44.27249296042929,-1.103955884170039,44.21764789237004,-1.126984379102773,-0.5960191066666667,0.4039944666666667,-1.1498109333333333,2.1498245066666666,1.3566559943559335,0.7803052688240885,0.7903082837123689,0.8024557540649124
LBP03_S09,LBP03,-1504,147,9,146,-1504,1715756012.84,2024-05-15 06:53:32.840000+00:00,2024-05-15 15:53:32.840000+09:00,2024,5,15,6,53,32,840,,,,,,,,,0.471436,0.30957,0.499023,-19.958496,-178.466797,-85.876465,,,,,,,,,,,0.0,1.0,1.0,9.0,0.0,0.0,0.0,4.0,0.0,0.09722653333333335,-0.19305994666666665,0.9808301200000001,6.402994773333336,-1.3232422399999997,11.092936173333333,2.576637616188886,-8.088069510861589,-7.4101644702693115,21.663739205582086,-26.835746154991202,27.851293047103574,44.3302311347261,-1.0985716970555446,44.485834528948445,-1.127173224534189,0.37420946666666666,0.5026299466666666,-0.48180712000000014,1.3586465333333333,0.7904477775993691,0.768754676324111,0.7887343728292592,0.8049533660339708
LBP03_S09,LBP03,-1503,148,9,147,-1503,1715756012.88,2024-05-15 06:53:32.880000+00:00,2024-05-15 15:53:32.880000+09:00,2024,5,15,6,53,32,880,,,,,,,,,0.584473,-0.388428,1.301758,-123.474121,31.982422,-14.160156,,,,,,,,,,,0.0,1.0,1.0,9.0,0.0,0.0,0.0,4.0,0.0,0.09459632,-0.19944016,0.9989160533333334,3.100585920000001,-6.797688853333333,11.388346333333333,5.199785278793944,-6.225797412535759,-4.92271583585496,21.871730616733842,-27.084778051492634,27.654384413669376,44.4603506460373,-1.1220447431211147,44.8099545442126,-1.12770133604768,0.48987668,-0.18898784,0.30284194666666653,0.9817064666666665,0.6061425656861132,0.7743985996984535,0.7879887509765987,0.7958026112729134
LBP03_S09,LBP03,-1502,149,9,148,-1502,1715756012.92,2024-05-15 06:53:32.920000+00:00,2024-05-15 15:53:32.920000+09:00,2024,5,15,6,53,32,920,,,,,,,,,0.00708,0.074463,1.619385,-68.054199,127.868652,124.816895,,,,,,,,,,,0.0,1.0,1.0,9.0,0.0,0.0,0.0,4.0,0.0,0.10652014666666668,-0.20201502666666668,1.0125195733333334,0.3491210800000013,-4.524739626666666,12.656249986666667,10.318994800421907,-4.295962458017221,-1.297041628908903,22.284490408750717,-27.256616549813323,27.60250274851302,44.73723076479957,-1.0797524479702258,45.21064449303196,-1.1190844365154846,-0.09944014666666667,0.27647802666666665,0.6068654266666667,0.9827836,0.6742507605349048,0.7565112811288291,0.7880079395874431,0.7958013768656528
LBP03_S09,LBP03,-1501,150,9,149,-1501,1715756012.96,2024-05-15 06:53:32.960000+00:00,2024-05-15 15:53:32.960000+09:00,2024,5,15,6,53,32,960,,,,,,,,,-0.510986,-1.31543,1.909424,-67.138672,-119.384766,12.573242,,,,,,,,,,,0.0,1.0,1.0,9.0,0.0,0.0,0.0,4.0,0.0,0.09177730666666667,-0.19955409333333332,0.9954264666666668,1.6780598800000013,0.7210286000000008,12.391764306666667,17.136312434353023,-2.715257026109252,3.046369393924745,22.96994290612484,-27.365226830857694,27.72435752427001,45.222935737836345,-1.1338286125505799,45.694325372157515,-1.1059779559526621,-0.6027633066666667,-1.1158759066666668,0.9139975333333332,2.632636746666667,1.5632959201259073,0.7852077033770716,0.8118177864418017,0.8092907375199432
LBP03_S09,LBP03,-1500,151,9,150,-1500,1715756013.0,2024-05-15 06:53:33+00:00,2024-05-15 15:53:33+09:00,2024,5,15,6,53,33,0,6.0,53.0,33.0,40.533527,141.468872,5.508,3.0,15.0,0.497803,-0.337891,1.470459,-32.348633,-89.660645,41.809082,-285.0,60.0,349.0,2534.0,0.0,1022.0,31.459999,0.089188,-72.553726,3.754688,0.0,1.0,1.0,9.0,0.0,0.0,0.0,4.0,0.0,0.09164709333333333,-0.19819341333333335,0.9807682666666667,0.42643228000000133,-2.4169922266666655,11.687011706666665,23.769066118445227,-1.9213888372136967,7.671311362189314,23.92070555086265,-27.442082384346243,28.031209978757584,45.94580255598455,-1.1316703263784886,46.24980658826529,-1.0980485693331314,0.4061559066666667,-0.13969758666666665,0.48969073333333324,1.0355442266666666,0.6513639923677472,0.7929774001076508,0.8027419689492465,0.7928041294044016
LBP03_S09,LBP03,-1499,152,9,151,-1499,1715756013.04,2024-05-15 06:53:33.040000+00:00,2024-05-15 15:53:33.040000+09:00,2024,5,15,6,53,33,40,,,,,,,,,-0.396484,-0.166748,-0.21875,244.873047,302.734375,-40.222168,,,,,,,,,,,0.0,1.0,1.0,9.0,0.0,0.0,0.0,4.0,0.0,0.09777664,-0.19889978666666666,0.9672786800000001,1.5527343600000014,-4.2366536933333325,9.233398426666666,27.73530691657155,-2.1676401745855043,12.17975957564168,25.030117827525512,-27.52878799132966,28.51840036178325,46.87899450634949,-1.107686338676682,46.84984147658289,-1.094081493144236,-0.49426064000000003,0.032151786666666654,-1.1860286800000002,1.7124411066666667,1.2852981550681581,0.8231526417699506,0.8217572351593075,0.8023794352091819
LBP03_S09,LBP03,-1498,153,9,152,-1498,1715756013.08,2024-05-15 06:53:33.080000+00:00,2024-05-15 15:53:33.080000+09:00,2024,5,15,6,53,33,80,,,,,,,,,-0.575684,0.499512,-0.336426,106.811523,-66.772461,-54.260254,,,,,,,,,,,0.0,1.0,1.0,9.0,0.0,0.0,0.0,4.0,0.0,0.10727209333333335,-0.18892257333333334,0.95551436,1.3940429600000015,-2.271321666666666,9.010416653333333,26.79956989822813,-3.4007221038006747,16.144435393603697,26.102100623454636,-27.664816875481687,29.1641777775274,47.929229235927735,-1.0488203468416915,47.45722182405064,-1.0953504318168696,-0.6829560933333333,0.6884345733333334,-1.29194036,2.6633310266666665,1.6153888327516401,0.8639337539026515,0.845430536386753,0.8179883146317719
LBP03_S09,LBP03,-1497,154,9,153,-1497,1715756013.12,2024-05-15 06:53:33.120000+00:00,2024-05-15 15:53:33.120000+09:00,2024,5,15,6,53,33,120,,,,,,,,,0.435547,-0.14502,0.569092,-65.246582,-191.650391,-24.841309,,,,,,,,,,,0.0,1.0,1.0,9.0,0.0,0.0,0.0,4.0,0.0,0.1010872,-0.18776045333333335,0.9562695599999999,-1.5429687599999984,-2.1199544799999988,9.931640613333332,19.80224304839561,-5.297810571957237,19.036339682252336,26.89419034539046,-27.876729298359976,29.925631364817495,48.94847212417445,-1.071319365668218,48.033255157226705,-1.0954220142691908,0.33445980000000003,0.042740453333333345,-0.3871775599999998,0.7643778133333332,0.5134165629727311,0.8251278279885018,0.8298948221659046,0.8149037227130354
LBP03_S09,LBP03,-1496,155,9,154,-1496,1715756013.16,2024-05-15 06:53:33.160000+00:00,2024-05-15 15:53:33.160000+09:00,2024,5,15,6,53,33,160,,,,,,,,,0.505615,-0.442871,1.209229,26.428223,21.972656,30.090332,,,,,,,,,,,0.0,1.0,1.0,9.0,0.0,0.0,0.0,4.0,0.0,0.10742834666666667,-0.2055404,0.9851465066666666,-1.7407226666666649,-5.9830729599999986,11.1791992,7.130678742180335,-7.4442269696722425,20.283481347120322,27.179417495077672,-28.174498377146865,30.73697061870231,49.7723262163881,-1.0828359308987299,48.54562084127615,-1.0954078136971306,0.39818665333333336,-0.2373306,0.22408249333333352,0.8595997466666668,0.5148702636661431,0.8209740835438641,0.8279065393248078,0.8047549990390055
LBP03_S09,LBP03,-1495,156,9,155,-1495,1715756013.2,2024-05-15 06:53:33.200000+00:00,2024-05-15 15:53:33.200000+09:00,2024,5,15,6,53,33,200,,,,,,,,,0.172363,0.463379,1.463623,15.441895,79.223633,134.765625,,,,,,,,,,,0.0,1.0,1.0,9.0,0.0,0.0,0.0,4.0,0.0,0.11064449333333333,-0.20223961333333335,0.9999642133333333,2.517089826666668,-2.281901079999999,12.809244773333333,-9.297900115020916,-9.523378874289401,19.493761147124665,26.807501490476835,-28.555433532118442,31.516721064587294,50.272841843605306,-1.0642851222810834,48.97307559095743,-1.0869507629244706,0.06171850666666666,0.6656186133333333,0.4636587866666666,1.1909959066666667,0.8135335167859762,0.8164876623640401,0.8268614548028955,0.8055880680801913
LBP03_S09,LBP03,-1494,157,9,156,-1494,1715756013.24,2024-05-15 06:53:33.240000+00:00,2024-05-15 15:53:33.240000+09:00,2024,5,15,6,53,33,240,,,,,,,,,-0.440186,-0.99585,1.776367,-144.958496,-132.263184,55.603027,,,,,,,,,,,0.0,1.0,1.0,9.0,0.0,0.0,0.0,4.0,0.0,0.09785478666666668,-0.20077152,0.9922656533333333,3.271484360000002,0.839843706666668,13.47737628,-26.458339836909577,-11.383822116556544,16.72526741300662,25.74916789700045,-29.010786416780704,32.18573176110756,50.40403460940358,-1.1112610837818837,49.306560247642494,-1.0837973328270754,-0.5380407866666667,-0.79507848,0.7841013466666668,2.1172206133333336,1.239537252090665,0.8205782829693155,0.8380832233250041,0.819627890548193
LBP03_S09,LBP03,-1493,158,9,157,-1493,1715756013.28,2024-05-15 06:53:33.280000+00:00,2024-05-15 15:53:33.280000+09:00,2024,5,15,6,53,33,280,,,,,,,,,0.474609,0.015381,1.410645,46.325684,-12.634277,28.869629,,,,,,,,,,,0.0,1.0,1.0,9.0,0.0,0.0,0.0,4.0,0.0,0.09319006666666667,-0.19691084,0.9743424666666668,7.718098946666669,-2.7482096666666656,10.676269506666667,-40.866801430970675,-12.956138081293881,12.609903532784514,24.114495839761624,-29.52903194003246,32.69012790241894,50.220683977797904,-1.122760567644324,49.54895774727033,-1.0807586958314395,0.3814189333333333,0.21229184,0.43630253333333313,1.0300133066666666,0.6171775503279486,0.8202133401015295,0.8277788619149465,0.8087442425902771
LBP03_S09,LBP03,-1492,159,9,158,-1492,1715756013.32,2024-05-15 06:53:33.320000+00:00,2024-05-15 15:53:33.320000+09:00,2024,5,15,6,53,33,320,,,,,,,,,-0.425049,0.022705,0.01709,10.803223,263.000488,-34.545898,,,,,,,,,,,0.0,1.0,1.0,9.0,0.0,0.0,0.0,4.0,0.0,0.09935544,-0.18826174666666667,0.9623274933333332,9.394531240000001,-4.090983106666666,9.18050128,-49.29234164795491,-14.104408752810663,8.202449144631816,22.142802173843428,-30.093208290144887,33.01822586820422,49.860887605293996,-1.0796104422496249,49.71647641271305,-1.0840639490655535,-0.52440444,0.21096674666666668,-0.9452374933333332,1.6806086799999997,1.1013541227479535,0.8427651238532163,0.8292167676249496,0.8157526847969372
LBP03_S09,LBP03,-1491,160,9,159,-1491,1715756013.36,2024-05-15 06:53:33.360000+00:00,2024-05-15 15:53:33.360000+09:00,2024,5,15,6,53,33,360,,,,,,,,,-0.160889,-0.257568,0.241211,-176.025391,-181.762695,-67.077637,,,,,,,,,,,0.0,1.0,1.0,9.0,0.0,0.0,0.0,4.0,0.0,0.10686194666666668,-0.18836917333333333,0.9575553466666668,7.820638000000001,-2.736002639999999,8.2902018,-49.41406268651597,-14.539963611794418,4.59700597021526,20.16623966638279,-30.674806834616664,33.20210610701283,49.49748323464916,-1.0492581048239795,49.84193298836496,-1.09118201475807,-0.26775094666666666,-0.06919882666666669,-0.7163443466666668,1.0532941200000001,0.7678725610765326,0.8516301720969759,0.8361573410101658,0.8201669682553759
LBP03_S09,LBP03,-1490,161,9,160,-1490,1715756013.4,2024-05-15 06:53:33.400000+00:00,2024-05-15 15:53:33.400000+09:00,2024,5,15,6,53,33,400,,,,,,,,,0.539307,-0.303467,0.60083,-16.235352,-104.125977,-49.865723,,,,,,,,,,,0.0,1.0,1.0,9.0,0.0,0.0,0.0,4.0,0.0,0.09545244,-0.19030276000000002,0.96244792,7.69124346666667,-2.062174519999999,9.13167316,-40.333373015325016,-13.884904961332094,2.5060997468519477,18.55290474576979,-31.230203033069948,33.30235009688691,49.28064912283524,-1.1001360254045376,49.97639514655636,-1.0949620849593813,0.44385456,-0.11316423999999997,-0.36161792000000004,0.9186367200000001,0.5835927824371182,0.8379056204541849,0.8183386624110187,0.8177675918350675
LBP03_S09,LBP03,-1489,162,9,161,-1489,1715756013.44,2024-05-15 06:53:33.440000+00:00,2024-05-15 15:53:33.440000+09:00,2024,5,15,6,53,33,440,,,,,,,,,0.462402,-0.171631,0.908691,-8.361816,28.564453,-22.094727,,,,,,,,,,,0.0,1.0,1.0,9.0,0.0,0.0,0.0,4.0,0.0,0.10491858666666666,-0.19780926666666668,0.9891275999999999,8.129882786666668,-5.878092493333332,10.815429666666665,-22.846047479365236,-11.860702832408382,2.030453244218958,17.63906284659518,-31.70463114636628,33.38356822665567,49.3029695026278,-1.0772999687203226,50.184674988958164,-1.100322579972111,0.35748341333333333,0.026178266666666672,-0.08043659999999986,0.46409827999999986,0.3673550585927488,0.8318752687468556,0.8132309880153172,0.811404530620986
LBP03_S09,LBP03,-1488,163,9,162,-1488,1715756013.48,2024-05-15 06:53:33.480000+00:00,2024-05-15 15:53:33.480000+09:00,2024,5,15,6,53,33,480,,,,,,,,,0.07373,0.075195,1.475098,-50.231934,73.974609,75.073242,,,,,,,,,,,0.0,1.0,1.0,9.0,0.0,0.0,0.0,4.0,0.0,0.10921221333333332,-0.20840821333333334,1.0076139333333334,8.971354146666668,-2.051595093333332,13.036295560000001,0.6143920601999503,-8.477335663812058,2.740502854590636,17.66363852900318,-32.04372457291876,33.493188340839296,49.60441589035493,-1.0818728791828307,50.53342376637753,-1.0950322818768345,-0.03548221333333332,0.2836032133333333,0.46748406666666664,0.7865694933333333,0.5479335020449368,0.8376386044332718,0.812111753685903,0.8076951642238966
LBP03_S09,LBP03,-1487,164,9,163,-1487,1715756013.52,2024-05-15 06:53:33.520000+00:00,2024-05-15 15:53:33.520000+09:00,2024,5,15,6,53,33,520,,,,,,,,,-0.298584,-1.648438,2.126709,-47.119141,-124.145508,37.109375,,,,,,,,,,,0.0,1.0,1.0,9.0,0.0,0.0,0.0,4.0,0.0,0.09276364000000001,-0.2066113333333333,0.9958951866666667,13.457845026666668,1.4746093333333348,12.60986328,26.399372590097034,-4.106744692039967,4.010808396678959,18.719613432607062,-32.20799436060036,33.65362067670645,50.20303788069355,-1.1425000225933826,51.07561853849329,-1.095709788565356,-0.39134764,-1.4418266666666668,1.1308138133333334,2.9639881200000002,1.8737014149725553,0.8591373665251955,0.8360620650538416,0.824929932815449
LBP03_S09,LBP03,-1486,165,9,164,-1486,1715756013.56,2024-05-15 06:53:33.560000+00:00,2024-05-15 15:53:33.560000+09:00,2024,5,15,6,53,33,560,,,,,,,,,0.651367,0.180908,1.091064,45.471191,-65.368652,103.820801,,,,,,,,,,,0.0,1.0,1.0,9.0,0.0,0.0,0.0,4.0,0.0,0.09262041333333332,-0.1945149866666667,0.98308268,13.195800760000003,-2.028808626666665,11.726074213333334,50.38933055596611,0.5907406714120568,5.403634703855887,20.735186654845705,-32.18436473374388,33.86976606486069,51.11694779830205,-1.1206366329118442,51.838052883607304,-1.0959586106697121,0.5587465866666668,0.37542298666666674,0.10798132000000005,1.0421508933333334,0.6817625191357425,0.8513799724592193,0.8239528185739059,0.8186524352896971
LBP03_S09,LBP03,-1485,166,9,165,-1485,1715756013.6,2024-05-15 06:53:33.600000+00:00,2024-05-15 15:53:33.600000+09:00,2024,5,15,6,53,33,600,,,,,,,,,-0.276367,-0.369141,0.022705,224.365234,268.310547,12.817383,,,,,,,,,,,0.0,1.0,1.0,9.0,0.0,0.0,0.0,4.0,0.0,0.10103186666666666,-0.21119142666666665,0.9889029866666668,11.988932266666668,-2.4796549866666653,10.492350253333333,68.91236647777822,4.848526579699889,6.875629902514754,23.491681313956835,-31.99042367055588,34.144791260961284,52.3556402676234,-1.1178900724083805,52.816978670205955,-1.1029931450037003,-0.37739886666666667,-0.15794957333333334,-0.9661979866666668,1.5015464266666667,1.0492456917787116,0.8655079937948791,0.8304698636299297,0.8251357078495057
LBP03_S09,LBP03,-1484,167,9,166,-1484,1715756013.64,2024-05-15 06:53:33.640000+00:00,2024-05-15 15:53:33.640000+09:00,2024,5,15,6,53,33,640,,,,,,,,,-0.027588,0.565674,-0.296387,205.688477,-95.214844,-89.294434,,,,,,,,,,,0.0,1.0,1.0,9.0,0.0,0.0,0.0,4.0,0.0,0.11075191999999999,-0.19959637333333333,0.9880956933333335,14.177246080000002,0.23437496000000124,12.419433586666667,79.5790764829748,8.005971993688194,8.698408661342341,26.67484437327583,-31.670184790808353,34.49272760741498,53.89152238359723,-1.05835810282912,53.98261573296501,-1.10608322530073,-0.13833992,0.7652703733333334,-1.2844826933333335,2.1880929866666667,1.5015566813278147,0.9097988364773866,0.8356817668154379,0.8384806864034502
LBP03_S09,LBP03,-1483,168,9,167,-1483,1715756013.68,2024-05-15 06:53:33.680000+00:00,2024-05-15 15:53:33.680000+09:00,2024,5,15,6,53,33,680,,,,,,,,,0.425293,0.296143,0.766113,94.726562,-71.716309,-99.79248,,,,,,,,,,,0.0,1.0,1.0,9.0,0.0,0.0,0.0,4.0,0.0,0.09960934666666667,-0.21464519999999998,0.9985318933333334,13.578287733333337,-0.9497070799999989,12.215169266666667,81.72938312440846,9.657765166635023,11.172423218333265,29.944019698252166,-31.283874184142952,34.93962453614831,55.64263169895558,-1.1295356345295386,55.288941926711104,-1.110576818539175,0.3256836533333333,0.5107881999999999,-0.23241889333333332,1.0688907466666666,0.6488397100101674,0.8911157153004495,0.8344912700371959,0.8385172794082679
LBP03_S09,LBP03,-1482,169,9,168,-1482,1715756013.72,2024-05-15 06:53:33.720000+00:00,2024-05-15 15:53:33.720000+09:00,2024,5,15,6,53,33,720,,,,,,,,,0.568848,-0.224854,1.502441,-25.268555,26.489258,12.939453,,,,,,,,,,,0.0,1.0,1.0,9.0,0.0,0.0,0.0,4.0,0.0,0.11215166666666666,-0.21427085333333332,1.0146321600000001,11.497395813333336,-4.451497439999999,13.385416666666666,76.30983797540736,9.693458622218046,14.349917959203333,32.99641321726846,-30.89613583925423,35.513621254516444,57.485231056434145,-1.0820986632931848,56.68366398964885,-1.1127317034740574,0.45669633333333337,-0.010583146666666682,0.4878088399999998,0.9550883199999999,0.66831205903801,0.897674298698101,0.8325974930899023,0.8293576193851572
LBP03_S09,LBP03,-1481,170,9,169,-1481,1715756013.76,2024-05-15 06:53:33.760000+00:00,2024-05-15 15:53:33.760000+09:00,2024,5,15,6,53,33,760,,,,,,,,,-0.229248,-0.18335,1.837158,-91.430664,113.647461,114.257812,,,,,,,,,,,0.0,1.0,1.0,9.0,0.0,0.0,0.0,4.0,0.0,0.10504554666666667,-0.22071617333333335,1.01127604,12.352701800000002,2.1614582933333337,14.383951813333333,65.27585326229902,8.260781981262873,17.96196796463217,35.60744734776042,-30.565704560003716,36.23209997310173,59.28674110063565,-1.1196034481638601,58.11523241395152,-1.1074306049251015,-0.33429354666666666,0.037366173333333336,0.82588196,1.19754168,0.8917563670117512,0.9169864645802912,0.8360271164073194,0.8339573791061347
LBP03_S09,LBP03,-1480,171,9,170,-1480,1715756013.8,2024-05-15 06:53:33.800000+00:00,2024-05-15 15:53:33.800000+09:00,2024,5,15,6,53,33,800,,,,,,,,,-0.08667,-1.059326,1.973633,-6.04248,-135.986328,58.105469,,,,,,,,,,,0.0,1.0,1.0,9.0,0.0,0.0,0.0,4.0,0.0,0.10158852,-0.21988934666666665,1.0075813733333332,12.522786426666668,0.32552080000000083,14.754231760000003,50.86507612758208,5.713142162486805,21.576871629232492,37.6420503928637,-30.337178873504243,37.095174838271035,60.937019750425755,-1.1310368283748349,59.537210482125076,-1.1088173531976717,-0.18825851999999998,-0.8394366533333333,0.9660516266666668,1.9937468,1.293580654886803,0.9144634510015259,0.8473843599128073,0.8316933394754212
LBP03_S09,LBP03,-1479,172,9,171,-1479,1715756013.84,2024-05-15 06:53:33.840000+00:00,2024-05-15 15:53:33.840000+09:00,2024,5,15,6,53,33,840,,,,,,,,,0.537842,-0.231201,1.106201,20.507812,-15.930176,75.805664,,,,,,,,,,,0.0,1.0,1.0,9.0,0.0,0.0,0.0,4.0,0.0,0.1014876,-0.21457033333333334,0.99958332,12.403971333333335,-0.4833984799999994,15.104166653333332,35.11957969566715,2.5637943066335023,24.841367439008266,39.04683358069039,-30.234627101238903,38.088829535831366,62.366231440088804,-1.1222359011047736,60.91214708613029,-1.1077850810107497,0.43635440000000003,-0.016630666666666655,0.10661767999999994,0.5596027466666667,0.44949868872080173,0.9008254874463834,0.8347900818852472,0.8260980777016339
LBP03_S09,LBP03,-1478,173,9,172,-1478,1715756013.88,2024-05-15 06:53:33.880000+00:00,2024-05-15 15:53:33.880000+09:00,2024,5,15,6,53,33,880,,,,,,,,,-0.250244,-0.124512,-0.205566,268.737793,298.339844,-2.929688,,,,,,,,,,,0.0,1.0,1.0,9.0,0.0,0.0,0.0,4.0,0.0,0.10851233333333334,-0.21885418666666667,0.99572264,14.026692693333334,-1.2027995199999992,15.185546853333332,19.81073408636758,-0.5713400453256797,27.616140218420234,39.83926294414509,-30.25748070305193,39.193475144568175,63.55163651973233,-1.1034217285316537,62.21598429326987,-1.1144523070056604,-0.35875633333333334,0.09434218666666667,-1.20128864,1.65438716,1.2572593016100042,0.926870156883339,0.8506343782908963,0.8342825529455121
LBP03_S09,LBP03,-1477,174,9,173,-1477,1715756013.92,2024-05-15 06:53:33.920000+00:00,2024-05-15 15:53:33.920000+09:00,2024,5,15,6,53,33,920,,,,,,,,,-0.091553,0.427979,-0.054688,31.921387,-214.355469,-49.743652,,,,,,,,,,,0.0,1.0,1.0,9.0,0.0,0.0,0.0,4.0,0.0,0.11036129333333333,-0.21488607999999998,0.9917805866666667,13.444824213333334,0.24983720000000062,16.949869773333333,6.60503622288456,-3.075267889537286,29.928994408687092,40.10346439306047,-30.38049141863342,40.39063492091566,64.51872212372018,-1.0894890371038237,63.4415151999008,-1.1178759635703521,-0.20191429333333333,0.64286508,-1.0464685866666668,1.89124796,1.2446450882945856,0.9496859299937261,0.8530986055612776,0.8419006030562041
LBP03_S09,LBP03,-1476,175,9,174,-1476,1715756013.96,2024-05-15 06:53:33.960000+00:00,2024-05-15 15:53:33.960000+09:00,2024,5,15,6,53,33,960,,,,,,,,,0.668213,-0.15625,0.851562,3.356934,-120.422363,-18.676758,,,,,,,,,,,0.0,1.0,1.0,9.0,0.0,0.0,0.0,4.0,0.0,0.10266924,-0.22452149333333332,0.9974218533333332,17.0377604,0.9977213066666673,17.676595026666668,-2.861049243790997,-4.485829188571461,31.824612541584912,39.98902242330883,-30.559924586176276,41.66361942257905,65.3367284800378,-1.1345041156375466,64.59828584775774,-1.1263256668753916,0.56554376,0.06827149333333332,-0.14585985333333318,0.7796751066666664,0.5880270725836715,0.9106751760920367,0.847941439734554,0.8447702496585466
LBP03_S09,LBP03,-1475,176,9,175,-1475,1715756014.0,2024-05-15 06:53:34+00:00,2024-05-15 15:53:34+09:00,2024,5,15,6,53,34,0,6.0,53.0,34.0,40.53347,141.468765,5.175,3.0,15.0,0.354248,-0.062012,1.294678,-20.935059,80.383301,42.358398,-283.0,48.0,361.0,2725.0,0.0,1021.900024,31.52,0.088197,-71.727585,3.754688,0.0,1.0,1.0,9.0,0.0,0.0,0.0,5.0,0.0,0.10810869333333334,-0.22033204000000003,1.0025422933333332,15.004882800000003,-1.7317708799999996,17.79459632,-7.229314259744701,-4.644889399240758,33.26254866407347,39.699849852919044,-30.745720162145908,42.99412136914199,66.10500630767547,-1.1075673505391603,65.70766501013837,-1.129503865741239,0.24613930666666667,0.15832004000000005,0.2921357066666668,0.6965950533333335,0.41351307653033387,0.9011611394585402,0.8470692697830955,0.835548359119011
LBP03_S09,LBP03,-1474,177,9,176,-1474,1715756014.04,2024-05-15 06:53:34.040000+00:00,2024-05-15 15:53:34.040000+09:00,2024,5,15,6,53,34,40,,,,,,,,,0.034668,-0.155029,1.73291,-172.363281,40.893555,128.845215,,,,,,,,,,,0.0,1.0,1.0,9.0,0.0,0.0,0.0,5.0,0.0,0.10219072000000001,-0.21775717333333333,0.9971972400000001,13.92415362666667,2.854003866666667,18.018391880000003,-5.940359851078453,-3.7339523844196902,34.154653922855516,39.46223545887591,-30.895078257522695,44.36030752605621,66.92989445499293,-1.1250303627782259,66.79418107036891,-1.1263288032511807,-0.06752272000000001,0.06272817333333333,0.7357127599999999,0.8659636533333332,0.7414630177377375,0.8794077339653235,0.8512801878676369,0.8409740680946461
LBP03_S09,LBP03,-1473,178,9,177,-1473,1715756014.08,2024-05-15 06:53:34.080000+00:00,2024-05-15 15:53:34.080000+09:00,2024,5,15,6,53,34,80,,,,,,,,,-0.393799,-0.913574,2.110352,-94.970703,-31.37207,71.533203,,,,,,,,,,,0.0,1.0,1.0,9.0,0.0,0.0,0.0,5.0,0.0,0.09656897333333334,-0.22873373333333333,0.9994172933333334,10.833333306666667,2.0434570000000005,19.578450466666666,0.27411617862347737,-2.1531741705533967,34.496180556660754,39.47320010602085,-30.98120522434483,45.74015474832264,67.89794076526502,-1.1637722001764574,67.8758809825171,-1.1277876185384752,-0.4903679733333334,-0.6848402666666666,1.1109347066666664,2.2861429466666663,1.394145925861301,0.8705580176897098,0.8672458857961807,0.8538063634877386
LBP03_S09,LBP03,-1472,179,9,178,-1472,1715756014.12,2024-05-15 06:53:34.120000+00:00,2024-05-15 15:53:34.120000+09:00,2024,5,15,6,53,34,120,,,,,,,,,0.397217,-0.261475,1.695068,57.312012,-67.504883,43.151855,,,,,,,,,,,0.0,1.0,1.0,9.0,0.0,0.0,0.0,5.0,0.0,0.09510738666666665,-0.2270508,0.9919107866666665,11.436360653333335,0.8170572666666673,19.318847599999998,9.275255682122241,-0.31705040706596904,34.451467574800176,39.84421033330574,-30.99388724062747,47.118213451314645,69.05293753500344,-1.166595696343581,68.95679066772803,-1.127876081698075,0.3021096133333333,-0.034424200000000016,0.7031572133333335,1.0396910266666668,0.7660844017970574,0.8806647312426829,0.8528962796155923,0.8468181251914974
LBP03_S09,LBP03,-1471,180,9,179,-1471,1715756014.16,2024-05-15 06:53:34.160000+00:00,2024-05-15 15:53:34.160000+09:00,2024,5,15,6,53,34,160,,,,,,,,,-0.196045,-0.448975,0.381836,95.336914,264.953613,-5.615234,,,,,,,,,,,0.0,1.0,1.0,9.0,0.0,0.0,0.0,5.0,0.0,0.10084958666666667,-0.23105795999999998,0.99134764,13.729654920000003,-0.8569336133333326,19.053548120000002,17.946667868600976,1.5093964615996835,34.28823600724032,40.56207704804978,-30.93351138216348,48.48974289160426,70.38053272444199,-1.1513854368223346,70.02377821013317,-1.1312077553532323,-0.2968945866666667,-0.21791704000000003,-0.60951164,1.1243232666666667,0.7121366941885681,0.8885553884635798,0.8547647360037218,0.8481228223710651
LBP03_S09,LBP03,-1470,181,9,180,-1470,1715756014.2,2024-05-15 06:53:34.200000+00:00,2024-05-15 15:53:34.200000+09:00,2024,5,15,6,53,34,200,,,,,,,,,-0.365479,-0.059082,0.133301,9.033203,-148.864746,-45.715332,,,,,,,,,,,0.0,1.0,1.0,9.0,0.0,0.0,0.0,5.0,0.0,0.10640297333333334,-0.21223634666666666,0.9858398266666668,13.592122373333336,1.3509114400000006,20.611979106666666,23.052598055325422,3.241946014748507,34.18624717819071,41.4841809702628,-30.80383354157354,49.857192778731886,71.80218035273107,-1.0992862034742514,71.04875036712149,-1.1310679522745652,-0.47188197333333337,0.15315434666666666,-0.8525388266666668,1.4775751466666667,0.9863829386369328,0.8954693653376182,0.855978513850829,0.8497307583144698
LBP03_S09,LBP03,-1469,182,9,181,-1469,1715756014.24,2024-05-15 06:53:34.240000+00:00,2024-05-15 15:53:34.240000+09:00,2024,5,15,6,53,34,240,,,,,,,,,0.574707,0.27832,0.623291,199.157715,-87.524414,-30.395508,,,,,,,,,,,0.0,1.0,1.0,9.0,0.0,0.0,0.0,5.0,0.0,0.10355466666666666,-0.22800458666666668,0.9954980266666666,11.551920546666668,-0.3133138133333326,20.719400973333336,22.192668368277623,4.859599289344703,34.065681491456196,42.3718877049939,-30.60944956999975,51.21982003839013,73.18323056157088,-1.1368240539777177,71.99559984397037,-1.133163062709683,0.4711523333333333,0.5063245866666667,-0.3722070266666666,1.3496839466666666,0.7854216567988535,0.8773047415259456,0.8489415122476306,0.851157062725318
LBP03_S09,LBP03,-1468,183,9,182,-1468,1715756014.28,2024-05-15 06:53:34.280000+00:00,2024-05-15 15:53:34.280000+09:00,2024,5,15,6,53,34,280,,,,,,,,,0.327881,-0.129639,1.374512,-38.635254,17.944336,78.552246,,,,,,,,,,,0.0,1.0,1.0,9.0,0.0,0.0,0.0,5.0,0.0,0.109388,-0.22114261333333338,1.0021712,11.608072893333334,-2.266438813333333,21.739094986666665,14.494202922902902,6.220651618026721,33.58841714750662,42.951655821910016,-30.36062350527868,52.563356724290394,74.36073337184149,-1.1043063601276506,72.82986435915335,-1.1312569242143253,0.218493,0.09150361333333337,0.3723407999999999,0.6823374133333333,0.44130462681315286,0.8702698245853538,0.8452415823434416,0.8419425161384156
