file_name,test_id,_program_index,program_index,session_id,index,_index,unixtime,datetime_utc,datetime_jst,rtc_year,rtc_month,rtc_day,rtc_hour,rtc_min,rtc_sec,rtc_msec,gps_hour,gps_min,gps_sec,latitude,longitude,altitude,fix_type,SIV,acc_x,acc_y,acc_z,gyro_x,gyro_y,gyro_z,mag_x,mag_y,mag_z,illuminance,atmopress,water_pressure,water_temp,depth,alt_wps,battery_level,behavior_class,camera_command,camera_recording,camera_count,play_audio,speaker_on,audio_file,prev_sd_write_time_ms,delay_occurred_counter,acc_x_ma,acc_y_ma,acc_z_ma,gyro_x_ma,gyro_y_ma,gyro_z_ma,gyro_x_lowpass,gyro_y_lowpass,gyro_z_lowpass,angle_x,angle_y,angle_z,combined_angle_change,gravity_adjusted_angle,smoothed_angle_change,smoothed_gravity_angle,acc_x_dy,acc_y_dy,acc_z_dy,ODBA,VeDBA,smoothed_VeDBA_1s,smoothed_VeDBA_2s,smoothed_VeDBA_3s
LBP03_S06,LBP03,0,1,6,0,0,1715749830.0,2024-05-15 05:10:30+00:00,2024-05-15 14:10:30+09:00,2024,5,15,5,10,30,0,5.0,10.0,30.0,40.529907,141.493271,28.190001,3.0,12.0,-0.203125,-0.7229,2.182373,259.033203,-128.173828,7.507324,-291.0,47.0,356.0,2375.0,0.0,1018.200012,30.469999,0.051531,-41.106812,3.853125,0.0,1.0,1.0,6.0,0.0,0.0,0.0,4.0,0.0,,,,,,,259.3810786236535,-129.38466826466635,6.59401719216662,10.37524314494614,-5.175386730586654,0.26376068768666483,11.597407806413173,,23.58938820101974,,,,,,,,,
LBP03_S06,LBP03,1,2,6,1,1,1715749830.04,2024-05-15 05:10:30.040000+00:00,2024-05-15 14:10:30.040000+09:00,2024,5,15,5,10,30,40,,,,,,,,,0.554199,-0.200684,2.00293,-89.96582,-33.508301,-15.625,,,,,,,,,,,0.0,1.0,1.0,6.0,0.0,0.0,0.0,4.0,0.0,,,,,,,200.92180432099025,-70.35249394110618,8.617756232963341,18.412115317785748,-7.9894864882309005,0.6084709370051985,20.080042871026066,,24.97129756641557,,,,,,,,,
LBP03_S06,LBP03,2,3,6,2,2,1715749830.08,2024-05-15 05:10:30.080000+00:00,2024-05-15 14:10:30.080000+09:00,2024,5,15,5,10,30,80,,,,,,,,,0.523682,-0.276367,1.296387,147.460938,250.488281,51.147461,,,,,,,,,,,0.0,1.0,1.0,6.0,0.0,0.0,0.0,4.0,0.0,,,,,,,145.98570643783407,-19.123679851901812,11.176696759089682,24.25154357529911,-8.754433682306972,1.0555388073687857,25.80487622633373,,25.957777459492434,,,,,,,,,
LBP03_S06,LBP03,3,4,6,3,3,1715749830.12,2024-05-15 05:10:30.120000+00:00,2024-05-15 14:10:30.120000+09:00,2024,5,15,5,10,30,120,,,,,,,,,-0.712891,-0.379395,0.092041,177.124023,305.358887,-53.833008,,,,,,,,,,,0.0,1.0,1.0,6.0,0.0,0.0,0.0,4.0,0.0,,,,,,,97.26294458915005,18.640949413768283,14.665994292665637,28.142061358865114,-8.008795705756242,1.642178579075411,29.305514441282938,,26.643500062342248,,,,,,,,,
LBP03_S06,LBP03,4,5,6,4,4,1715749830.16,2024-05-15 05:10:30.160000+00:00,2024-05-15 14:10:30.160000+09:00,2024,5,15,5,10,30,160,,,,,,,,,-0.098389,0.219482,0.015869,55.480957,-143.188477,-2.990723,,,,,,,,,,,0.0,1.0,1.0,6.0,0.0,0.0,0.0,4.0,0.0,,,,,,,56.53046010605454,40.59067159558135,18.94392159889831,30.403279763107296,-6.3851688419329875,2.3999354430313433,31.159099660042802,,27.10394376481888,,,,,,,,,
LBP03_S06,LBP03,5,6,6,5,5,1715749830.2,2024-05-15 05:10:30.200000+00:00,2024-05-15 14:10:30.200000+09:00,2024,5,15,5,10,30,200,,,,,,,,,0.421875,-0.11499,0.649658,69.030762,-115.783691,-28.259277,,,,,,,,,,,0.0,1.0,1.0,6.0,0.0,0.0,0.0,4.0,0.0,,,,,,,24.63695845613825,47.715189502029624,23.27264489947421,31.388758101352828,-4.476561261851803,3.3308412390103115,31.880844393394707,,27.3973600159894,,,,,,,,,
LBP03_S06,LBP03,6,7,6,6,6,1715749830.24,2024-05-15 05:10:30.240000+00:00,2024-05-15 14:10:30.240000+09:00,2024,5,15,5,10,30,240,,,,,,,,,0.719238,0.321045,0.99585,105.34668,-50.109863,43.395996,,,,,,,,,,,0.0,1.0,1.0,6.0,0.0,0.0,0.0,4.0,0.0,,,,,,,1.6175489719073082,43.3875068711047,26.523335896024502,31.45346006022912,-2.741060987007615,4.391774674851291,31.876656817953616,,29.16351131798404,,,,,,,,,
LBP03_S06,LBP03,7,8,6,7,7,1715749830.28,2024-05-15 05:10:30.280000+00:00,2024-05-15 14:10:30.280000+09:00,2024,5,15,5,10,30,280,,,,,,,,,0.130859,0.089844,1.546875,-144.775391,131.04248,138.122559,,,,,,,,,,,0.0,1.0,1.0,6.0,0.0,0.0,0.0,4.0,0.0,,,,,,,-13.208552294198885,31.998949837880378,27.59107206557608,30.925117968461162,-1.4611029934923996,5.495417557474334,31.44355828229097,,30.001373429027133,,,,,,,,,
LBP03_S06,LBP03,8,9,6,8,8,1715749830.32,2024-05-15 05:10:30.320000+00:00,2024-05-15 14:10:30.320000+09:00,2024,5,15,5,10,30,320,,,,,,,,,-0.315674,-1.242432,2.421875,-114.746094,-53.405762,33.752441,,,,,,,,,,,0.0,1.0,1.0,6.0,0.0,0.0,0.0,4.0,0.0,,,,,,,-21.18378455088205,17.765625744887487,25.852288219048692,30.07776658642588,-0.7504779636969001,6.529509086236281,30.787493384631915,,30.181520182812733,,,,,,,,,
LBP03_S06,LBP03,9,10,6,9,9,1715749830.36,2024-05-15 05:10:30.360000+00:00,2024-05-15 14:10:30.360000+09:00,2024,5,15,5,10,30,360,,,,,,,,,0.170654,-0.137695,2.040771,4.638672,-77.331543,28.808594,,,,,,,,,,,0.0,1.0,1.0,6.0,0.0,0.0,0.0,4.0,0.0,,,,,,,-24.206908251696085,4.009326640192039,21.4532003148314,29.109490256358036,-0.5901048980892185,7.387637098829537,30.038106276524072,,29.915980854591925,,,,,,,,,
LBP03_S06,LBP03,10,11,6,10,10,1715749830.4,2024-05-15 05:10:30.400000+00:00,2024-05-15 14:10:30.400000+09:00,2024,5,15,5,10,30,400,,,,,,,,,0.522949,-0.416504,1.680176,27.038574,90.454102,43.212891,,,,,,,,,,,0.0,1.0,1.0,6.0,0.0,0.0,0.0,4.0,0.0,,,,,,,-24.4696835812041,-7.0727654230866825,15.286954818900448,28.13070291310987,-0.8730155150126858,7.9991152915855555,29.25892082635959,,29.35402560591653,,,,,,,,,
LBP03_S06,LBP03,11,12,6,11,11,1715749830.44,2024-05-15 05:10:30.440000+00:00,2024-05-15 14:10:30.440000+09:00,2024,5,15,5,10,30,440,,,,,,,,,-0.569824,0.234375,-0.099609,71.655273,246.948242,-43.579102,,,,,,,,,,,0.0,1.0,1.0,6.0,0.0,0.0,0.0,4.0,0.0,,,,,,,-24.042190222523974,-14.310600764825727,8.664855915434401,27.169015304208912,-1.445439545605715,8.345709528202931,28.45866398145697,,28.59064399168721,,,,,,,,,
LBP03_S06,LBP03,12,13,6,12,12,1715749830.48,2024-05-15 05:10:30.480000+00:00,2024-05-15 14:10:30.480000+09:00,2024,5,15,5,10,30,480,,,,,,,,,-0.025879,-0.582031,0.440186,-190.673828,-226.318359,-40.893555,,,,,,,,,,,0.0,1.0,1.0,6.0,0.0,0.0,0.0,4.0,0.0,,,,,,,-24.445659443318295,-17.362929496858936,2.8289263526759076,26.19118892647618,-2.139956725480072,8.458866582309968,27.606343764189713,,27.680987649212955,,,,,,,,,
LBP03_S06,LBP03,13,14,6,13,13,1715749830.52,2024-05-15 05:10:30.520000+00:00,2024-05-15 14:10:30.520000+09:00,2024,5,15,5,10,30,520,,,,,,,,,0.43457,-0.183105,0.54834,132.568359,-92.285156,-92.712402,,,,,,,,,,,0.0,1.0,1.0,6.0,0.0,0.0,0.0,4.0,0.0,,,,,,,-26.382604753580665,-16.58437121359219,-1.4752532770496887,25.135884736332955,-2.8033315740237597,8.399856451227981,26.650121159074885,,26.65458361439558,,,,,,,,,
LBP03_S06,LBP03,14,15,6,14,14,1715749830.56,2024-05-15 05:10:30.560000+00:00,2024-05-15 14:10:30.560000+09:00,2024,5,15,5,10,30,560,,,,,,,,,0.638916,0.249023,0.766846,48.828125,-69.396973,-2.258301,,,,,,,,,,,0.0,1.0,1.0,6.0,0.0,0.0,0.0,4.0,0.0,,,,,,,-29.724018244360938,-12.952354138339528,-4.172713213995033,23.94692400655852,-3.3214257395573408,8.23294792266818,25.5395471732889,,25.52667618404501,,,,,,,,,
LBP03_S06,LBP03,15,16,6,15,15,1715749830.6,2024-05-15 05:10:30.600000+00:00,2024-05-15 14:10:30.600000+09:00,2024,5,15,5,10,30,600,,,,,,,,,0.193359,0.124268,1.193604,-147.460938,154.846191,124.633789,,,,,,,,,,,0.0,1.0,1.0,6.0,0.0,0.0,0.0,4.0,0.0,,,,,,,-33.75580044289464,-7.918222848166376,-5.711665556761646,22.596691988842732,-3.638154653483996,8.004481300397714,24.247028251101476,,24.307168212705882,,,,,,,,,
LBP03_S06,LBP03,16,17,6,16,16,1715749830.64,2024-05-15 05:10:30.640000+00:00,2024-05-15 14:10:30.640000+09:00,2024,5,15,5,10,30,640,,,,,,,,,-0.350342,-0.796387,2.21582,-175.048828,-38.330078,12.390137,,,,,,,,,,,0.0,1.0,1.0,6.0,0.0,0.0,0.0,4.0,0.0,,,,,,,-37.58542874604163,-3.0947939213174256,-6.698339264841132,21.09327483900107,-3.761946410336693,7.736547729804069,22.780093393211036,,23.008315337833768,,,,,,,,,
LBP03_S06,LBP03,17,18,6,17,17,1715749830.68,2024-05-15 05:10:30.680000+00:00,2024-05-15 14:10:30.680000+09:00,2024,5,15,5,10,30,680,,,,,,,,,0.202637,-0.586426,2.140137,-72.631836,-109.130859,-13.244629,,,,,,,,,,,0.0,1.0,1.0,6.0,0.0,0.0,0.0,4.0,0.0,,,,,,,-40.5150253951832,0.15661974510283225,-7.534347865008213,19.47267382319374,-3.7556816205325796,7.43517381520374,21.179517934117204,,21.651180985612378,,,,,,,,,
LBP03_S06,LBP03,18,19,6,18,18,1715749830.72,2024-05-15 05:10:30.720000+00:00,2024-05-15 14:10:30.720000+09:00,2024,5,15,5,10,30,720,,,,,,,,,0.584229,-0.385254,1.672363,49.926758,81.604004,6.225586,,,,,,,,,,,0.0,1.0,1.0,6.0,0.0,0.0,0.0,4.0,0.0,,,,,,,-42.18356138390772,1.0913418357899947,-8.25394653991968,17.785331367837433,-3.71202794710098,7.105015953606952,19.508419081126235,,20.269566587133458,,,,,,,,,
LBP03_S06,LBP03,19,20,6,19,19,1715749830.76,2024-05-15 05:10:30.760000+00:00,2024-05-15 14:10:30.760000+09:00,2024,5,15,5,10,30,760,,,,,,,,,-0.480469,0.22998,-0.087402,76.660156,253.112793,-16.418457,,,,,,,,,,,0.0,1.0,1.0,6.0,0.0,0.0,0.0,4.0,0.0,,,,,,,-42.43363994073231,-0.23904546203439203,-8.620812351087332,16.08798577020814,-3.7215897655823555,6.760183459563459,17.843026563132785,,18.909987281408682,,,,,,,,,
LBP03_S06,LBP03,20,21,6,20,20,1715749830.8,2024-05-15 05:10:30.800000+00:00,2024-05-15 14:10:30.800000+09:00,2024,5,15,5,10,30,800,,,,,,,,,-0.118896,-0.2229,0.253906,-71.166992,-143.859863,-63.354492,,,,,,,,,,,0.0,1.0,1.0,6.0,0.0,0.0,0.0,4.0,0.0,,,,,,,-41.065721377776676,-3.087316113823474,-8.395077090503372,14.445356915097072,-3.8450824101352947,6.424380375943324,16.27039207763846,,17.627680335675628,,,,,,,,,
LBP03_S06,LBP03,21,22,6,21,21,1715749830.84,2024-05-15 05:10:30.840000+00:00,2024-05-15 14:10:30.840000+09:00,2024,5,15,5,10,30,840,,,,,,,,,0.261475,0.024902,0.432861,2.319336,-144.104004,-82.702637,,,,,,,,,,,0.0,1.0,1.0,6.0,0.0,0.0,0.0,4.0,0.0,,,,,,,-37.71915351094196,-6.3965470605922246,-7.599735416407248,12.936590774659393,-4.100944292558983,6.120390959287034,14.887320459243064,,16.480451129887502,,,,,,,,,
LBP03_S06,LBP03,22,23,6,22,22,1715749830.88,2024-05-15 05:10:30.880000+00:00,2024-05-15 14:10:30.880000+09:00,2024,5,15,5,10,30,880,,,,,,,,,0.674072,-0.099609,0.757568,-105.834961,-142.700195,-0.976562,,,,,,,,,,,0.0,1.0,1.0,6.0,0.0,0.0,0.0,4.0,0.0,,,,,,,-32.005254613915994,-9.310551085147267,-6.621174872839879,11.656380590102753,-4.473366335964874,5.855543964373439,13.79019977940052,,15.522181704993338,,,,,,,,,
LBP03_S06,LBP03,23,24,6,23,23,1715749830.92,2024-05-15 05:10:30.920000+00:00,2024-05-15 14:10:30.920000+09:00,2024,5,15,5,10,30,920,,,,,,,,,0.291748,-0.040771,1.103516,-26.184082,166.07666,59.936523,,,,,,,,,,,0.0,1.0,1.0,6.0,0.0,0.0,0.0,4.0,0.0,,,,,,,-23.824583322226523,-11.52639882670349,-6.066990790449747,10.703397257213691,-4.934422289033014,5.612864332755449,13.054328101827133,,14.796274792727564,,,,,,,,,
LBP03_S06,LBP03,24,25,6,24,24,1715749830.96,2024-05-15 05:10:30.960000+00:00,2024-05-15 14:10:30.960000+09:00,2024,5,15,5,10,30,960,,,,,,,,,-0.508545,-0.640381,2.034668,-113.098145,-9.094238,22.827148,,,,,,,,,,,0.0,1.0,1.0,6.0,0.0,0.0,0.0,4.0,0.0,,,,,,,-13.672030664187462,-13.288661777049763,-6.443928296365167,10.156516030646193,-5.465968760115005,5.355107200900842,12.71647771595839,,14.329106214024923,,,,,,,,,
LBP03_S06,LBP03,25,26,6,25,25,1715749831.0,2024-05-15 05:10:31+00:00,2024-05-15 14:10:31+09:00,2024,5,15,5,10,31,0,5.0,10.0,31.0,40.529808,141.493134,28.950001,3.0,13.0,0.172852,-0.2854,2.247803,24.597168,-132.202148,11.71875,-296.0,57.0,348.0,2610.0,0.0,1018.099976,30.459999,0.05054,-40.277672,3.853125,0.0,1.0,1.0,6.0,0.0,0.0,0.0,5.0,0.0,,,,,,,-2.729822292395183,-15.060620252458039,-7.832593781338677,10.047323138950386,-6.068393570213327,5.041803449647295,12.774736193220182,,14.125147660059255,,,,,,,,,
LBP03_S06,LBP03,26,27,6,26,26,1715749831.04,2024-05-15 05:10:31.040000+00:00,2024-05-15 14:10:31.040000+09:00,2024,5,15,5,10,31,40,,,,,,,,,0.363525,-0.616455,1.527832,6.896973,96.191406,29.296875,,,,,,,,,,,0.0,1.0,1.0,6.0,0.0,0.0,0.0,5.0,0.0,,,,,,,7.349077926184948,-17.089826211099638,-9.748537909592919,10.341286255997783,-6.7519866186573125,4.651861933263579,13.197399144269404,,14.166065986310056,,,,,,,,,
LBP03_S06,LBP03,27,28,6,27,27,1715749831.08,2024-05-15 05:10:31.080000+00:00,2024-05-15 14:10:31.080000+09:00,2024,5,15,5,10,31,80,,,,,,,,,-0.3479,0.033447,-0.08374,95.336914,237.792969,-6.958008,,,,,,,,,,,0.0,1.0,1.0,6.0,0.0,0.0,0.0,5.0,0.0,,,,,,,14.913079250401173,-19.116540044480697,-11.286966617363783,10.93780942601383,-7.51664822043654,4.200383268569027,13.920448811459472,,14.414737710633599,,,,,,,,,
LBP03_S06,LBP03,28,29,6,28,28,1715749831.12,2024-05-15 05:10:31.120000+00:00,2024-05-15 14:10:31.120000+09:00,2024,5,15,5,10,31,120,,,,,,,,,-0.102783,-0.144531,0.236572,-14.343262,-179.56543,-65.124512,,,,,,,,,,,0.0,1.0,1.0,6.0,0.0,0.0,0.0,5.0,0.0,,,,,,,18.85818468460021,-20.40235348059578,-11.508257042595117,11.692136813397838,-8.332742359660372,3.7400529868652224,14.83673329409984,,14.82317841471498,,,,,,,,,
LBP03_S06,LBP03,29,30,6,29,29,1715749831.16,2024-05-15 05:10:31.160000+00:00,2024-05-15 14:10:31.160000+09:00,2024,5,15,5,10,31,160,,,,,,,,,0.206787,0.095703,0.309082,106.567383,-139.770508,-102.722168,,,,,,,,,,,0.0,1.0,1.0,6.0,0.0,0.0,0.0,5.0,0.0,,,,,,,19.024925796862917,-20.106207987163362,-9.896573971529097,12.453133845272355,-9.136990679146907,3.3441900280040584,15.803441023476092,,15.341963204961706,,,,,,,,,
LBP03_S06,LBP03,30,31,6,30,30,1715749831.2,2024-05-15 05:10:31.200000+00:00,2024-05-15 14:10:31.200000+09:00,2024,5,15,5,10,31,200,,,,,,,,,0.532471,0.123047,0.363037,38.024902,-181.396484,-51.513672,,,,,,,,,,,0.0,1.0,1.0,6.0,0.0,0.0,0.0,5.0,0.0,,,,,,,16.277733705622598,-17.81622557879026,-6.664670165769473,13.104243193497258,-9.849639702298518,3.0776032213732796,16.679575340146453,,15.927946111681504,,,,,,,,,
LBP03_S06,LBP03,31,32,6,31,31,1715749831.24,2024-05-15 05:10:31.240000+00:00,2024-05-15 14:10:31.240000+09:00,2024,5,15,5,10,31,240,,,,,,,,,0.627197,0.193848,0.928955,14.404297,90.454102,20.507812,,,,,,,,,,,0.0,1.0,1.0,6.0,0.0,0.0,0.0,5.0,0.0,,,,,,,12.21821002765488,-13.898625819076242,-2.727060968598039,13.592971594603453,-10.405584735061568,2.968520782629358,17.37403770247852,,16.547616935442555,,,,,,,,,
LBP03_S06,LBP03,32,33,6,32,32,1715749831.28,2024-05-15 05:10:31.280000+00:00,2024-05-15 14:10:31.280000+09:00,2024,5,15,5,10,31,280,,,,,,,,,-0.328613,-0.478271,1.703125,-148.986816,93.62793,85.876465,,,,,,,,,,,0.0,1.0,1.0,6.0,0.0,0.0,0.0,5.0,0.0,,,,,,,8.628387921454408,-9.416778569658401,0.6773057076657725,13.93810711146163,-10.782255877847904,2.995613010935989,17.87460682021431,,17.17610514222385,,,,,,,,,
LBP03_S06,LBP03,33,34,6,33,33,1715749831.32,2024-05-15 05:10:31.320000+00:00,2024-05-15 14:10:31.320000+09:00,2024,5,15,5,10,31,320,,,,,,,,,0.001709,-0.586426,2.300537,19.714355,-75.927734,49.560547,,,,,,,,,,,0.0,1.0,1.0,6.0,0.0,0.0,0.0,5.0,0.0,,,,,,,6.864262002256164,-5.6528151885057305,2.5394991652789973,14.212677591551877,-11.008368485388132,3.097192977547149,18.242176004294414,,17.794917250074075,-1.0233855499635856,,,,,,,,
LBP03_S06,LBP03,34,35,6,34,34,1715749831.36,2024-05-15 05:10:31.360000+00:00,2024-05-15 14:10:31.360000+09:00,2024,5,15,5,10,31,360,,,,,,,,,0.418213,-0.530518,1.756592,-43.640137,-1.281738,48.76709,,,,,,,,,,,0.0,1.0,1.0,6.0,0.0,0.0,0.0,5.0,0.0,,,,,,,7.455730557811726,-3.4959832133713205,2.5319620552151614,14.510906813864347,-11.148207813922985,3.1984714597557558,18.576306783156344,,18.391491395525183,-1.0184785025026095,,,,,,,,
LBP03_S06,LBP03,35,36,6,35,35,1715749831.4,2024-05-15 05:10:31.400000+00:00,2024-05-15 14:10:31.400000+09:00,2024,5,15,5,10,31,400,,,,,,,,,0.011475,-0.294678,0.689941,66.345215,208.129883,17.39502,,,,,,,,,,,0.0,1.0,1.0,6.0,0.0,0.0,0.0,5.0,0.0,,,,,,,10.071214389209771,-3.0033143782033465,1.1250067153830914,14.913755389432739,-11.268340389051119,3.2434717283710794,18.9714444308307,,18.960527474640838,-1.026357512547925,,,,,,,,
LBP03_S06,LBP03,36,37,6,36,36,1715749831.44,2024-05-15 05:10:31.440000+00:00,2024-05-15 14:10:31.440000+09:00,2024,5,15,5,10,31,440,,,,,,,,,-0.593506,-0.065186,-0.376465,43.640137,12.145996,-66.772461,,,,,,,,,,,0.0,1.0,1.0,6.0,0.0,0.0,0.0,5.0,0.0,,,,,,,13.81888118668923,-3.340125972333188,-0.6894580408978067,15.466510636900308,-11.401945427944446,3.215893406735167,19.482281212082334,,19.50443321616795,-1.0322920094530892,,,,,,,,
LBP03_S06,LBP03,37,38,6,37,37,1715749831.48,2024-05-15 05:10:31.480000+00:00,2024-05-15 14:10:31.480000+09:00,2024,5,15,5,10,31,480,,,,,,,,,0.150879,-0.049561,0.051758,90.393066,-167.419434,-78.308105,,,,,,,,,,,0.0,1.0,1.0,6.0,0.0,0.0,0.0,5.0,0.0,0.12994790666666667,-0.21588865333333332,1.07166996,2.9581705733333337,3.5815429866666673,0.1774088799999996,17.694377027735378,-3.150352206002693,-1.9227615598163708,16.174285718009724,-11.527959516184554,3.1389829443425126,20.108569889961757,-1.0233855499635856,20.030449129134304,-1.0210771001003436,0.020931093333333345,0.16632765333333333,-1.01991196,1.2071707066666666,1.0335973128266849,1.0335973128266849,1.0335973128266849,1.0335973128266849
LBP03_S06,LBP03,38,39,6,38,38,1715749831.52,2024-05-15 05:10:31.520000+00:00,2024-05-15 14:10:31.520000+09:00,2024,5,15,5,10,31,520,,,,,,,,,0.538818,0.254395,0.302734,76.660156,-146.179199,-68.237305,,,,,,,,,,,0.0,1.0,1.0,6.0,0.0,0.0,0.0,5.0,0.0,0.12805988,-0.20799152,1.04665368,-0.21809896000000023,8.771972666666667,0.3955078399999996,20.93571906312698,-1.2069872551200915,-2.090607006001684,17.011714480534803,-11.576239006389358,3.055358664102445,20.80247474861089,-1.0135714550416335,20.54438503784801,-1.0099164452114306,0.41075812,0.46238652,-0.7439196799999999,1.6170643199999999,0.9674399295640774,1.0005186211953812,1.0005186211953812,1.0005186211953812
LBP03_S06,LBP03,39,40,6,39,39,1715749831.56,2024-05-15 05:10:31.560000+00:00,2024-05-15 14:10:31.560000+09:00,2024,5,15,5,10,31,560,,,,,,,,,0.663086,0.006592,0.928711,-36.682129,28.747559,-7.995605,,,,,,,,,,,0.0,1.0,1.0,6.0,0.0,0.0,0.0,5.0,0.0,0.11864908,-0.20582354666666666,1.01961592,1.2532552,7.802734386666668,-0.5655924266666671,23.12666010262807,2.9770264864722895,-1.4300652605937798,17.936780884639926,-11.457157946930465,2.9981560536786938,21.493801814632665,-1.042115532638556,21.043521260718176,-1.00847019675514,0.54443692,0.21241554666666665,-0.09090491999999994,0.8477573866666666,0.591435227903269,0.8641574900980104,0.8641574900980104,0.8641574900980104
LBP03_S06,LBP03,40,41,6,40,40,1715749831.6,2024-05-15 05:10:31.600000+00:00,2024-05-15 14:10:31.600000+09:00,2024,5,15,5,10,31,600,,,,,,,,,-0.069824,-0.485107,1.740723,-85.876465,156.616211,85.388184,,,,,,,,,,,0.0,1.0,1.0,6.0,0.0,0.0,0.0,5.0,0.0,0.11402017333333334,-0.20147133333333334,1.00671552,0.5354817599999997,2.699381520000001,-2.5398762800000005,24.055974874489632,8.889688543372326,-0.7241183314448411,18.899019879619512,-11.101570405195572,2.9691913204209,22.118632755417558,-1.0500955001685819,21.512412115929546,-1.0170529052714135,-0.18384417333333333,-0.2836356666666667,0.73400748,1.20148732,0.8080933437233668,0.8501414535043496,0.8501414535043496,0.8501414535043496
LBP03_S06,LBP03,41,42,6,41,41,1715749831.64,2024-05-15 05:10:31.640000+00:00,2024-05-15 14:10:31.640000+09:00,2024,5,15,5,10,31,640,,,,,,,,,-0.10376,-0.626221,2.098633,-11.901855,-91.73584,44.067383,,,,,,,,,,,0.0,1.0,1.0,6.0,0.0,0.0,0.0,5.0,0.0,0.12992512,-0.19404945333333334,1.0109505466666666,-1.2500000000000002,-2.912597653333332,-2.1166992000000007,23.500087703204276,15.215288325280046,-0.8394253196174504,19.839023387747684,-10.49295887218437,2.935614307636202,22.63419683214208,-0.9762174626893608,21.924342197078385,-1.023228360355174,-0.23368512000000002,-0.4321715466666667,1.0876824533333334,1.7535391200000001,1.1934965858128344,0.9188124799660464,0.9188124799660464,0.9188124799660464
LBP03_S06,LBP03,42,43,6,42,42,1715749831.68,2024-05-15 05:10:31.680000+00:00,2024-05-15 14:10:31.680000+09:00,2024,5,15,5,10,31,680,,,,,,,,,0.33374,-0.825439,1.910889,19.714355,-38.94043,53.710938,,,,,,,,,,,0.0,1.0,1.0,6.0,0.0,0.0,0.0,5.0,0.0,0.13791014666666668,-0.19630856,1.0237044533333333,-2.584635413333334,0.07242840000000134,-1.2915038800000003,21.14356404944099,20.349710577954802,-2.2364073617216738,20.684765949725325,-9.67897044906618,2.846158013167335,23.013965907351327,-0.9541131707668669,22.248588837695372,-1.0218109804241504,0.1958298533333333,-0.6291304400000001,0.8871845466666668,1.7121448400000001,1.1051021951997415,0.949860765838329,0.949860765838329,0.949860765838329
LBP03_S06,LBP03,43,44,6,43,43,1715749831.72,2024-05-15 05:10:31.720000+00:00,2024-05-15 14:10:31.720000+09:00,2024,5,15,5,10,31,720,,,,,,,,,0.225342,-0.036621,0.873291,88.07373,224.243164,31.37207,,,,,,,,,,,0.0,1.0,1.0,6.0,0.0,0.0,0.0,5.0,0.0,0.12869465333333333,-0.20257809333333332,1.0354492533333333,-5.426432293333333,2.2444661600000013,0.48583986666666645,16.74200364520952,22.995919473979388,-4.715500777009422,21.354446095533707,-8.759133670107005,2.6575379820869585,23.233538232996104,-0.9997927060173948,22.46078662024876,-1.0238454553963086,0.09664734666666666,0.1659570933333333,-0.16215825333333322,0.42476269333333316,0.25135187600149916,0.8500737815759247,0.8500737815759247,0.8500737815759247
LBP03_S06,LBP03,44,45,6,44,44,1715749831.76,2024-05-15 05:10:31.760000+00:00,2024-05-15 14:10:31.760000+09:00,2024,5,15,5,10,31,760,,,,,,,,,-0.629639,-0.018555,-0.252197,95.275879,134.460449,-83.190918,,,,,,,,,,,0.0,1.0,1.0,6.0,0.0,0.0,0.0,5.0,0.0,0.11524087999999999,-0.21738929333333332,1.0513053733333333,-5.585937506666667,1.4778646000000013,0.16845705333333308,10.438468915540028,22.6092589461111,-7.523184646020966,21.771984852155306,-7.854763312262561,2.35661059624612,23.265215335270067,-1.0771318648853272,22.551915420134044,-1.0278993078698353,-0.7448798799999999,0.19883429333333333,-1.3035023733333333,2.2472165466666665,1.51443043720067,0.9331183635290179,0.9331183635290179,0.9331183635290179
LBP03_S06,LBP03,45,46,6,45,45,1715749831.8,2024-05-15 05:10:31.800000+00:00,2024-05-15 14:10:31.800000+09:00,2024,5,15,5,10,31,800,,,,,,,,,0.209717,-0.077637,0.357666,8.056641,-137.390137,-90.637207,,,,,,,,,,,0.0,1.0,1.0,6.0,0.0,0.0,0.0,5.0,0.0,0.11966470666666669,-0.22346026666666666,1.0536849333333334,-4.007161466666666,-1.4998372133333322,-1.1499023333333336,3.0087921047123483,19.523330021844117,-9.740548458343543,21.8923365363438,-7.073830111388796,1.966988657912378,23.090745242319066,-1.0726320010252597,22.5318119963612,-1.0252016020168835,0.0900522933333333,0.14582326666666667,-0.6960189333333333,0.9318944933333333,0.716809735002533,0.9090840714705196,0.9090840714705196,0.9090840714705196
LBP03_S06,LBP03,46,47,6,46,46,1715749831.84,2024-05-15 05:10:31.840000+00:00,2024-05-15 14:10:31.840000+09:00,2024,5,15,5,10,31,840,,,,,,,,,0.44873,0.061035,0.460693,11.230469,-121.582031,-43.151855,,,,,,,,,,,0.0,1.0,1.0,6.0,0.0,0.0,0.0,5.0,0.0,0.13094074666666666,-0.21065101333333333,1.0315397466666667,-2.017415373333333,1.4152018533333346,-1.2386067600000004,-4.17298476784859,14.720701865327522,-10.727083680568814,21.72541714562986,-6.485002036775695,1.5379053106896254,22.724747618252223,-1.0090545610449364,22.425847085923863,-1.0167303147609839,0.31778925333333335,0.2716860133333333,-0.5708467466666667,1.1603220133333334,0.7075798948210974,0.8889336538055774,0.8889336538055774,0.8889336538055774
LBP03_S06,LBP03,47,48,6,47,47,1715749831.88,2024-05-15 05:10:31.880000+00:00,2024-05-15 14:10:31.880000+09:00,2024,5,15,5,10,31,880,,,,,,,,,0.62085,0.189453,1.138672,7.080078,94.543457,2.01416,,,,,,,,,,,0.0,1.0,1.0,6.0,0.0,0.0,0.0,5.0,0.0,0.11904948,-0.20744789333333336,1.0001595466666666,-0.7877604266666667,5.050455760000001,-2.3518880133333333,-9.506406807617525,9.398655273282051,-10.376340274808594,21.345160873325156,-6.109055825844413,1.1228516996972817,22.230547715495625,-1.043730299685168,22.266971470417037,-1.0168567599818346,0.50180052,0.39690089333333334,0.13851245333333329,1.0372138666666666,0.6546142228285964,0.8676318873531245,0.8676318873531245,0.8676318873531245
LBP03_S06,LBP03,48,49,6,48,48,1715749831.92,2024-05-15 05:10:31.920000+00:00,2024-05-15 14:10:31.920000+09:00,2024,5,15,5,10,31,920,,,,,,,,,-0.414795,-0.418945,1.704834,-208.984375,89.416504,16.418457,,,,,,,,,,,0.0,1.0,1.0,6.0,0.0,0.0,0.0,5.0,0.0,0.11315104000000001,-0.20199541333333335,0.9798144933333333,-0.6315104266666665,1.8774414266666675,-4.05029296,-11.739314015338598,4.572587890009659,-9.064319312970843,20.875588312711614,-5.926152310244027,0.760278927178448,21.713762747463736,-1.0541099797769007,22.087279064711645,-1.0289666938855018,-0.52794604,-0.21694958666666667,0.7250195066666667,1.4699151333333333,0.9227390906175461,0.8722241542918264,0.8722241542918264,0.8722241542918264
LBP03_S06,LBP03,49,50,6,49,49,1715749831.96,2024-05-15 05:10:31.960000+00:00,2024-05-15 14:10:31.960000+09:00,2024,5,15,5,10,31,960,,,,,,,,,-0.276123,-0.717773,2.248535,8.056641,-121.887207,38.085938,,,,,,,,,,,0.0,1.0,1.0,6.0,0.0,0.0,0.0,5.0,0.0,0.12475259999999999,-0.20352861333333336,0.9862337599999998,-0.9529622399999997,-2.941894506666666,-4.388834626666667,-10.482279351359296,0.8773705543481837,-7.3531076383738885,20.45629713865724,-5.8910574880701,0.4661546216434925,21.2927675769042,-1.0151384741090381,21.912461328498352,-1.0377135310879377,-0.4008756,-0.5142443866666666,1.2623012400000002,2.1774212266666666,1.4207578809913652,0.914419056345637,0.914419056345637,0.914419056345637
LBP03_S06,LBP03,50,51,6,50,50,1715749832.0,2024-05-15 05:10:32+00:00,2024-05-15 14:10:32+09:00,2024,5,15,5,10,32,0,5.0,10.0,32.0,40.52972,141.492996,29.844,3.0,13.0,0.55835,-0.427002,2.053955,-36.132812,-124.267578,32.714844,-295.0,56.0,351.0,2769.0,0.0,1018.400024,30.49,0.053513,-42.764385,3.853125,0.0,1.0,1.0,6.0,0.0,0.0,0.0,4.0,0.0,0.13516276,-0.19728186666666667,0.9943945599999999,0.9415690133333335,-0.05208331999999925,-3.74104816,-6.402804407271552,-1.4167324414157332,-5.64002819069663,20.20018496236638,-5.947726785726729,0.24055349401562726,21.058983651044205,-0.9653826276095872,21.760032847980305,-1.032595608195308,0.42318724,-0.22972013333333333,1.0595604400000003,1.7124678133333338,1.1638415294920939,0.9322349472846696,0.9322349472846696,0.9322349472846696
LBP03_S06,LBP03,51,52,6,51,51,1715749832.04,2024-05-15 05:10:32.040000+00:00,2024-05-15 14:10:32.040000+09:00,2024,5,15,5,10,32,40,,,,,,,,,0.268799,-0.262939,1.09375,41.19873,233.215332,57.495117,,,,,,,,,,,0.0,1.0,1.0,6.0,0.0,0.0,0.0,4.0,0.0,0.12915365333333334,-0.19344724000000002,1.0039453333333335,-2.2005208266666663,3.3170573066666678,-0.9936523333333336,-0.9867581852524484,-2.2401429617097395,-3.9560876874591284,20.160714634956282,-6.037332504195119,0.08230998651726212,21.04544067707378,-0.9774819148978672,21.639895596335617,-1.029523318245591,0.13964534666666667,-0.06949175999999996,0.08980466666666653,0.29894177333333316,0.17998557083461494,0.882084988854666,0.882084988854666,0.882084988854666
LBP03_S06,LBP03,52,53,6,52,52,1715749832.08,2024-05-15 05:10:32.080000+00:00,2024-05-15 14:10:32.080000+09:00,2024,5,15,5,10,32,80,,,,,,,,,-0.570312,0.254395,-0.281982,126.831055,159.484863,-64.39209,,,,,,,,,,,0.0,1.0,1.0,6.0,0.0,0.0,0.0,4.0,0.0,0.11156575999999999,-0.20942705333333334,1.0216894666666667,-4.839680986666666,3.0550130400000004,-0.9016926933333336,4.025309677418658,-1.5262599221887085,-2.0250558547269053,20.32172702205303,-6.098382901082667,0.0013077523281859044,21.21704185029746,-1.0752125098035394,21.55504469572046,-1.0349935727581956,-0.68187776,0.4638220533333333,-1.3036714666666667,2.4493712800000003,1.5426106021098729,0.9233678396831164,0.9233678396831164,0.9233678396831164
LBP03_S06,LBP03,53,54,6,53,53,1715749832.12,2024-05-15 05:10:32.120000+00:00,2024-05-15 14:10:32.120000+09:00,2024,5,15,5,10,32,120,,,,,,,,,0.192627,-0.036621,0.179443,14.343262,-208.435059,-65.612793,,,,,,,,,,,0.0,1.0,1.0,6.0,0.0,0.0,0.0,4.0,0.0,0.10996420000000001,-0.21263018666666667,1.0280175866666665,-3.00211588,-0.7421874799999993,-2.4064127466666667,7.255985113660228,0.8696834161463249,0.455037481471753,20.611966426599437,-6.063595564436814,0.019509251587056024,21.485360870863158,-1.087261078041755,21.501143972311205,-1.0332205505705472,0.08266279999999998,0.17600918666666665,-0.8485745866666665,1.1072465733333332,0.8705694696182524,0.9202620532087127,0.9202620532087127,0.9202620532087127
LBP03_S06,LBP03,54,55,6,54,54,1715749832.16,2024-05-15 05:10:32.160000+00:00,2024-05-15 14:10:32.160000+09:00,2024,5,15,5,10,32,160,,,,,,,,,0.679688,-0.067627,0.758057,14.892578,-109.130859,-59.753418,,,,,,,,,,,0.0,1.0,1.0,6.0,0.0,0.0,0.0,4.0,0.0,0.12410808000000001,-0.20748369333333333,1.0137760533333333,-1.06608072,0.7836914266666674,-2.3111979066666666,8.081490123059936,5.048137824319181,3.4805437638651466,20.935226031521836,-5.8616700514640465,0.1587310021416619,21.740930530089575,-1.0259526359590292,21.46542938422896,-1.0254128940018075,0.55557992,0.13985669333333334,-0.25571905333333333,0.9511556666666667,0.6273923624136946,0.9039915148312117,0.9039915148312117,0.9039915148312117
LBP03_S06,LBP03,55,56,6,55,55,1715749832.2,2024-05-15 05:10:32.200000+00:00,2024-05-15 14:10:32.200000+09:00,2024,5,15,5,10,32,200,,,,,,,,,0.52832,0.245361,1.150635,23.620605,90.148926,16.052246,,,,,,,,,,,0.0,1.0,1.0,6.0,0.0,0.0,0.0,4.0,0.0,0.11435221333333331,-0.19828121333333334,0.9809635466666666,0.7942708400000001,5.379231786666668,-2.4519856666666664,6.653053169676999,10.826794971533134,6.573179250987106,21.201348158308917,-5.428598252602721,0.4216581721811461,21.889372725872192,-1.041909101528089,21.426711571086656,-1.0223105355490565,0.41396778666666667,0.4436422133333333,0.16967145333333344,1.0272814533333334,0.6300604287885753,0.8895740892500202,0.8895740892500202,0.8895740892500202
LBP03_S06,LBP03,56,57,6,56,56,1715749832.24,2024-05-15 05:10:32.240000+00:00,2024-05-15 14:10:32.240000+09:00,2024,5,15,5,10,32,240,,,,,,,,,-0.197021,-0.693115,1.942627,-158.508301,82.702637,51.269531,,,,,,,,,,,0.0,1.0,1.0,6.0,0.0,0.0,0.0,4.0,0.0,0.10689452,-0.19516597333333335,0.9602376399999999,1.2125651066666667,2.6196289200000002,-3.66048176,3.6082701385671676,17.58529583595023,8.89463792566906,21.345678963851604,-4.725186419164712,0.7774436892079085,21.876238612100682,-1.0637571061709825,21.35823360750394,-1.0332047599468708,-0.30391552,-0.4979490266666667,0.9823893600000002,1.784253906666667,1.1425439733753624,0.9022225834562875,0.9022225834562875,0.9022225834562875
LBP03_S06,LBP03,57,58,6,57,57,1715749832.28,2024-05-15 05:10:32.280000+00:00,2024-05-15 14:10:32.280000+09:00,2024,5,15,5,10,32,280,,,,,,,,,-0.315918,-0.810303,2.248779,16.662598,-69.702148,40.83252,,,,,,,,,,,0.0,1.0,1.0,6.0,0.0,0.0,0.0,4.0,0.0,0.11640949333333334,-0.19455724,0.9655436266666665,1.5958658933333336,-2.275390613333333,-4.835611973333334,-0.3189931889346169,24.31866390485299,9.597082640159934,21.33291923629422,-3.752439862970592,1.161326994814306,21.69154048140305,-1.026000077808684,21.233689542775174,-1.0438167445709428,-0.4323274933333333,-0.61574576,1.2832353733333335,2.331308626666667,1.487529134445373,0.9300943239795771,0.9300943239795771,0.9300943239795771
LBP03_S06,LBP03,58,59,6,58,58,1715749832.32,2024-05-15 05:10:32.320000+00:00,2024-05-15 14:10:32.320000+09:00,2024,5,15,5,10,32,320,,,,,,,,,0.500732,-0.397705,1.755371,-56.57959,-25.817871,59.692383,,,,,,,,,,,0.0,1.0,1.0,6.0,0.0,0.0,0.0,4.0,0.0,0.12771482666666667,-0.19075516,0.9722200666666667,1.2817382933333337,-1.6349283733333329,-4.457194013333334,-4.560551931169545,29.874183145818773,8.223436417260297,21.15049715904744,-2.5574725371378415,1.4902644515047179,21.35661686664128,-0.9760334140895011,21.034692764910897,-1.0391576104099614,0.3730171733333333,-0.20694983999999997,0.7831509333333333,1.3631179466666665,0.8917933798018949,0.9283533719715007,0.9283533719715007,0.9283533719715007
LBP03_S06,LBP03,59,60,6,59,59,1715749832.36,2024-05-15 05:10:32.360000+00:00,2024-05-15 14:10:32.360000+09:00,2024,5,15,5,10,32,360,,,,,,,,,0.665527,-0.049316,1.233398,128.723145,206.298828,66.467285,,,,,,,,,,,0.0,1.0,1.0,6.0,0.0,0.0,0.0,4.0,0.0,0.12632158666666668,-0.19204746666666664,0.98096356,0.28971354666666665,2.7376302266666674,-2.0556640666666675,-8.73311540373733,33.2626382926004,4.944120868202977,20.801172542897948,-1.2269670054338255,1.688029286232837,20.905589445481187,-0.9841148895815309,20.756737226641782,-1.035616926753875,0.5392054133333333,0.14273146666666664,0.25243444000000004,0.9343713199999999,0.612240063898878,0.914609315098778,0.914609315098778,0.914609315098778
LBP03_S06,LBP03,60,61,6,60,60,1715749832.4,2024-05-15 05:10:32.400000+00:00,2024-05-15 14:10:32.400000+09:00,2024,5,15,5,10,32,400,,,,,,,,,-0.678223,0.02832,-0.17749,-1.342773,163.452148,-67.687988,,,,,,,,,,,0.0,1.0,1.0,6.0,0.0,0.0,0.0,4.0,0.0,0.10947914666666667,-0.20509434666666668,0.9963900000000001,0.20996094666666693,3.9729817866666677,-1.7187500133333338,-12.478138431944435,33.915552908466914,0.5066017247064655,20.30204700562017,0.12965511090485116,1.7082933552210957,20.374204015217067,-1.07432487158773,20.411123324705308,-1.0384891945321244,-0.7877021466666667,0.2334143466666667,-1.17388,2.1949964933333335,1.4328123336617054,0.9362011075389,0.9362011075389,0.9362011075389
LBP03_S06,LBP03,61,62,6,61,61,1715749832.44,2024-05-15 05:10:32.440000+00:00,2024-05-15 14:10:32.440000+09:00,2024,5,15,5,10,32,440,,,,,,,,,0.213867,-0.263184,0.394531,-12.084961,-188.049316,-79.833984,,,,,,,,,,,0.0,1.0,1.0,6.0,0.0,0.0,0.0,4.0,0.0,0.10719398666666669,-0.20533524000000003,1.0072005466666667,1.2972005333333338,-0.3588867066666656,-2.4194336,-15.305150896478274,31.773397488953428,-4.070332618295047,19.68984096976104,1.4005910104629884,1.5454800504892938,19.800000029786123,-1.0836017611385846,20.022235862191927,-1.0362160495970973,0.10667301333333332,-0.057848759999999944,-0.6126695466666667,0.77719132,0.6245715205001666,0.9237359240573507,0.9237359240573507,0.9237359240573507
LBP03_S06,LBP03,62,63,6,62,62,1715749832.48,2024-05-15 05:10:32.480000+00:00,2024-05-15 14:10:32.480000+09:00,2024,5,15,5,10,32,480,,,,,,,,,0.750732,-0.179688,0.853271,33.752441,-69.763184,-71.044922,,,,,,,,,,,0.0,1.0,1.0,6.0,0.0,0.0,0.0,4.0,0.0,0.12147784000000002,-0.2043424,0.99664716,2.875976586666667,0.6713867333333344,-2.4047851600000003,-16.60254901235123,27.177407181740584,-7.885533646329596,19.025739009266992,2.487687297732612,1.23005870463611,19.227074071654663,-1.0286211681937274,19.621668306722356,-1.027547809910332,0.6292541599999999,0.02465440000000002,-0.14337615999999997,0.7972847199999998,0.6458524294086159,0.9082261287206278,0.9130480973400915,0.9130480973400915
LBP03_S06,LBP03,63,64,6,63,63,1715749832.52,2024-05-15 05:10:32.520000+00:00,2024-05-15 14:10:32.520000+09:00,2024,5,15,5,10,32,520,,,,,,,,,0.374023,0.162354,1.148438,-105.285645,167.236328,39.794922,,,,,,,,,,,0.0,1.0,1.0,6.0,0.0,0.0,0.0,4.0,0.0,0.11223629333333332,-0.19932288,0.96293948,4.385579453333334,6.237792973333335,-2.869466146666667,-15.848913812399768,20.6780096716102,-10.417582130823897,18.391782456771,3.31480768459702,0.813355419403154,18.705805488171993,-1.0518542414808905,19.241580835607635,-1.022240799795314,0.2617867066666667,0.36167688,0.1854985200000001,0.8089621066666668,0.48347920972478664,0.8888676999270563,0.8971381385395247,0.8971381385395247
LBP03_S06,LBP03,64,65,6,64,64,1715749832.56,2024-05-15 05:10:32.560000+00:00,2024-05-15 14:10:32.560000+09:00,2024,5,15,5,10,32,560,,,,,,,,,-0.224365,-0.994873,2.178711,-92.285156,-29.296875,28.381348,,,,,,,,,,,0.0,1.0,1.0,6.0,0.0,0.0,0.0,4.0,0.0,0.10789385333333333,-0.19280596,0.94608076,3.6555989866666674,1.9067382933333343,-4.3725586000000005,-12.910797266705758,12.922291829689728,-11.547434226287132,17.87535056610277,3.831699357784609,0.3514580503516687,18.284791510724826,-1.0546753137415246,18.909181951453494,-1.029240845542978,-0.3322588533333333,-0.8020670400000001,1.2326302399999998,2.366956133333333,1.5076752935679487,0.9255173025536435,0.9189430369333971,0.9189430369333971
LBP03_S06,LBP03,65,66,6,65,65,1715749832.6,2024-05-15 05:10:32.600000+00:00,2024-05-15 14:10:32.600000+09:00,2024,5,15,5,10,32,600,,,,,,,,,0.037598,-0.323975,1.837891,-23.925781,-51.879883,18.615723,,,,,,,,,,,0.0,1.0,1.0,6.0,0.0,0.0,0.0,4.0,0.0,0.11694984,-0.19245765333333334,0.9518815333333334,4.025065133333334,-2.260742173333332,-5.55908204,-8.238055429046836,4.678157682426738,-11.394096013813389,17.545828348940898,4.018825665081678,-0.10430579020086683,18.000498100738398,-1.0191776521778197,18.643309822565186,-1.039225938136164,-0.07935184,-0.13151734666666667,0.8860094666666666,1.0968786533333332,0.8992253899932857,0.9291625844044402,0.9182631180733932,0.9182631180733932
LBP03_S06,LBP03,66,67,6,66,66,1715749832.64,2024-05-15 05:10:32.640000+00:00,2024-05-15 14:10:32.640000+09:00,2024,5,15,5,10,32,640,,,,,,,,,0.506348,-0.55542,1.761475,51.452637,87.585449,41.931152,,,,,,,,,,,0.0,1.0,1.0,6.0,0.0,0.0,0.0,4.0,0.0,0.12650387999999999,-0.18941404,0.9566536666666665,3.546549506666667,-1.2117512799999988,-4.747721360000001,-2.8100697684783236,-3.088389127419146,-10.125489489060365,17.433425558201765,3.8952900999849125,-0.5093253697632815,17.87056305740498,-0.9770747093033266,18.453421967098603,-1.0354177233829815,0.37984412,-0.36600596,0.8048213333333334,1.5506714133333335,0.9622781805915276,0.9199138481955879,0.9197302868239976,0.9197302868239976
LBP03_S06,LBP03,67,68,6,67,67,1715749832.68,2024-05-15 05:10:32.680000+00:00,2024-05-15 14:10:32.680000+09:00,2024,5,15,5,10,32,680,,,,,,,,,-0.250488,0.060303,0.020996,59.631348,184.387207,-28.991699,,,,,,,,,,,0.0,1.0,1.0,6.0,0.0,0.0,0.0,4.0,0.0,0.12725257333333334,-0.18876950666666667,0.9641601733333335,0.9537760666666671,2.9874674666666676,-2.2102864666666666,2.1718330618040134,-9.225790498591772,-7.89072885788225,17.520298880673927,3.5262584800412418,-0.8249545240785714,17.890665770255854,-0.9729299766585047,18.340663602200163,-1.0313673416469735,-0.37774057333333333,0.24907250666666667,-0.9431641733333335,1.5699772533333336,1.0460801652736573,0.9175529669985445,0.9238060893546318,0.9238060893546318
LBP03_S06,LBP03,68,69,6,68,68,1715749832.72,2024-05-15 05:10:32.720000+00:00,2024-05-15 14:10:32.720000+09:00,2024,5,15,5,10,32,720,,,,,,,,,-0.21582,-0.016357,0.073486,23.55957,-123.962402,-69.213867,,,,,,,,,,,0.0,1.0,1.0,6.0,0.0,0.0,0.0,4.0,0.0,0.11541662666666667,-0.20215818666666666,0.9824381733333333,-1.8424478933333326,4.723307306666668,-1.0375976666666669,5.699364897299108,-12.609815848966322,-4.9053958586321595,17.748273476565892,3.021865846082589,-1.0211703584238578,18.032628025099843,-1.04603387156614,18.300007249026827,-1.0334339135723842,-0.3312366266666667,0.18580118666666665,-0.9089521733333332,1.4259899866666665,0.985106003037056,0.9469031320799668,0.9257217116572076,0.9257217116572076
LBP03_S06,LBP03,69,70,6,69,69,1715749832.76,2024-05-15 05:10:32.760000+00:00,2024-05-15 14:10:32.760000+09:00,2024,5,15,5,10,32,760,,,,,,,,,0.333252,0.046143,0.273682,1.403809,-186.218262,-79.223633,,,,,,,,,,,0.0,1.0,1.0,6.0,0.0,0.0,0.0,4.0,0.0,0.10713538666666667,-0.20548826666666667,0.99429364,-1.3614908666666663,2.221679693333335,-1.1686198,7.279309935508014,-12.549823266528728,-1.5911965794708187,18.039445873986214,2.51987291542144,-1.0848182216026907,18.246868156598108,-1.0839658155133907,18.322281127325873,-1.0317435744882615,0.22611661333333333,0.2516312666666667,-0.72061164,1.19835952,0.7960704446800527,0.9181687323791421,0.9217928853851726,0.9217928853851726
LBP03_S06,LBP03,70,71,6,70,70,1715749832.8,2024-05-15 05:10:32.800000+00:00,2024-05-15 14:10:32.800000+09:00,2024,5,15,5,10,32,800,,,,,,,,,0.67334,-0.303223,0.751709,-15.380859,-113.952637,-6.347656,,,,,,,,,,,0.0,1.0,1.0,6.0,0.0,0.0,0.0,4.0,0.0,0.12060869333333334,-0.20657550666666666,0.9897103066666667,0.19287110666666754,1.0701497466666678,-1.7277018400000002,7.0317732271849955,-9.205721083404743,1.38848998735592,18.320716803073612,2.1516440720852503,-1.029278622108454,18.47532546055124,-1.0362427240559078,18.39552621586517,-1.0237096550915292,0.5527313066666667,-0.09664749333333336,-0.23800130666666675,0.8873801066666668,0.6095057483831454,0.9138765729143665,0.9126079695909953,0.9126079695909953
LBP03_S06,LBP03,71,72,6,71,71,1715749832.84,2024-05-15 05:10:32.840000+00:00,2024-05-15 14:10:32.840000+09:00,2024,5,15,5,10,32,840,,,,,,,,,0.277832,0.338867,0.746094,58.532715,174.743652,79.345703,,,,,,,,,,,0.0,1.0,1.0,6.0,0.0,0.0,0.0,4.0,0.0,0.11411454666666666,-0.19856769333333335,0.9552376533333334,0.8528646000000007,5.4101562533333345,-2.1118164266666666,5.55858747733211,-3.7366661938766756,3.2968690277153954,18.543060302166896,2.002177424330183,-0.8974038609998382,18.672416380801728,-1.0430979437785044,18.50608643204152,-1.0162872778203773,0.16371745333333337,0.5374346933333334,-0.2091436533333334,0.9102958000000002,0.5994835459408873,0.9095527189591582,0.9036615574867065,0.9036615574867065
LBP03_S06,LBP03,72,73,6,72,72,1715749832.88,2024-05-15 05:10:32.880000+00:00,2024-05-15 14:10:32.880000+09:00,2024,5,15,5,10,32,880,,,,,,,,,-0.396973,-0.780029,1.836914,-131.225586,-10.925293,61.096191,,,,,,,,,,,0.0,1.0,1.0,6.0,0.0,0.0,0.0,4.0,0.0,0.10835608000000001,-0.19122718666666666,0.9320996266666667,3.2503255466666676,3.8932291600000015,-3.683268253333334,3.6724254350896177,1.981277887934715,3.647341047194136,18.689957319570482,2.081428539847572,-0.7515102191120727,18.820510539921283,-1.0492868874478336,18.64037717799037,-1.016841070669587,-0.50532908,-0.5888018133333333,0.9048143733333333,1.9989452666666665,1.1919455124580403,0.931045970544336,0.9116694451247991,0.9116694451247991
LBP03_S06,LBP03,73,74,6,73,73,1715749832.92,2024-05-15 05:10:32.920000+00:00,2024-05-15 14:10:32.920000+09:00,2024,5,15,5,10,32,920,,,,,,,,,-0.074219,-0.064209,1.742188,106.506348,-59.326172,17.944336,,,,,,,,,,,0.0,1.0,1.0,6.0,0.0,0.0,0.0,4.0,0.0,0.10939448000000002,-0.18664060000000002,0.9250944266666666,4.068196640000001,0.24414061333333412,-5.25146488,2.1124757878856166,5.9793536727617855,2.501639520892029,18.774456351085906,2.3206026867580434,-0.6514446382763915,18.928544271162473,-1.0349508506396632,18.787915809903268,-1.0249496830860967,-0.18361348,0.12243160000000002,0.8170935733333334,1.1231386533333334,0.8463718534420352,0.9279912810573155,0.9099046453495893,0.9099046453495893
LBP03_S06,LBP03,74,75,6,74,74,1715749832.96,2024-05-15 05:10:32.960000+00:00,2024-05-15 14:10:32.960000+09:00,2024,5,15,5,10,32,960,,,,,,,,,0.509521,-0.26709,1.333496,-91.674805,55.786133,9.094238,,,,,,,,,,,0.0,1.0,1.0,6.0,0.0,0.0,0.0,4.0,0.0,0.12337559999999999,-0.18359046666666667,0.9356413066666666,3.9225260666666677,-1.7838541733333326,-5.5297851866666665,1.354552987410514,6.895935267266071,0.546426530799659,18.828638470582327,2.5964400974486863,-0.6295875770444052,19.017242396117812,-0.9743361197742016,18.9450178485551,-1.0233335733012108,0.3861454,-0.08349953333333332,0.39785469333333345,0.8674996266666668,0.5606860075081286,0.893588406117986,0.9007146811958667,0.9007146811958667
LBP03_S06,LBP03,75,76,6,75,75,1715749833.0,2024-05-15 05:10:33+00:00,2024-05-15 14:10:33+09:00,2024,5,15,5,10,33,0,5.0,10.0,33.0,40.52964,141.492844,31.801001,3.0,13.0,-0.344727,-0.130615,0.306152,20.812988,261.108398,23.864746,-295.0,57.0,351.0,2913.0,0.0,1017.599976,30.540001,0.045585,-36.132507,3.853125,0.0,1.0,1.0,6.0,0.0,0.0,0.0,4.0,0.0,0.13083328,-0.18261389333333333,0.9481575866666668,3.0753581066666675,1.0139974000000007,-4.510091186666667,1.5693550953730848,4.4699251440277195,-1.1358369983429808,18.89141267439725,2.775237103209795,-0.6750210569781244,19.10610026250185,-0.9449538794663014,19.117205067296837,-1.016390666178776,-0.47556028,0.051998893333333324,-0.6420055866666668,1.16956476,0.8006451387055197,0.8790605504865231,0.898148795490986,0.898148795490986
LBP03_S06,LBP03,76,77,6,76,76,1715749833.04,2024-05-15 05:10:33.040000+00:00,2024-05-15 14:10:33.040000+09:00,2024,5,15,5,10,33,40,,,,,,,,,-0.151611,-0.038086,-0.024902,20.385742,-106.201172,-87.70752,,,,,,,,,,,0.0,1.0,1.0,6.0,0.0,0.0,0.0,4.0,0.0,0.12487625333333334,-0.18923173333333335,0.9643587600000001,0.0903320666666669,3.740234373333334,-2.5113932666666665,2.7123201817332783,-0.37278469744678033,-1.5235723418623384,18.999905481666584,2.760325715311924,-0.735963950652618,19.213470516893516,-0.9826126377954227,19.317974946313615,-1.0164852192453704,-0.27648725333333335,0.15114573333333334,-0.9892607600000001,1.4168937466666667,1.0382326739399312,0.9133904346107358,0.9016508924522096,0.9016508924522096
LBP03_S06,LBP03,77,78,6,77,77,1715749833.08,2024-05-15 05:10:33.080000+00:00,2024-05-15 14:10:33.080000+09:00,2024,5,15,5,10,33,80,,,,,,,,,0.176514,0.050049,0.328857,93.62793,-132.263184,-96.923828,,,,,,,,,,,0.0,1.0,1.0,6.0,0.0,0.0,0.0,4.0,0.0,0.11095046666666666,-0.19791337333333336,0.97961592,0.6909180000000003,2.8776041600000006,-2.1606445733333337,4.6645210747468395,-5.8959500445444455,-0.13596642733479505,19.186486324656457,2.524487713530146,-0.7414026077460097,19.36605208938483,-1.0540161008236013,19.56310840298124,-1.0148532248107431,0.06556353333333334,0.24796237333333337,-0.6507589199999999,0.9642848266666666,0.6994791544083475,0.8796651767026747,0.8967198744511398,0.8967198744511398
LBP03_S06,LBP03,78,79,6,78,78,1715749833.12,2024-05-15 05:10:33.120000+00:00,2024-05-15 14:10:33.120000+09:00,2024,5,15,5,10,33,120,,,,,,,,,0.47998,0.177246,0.409668,43.212891,-115.539551,-22.094727,,,,,,,,,,,0.0,1.0,1.0,6.0,0.0,0.0,0.0,4.0,0.0,0.12039057333333332,-0.2031152,0.9872200799999999,0.7373047200000002,-1.8644205866666657,-3.1380208800000005,7.311520876218216,-10.24074954537905,2.7034242024705057,19.478947159705186,2.114857731714984,-0.6332656396471895,19.60364841161816,-1.0298727737172826,19.862446308725037,-1.007572096948938,0.3595894266666667,0.38036119999999995,-0.57755208,1.3175027066666667,0.7794521174185292,0.8760204826146858,0.8939277849979823,0.8939277849979823
LBP03_S06,LBP03,79,80,6,79,79,1715749833.16,2024-05-15 05:10:33.160000+00:00,2024-05-15 14:10:33.160000+09:00,2024,5,15,5,10,33,160,,,,,,,,,0.500488,0.050049,0.972412,-44.616699,80.688477,58.898926,,,,,,,,,,,0.0,1.0,1.0,6.0,0.0,0.0,0.0,4.0,0.0,0.1269009866666667,-0.20686845333333334,0.9808463733333334,1.4868164266666668,1.7008463466666675,-3.3317057733333333,10.480108319298061,-12.107757264975186,5.974120023278319,19.89815149247711,1.6305474411159766,-0.39430083871605676,19.96874034401547,-1.0145367442890396,20.212794184112838,-1.0002989264016802,0.37358701333333333,0.2569174533333333,-0.0084343733333333,0.6389388399999999,0.4534809511017323,0.8690640261622073,0.8836848353724881,0.8836848353724881
LBP03_S06,LBP03,80,81,6,80,80,1715749833.2,2024-05-15 05:10:33.200000+00:00,2024-05-15 14:10:33.200000+09:00,2024,5,15,5,10,33,200,,,,,,,,,-0.269287,-0.585205,1.530518,-144.104004,47.119141,105.041504,,,,,,,,,,,0.0,1.0,1.0,6.0,0.0,0.0,0.0,4.0,0.0,0.11519852,-0.19768552,0.9570214933333333,4.008789093333333,5.553385413333333,-5.0642904133333335,13.76235496187583,-11.143123804314017,8.406760145540295,20.44864569095214,1.184822488943416,-0.05803043289444498,20.483024250719023,-1.0371882547218532,20.594970680583536,-1.0050666713161387,-0.38448552,-0.38751947999999997,0.5734965066666667,1.345501506666667,0.7917693512810475,0.8755323830619062,0.8815958470976827,0.8815958470976827
LBP03_S06,LBP03,81,82,6,81,81,1715749833.24,2024-05-15 05:10:33.240000+00:00,2024-05-15 14:10:33.240000+09:00,2024,5,15,5,10,33,240,,,,,,,,,-0.289795,-0.789795,2.185059,93.383789,-107.60498,19.592285,,,,,,,,,,,0.0,1.0,1.0,6.0,0.0,0.0,0.0,4.0,0.0,0.11524084000000002,-0.19299150666666667,0.94917644,3.194173213333333,-0.4573567733333327,-6.222330773333333,16.377276585534666,-7.931484204946365,9.053528603877243,21.10373675437353,0.8675631207455614,0.30411071126064476,21.12375094747799,-1.0267779994322308,20.975825563110817,-1.0161930417140959,-0.40503584000000004,-0.5968034933333334,1.2358825599999999,2.237721893333333,1.4309556748730998,0.8870688511218157,0.8938038432704698,0.8938038432704698
LBP03_S06,LBP03,82,83,6,82,82,1715749833.28,2024-05-15 05:10:33.280000+00:00,2024-05-15 14:10:33.280000+09:00,2024,5,15,5,10,33,280,,,,,,,,,0.462646,-0.365479,1.725342,-26.367188,-92.285156,39.245605,,,,,,,,,,,0.0,1.0,1.0,6.0,0.0,0.0,0.0,4.0,0.0,0.13193681333333332,-0.19742834666666667,0.9650358133333334,1.317545613333333,-2.9394531199999996,-5.3751628,17.24148935190685,-3.6750232804323244,7.695229798065243,21.793396328449802,0.7205621895282684,0.6119199031832545,21.813889597359267,-0.9764756088297838,21.314009384206265,-1.018331604976661,0.3307091866666667,-0.16805065333333333,0.7603061866666665,1.2590660266666664,0.8459758186349633,0.8614067184893993,0.8927641036044804,0.8927641036044804
LBP03_S06,LBP03,83,84,6,83,83,1715749833.32,2024-05-15 05:10:33.320000+00:00,2024-05-15 14:10:33.320000+09:00,2024,5,15,5,10,33,320,,,,,,,,,0.530029,-0.281738,0.760986,34.484863,165.222168,27.099609,,,,,,,,,,,0.0,1.0,1.0,6.0,0.0,0.0,0.0,4.0,0.0,0.13561194666666668,-0.19664384000000001,0.9755338666666667,1.9498698266666663,0.04801433333333402,-3.643391973333333,15.302985464567941,0.29385045344274996,4.892254979102133,22.40551574703252,0.7323162076659785,0.8076101023473399,22.432023025040476,-0.9622191451670854,21.567388479490212,-1.0111268267032312,0.3944170533333333,-0.08509415999999997,-0.2145478666666667,0.6940590799999999,0.4569864495994087,0.8440144412812998,0.8834922386256493,0.8834922386256493
LBP03_S06,LBP03,84,85,6,84,84,1715749833.36,2024-05-15 05:10:33.360000+00:00,2024-05-15 14:10:33.360000+09:00,2024,5,15,5,10,33,360,,,,,,,,,-0.721191,0.102539,-0.312744,96.862793,195.3125,-54.6875,,,,,,,,,,,0.0,1.0,1.0,6.0,0.0,0.0,0.0,4.0,0.0,0.12563799999999997,-0.20828771999999998,0.9939160266666668,0.3450521199999999,2.1183268266666673,-3.1730143733333334,10.020848587124012,2.993438707041001,1.671177784182465,22.806349690517482,0.8520537559476186,0.8744572137146385,22.83900736082479,-1.0220135689187866,21.700178734376543,-1.0091501113756567,-0.846829,0.31082672,-1.3066600266666668,2.464315746666667,1.5877950215300125,0.8830366395865452,0.8981652132694901,0.8981652132694901
LBP03_S06,LBP03,85,86,6,85,85,1715749833.4,2024-05-15 05:10:33.400000+00:00,2024-05-15 14:10:33.400000+09:00,2024,5,15,5,10,33,400,,,,,,,,,0.080566,-0.007568,0.154297,38.757324,-147.521973,-84.16748,,,,,,,,,,,0.0,1.0,1.0,6.0,0.0,0.0,0.0,4.0,0.0,0.12033526666666666,-0.21614578666666664,1.0072526133333335,1.1043294666666665,0.08138021333333398,-3.12174484,1.7643744688676974,4.0748284626027385,-0.9876984298704082,22.87692466927219,1.0150468944517281,0.8349492765198221,22.91464908777465,-1.0562175834458707,21.688518650118926,-1.0079041877041253,-0.039769266666666664,0.20857778666666665,-0.8529556133333335,1.1013026666666668,0.8789878076394536,0.8608836585456552,0.8977738376443872,0.8977738376443872
LBP03_S06,LBP03,86,87,6,86,86,1715749833.44,2024-05-15 05:10:33.440000+00:00,2024-05-15 14:10:33.440000+09:00,2024,5,15,5,10,33,440,,,,,,,,,0.300293,0.119385,0.381836,47.546387,-114.501953,-68.969727,,,,,,,,,,,0.0,1.0,1.0,6.0,0.0,0.0,0.0,4.0,0.0,0.13572264,-0.216123,1.0114095200000002,4.713541706666667,-0.6136067733333328,-3.19905604,-8.089423340004034,3.7839191760455773,-2.6051639772854243,22.553347735672027,1.1664036614935513,0.7307427174284051,22.59530872784797,-1.003998270421077,21.523901149842914,-1.000455955754359,0.16457035999999997,0.33550800000000003,-0.6295735200000001,1.1296518800000002,0.7321282937707845,0.8651859294764799,0.8944609267669152,0.8944609267669152
LBP03_S06,LBP03,87,88,6,87,87,1715749833.48,2024-05-15 05:10:33.480000+00:00,2024-05-15 14:10:33.480000+09:00,2024,5,15,5,10,33,480,,,,,,,,,0.754883,-0.113525,1.052246,-48.583984,-9.58252,7.69043,,,,,,,,,,,0.0,1.0,1.0,6.0,0.0,0.0,0.0,4.0,0.0,0.13920570666666668,-0.21100581333333332,0.9969791866666666,4.243164093333333,3.972981773333334,-3.3203125600000005,-17.466642186438218,2.6695273071113736,-3.3731318003587596,21.8546820482145,1.2731847537780063,0.5958174454140548,21.899843042224333,-0.9819683180893012,21.21441689155539,-0.9938570098360708,0.6156772933333333,0.09748081333333332,0.05526681333333339,0.7684249200000001,0.625791865679324,0.8643835069273083,0.886304817823968,0.8891929059612762
LBP03_S06,LBP03,88,89,6,88,88,1715749833.52,2024-05-15 05:10:33.520000+00:00,2024-05-15 14:10:33.520000+09:00,2024,5,15,5,10,33,520,,,,,,,,,-0.016113,0.104492,1.264648,-103.088379,160.400391,113.342285,,,,,,,,,,,0.0,1.0,1.0,6.0,0.0,0.0,0.0,4.0,0.0,0.1257454133333333,-0.20292313333333334,0.9651172133333332,5.8422851866666665,6.262207026666667,-5.167643293333334,-24.23931948739634,1.2498398040413383,-3.962815516549312,20.885109268718647,1.3231783459396598,0.4373048247520823,20.931550960481466,-1.0101056204415404,20.78401636565913,-0.9992327797491946,-0.1418584133333333,0.30741513333333337,0.29953078666666677,0.7488043333333334,0.45204708360629225,0.8631262218825684,0.8759969609048123,0.8807862555313727
LBP03_S06,LBP03,89,90,6,89,89,1715749833.56,2024-05-15 05:10:33.560000+00:00,2024-05-15 14:10:33.560000+09:00,2024,5,15,5,10,33,560,,,,,,,,,-0.680176,-0.949463,2.097656,-149.108887,-89.050293,4.638672,,,,,,,,,,,0.0,1.0,1.0,6.0,0.0,0.0,0.0,4.0,0.0,0.12632484,-0.200179,0.9576139599999999,4.8274740000000005,0.31412760000000084,-7.092285213333333,-26.949990583474705,-0.1847959972782623,-5.093306071326701,19.807109645379658,1.3157865060485292,0.23357258189901428,19.852139501439293,-1.0020775075737234,20.270107656443393,-1.0088303257019713,-0.80650084,-0.749284,1.1400420400000004,2.6958268800000003,1.584792090636519,0.8662108937653111,0.8958640981594773,0.8940693844956208
LBP03_S06,LBP03,90,91,6,90,90,1715749833.6,2024-05-15 05:10:33.600000+00:00,2024-05-15 14:10:33.600000+09:00,2024,5,15,5,10,33,600,,,,,,,,,0.073242,-0.115967,1.668213,-9.643555,-129.943848,11.779785,,,,,,,,,,,0.0,1.0,1.0,6.0,0.0,0.0,0.0,4.0,0.0,0.14256506666666666,-0.20720374666666666,0.97044924,1.6210937866666661,-2.544759119999999,-6.82454432,-25.299792844483065,-1.5911788189467249,-7.1088044810917035,18.795117931600334,1.2521393532906602,-0.05077959734465384,18.836849247958906,-0.9627059352241929,19.71987224123439,-1.009170390462193,-0.06932306666666666,0.09123674666666666,0.69776376,0.8583235733333332,0.7071096776906155,0.8585262652732044,0.8938444248388222,0.8906071677029354
LBP03_S06,LBP03,91,92,6,91,91,1715749833.64,2024-05-15 05:10:33.640000+00:00,2024-05-15 14:10:33.640000+09:00,2024,5,15,5,10,33,640,,,,,,,,,0.710449,-0.4104,1.147705,-29.846191,76.11084,19.53125,,,,,,,,,,,0.0,1.0,1.0,6.0,0.0,0.0,0.0,4.0,0.0,0.1430077733333333,-0.20691729333333334,0.9825195600000001,1.943359413333333,2.2550455733333346,-5.428059946666666,-20.176999083381947,-3.058956971954831,-9.787792604289752,17.988037968265058,1.129781074412467,-0.44229130151624396,18.028908364602746,-0.9607885402493471,19.185486389106508,-1.0041219010926832,0.5674412266666666,-0.20348270666666665,0.1651854399999999,0.9361093733333332,0.6250447881723018,0.8450369295764354,0.8824753888860115,0.8857787608023784
LBP03_S06,LBP03,92,93,6,92,92,1715749833.68,2024-05-15 05:10:33.680000+00:00,2024-05-15 14:10:33.680000+09:00,2024,5,15,5,10,33,680,,,,,,,,,-0.529053,0.10376,-0.320801,66.894531,235.534668,-23.803711,,,,,,,,,,,0.0,1.0,1.0,6.0,0.0,0.0,0.0,4.0,0.0,0.12932612000000002,-0.21875322666666666,0.9990267199999999,0.5411784266666663,3.478190093333335,-4.745280000000001,-13.224244592483284,-4.636774337407373,-12.464862666413788,17.459068184565727,0.9443101009161721,-0.9408858081727955,17.509884338396652,-1.0302333079610217,18.718006159621236,-1.0075881003705327,-0.65837912,0.32251322666666665,-1.31982772,2.3007200666666665,1.5097758302169622,0.8635847561741676,0.8905688615863561,0.8969215656133532
LBP03_S06,LBP03,93,94,6,93,93,1715749833.72,2024-05-15 05:10:33.720000+00:00,2024-05-15 14:10:33.720000+09:00,2024,5,15,5,10,33,720,,,,,,,,,0.024902,-0.151611,0.11792,81.298828,-125.366211,-84.411621,,,,,,,,,,,0.0,1.0,1.0,6.0,0.0,0.0,0.0,4.0,0.0,0.12457677333333333,-0.22509762666666663,1.0082584933333334,1.2646484799999995,0.9781900933333346,-4.804687546666667,-6.1697646622802536,-6.209127641317949,-14.382287494822217,17.212277598074515,0.6959449952634541,-1.5161773079656844,17.29293593288312,-1.058194604694851,18.359745939944585,-1.014715897413624,-0.09967477333333333,0.07348662666666664,-0.8903384933333334,1.0634998933333333,0.8989093266002792,0.8601368891166965,0.9035200105983318,0.8969564386131238
LBP03_S06,LBP03,94,95,6,94,94,1715749833.76,2024-05-15 05:10:33.760000+00:00,2024-05-15 14:10:33.760000+09:00,2024,5,15,5,10,33,760,,,,,,,,,0.233154,0.275635,0.310547,105.407715,-114.013672,-104.553223,,,,,,,,,,,0.0,1.0,1.0,6.0,0.0,0.0,0.0,4.0,0.0,0.13313470666666666,-0.22280596000000003,1.00359052,3.986816453333333,0.7267252400000014,-5.126139360000001,-0.25446065478851837,-7.527077232853778,-15.077950197600792,17.202099171882974,0.394861905949303,-2.1192953158697163,17.336653208734788,-1.0254142165210034,18.136118735478995,-1.0136214873758926,0.10001929333333334,0.49844096000000004,-0.6930435199999999,1.2915037733333334,0.8595094939898054,0.8626744510890867,0.8904215917341144,0.8963108016368596
LBP03_S06,LBP03,95,96,6,95,95,1715749833.8,2024-05-15 05:10:33.800000+00:00,2024-05-15 14:10:33.800000+09:00,2024,5,15,5,10,33,800,,,,,,,,,0.729004,0.062256,0.754639,-94.726562,-95.825195,-34.973145,,,,,,,,,,,0.0,1.0,1.0,6.0,0.0,0.0,0.0,4.0,0.0,0.1325324933333333,-0.21194006666666668,0.9793620133333334,4.84375004,4.720052053333334,-5.635579466666667,3.9851572045745245,-8.376950111719976,-14.597362482706437,17.361505460065956,0.05978390148050394,-2.703189815177974,17.570790566495813,-1.005732689750776,18.04941772638657,-1.0106435891859091,0.5964715066666667,0.2741960666666667,-0.22472301333333344,1.0953905866666669,0.6938747538009206,0.8660492113057977,0.8899628921100821,0.8928796821820132
LBP03_S06,LBP03,96,97,6,96,96,1715749833.84,2024-05-15 05:10:33.840000+00:00,2024-05-15 14:10:33.840000+09:00,2024,5,15,5,10,33,840,,,,,,,,,0.156982,-0.072021,1.088623,-72.08252,183.837891,97.412109,,,,,,,,,,,0.0,1.0,1.0,6.0,0.0,0.0,0.0,4.0,0.0,0.11988926666666666,-0.20672197333333334,0.9535905333333333,6.004231813333333,3.9965820000000014,-6.987304733333334,6.534126791000598,-8.740125758604478,-13.410179730937305,17.62287053170598,-0.28982112886367517,-3.239597004415466,17.92050643299526,-1.03866026319957,18.077459302207522,-1.013464815970066,0.03709273333333335,0.13470097333333333,0.13503246666666657,0.3068261733333333,0.19430386032492916,0.8498420238811594,0.8796973714201587,0.8812367518177285
LBP03_S06,LBP03,97,98,6,97,97,1715749833.88,2024-05-15 05:10:33.880000+00:00,2024-05-15 14:10:33.880000+09:00,2024,5,15,5,10,33,880,,,,,,,,,-0.589111,-1.078125,1.914551,-111.816406,-50.048828,24.291992,,,,,,,,,,,0.0,1.0,1.0,6.0,0.0,0.0,0.0,4.0,0.0,0.11625319999999997,-0.207513,0.9431087733333332,5.10823572,-1.1206054933333318,-9.259440146666666,7.513017870421581,-8.810268219264202,-12.085637792878229,17.923391246522844,-0.6422318576342433,-3.7230225161305954,18.317240845457796,-1.0532462885202136,18.17871161635903,-1.0202381011088888,-0.7053642,-0.8706119999999999,0.9714422266666667,2.547418426666667,1.4829713108946954,0.8614830558186255,0.8962645131814807,0.8911012527862033
LBP03_S06,LBP03,98,99,6,98,98,1715749833.92,2024-05-15 05:10:33.920000+00:00,2024-05-15 14:10:33.920000+09:00,2024,5,15,5,10,33,920,,,,,,,,,0.120361,-0.058838,1.914307,55.358887,-158.813477,7.385254,,,,,,,,,,,0.0,1.0,1.0,6.0,0.0,0.0,0.0,4.0,0.0,0.12857742666666666,-0.20252601333333334,0.9495768666666667,6.822916706666667,-3.5563151199999985,-8.804524786666667,6.895789081845411,-8.86434696746223,-10.932012493627072,18.19922280979666,-0.9968057363327325,-4.160303015875678,18.695278915825597,-0.9991615200642255,18.30321574984618,-1.018871216041271,-0.008216426666666665,0.14368801333333334,0.9647301333333332,1.1166345733333332,0.9754065742059563,0.8666444446491823,0.8973178628532489,0.892461016034909
LBP03_S06,LBP03,99,100,6,99,99,1715749833.96,2024-05-15 05:10:33.960000+00:00,2024-05-15 14:10:33.960000+09:00,2024,5,15,5,10,33,960,,,,,,,,,0.562744,-0.565918,1.243164,5.310059,68.17627,23.925781,,,,,,,,,,,0.0,1.0,1.0,6.0,0.0,0.0,0.0,4.0,0.0,0.13160152,-0.19513668,0.9526465333333334,5.210774786666667,-1.6479492399999982,-6.922200573333333,4.539073455387689,-9.0765848735626,-9.825114233218233,18.380785748012165,-1.3598691312752365,-4.553307585204408,18.985129410515018,-0.9722985256738912,18.406441692724986,-1.0125056708799196,0.43114248,-0.37078132,0.29051746666666656,1.0924412666666665,0.6385632496158157,0.86975953433349,0.8816739702257379,0.8884308927584155
LBP03_S06,LBP03,100,101,6,100,100,1715749834.0,2024-05-15 05:10:34+00:00,2024-05-15 14:10:34+09:00,2024,5,15,5,10,34,0,5.0,10.0,34.0,40.529568,141.492706,33.916,3.0,13.0,-0.520264,0.091064,-0.280273,137.817383,285.27832,-23.132324,-290.0,63.0,349.0,2775.0,0.0,1017.099976,30.6,0.04063,-31.985689,3.853125,0.0,1.0,1.0,6.0,0.0,0.0,0.0,9.0,0.0,0.12267249333333334,-0.18937496,0.9558691999999999,2.019856826666666,-0.06673178666666502,-3.9013672400000012,0.49483633191113474,-9.377817487310736,-8.330992626736485,18.40057920128861,-1.7349818307676659,-4.886547290273867,19.117265006168424,-0.990918203065761,18.461898111161684,-1.0108176593109135,-0.6429364933333332,0.28043896,-1.2361421999999997,2.159517653333333,1.4212884588873873,0.8945852671407647,0.8868229088136438,0.8967567922291807
LBP03_S06,LBP03,101,102,6,101,101,1715749834.04,2024-05-15 05:10:34.040000+00:00,2024-05-15 14:10:34.040000+09:00,2024,5,15,5,10,34,40,,,,,,,,,0.037842,-0.127686,0.263428,-47.851562,-228.637695,-83.435059,,,,,,,,,,,0.0,1.0,1.0,6.0,0.0,0.0,0.0,9.0,0.0,0.11656573333333332,-0.19599932,0.9626302666666665,-0.36621088000000024,-2.312825533333331,-3.4220378133333345,-4.6255553569896355,-9.455531676926945,-6.054808322867861,18.215556987009027,-2.113203097844744,-5.128739623188582,19.041431506117878,-1.0285213916375744,18.46833711215255,-1.0114718999718664,-0.07872373333333332,0.06831332000000001,-0.6992022666666665,0.8462393199999998,0.7069285293374178,0.8813331013566639,0.8973617679836998,0.8938363574154613
LBP03_S06,LBP03,102,103,6,102,102,1715749834.08,2024-05-15 05:10:34.080000+00:00,2024-05-15 14:10:34.080000+09:00,2024,5,15,5,10,34,80,,,,,,,,,0.331299,0.05957,0.351318,123.046875,-74.768066,-95.947266,,,,,,,,,,,0.0,1.0,1.0,6.0,0.0,0.0,0.0,9.0,0.0,0.12079423999999998,-0.1977018,0.9594173733333334,0.23193365333333277,-3.3878580799999987,-3.4912110000000007,-9.515038673522026,-8.941923998057879,-3.01687336786414,17.834955440068146,-2.470880057767059,-5.2494145579031475,18.75492567326815,-1.0165644572848438,18.44923235321266,-1.006582724242988,0.21050476,0.2572718,-0.6080993733333334,1.0758759333333334,0.6930266090896441,0.8810749995439159,0.8803700881232952,0.8907937854711306
LBP03_S06,LBP03,103,104,6,103,103,1715749834.12,2024-05-15 05:10:34.120000+00:00,2024-05-15 14:10:34.120000+09:00,2024,5,15,5,10,34,120,,,,,,,,,0.61377,0.08374,0.594482,-50.231934,-100.891113,-4.272461,,,,,,,,,,,0.0,1.0,1.0,6.0,0.0,0.0,0.0,9.0,0.0,0.12594722666666666,-0.19618161333333334,0.9512891066666667,1.9970703733333328,-2.1858723999999983,-2.974446680000001,-12.424392641445516,-7.704109142654816,0.17203034280943083,17.337979734410325,-2.7790444234732514,-5.24253334419077,18.325195361671128,-0.9945391530813371,18.44531796834914,-1.0001788733215844,0.48782277333333335,0.2799216133333333,-0.3568071066666667,1.1245514933333334,0.6660619184141959,0.8765393915837426,0.8762799370992143,0.8874395785001318
LBP03_S06,LBP03,104,105,6,104,104,1715749834.16,2024-05-15 05:10:34.160000+00:00,2024-05-15 14:10:34.160000+09:00,2024,5,15,5,10,34,160,,,,,,,,,0.262939,0.144043,0.87207,-87.890625,175.170898,87.585449,,,,,,,,,,,0.0,1.0,1.0,6.0,0.0,0.0,0.0,9.0,0.0,0.11574214666666666,-0.18588538666666668,0.9301725599999999,2.779947973333333,-0.02848307999999861,-3.473307346666668,-11.761946559566464,-6.038520983334188,2.467296840202955,16.867501872027667,-3.0205852628066188,-5.143841470582652,17.89121739310177,-1.0085341008309414,18.503633709208508,-0.9992939986154861,0.14719685333333332,0.3299283866666667,-0.058102559999999914,0.5352277999999999,0.3659174243436051,0.8730368505134174,0.8710504383378125,0.8797701350566535
LBP03_S06,LBP03,105,106,6,105,105,1715749834.2,2024-05-15 05:10:34.200000+00:00,2024-05-15 14:10:34.200000+09:00,2024,5,15,5,10,34,200,,,,,,,,,-0.355225,-0.881104,1.733887,-171.691895,-51.208496,36.437988,,,,,,,,,,,0.0,1.0,1.0,6.0,0.0,0.0,0.0,9.0,0.0,0.11669917333333334,-0.18908199999999997,0.9314225599999999,1.2434896399999993,-4.442545573333332,-4.471028706666668,-6.796627556815671,-4.624662964717308,2.8265459215201982,16.59563676975504,-3.205571781395311,-5.030779633721844,17.63518057640448,-1.0122750963603044,18.667196273098092,-1.003094389189204,-0.47192417333333336,-0.692022,0.8024644400000001,1.9664106133333334,1.1599810564508646,0.8877653187202101,0.881648850891058,0.8838311629029463
LBP03_S06,LBP03,106,107,6,106,106,1715749834.24,2024-05-15 05:10:34.240000+00:00,2024-05-15 14:10:34.240000+09:00,2024,5,15,5,10,34,240,,,,,,,,,0.006104,-0.055908,1.818115,50.476074,-97.167969,10.681152,,,,,,,,,,,0.0,1.0,1.0,6.0,0.0,0.0,0.0,9.0,0.0,0.12191401333333332,-0.18778969333333334,0.9332617599999999,2.026367253333333,-3.392740893333332,-4.2700196,1.877433311776194,-4.25907741325907,0.7110068254194792,16.67073410222609,-3.375934877925674,-5.002339360705065,17.729458843596387,-0.9897685059107865,18.968041887936057,-1.0038244447645763,-0.11581001333333332,0.13188169333333333,0.88485324,1.1325449466666666,0.9020920111403447,0.8666107721709,0.8768398116463578,0.8840920321634805
LBP03_S06,LBP03,107,108,6,107,107,1715749834.28,2024-05-15 05:10:34.280000+00:00,2024-05-15 14:10:34.280000+09:00,2024,5,15,5,10,34,280,,,,,,,,,0.681885,-0.559814,1.359375,-32.409668,7.263184,43.945312,,,,,,,,,,,0.0,1.0,1.0,6.0,0.0,0.0,0.0,9.0,0.0,0.12150385333333333,-0.1869010266666667,0.9342969066666668,1.502278706666666,-2.849934893333332,-3.7817383466666676,12.383417360860875,-5.499932265755949,-3.5983149390322446,17.166070796660524,-3.595932168555912,-5.146271958266355,18.27809699682259,-0.9892077793061779,19.424230930981828,-1.0025711228854182,0.5603811466666666,-0.37291297333333334,0.42507809333333324,1.3583722133333334,0.796104578966644,0.8646159225841672,0.8630113205367832,0.8828527722592997
LBP03_S06,LBP03,108,109,6,108,108,1715749834.32,2024-05-15 05:10:34.320000+00:00,2024-05-15 14:10:34.320000+09:00,2024,5,15,5,10,34,320,,,,,,,,,-0.485352,0.01416,-0.284912,69.213867,249.572754,20.751953,,,,,,,,,,,0.0,1.0,1.0,6.0,0.0,0.0,0.0,9.0,0.0,0.11915358666666667,-0.18366860000000002,0.93343428,0.21972661333333274,-1.468912759999999,-3.0712891333333348,22.151079684603445,-8.365577497407749,-9.024951611884305,18.052113984044663,-3.930555268452222,-5.507270022741727,19.27843632441926,-0.9903127730032422,20.039734975620526,-1.0032665518242847,-0.6045055866666666,0.19782860000000002,-1.21834628,2.0206804666666667,1.3743837954803633,0.9013118164194054,0.8726631288503526,0.8896795920262589
LBP03_S06,LBP03,109,110,6,109,109,1715749834.36,2024-05-15 05:10:34.360000+00:00,2024-05-15 14:10:34.360000+09:00,2024,5,15,5,10,34,360,,,,,,,,,-0.013672,0.02002,0.02124,136.169434,-115.05127,-69.091797,,,,,,,,,,,0.0,1.0,1.0,6.0,0.0,0.0,0.0,9.0,0.0,0.11602858666666667,-0.18706377333333332,0.9415397466666667,-2.1240233866666673,-2.8873697866666657,-2.699381573333334,28.82991951683046,-12.218203931311798,-14.061270773678817,19.205310764717883,-4.419283425704694,-6.06972085368888,20.620755049410835,-1.01030243141107,20.805495618034776,-1.007169018198936,-0.12970058666666667,0.20708377333333333,-0.9202997466666667,1.2570841066666667,0.952185672584071,0.8758874424615677,0.8794620410240565,0.8905358397051332
LBP03_S06,LBP03,110,111,6,110,110,1715749834.4,2024-05-15 05:10:34.400000+00:00,2024-05-15 14:10:34.400000+09:00,2024,5,15,5,10,34,400,,,,,,,,,0.089355,0.049316,0.164551,127.685547,-65.551758,-100.219727,,,,,,,,,,,0.0,1.0,1.0,6.0,0.0,0.0,0.0,9.0,0.0,0.11811844,-0.18530922666666666,0.9400097999999999,-3.6140950000000007,-3.5083007733333322,-2.8523763600000005,31.14535317942978,-15.921902933095241,-17.324786689733095,20.451124891895073,-5.056159543028503,-6.762712321278204,22.12572115454808,-0.9982187588194854,21.700473418023527,-1.0078375398769177,-0.02876344,0.23462522666666666,-0.7754587999999999,1.0388474666666665,0.8106865503796509,0.8731553921711757,0.8670195253584153,0.8894567952547887
LBP03_S06,LBP03,111,112,6,111,111,1715749834.44,2024-05-15 05:10:34.440000+00:00,2024-05-15 14:10:34.440000+09:00,2024,5,15,5,10,34,440,,,,,,,,,0.455078,0.163574,0.414551,32.714844,-139.953613,-87.646484,,,,,,,,,,,0.0,1.0,1.0,6.0,0.0,0.0,0.0,9.0,0.0,0.12062821333333335,-0.19727212,0.9388118799999999,-3.6116536000000004,-3.544921866666666,-2.593587293333334,29.33093778101013,-18.236197297609912,-18.06600723859524,21.62436240313548,-5.785607434932899,-7.485352610822013,23.60332193657558,-1.0159881728459914,22.692792920020082,-1.006913679294576,0.33444978666666664,0.36084612,-0.5242608799999999,1.2195567866666666,0.7189687423099891,0.8726290101127436,0.8689074697946119,0.8871836212155249
LBP03_S06,LBP03,112,113,6,112,112,1715749834.48,2024-05-15 05:10:34.480000+00:00,2024-05-15 14:10:34.480000+09:00,2024,5,15,5,10,34,480,,,,,,,,,0.710205,0.023682,0.990479,26.855469,42.419434,-1.831055,,,,,,,,,,,0.0,1.0,1.0,6.0,0.0,0.0,0.0,9.0,0.0,0.11998044000000001,-0.19969073333333334,0.936071,-2.3754882266666675,-2.484537759999999,-2.1346029200000007,24.94902052872146,-18.256598876914563,-16.39800663825593,22.622323224284337,-6.515871390009481,-8.14127287635225,24.90996611965515,-1.0235187466735107,23.742086800292963,-1.0092106021161964,0.59022456,0.22337273333333335,0.05440800000000001,0.8680052933333333,0.6334197973603273,0.872934127379984,0.8686588171536459,0.8818479210093066
LBP03_S06,LBP03,113,114,6,113,113,1715749834.52,2024-05-15 05:10:34.520000+00:00,2024-05-15 14:10:34.520000+09:00,2024,5,15,5,10,34,520,,,,,,,,,0.092041,-0.241943,1.517822,-147.216797,58.288574,81.665039,,,,,,,,,,,0.0,1.0,1.0,6.0,0.0,0.0,0.0,9.0,0.0,0.11434567999999999,-0.19468097333333334,0.92548832,0.1220703733333327,-2.7978515599999993,-3.291015680000001,20.18544643545648,-15.691352460305943,-13.152373813801239,23.429741081702595,-7.143525488421719,-8.6673678289043,25.9828017858136,-1.0335638168278487,24.803930467113496,-1.0130676781396288,-0.022304679999999993,-0.04726202666666665,0.59233368,0.6619003866666666,0.594634666309395,0.8786376306881081,0.8708819262853382,0.8768771841659109
LBP03_S06,LBP03,114,115,6,114,114,1715749834.56,2024-05-15 05:10:34.560000+00:00,2024-05-15 14:10:34.560000+09:00,2024,5,15,5,10,34,560,,,,,,,,,-0.381348,-0.644531,2.072998,8.361816,-35.949707,18.310547,,,,,,,,,,,0.0,1.0,1.0,6.0,0.0,0.0,0.0,9.0,0.0,0.11887366666666667,-0.19402342666666667,0.9307226933333334,0.1904297466666661,-4.038085933333333,-3.383789106666667,16.943295420247974,-10.887270071740012,-9.461907756840738,24.107472898512516,-7.57901629129132,-9.04584413917793,26.84099539298933,-1.0152193176107591,25.83599401720329,-1.017188411816305,-0.5002216666666667,-0.4505075733333333,1.1422753066666669,2.093004546666667,1.3258852384930961,0.868281356602371,0.8672461251838413,0.8866698509737753
LBP03_S06,LBP03,115,116,6,115,115,1715749834.6,2024-05-15 05:10:34.600000+00:00,2024-05-15 14:10:34.600000+09:00,2024,5,15,5,10,34,600,,,,,,,,,0.638184,-0.875244,2.311035,-82.397461,-199.035645,12.084961,,,,,,,,,,,0.0,1.0,1.0,6.0,0.0,0.0,0.0,9.0,0.0,0.12096675999999999,-0.19204101333333332,0.9302799866666667,-0.4109700000000007,-3.168131506666666,-3.629557333333334,16.140563063338966,-4.65030230646278,-6.303712058571602,24.753095421046073,-7.765028383549831,-9.297992621520795,27.558375596370002,-1.0030364905368887,26.804278356740735,-1.0187065339921948,0.51721724,-0.6832029866666667,1.3807550133333333,2.58117524,1.6250428921073452,0.9049986851790404,0.8817624752261224,0.8975625116188949
LBP03_S06,LBP03,116,117,6,116,116,1715749834.64,2024-05-15 05:10:34.640000+00:00,2024-05-15 14:10:34.640000+09:00,2024,5,15,5,10,34,640,,,,,,,,,0.384521,-0.907715,1.620605,44.311523,175.65918,29.541016,,,,,,,,,,,0.0,1.0,1.0,6.0,0.0,0.0,0.0,9.0,0.0,0.12169268,-0.19757812,0.93555668,-1.5600585466666674,-2.5203450399999996,-4.056803426666667,17.494981255327822,2.046976732814144,-4.22387646246325,25.452894671259184,-7.683149314237265,-9.466947680019324,28.2223976463252,-1.0127377341269894,27.68740422548489,-1.0228723141166909,0.26282832,-0.7101368800000001,0.68504832,1.6580135200000001,1.0211093549982682,0.920841267852079,0.8829390987142571,0.895264015208034
LBP03_S06,LBP03,117,118,6,117,117,1715749834.68,2024-05-15 05:10:34.680000+00:00,2024-05-15 14:10:34.680000+09:00,2024,5,15,5,10,34,680,,,,,,,,,-0.543945,-0.136719,0.124023,208.862305,250.0,-76.23291,,,,,,,,,,,0.0,1.0,1.0,6.0,0.0,0.0,0.0,9.0,0.0,0.11646156,-0.19564778666666668,0.93215824,-0.9781900533333341,-1.5291341066666655,-4.678548226666668,19.824705686183965,8.368458009850974,-3.331704536553498,26.245882898706544,-7.348410993843226,-9.600215861481464,28.896533665027935,-1.027778539540504,28.477512423597226,-1.0265088196939973,-0.66040656,0.05892878666666668,-0.80813524,1.5274705866666667,1.045319086460635,0.9022629981018259,0.8829238771379967,0.8944669070915128
LBP03_S06,LBP03,118,119,6,118,118,1715749834.72,2024-05-15 05:10:34.720000+00:00,2024-05-15 14:10:34.720000+09:00,2024,5,15,5,10,34,720,,,,,,,,,0.228516,0.31543,0.284912,26.977539,-226.5625,-55.480957,,,,,,,,,,,0.0,1.0,1.0,6.0,0.0,0.0,0.0,9.0,0.0,0.11459631999999999,-0.19413412000000002,0.9326660533333332,-1.5152994266666673,-2.2469075466666655,-5.962727920000001,21.647158152734686,13.801703624953706,-3.4935078516203033,27.11176922481593,-6.796342848845078,-9.739956175546276,29.59907182531719,-1.0315201097700024,29.177713965787525,-1.028168034233167,0.11391968000000001,0.5095641200000001,-0.6477540533333332,1.2712378533333333,0.831996754496338,0.8995864952176683,0.8798616921671824,0.9022088388047771
LBP03_S06,LBP03,119,120,6,119,119,1715749834.76,2024-05-15 05:10:34.760000+00:00,2024-05-15 14:10:34.760000+09:00,2024,5,15,5,10,34,760,,,,,,,,,0.622559,-0.351318,0.937256,-45.471191,-51.696777,-19.65332,,,,,,,,,,,0.0,1.0,1.0,6.0,0.0,0.0,0.0,9.0,0.0,0.11544268,-0.19286784,0.92790368,-2.3152668800000007,-2.355143226666666,-6.507975320000001,21.758649855889487,18.139075613933045,-4.562250993866514,27.982115219051508,-6.070779824287756,-9.922446215300937,30.303598444785283,-1.0254836531699696,29.797666736762217,-1.0297135244024898,0.50711632,-0.15845016,0.00935231999999997,0.6749187999999999,0.5313764024716852,0.8864611715569434,0.874567811323015,0.8891014516750573
LBP03_S06,LBP03,120,121,6,120,120,1715749834.8,2024-05-15 05:10:34.800000+00:00,2024-05-15 14:10:34.800000+09:00,2024,5,15,5,10,34,800,,,,,,,,,0.485352,-0.018799,1.14502,55.480957,86.669922,39.245605,,,,,,,,,,,0.0,1.0,1.0,6.0,0.0,0.0,0.0,9.0,0.0,0.11418617333333332,-0.19737954666666668,0.9208952133333335,-2.1752929200000004,-1.9303385466666656,-6.662597706666668,19.57212901950045,21.304736373931522,-6.491968545930442,28.765000379831527,-5.218590369330495,-10.182124957138155,30.956979841989636,-1.039876560064444,30.349714085693773,-1.0312856191375743,0.3711658266666667,0.17858054666666667,0.22412478666666646,0.7738711599999999,0.46892110480473614,0.8774630255970961,0.8717561184514468,0.8857962699390868
LBP03_S06,LBP03,121,122,6,121,121,1715749834.84,2024-05-15 05:10:34.840000+00:00,2024-05-15 14:10:34.840000+09:00,2024,5,15,5,10,34,840,,,,,,,,,-0.299316,-0.812256,1.839355,-109.130859,33.691406,-7.873535,,,,,,,,,,,0.0,1.0,1.0,6.0,0.0,0.0,0.0,9.0,0.0,0.10861326666666665,-0.19323241333333332,0.9140006799999999,-0.20751948000000045,-1.4363606799999986,-6.95231124,15.185280144741816,23.196283725680495,-9.286863699033578,29.3724115856212,-4.290739020303275,-10.553599505099498,31.504403917698937,-1.0523532286190564,30.847380013994588,-1.0353069372502848,-0.4079292666666667,-0.6190235866666667,0.9253543200000002,1.9523071733333337,1.185696885799879,0.917118746616094,0.8834803852486267,0.8921711631521371
LBP03_S06,LBP03,122,123,6,122,122,1715749834.88,2024-05-15 05:10:34.880000+00:00,2024-05-15 14:10:34.880000+09:00,2024,5,15,5,10,34,880,,,,,,,,,0.223145,-0.399902,2.138916,64.025879,-58.227539,5.859375,,,,,,,,,,,0.0,1.0,1.0,6.0,0.0,0.0,0.0,9.0,0.0,0.11201496000000001,-0.19363605333333334,0.9191276266666665,-0.3621418800000005,-4.651692706666666,-7.995605506666667,9.287455043568428,23.670278003550806,-12.850885311550673,29.74390978736394,-3.3439279001612427,-11.067634917561525,31.911981541558152,-1.0401108920652076,31.306314944738357,-1.0391598561536681,0.11113004,-0.20626594666666664,1.2197883733333335,1.5371843600000001,1.2420866323505286,0.9074833594743273,0.8844832076464765,0.9000041286124296
LBP03_S06,LBP03,123,124,6,123,123,1715749834.92,2024-05-15 05:10:34.920000+00:00,2024-05-15 14:10:34.920000+09:00,2024,5,15,5,10,34,920,,,,,,,,,0.739258,-0.417236,2.016602,61.706543,37.29248,10.620117,,,,,,,,,,,0.0,1.0,1.0,6.0,0.0,0.0,0.0,9.0,0.0,0.11122394666666664,-0.19638345333333335,0.9205306133333333,0.10986333333333277,-3.997395826666666,-8.294270880000001,3.0144465563625507,22.66729186128514,-16.859153426462118,29.864487649618443,-2.437236225709837,-11.74200105462001,32.18232949556048,-1.0490187185210762,31.74619867565289,-1.041981986845895,0.6280340533333333,-0.22085254666666665,1.0960713866666665,1.9449579866666664,1.2824098815062357,0.9197634917663386,0.8932039682077604,0.9047997391576122
LBP03_S06,LBP03,124,125,6,124,124,1715749834.96,2024-05-15 05:10:34.960000+00:00,2024-05-15 14:10:34.960000+09:00,2024,5,15,5,10,34,960,,,,,,,,,-0.014893,-0.333984,1.16626,-27.22168,222.106934,28.991699,,,,,,,,,,,0.0,1.0,1.0,6.0,0.0,0.0,0.0,9.0,0.0,0.11467771999999998,-0.19407552,0.9214160266666667,1.0571289599999993,-4.252115879999999,-8.92089848,-2.2257716857435565,20.37115235811285,-20.749484346403516,29.7754567821887,-1.6223901313853228,-12.57198042847615,32.36146888230494,-1.0309402649616053,32.19142576876455,-1.043784505103673,-0.12957071999999997,-0.13990848,0.2448439733333334,0.5143231733333333,0.31034098268659727,0.9066346010891698,0.8881970677113297,0.8899941805135486
LBP03_S06,LBP03,125,126,6,125,125,1715749835.0,2024-05-15 05:10:35+00:00,2024-05-15 14:10:35+09:00,2024,5,15,5,10,35,0,5.0,10.0,35.0,40.529503,141.492554,35.166,3.0,13.0,-0.451172,0.179199,-0.335693,83.80127,47.424316,-105.834961,-288.0,55.0,354.0,3010.0,0.0,1017.299988,30.65,0.042612,-33.644714,3.853125,0.0,1.0,1.0,6.0,0.0,0.0,0.0,4.0,0.0,0.11154294666666667,-0.19423828,0.9213867333333333,0.8357747866666659,-3.1363932133333323,-9.642740933333334,-5.003938081531616,17.263533122067564,-23.858945256833614,29.575299258927437,-0.9318488065026203,-13.526338238749496,32.535034879378124,-1.0432496716639925,32.66869829744279,-1.0480150187481914,-0.5627149466666667,0.37343728,-1.2570797333333332,2.19323196,1.4270083984522557,0.9068633986717645,0.9007243329062645,0.8935030720996842
LBP03_S06,LBP03,126,127,6,126,126,1715749835.04,2024-05-15 05:10:35.040000+00:00,2024-05-15 14:10:35.040000+09:00,2024,5,15,5,10,35,40,,,,,,,,,0.312256,-0.057129,0.531006,-34.912109,-212.890625,-86.853027,,,,,,,,,,,0.0,1.0,1.0,6.0,0.0,0.0,0.0,4.0,0.0,0.11142250666666667,-0.19783528,0.9182161600000001,2.4495443199999993,-3.232421866666666,-10.551757853333335,-4.233114165613353,13.979781044704396,-25.641383308363135,29.4059746923029,-0.37265756471444444,-14.55199357108402,32.81174695376289,-1.0512669231608245,33.200802349502965,-1.049844535489175,0.2008334933333333,0.14070628000000002,-0.3872101600000001,0.7287499333333334,0.4583274563924074,0.8969193557539641,0.8891262285553141,0.8972142972404545
LBP03_S06,LBP03,127,128,6,127,127,1715749835.08,2024-05-15 05:10:35.080000+00:00,2024-05-15 14:10:35.080000+09:00,2024,5,15,5,10,35,80,,,,,,,,,0.647705,-0.272461,0.680664,-113.647461,-54.931641,-44.311523,,,,,,,,,,,0.0,1.0,1.0,6.0,0.0,0.0,0.0,4.0,0.0,0.11301105333333335,-0.20309894666666667,0.9152506666666667,5.16927088,-2.6782226533333326,-10.620931026666668,0.40654255129893957,11.012482244405097,-25.83872029034052,29.422236394354858,0.06784172506175945,-15.585542382697641,33.29537097417332,-1.0559998464627713,33.797665472741315,-1.0497256263435975,0.5346939466666666,-0.06936205333333334,-0.2345866666666666,0.8386426666666665,0.5879962714357719,0.8927181422478092,0.8868965708958626,0.8844861061647998
LBP03_S06,LBP03,128,129,6,128,128,1715749835.12,2024-05-15 05:10:35.120000+00:00,2024-05-15 14:10:35.120000+09:00,2024,5,15,5,10,35,120,,,,,,,,,0.22583,-0.015137,1.084717,38.513184,151.550293,39.123535,,,,,,,,,,,0.0,1.0,1.0,6.0,0.0,0.0,0.0,4.0,0.0,0.11381184,-0.201416,0.9118326933333333,6.207682346666666,-2.699381506666666,-10.540364613333335,8.134317738351509,8.455627329255258,-24.493670114009465,29.74760910388892,0.4060668182319698,-16.56528918725802,34.051342756433726,-1.0495452923477822,34.44760822208345,-1.0524821915774294,0.11201816,0.186279,0.17288430666666665,0.47118146666666666,0.277735337151036,0.8771850789972828,0.8768622352905128,0.8765816510652371
LBP03_S06,LBP03,129,130,6,129,129,1715749835.16,2024-05-15 05:10:35.160000+00:00,2024-05-15 14:10:35.160000+09:00,2024,5,15,5,10,35,160,,,,,,,,,-0.346436,-0.955322,1.996094,-90.270996,-17.39502,-8.544922,,,,,,,,,,,0.0,1.0,1.0,6.0,0.0,0.0,0.0,4.0,0.0,0.11019856,-0.20372069333333334,0.9142317866666667,6.830240933333333,-2.867838546666666,-10.09765628,17.01699760662793,5.977391081972212,-21.794570335079534,30.428289008154035,0.6451624615108582,-17.437072000661203,35.07632373156761,-1.0677887896151539,35.11243306071391,-1.0541454788641702,-0.45663456,-0.7516013066666667,1.0818622133333333,2.29009808,1.3942185962781923,0.9183171258746663,0.895676988194042,0.886806000850097
LBP03_S06,LBP03,130,131,6,130,130,1715749835.2,2024-05-15 05:10:35.200000+00:00,2024-05-15 14:10:35.200000+09:00,2024,5,15,5,10,35,200,,,,,,,,,0.172119,-0.230469,1.843018,77.880859,-97.351074,11.59668,,,,,,,,,,,0.0,1.0,1.0,6.0,0.0,0.0,0.0,4.0,0.0,0.11277669333333336,-0.20375650666666667,0.9138248933333334,7.609049533333332,-3.102213546666666,-10.026041693333335,24.318933799479968,3.0493431008583833,-17.863178243092094,31.401046360133233,0.7671361855451936,-18.151599130384888,36.278020362591434,-1.0581717274742803,35.7290587214336,-1.0568566714210719,0.059342306666666636,-0.026712493333333337,0.9291931066666667,1.0152479066666666,0.9314692137357281,0.9091766521660609,0.8984709854431355,0.8908247846493924
LBP03_S06,LBP03,131,132,6,131,131,1715749835.24,2024-05-15 05:10:35.240000+00:00,2024-05-15 14:10:35.240000+09:00,2024,5,15,5,10,35,240,,,,,,,,,0.444824,-0.52124,1.592529,45.654297,63.842773,27.160645,,,,,,,,,,,0.0,1.0,1.0,6.0,0.0,0.0,0.0,4.0,0.0,0.11253906666666667,-0.19986002666666666,0.9140234533333333,6.778157613333333,-3.4106445333333326,-10.521647160000002,27.219494187428054,-0.6954913256241458,-12.641268429270184,32.48982612763035,0.7393165325202278,-18.657249867555695,37.473035150082474,-1.0511641371632814,36.218230559387436,-1.0546303708127729,0.3322849333333333,-0.32137997333333335,0.6785055466666667,1.3321704533333334,0.8210165290890946,0.9059336328840107,0.8862722025274554,0.8865377520589087
LBP03_S06,LBP03,132,133,6,132,132,1715749835.28,2024-05-15 05:10:35.280000+00:00,2024-05-15 14:10:35.280000+09:00,2024,5,15,5,10,35,280,,,,,,,,,-0.361084,0.004639,0.431641,80.932617,229.797363,2.624512,,,,,,,,,,,0.0,1.0,1.0,6.0,0.0,0.0,0.0,4.0,0.0,0.11201498666666666,-0.20713216,0.9152050933333333,5.953776106666666,-3.7882486933333324,-10.817057306666669,23.698245500200628,-5.1591014049315564,-5.975346523367464,33.43775594763838,0.5329524763229655,-18.896263728490393,38.41140903497951,-1.067676544403526,36.4983298095564,-1.0522189072584456,-0.47309898666666667,0.21177116,-0.48356409333333333,1.16843424,0.7088751002497274,0.9024444537353342,0.8835301881597508,0.8761556982696336
LBP03_S06,LBP03,133,134,6,133,133,1715749835.32,2024-05-15 05:10:35.320000+00:00,2024-05-15 14:10:35.320000+09:00,2024,5,15,5,10,35,320,,,,,,,,,-0.44751,-0.006348,-0.17749,30.456543,-80.078125,-41.687012,,,,,,,,,,,0.0,1.0,1.0,6.0,0.0,0.0,0.0,4.0,0.0,0.11133138666666666,-0.20480794666666668,0.9130306133333332,7.418619853333333,-3.649902346666666,-10.826822920000001,13.290596675321657,-9.698898388840066,2.1181247892108246,33.96937981465125,0.14499654076936286,-18.81153873692196,38.83057788186504,-1.0656515913884834,36.500344496766935,-1.0493187456229223,-0.5588413866666667,0.1984599466666667,-1.0905206133333332,1.8478219466666665,1.2413401040759813,0.8971227060791588,0.8992172612492821,0.8808163212599548
LBP03_S06,LBP03,134,135,6,134,134,1715749835.36,2024-05-15 05:10:35.360000+00:00,2024-05-15 14:10:35.360000+09:00,2024,5,15,5,10,35,360,,,,,,,,,0.392822,-0.108643,0.447266,61.523438,-177.490234,-103.942871,,,,,,,,,,,0.0,1.0,1.0,6.0,0.0,0.0,0.0,4.0,0.0,0.11233074666666668,-0.20288086666666666,0.9115853066666667,8.234863346666666,-4.3717448,-11.18570964,-2.5742070878631753,-13.358719644041395,11.145104219517162,33.86641153113672,-0.38935224499229293,-18.365734568141274,38.52772548950185,-1.0580521905306224,36.179534207219,-1.0479243227728667,0.28049125333333336,0.09423786666666666,-0.4643193066666667,0.8390484266666667,0.5505892636564962,0.8810588497220561,0.8784731460918118,0.8799943105900563
LBP03_S06,LBP03,135,136,6,135,135,1715749835.4,2024-05-15 05:10:35.400000+00:00,2024-05-15 14:10:35.400000+09:00,2024,5,15,5,10,35,400,,,,,,,,,0.246094,0.402344,0.307617,127.258301,-19.226074,-33.569336,,,,,,,,,,,0.0,1.0,1.0,6.0,0.0,0.0,0.0,4.0,0.0,0.11848307999999998,-0.19612956,0.90797528,7.382812559999999,-4.336751306666666,-10.901692706666669,-20.832031206380616,-15.32352118627831,19.98965266362957,33.033130282881494,-1.0022930924434252,-17.566148461596093,37.426753258916506,-1.020986665581004,35.52085609293478,-1.0476181494537755,0.12761092000000002,0.59847356,-0.60035828,1.32644276,0.8572544623895978,0.8829215662024538,0.8780384791868147,0.8723202056397616
LBP03_S06,LBP03,136,137,6,136,136,1715749835.44,2024-05-15 05:10:35.440000+00:00,2024-05-15 14:10:35.440000+09:00,2024,5,15,5,10,35,440,,,,,,,,,0.440674,0.291016,0.624756,-132.995605,-44.921875,61.340332,,,,,,,,,,,0.0,1.0,1.0,6.0,0.0,0.0,0.0,4.0,0.0,0.11996094666666667,-0.20157226666666667,0.9064388133333333,7.093912813333333,-3.1087239599999994,-10.526529946666669,-37.6385450256873,-15.34826341352966,27.09622372575799,31.527588481854004,-1.6162236289846117,-16.482299512565774,35.61273945545256,-1.0271522876175514,34.53824011960307,-1.0481970179186137,0.32071305333333333,0.49258826666666666,-0.28168281333333334,1.0949841333333334,0.6518015575030809,0.8802348788101776,0.8764319444614607,0.8726832727998004
LBP03_S06,LBP03,137,138,6,137,137,1715749835.48,2024-05-15 05:10:35.480000+00:00,2024-05-15 14:10:35.480000+09:00,2024,5,15,5,10,35,480,,,,,,,,,0.081055,0.252441,1.094971,-205.566406,48.828125,155.517578,,,,,,,,,,,0.0,1.0,1.0,6.0,0.0,0.0,0.0,4.0,0.0,0.1195866,-0.20082682666666665,0.9098535333333334,6.607259159999999,-3.583984386666666,-10.505371093333334,-49.59066200085236,-13.916461542011803,30.976277620047885,29.54396200181991,-2.172882090665084,-15.243248407763858,33.31551784627859,-1.0269982301075378,33.2702852451799,-1.0507303790944165,-0.0385316,0.45326782666666665,0.1851174666666665,0.6769168933333332,0.49112613792667126,0.8745431324328312,0.8737386299064076,0.8706202555800411
LBP03_S06,LBP03,138,139,6,138,138,1715749835.52,2024-05-15 05:10:35.520000+00:00,2024-05-15 14:10:35.520000+09:00,2024,5,15,5,10,35,520,,,,,,,,,-0.083984,-0.334473,1.655518,-284.240723,-1.220703,75.744629,,,,,,,,,,,0.0,1.0,1.0,6.0,0.0,0.0,0.0,4.0,0.0,0.12080405333333331,-0.20706054666666668,0.9205403733333333,5.0659180133333335,-4.0340169333333336,-10.152180986666668,-54.870457092361555,-12.053283148268202,30.83068667255151,27.349143718125447,-2.655013416595812,-14.010020940861796,30.843239860954466,-1.0356010638472282,31.775157677652306,-1.049053773296451,-0.20478805333333333,-0.12741245333333334,0.7349776266666668,1.0671781333333334,0.7735400388816608,0.8816993473357218,0.8801684890119149,0.8744877333021327
LBP03_S06,LBP03,139,140,6,139,139,1715749835.56,2024-05-15 05:10:35.560000+00:00,2024-05-15 14:10:35.560000+09:00,2024,5,15,5,10,35,560,,,,,,,,,0.092773,-1.122559,1.937744,-47.424316,-109.924316,23.193359,,,,,,,,,,,0.0,1.0,1.0,6.0,0.0,0.0,0.0,4.0,0.0,0.11483725333333332,-0.21097656,0.9167610666666667,3.4375000399999984,-2.577311213333333,-9.71435546666667,-53.80351219909261,-10.895665127623568,26.974545162626338,25.19700323016174,-3.0908400217007546,-12.931039134356743,28.48954258872532,-1.0647270564242415,30.125761527273955,-1.044766208289117,-0.022064253333333325,-0.9115824400000001,1.0209829333333333,1.9546296266666667,1.3688957324608215,0.8834197670944309,0.8758505618484009,0.8726373391540376
LBP03_S06,LBP03,140,141,6,140,140,1715749835.6,2024-05-15 05:10:35.600000+00:00,2024-05-15 14:10:35.600000+09:00,2024,5,15,5,10,35,600,,,,,,,,,0.424072,-0.209961,1.228271,108.459473,38.269043,57.373047,,,,,,,,,,,0.0,1.0,1.0,6.0,0.0,0.0,0.0,4.0,0.0,0.1143392,-0.20964517333333335,0.9148242266666667,2.8361003066666655,-2.7140299733333326,-8.702799466666669,-48.53785289395197,-11.200081892442018,20.827899222944044,23.255489114403662,-3.538843297398435,-12.097923165438981,26.451860629274346,-1.06396041212266,28.404470471423952,-1.0430750443397918,0.30973280000000003,-0.0003158266666666576,0.31344677333333315,0.6234953999999998,0.44066244094022955,0.8360445490477462,0.8705216171133934,0.8665231664999968
LBP03_S06,LBP03,141,142,6,141,141,1715749835.64,2024-05-15 05:10:35.640000+00:00,2024-05-15 14:10:35.640000+09:00,2024,5,15,5,10,35,640,,,,,,,,,-0.259033,0.216797,0.177734,110.168457,249.389648,4.516602,,,,,,,,,,,0.0,1.0,1.0,6.0,0.0,0.0,0.0,4.0,0.0,0.11322265333333331,-0.21411782666666668,0.9168001466666668,2.2143555199999994,-3.6417643466666663,-8.610839826666668,-41.981021886186994,-12.973597336891636,14.441087899618783,21.576248238956182,-4.057787190874101,-11.52027964945423,24.79348640585085,-1.0764977489213108,26.69625935841689,-1.0466354242763252,-0.3722556533333333,0.4309148266666667,-0.7390661466666668,1.542236626666667,0.9329955136164939,0.8325199953924752,0.876680631622277,0.8661327309403299
LBP03_S06,LBP03,142,143,6,142,142,1715749835.68,2024-05-15 05:10:35.680000+00:00,2024-05-15 14:10:35.680000+09:00,2024,5,15,5,10,35,680,,,,,,,,,-0.178711,-0.179443,0.114746,-55.603027,-146.66748,-103.820801,,,,,,,,,,,0.0,1.0,1.0,6.0,0.0,0.0,0.0,4.0,0.0,0.11870442666666667,-0.21101886666666667,0.9191601733333332,3.086751346666666,-4.502766946666666,-8.423665346666668,-36.51550002530003,-15.393893255715787,9.734020023165744,20.115628237944183,-4.673542921102732,-11.1309188485276,23.46013335970352,-1.0509104864238714,25.080149245796477,-1.0479631234595401,-0.29741542666666665,0.031575866666666674,-0.8044141733333332,1.1334054666666664,0.8582162510897916,0.8250358819776414,0.8636494400397337,0.8636278787512117
LBP03_S06,LBP03,143,144,6,143,143,1715749835.72,2024-05-15 05:10:35.720000+00:00,2024-05-15 14:10:35.720000+09:00,2024,5,15,5,10,35,720,,,,,,,,,0.175293,0.080566,0.211426,82.275391,-45.227051,-54.138184,,,,,,,,,,,0.0,1.0,1.0,6.0,0.0,0.0,0.0,4.0,0.0,0.12023112,-0.19988605333333334,0.9177083466666667,2.515462293333332,-3.1184895999999998,-7.659505186666668,-33.09513949603289,-17.104090544033443,7.756320837763079,18.791822658102866,-5.3577065428640696,-10.820666015017077,22.33661637808158,-1.022775941315141,23.620740796622734,-1.0505223867687685,0.05506188000000001,0.28045205333333334,-0.7062823466666667,1.04179628,0.7619185770546554,0.8222327548799742,0.8609096250488213,0.8606520464047797
LBP03_S06,LBP03,144,145,6,144,144,1715749835.76,2024-05-15 05:10:35.760000+00:00,2024-05-15 14:10:35.760000+09:00,2024,5,15,5,10,35,760,,,,,,,,,0.30249,0.112793,0.351318,-37.902832,-145.507812,-42.602539,,,,,,,,,,,0.0,1.0,1.0,6.0,0.0,0.0,0.0,4.0,0.0,0.12229166666666667,-0.21249348,0.9225879066666666,0.32714849333333196,-2.30631512,-6.958007786666669,-31.089492680989675,-16.791471687536728,8.281953933692261,17.54824295086328,-6.029365410365538,-10.489387857669387,21.3148149310018,-1.0411405510373721,22.362735106382416,-1.0520276952712933,0.1801983333333333,0.32528648000000004,-0.5712699066666665,1.0767547199999998,0.6816392298495175,0.8282432679750876,0.8573522197660155,0.8591262968737058
LBP03_S06,LBP03,145,146,6,145,145,1715749835.8,2024-05-15 05:10:35.800000+00:00,2024-05-15 14:10:35.800000+09:00,2024,5,15,5,10,35,800,,,,,,,,,0.49707,-0.060791,0.687012,-111.572266,-10.375977,46.936035,,,,,,,,,,,0.0,1.0,1.0,6.0,0.0,0.0,0.0,4.0,0.0,0.11684243999999999,-0.21043945333333333,0.9267317866666666,1.2239583866666655,-1.4591471599999997,-6.976725226666668,-28.871704437380025,-13.782669507286174,9.924767473138038,16.39337477336808,-6.580672190656985,-10.092397158743866,20.344642128845827,-1.056590464946338,21.330316554059788,-1.0508804583748024,0.38022756,0.14964845333333332,-0.2397197866666666,0.7695957999999999,0.47374384754646115,0.8284361776847564,0.8529496016409263,0.8573161381958835
LBP03_S06,LBP03,146,147,6,146,146,1715749835.84,2024-05-15 05:10:35.840000+00:00,2024-05-15 14:10:35.840000+09:00,2024,5,15,5,10,35,840,,,,,,,,,0.043457,0.084229,1.354004,-117.248535,68.359375,107.23877,,,,,,,,,,,0.0,1.0,1.0,6.0,0.0,0.0,0.0,4.0,0.0,0.12436849333333333,-0.21569661333333334,0.9426530133333334,1.6048177599999989,-2.6000976799999997,-6.952311160000001,-24.826104458879193,-8.368396051548855,10.735428300059885,15.400330595012912,-6.91540803271894,-9.66298002674147,19.45163832924849,-1.0404292794497025,20.53086518674445,-1.0514509342224938,-0.08091149333333333,0.29992561333333334,0.4113509866666666,0.7921880933333333,0.515472285887851,0.8016271936882754,0.8593729701521847,0.8561959880618428
LBP03_S06,LBP03,147,148,6,147,147,1715749835.88,2024-05-15 05:10:35.880000+00:00,2024-05-15 14:10:35.880000+09:00,2024,5,15,5,10,35,880,,,,,,,,,-0.240234,-0.648438,1.722168,-242.980957,-57.495117,49.621582,,,,,,,,,,,0.0,1.0,1.0,6.0,0.0,0.0,0.0,4.0,0.0,0.11784830666666667,-0.21015625333333332,0.9381673333333334,0.5493164533333323,0.048828106666666905,-7.029622360000001,-18.284137472701897,-1.7262601820874985,9.019574148931058,14.668965096104836,-6.98445844000244,-9.302197060784229,18.721433354541155,-1.0525908631998202,19.961257873174425,-1.0516971389257892,-0.3580823066666667,-0.43828174666666664,0.7840006666666666,1.58036472,0.9669389190340217,0.7906212851556151,0.8490523223149712,0.8531959001495227
LBP03_S06,LBP03,148,149,6,148,148,1715749835.92,2024-05-15 05:10:35.920000+00:00,2024-05-15 14:10:35.920000+09:00,2024,5,15,5,10,35,920,,,,,,,,,0.114014,-0.961426,1.652344,106.689453,-62.072754,37.353516,,,,,,,,,,,0.0,1.0,1.0,6.0,0.0,0.0,0.0,4.0,0.0,0.12090169333333334,-0.2147330666666667,0.9433300933333334,-0.8341470933333343,-1.2052409066666663,-6.877441360000001,-9.93648753416741,4.495505150564828,4.020358098415958,14.271505594738139,-6.804638233979847,-9.141382736847591,18.26318295855127,-1.0506541488724752,19.61537687367552,-1.0547722651271125,-0.0068876933333333334,-0.7466929333333333,0.7090139066666666,1.4625945333333332,1.0297079667828741,0.7805132085666807,0.8501383501665096,0.855640381660734
LBP03_S06,LBP03,149,150,6,149,149,1715749835.96,2024-05-15 05:10:35.960000+00:00,2024-05-15 14:10:35.960000+09:00,2024,5,15,5,10,35,960,,,,,,,,,0.460938,-0.448486,1.12793,1.037598,135.314941,43.518066,,,,,,,,,,,0.0,1.0,1.0,6.0,0.0,0.0,0.0,4.0,0.0,0.12086262666666668,-0.21599933333333335,0.9470735733333333,0.3629557733333322,-0.04720054666666641,-5.949706986666668,-1.5237090811362588,8.753187737567828,-3.8169322668257664,14.21055723149269,-6.454510724477133,-9.294060027520622,18.165357065499048,-1.0532546874593334,19.491251960351843,-1.060251669381406,0.3400753733333333,-0.23248666666666665,0.1808564266666668,0.7534184666666668,0.44990038541016963,0.7860955846756235,0.8463650928823968,0.8541632400327611
LBP03_S06,LBP03,150,151,6,150,150,1715749836.0,2024-05-15 05:10:36+00:00,2024-05-15 14:10:36+09:00,2024,5,15,5,10,36,0,5.0,10.0,36.0,40.529438,141.492416,37.744999,3.0,13.0,-0.767334,0.245117,-0.487549,208.129883,237.609863,-62.866211,-294.0,67.0,337.0,3077.0,0.0,1016.900024,30.709999,0.038648,-30.326906,3.853125,0.0,1.0,1.0,6.0,0.0,0.0,0.0,4.0,0.0,0.11401366666666665,-0.21176105333333334,0.9457682266666666,-1.9181314666666678,0.47200517333333364,-4.755859320000001,5.024367967419314,10.120870642538405,-13.085386600587606,14.411531950189461,-6.049675898775597,-9.817475491544126,18.457346956120958,-1.0696651705995737,19.595458075094236,-1.0641239926010129,-0.8813476666666666,0.4568780533333333,-1.4333172266666665,2.7715429466666666,1.7435336352981143,0.7987565941494579,0.8528099964106113,0.8667350866539956
LBP03_S06,LBP03,151,152,6,151,151,1715749836.04,2024-05-15 05:10:36.040000+00:00,2024-05-15 14:10:36.040000+09:00,2024,5,15,5,10,36,40,,,,,,,,,0.187988,0.01123,0.367676,25.512695,-199.21875,-94.665527,,,,,,,,,,,0.0,1.0,1.0,6.0,0.0,0.0,0.0,4.0,0.0,0.11270181333333333,-0.2141634,0.9470605466666666,-3.1412760000000013,-0.11637373333333301,-5.282389266666668,8.548495237547327,8.53730935948163,-22.03145838374543,14.753471759691354,-5.708183524396332,-10.698733826893944,19.097413270150614,-1.078959795954264,19.942849837290343,-1.0645259683177324,0.07528618666666666,0.2253934,-0.5793845466666666,0.8800641333333332,0.6262241192915735,0.8054724606654246,0.8511959082096944,0.8612416392586842
LBP03_S06,LBP03,152,153,6,152,152,1715749836.08,2024-05-15 05:10:36.080000+00:00,2024-05-15 14:10:36.080000+09:00,2024,5,15,5,10,36,80,,,,,,,,,0.333496,0.19873,0.295654,48.522949,-67.016602,-115.356445,,,,,,,,,,,0.0,1.0,1.0,6.0,0.0,0.0,0.0,4.0,0.0,0.11379230666666668,-0.21779946666666666,0.9468782533333333,-4.410807240000001,-0.570475293333333,-5.738118440000001,9.235618245582382,4.694971627815438,-29.259951049628995,15.12289648951465,-5.520384659283714,-11.869131868879105,20.001323364714423,-1.0816617484371047,20.55169125507535,-1.0691019422009282,0.21970369333333334,0.4165294666666667,-0.6512242533333333,1.2874574133333332,0.8036538667831337,0.814098764479319,0.8534084533635642,0.8626306354236813
LBP03_S06,LBP03,153,154,6,153,153,1715749836.12,2024-05-15 05:10:36.120000+00:00,2024-05-15 14:10:36.120000+09:00,2024,5,15,5,10,36,120,,,,,,,,,0.534424,-0.238037,0.80542,-42.96875,-66.955566,-54.138184,,,,,,,,,,,0.0,1.0,1.0,6.0,0.0,0.0,0.0,4.0,0.0,0.11062823999999999,-0.20944334666666667,0.9350976533333333,-3.540852813333334,1.4428710666666666,-5.389811146666667,8.547878009177868,-0.32246732279206203,-34.21438752453274,15.464811609881766,-5.533283352195396,-13.237707369860415,21.09536724484486,-1.0775699838580746,21.436213931978767,-1.071500671498589,0.42379576,-0.02859365333333333,-0.12967765333333325,0.5820670666666666,0.44411342805522624,0.8207538881154867,0.8489694835563847,0.8581594528988373
LBP03_S06,LBP03,154,155,6,154,154,1715749836.16,2024-05-15 05:10:36.160000+00:00,2024-05-15 14:10:36.160000+09:00,2024,5,15,5,10,36,160,,,,,,,,,0.108154,0.194824,0.717529,-0.976562,155.029297,12.268066,,,,,,,,,,,0.0,1.0,1.0,6.0,0.0,0.0,0.0,4.0,0.0,0.10657877333333333,-0.20276690666666666,0.9239062533333333,-4.489746040000002,1.1816406,-5.248209586666667,8.570608190745595,-5.420137608512445,-37.23274285577173,15.80763593751159,-5.7500888565358945,-14.727017084091283,22.35687607842569,-1.0798637832334426,22.599486235657565,-1.0755493050707456,0.0015752266666666653,0.39759090666666663,-0.20637725333333334,0.6055433866666666,0.44796493288703326,0.7829037415798403,0.8506104337272532,0.858085905989308
LBP03_S06,LBP03,155,156,6,155,155,1715749836.2,2024-05-15 05:10:36.200000+00:00,2024-05-15 14:10:36.200000+09:00,2024,5,15,5,10,36,200,,,,,,,,,-0.40918,-0.47168,1.568604,-184.387207,-6.713867,8.728027,,,,,,,,,,,0.0,1.0,1.0,6.0,0.0,0.0,0.0,4.0,0.0,0.10998046666666665,-0.19968422666666666,0.9204524800000001,-6.082356720000001,-0.9220377866666668,-5.851236933333334,11.10609210413802,-9.720489937944969,-39.18958148800561,16.25187962167711,-6.138908454053693,-16.294600343611506,23.81855975080693,-1.0606102221135332,24.029441352780104,-1.074209833089478,-0.5191604666666666,-0.27199577333333336,0.64815152,1.43930776,0.873847631878155,0.7805988783055372,0.8448877652357991,0.8591802830639362
LBP03_S06,LBP03,156,157,6,156,156,1715749836.24,2024-05-15 05:10:36.240000+00:00,2024-05-15 14:10:36.240000+09:00,2024,5,15,5,10,36,240,,,,,,,,,-0.226318,-0.694824,1.827881,33.38623,-115.722656,-21.30127,,,,,,,,,,,0.0,1.0,1.0,6.0,0.0,0.0,0.0,4.0,0.0,0.10739582666666667,-0.20770506666666666,0.9208333466666666,-4.859212186666667,0.9684244533333332,-6.429036413333334,16.93096444687889,-12.63480423275994,-40.93212242140504,16.929118199552263,-6.64430062336409,-17.931885240467707,25.540052507098565,-1.086189018281661,25.700040155203773,-1.0732185188757626,-0.33371382666666666,-0.48711893333333334,0.9070476533333335,1.7278804133333336,1.0823055108137543,0.7910504375745238,0.8484920352292673,0.8545316142098115
LBP03_S06,LBP03,157,158,6,157,157,1715749836.28,2024-05-15 05:10:36.280000+00:00,2024-05-15 14:10:36.280000+09:00,2024,5,15,5,10,36,280,,,,,,,,,0.368408,-0.703857,1.199707,-15.869141,-60.424805,27.648926,,,,,,,,,,,0.0,1.0,1.0,6.0,0.0,0.0,0.0,4.0,0.0,0.10277017333333333,-0.19376626666666666,0.9115625066666666,-2.2542317200000013,1.2915038799999998,-7.955729120000001,25.536515301504586,-13.854394819580747,-42.798205953913126,17.95057881161245,-7.1984764161473205,-19.64381347862423,27.566660123575325,-1.076578156176429,27.5770013037825,-1.0754018886539736,0.2656378266666667,-0.5100907333333333,0.2881444933333335,1.0638730533333334,0.6432598699025545,0.7884258283606368,0.8454351410479855,0.8518287348933794
LBP03_S06,LBP03,158,159,6,158,158,1715749836.32,2024-05-15 05:10:36.320000+00:00,2024-05-15 14:10:36.320000+09:00,2024,5,15,5,10,36,320,,,,,,,,,0.112061,0.029297,0.243896,182.067871,202.270508,5.371094,,,,,,,,,,,0.0,1.0,1.0,6.0,0.0,0.0,0.0,4.0,0.0,0.10216469333333332,-0.19983722666666667,0.9089746133333332,-5.079752546666668,-1.1450195600000004,-9.104817653333333,35.42966381408707,-13.315881970726318,-44.44456119803029,19.36776536417593,-7.731111694976374,-21.421595926545443,29.895905995339255,-1.0911404845940396,29.624525056695393,-1.0753994441523134,0.009896306666666674,0.22913422666666666,-0.6650786133333332,0.9041091466666665,0.70351261014225,0.7669127286032875,0.8320177173412233,0.8551157503672838
LBP03_S06,LBP03,159,160,6,159,159,1715749836.36,2024-05-15 05:10:36.360000+00:00,2024-05-15 14:10:36.360000+09:00,2024,5,15,5,10,36,360,,,,,,,,,-0.466064,0.072266,0.071777,85.266113,-45.837402,-132.93457,,,,,,,,,,,0.0,1.0,1.0,6.0,0.0,0.0,0.0,4.0,0.0,0.10865231999999998,-0.18767576,0.8972688933333333,-2.793782493333335,0.021972626666666127,-8.626302026666668,44.80124815376112,-11.172960244086507,-45.05909603555339,21.159815290326375,-8.178030104739834,-23.223959767967578,32.464908236724426,-1.039859967646658,31.809075381480426,-1.0747321924083293,-0.57471632,0.25994176,-0.8254918933333333,1.6601499733333331,1.0388962571042843,0.7864450083411989,0.8337519290316275,0.8477971001749409
LBP03_S06,LBP03,160,161,6,160,160,1715749836.4,2024-05-15 05:10:36.400000+00:00,2024-05-15 14:10:36.400000+09:00,2024,5,15,5,10,36,400,,,,,,,,,0.02124,-0.213623,0.259521,74.157715,-98.449707,-106.567383,,,,,,,,,,,0.0,1.0,1.0,6.0,0.0,0.0,0.0,4.0,0.0,0.10371741333333334,-0.18776365333333334,0.8908951999999999,-5.101725200000002,0.44270830666666616,-8.516438746666667,52.211455203033516,-7.808972437215343,-43.84636013188252,23.248273498447716,-8.490389002228447,-24.97781417324288,35.16333498035761,-1.05975202846242,34.09878373809547,-1.076783854028489,-0.08247741333333335,-0.02585934666666667,-0.6313741999999999,0.7397109599999999,0.6372633756507777,0.7776453648716461,0.83028346553705,0.8445741077484252
LBP03_S06,LBP03,161,162,6,161,161,1715749836.44,2024-05-15 05:10:36.440000+00:00,2024-05-15 14:10:36.440000+09:00,2024,5,15,5,10,36,440,,,,,,,,,0.559326,0.29248,0.448242,118.591309,-133.605957,-115.966797,,,,,,,,,,,0.0,1.0,1.0,6.0,0.0,0.0,0.0,4.0,0.0,0.09484370666666665,-0.1898469866666667,0.8885742266666667,-5.830078066666668,-1.267903666666667,-8.627115826666666,56.98005090129075,-3.8770836242905453,-40.533670054354324,25.527475534499345,-8.64547234720007,-26.599160975417053,37.86702475593789,-1.1007934937363744,36.459764558448214,-1.0826535785151488,0.46448229333333335,0.48232698666666673,-0.44033222666666677,1.3871415066666668,0.8014209834589836,0.7836301419098823,0.8319325103600299,0.8454980102776012
LBP03_S06,LBP03,162,163,6,162,162,1715749836.48,2024-05-15 05:10:36.480000+00:00,2024-05-15 14:10:36.480000+09:00,2024,5,15,5,10,36,480,,,,,,,,,0.519775,-0.125732,1.050049,-65.185547,74.09668,-46.447754,,,,,,,,,,,0.0,1.0,1.0,6.0,0.0,0.0,0.0,4.0,0.0,0.09860998666666668,-0.18819009333333334,0.8906282533333333,-4.910481706666667,-3.591308626666667,-8.74430332,59.1594992086074,-0.2729065463513976,-35.62417252265971,27.893855502843643,-8.656388609054126,-28.02412787632344,40.47656089384338,-1.081637303420502,38.85186575212181,-1.0846807364119444,0.42116501333333334,0.062458093333333325,0.15942074666666672,0.6430438533333334,0.4546382697779189,0.7821706271839323,0.8283568798083819,0.8432159623322492
LBP03_S06,LBP03,163,164,6,163,163,1715749836.52,2024-05-15 05:10:36.520000+00:00,2024-05-15 14:10:36.520000+09:00,2024,5,15,5,10,36,520,,,,,,,,,-0.025146,-0.165283,1.026855,17.944336,153.198242,45.166016,,,,,,,,,,,0.0,1.0,1.0,6.0,0.0,0.0,0.0,4.0,0.0,0.10359045333333333,-0.19269856000000002,0.8991796800000001,-4.8396809333333355,-2.0418294533333334,-7.1622720666666675,59.190778775726265,2.0472312077680406,-30.2519293312543,30.261486653872694,-8.574499360743404,-29.234205049573614,42.94087049269518,-1.0708974664182327,41.226136630887495,-1.0789444455915023,-0.12873645333333333,0.027415560000000005,0.12767531999999993,0.28382733333333326,0.18337304786707748,0.758563947543349,0.8201316474395354,0.8396336418557262
LBP03_S06,LBP03,164,165,6,164,164,1715749836.56,2024-05-15 05:10:36.560000+00:00,2024-05-15 14:10:36.560000+09:00,2024,5,15,5,10,36,560,,,,,,,,,-0.561035,-1.344238,1.875244,54.870605,-47.485352,-0.549316,,,,,,,,,,,0.0,1.0,1.0,6.0,0.0,0.0,0.0,4.0,0.0,0.09485998666666667,-0.18966796000000002,0.8899316266666667,-3.1201171333333346,0.07242835999999983,-7.313639253333334,57.478249066589676,2.361728796400628,-25.706254581898577,32.56061661653628,-8.48003020888738,-30.262455232849558,45.25395964457613,-1.1003803994350394,43.52527165695754,-1.0751150327689913,-0.6558949866666666,-1.15457004,0.9853123733333332,2.7957774,1.6535025502985576,0.7699482202568585,0.8266839936756446,0.8405497813178868
LBP03_S06,LBP03,165,166,6,165,165,1715749836.6,2024-05-15 05:10:36.600000+00:00,2024-05-15 14:10:36.600000+09:00,2024,5,15,5,10,36,600,,,,,,,,,0.133301,0.010254,1.411865,68.237305,-131.530762,17.822266,,,,,,,,,,,0.0,1.0,1.0,6.0,0.0,0.0,0.0,4.0,0.0,0.0892708,-0.18723306666666667,0.8844400933333333,-1.8717447333333348,-1.220703146666667,-7.781575453333333,54.113902721414405,0.4467612534959004,-22.86321392029178,34.72517272539285,-8.462159758747543,-31.17698378966123,47.428367954334384,-1.1193074669801306,45.686995299931205,-1.0776017436450815,0.044030200000000005,0.19748706666666666,0.5274249066666666,0.7689421733333333,0.5649042681596471,0.7749178933456352,0.8054812211966906,0.8386537091908072
LBP03_S06,LBP03,166,167,6,166,166,1715749836.64,2024-05-15 05:10:36.640000+00:00,2024-05-15 14:10:36.640000+09:00,2024,5,15,5,10,36,640,,,,,,,,,0.439453,-0.583252,1.327637,16.845703,63.476562,52.734375,,,,,,,,,,,0.0,1.0,1.0,6.0,0.0,0.0,0.0,4.0,0.0,0.09314449333333333,-0.18916990666666667,0.8786946533333332,-1.7862955200000015,-5.0830078400000005,-9.326171800000003,48.859122957400885,-3.3123245226444933,-21.801168716844675,36.67953764368889,-8.594652739653322,-32.04903053833502,49.461064443834516,-1.1064605972496186,47.649073404270084,-1.077094490472424,0.3463085066666667,-0.3940820933333333,0.44894234666666677,1.1893329466666667,0.6904922220461663,0.765217761682822,0.7988688785376487,0.8395263416424588
LBP03_S06,LBP03,167,168,6,167,167,1715749836.68,2024-05-15 05:10:36.680000+00:00,2024-05-15 14:10:36.680000+09:00,2024,5,15,5,10,36,680,,,,,,,,,-0.335693,0.101074,-0.351318,125.305176,217.956543,-18.432617,,,,,,,,,,,0.0,1.0,1.0,6.0,0.0,0.0,0.0,4.0,0.0,0.10516273333333334,-0.17302733333333334,0.8654719999999999,-0.4736327600000015,-3.36425784,-8.65397128,41.344136844048414,-7.993145115138968,-21.7805644882185,38.333303117450825,-8.91437854425888,-32.92025311786376,51.30936891123225,-1.0192152479720067,49.35391564690123,-1.0690738020267987,-0.4408557333333334,0.2741013333333333,-1.21679,1.9317470666666667,1.3228995512313027,0.7838050936884825,0.8044204878330619,0.8370346579226499
LBP03_S06,LBP03,168,169,6,168,168,1715749836.72,2024-05-15 05:10:36.720000+00:00,2024-05-15 14:10:36.720000+09:00,2024,5,15,5,10,36,720,,,,,,,,,0.00708,0.140625,0.132812,18.981934,-148.498535,-121.582031,,,,,,,,,,,0.0,1.0,1.0,6.0,0.0,0.0,0.0,4.0,0.0,0.10012041333333334,-0.17819334666666667,0.8658105333333332,-4.201660093333334,-2.2558594000000003,-8.003743413333334,31.352707297140572,-12.384542377244061,-21.59237278275211,39.58741140933645,-9.409760239348643,-33.78394802917384,52.88725625603967,-1.0528463563689312,50.751179125695316,-1.0687158848261198,-0.09304041333333334,0.31881834666666664,-0.7329985333333332,1.1448572933333332,0.8047288403886876,0.7855175042218439,0.803875129550909,0.8357789181064954
LBP03_S06,LBP03,169,170,6,169,169,1715749836.76,2024-05-15 05:10:36.760000+00:00,2024-05-15 14:10:36.760000+09:00,2024,5,15,5,10,36,760,,,,,,,,,0.193848,-0.269775,0.39917,43.579102,-142.333984,-126.708984,,,,,,,,,,,0.0,1.0,1.0,6.0,0.0,0.0,0.0,4.0,0.0,0.09544918666666667,-0.17459634666666665,0.8729329333333333,-4.359537693333336,-3.747558613333334,-7.992350186666667,19.04521991831183,-15.374886593079166,-20.098888597374245,40.34922020606892,-10.02475570307181,-34.587903573068814,54.08214466646101,-1.0647270764075607,51.79825826991936,-1.069937444413153,0.09839881333333332,-0.09517865333333334,-0.4737629333333333,0.6673404,0.49314563722734023,0.7779777605169567,0.803110514246022,0.8308940666829958
LBP03_S06,LBP03,170,171,6,170,170,1715749836.8,2024-05-15 05:10:36.800000+00:00,2024-05-15 14:10:36.800000+09:00,2024,5,15,5,10,36,800,,,,,,,,,0.677734,0.236572,0.591553,15.136719,-85.449219,-35.705566,,,,,,,,,,,0.0,1.0,1.0,6.0,0.0,0.0,0.0,4.0,0.0,0.10526364,-0.18829752000000002,0.8916633999999999,-7.067871026666668,-7.329915386666666,-7.207844986666667,5.022134307622251,-16.35122989952605,-16.690319036422377,40.55010557837381,-10.678804899052851,-35.25551633452571,54.7841160237464,-1.054679496735844,52.46005170253763,-1.0683391500595394,0.57247036,0.42486952,-0.3001103999999999,1.2974502799999998,0.7735002742673851,0.7899680175857935,0.8092020976352751,0.8319557402892155
LBP03_S06,LBP03,171,172,6,171,171,1715749836.84,2024-05-15 05:10:36.840000+00:00,2024-05-15 14:10:36.840000+09:00,2024,5,15,5,10,36,840,,,,,,,,,0.231934,0.07251,0.980225,-10.864258,129.699707,70.495605,,,,,,,,,,,0.0,1.0,1.0,6.0,0.0,0.0,0.0,4.0,0.0,0.11528642666666668,-0.19049478666666667,0.9108984266666668,-6.480305920000002,-2.8930664266666666,-5.738932226666668,-9.785390847479686,-15.404026851699141,-11.434059065138493,40.158689944474624,-11.294965973120817,-35.712878697131245,54.91544718224932,-1.0205866092801201,52.709866889586294,-1.0669955297784164,0.11664757333333332,0.26300478666666666,0.06932657333333325,0.4489789333333332,0.2959465288599889,0.7811869873046792,0.7914070904964773,0.8333109758696828
LBP03_S06,LBP03,172,173,6,172,172,1715749836.88,2024-05-15 05:10:36.880000+00:00,2024-05-15 14:10:36.880000+09:00,2024,5,15,5,10,36,880,,,,,,,,,-0.127686,-0.571777,1.643799,-175.720215,-47.424316,45.593262,,,,,,,,,,,0.0,1.0,1.0,6.0,0.0,0.0,0.0,4.0,0.0,0.10074216,-0.19056640000000002,0.90567056,-6.467285093333334,1.76188148,-5.1888020133333335,-24.325010079940213,-13.208221081407936,-4.885649662649047,39.185689541277014,-11.823294816377135,-35.908304683637205,54.44919568178431,-1.0780581314137143,52.53249917532893,-1.0697614414348369,-0.22842816,-0.38121059999999996,0.73812844,1.3477671999999998,0.8615883818681512,0.7769729658180444,0.7837971254868298,0.8250258701493289
LBP03_S06,LBP03,173,174,6,173,173,1715749836.92,2024-05-15 05:10:36.920000+00:00,2024-05-15 14:10:36.920000+09:00,2024,5,15,5,10,36,920,,,,,,,,,0.231201,-0.467041,1.799072,33.691406,-66.711426,35.522461,,,,,,,,,,,0.0,1.0,1.0,6.0,0.0,0.0,0.0,4.0,0.0,0.10162757333333335,-0.19473958666666666,0.9081835866666668,-7.688802026666667,0.7470702800000002,-6.055501226666667,-37.61236936051029,-10.638801887430326,2.268150469411774,37.6811947668566,-12.248846891874349,-35.81757866486073,53.41166193493559,-1.0831130622885654,51.92907025842844,-1.077909839369456,0.12957342666666666,-0.27230141333333335,0.8908884133333332,1.2927632533333333,0.9405421296321909,0.7734063323320168,0.7769597704493489,0.8245610108883454
LBP03_S06,LBP03,174,175,6,174,174,1715749836.96,2024-05-15 05:10:36.960000+00:00,2024-05-15 14:10:36.960000+09:00,2024,5,15,5,10,36,960,,,,,,,,,0.534668,-0.51001,1.499268,-31.188965,32.531738,25.512695,,,,,,,,,,,0.0,1.0,1.0,6.0,0.0,0.0,0.0,4.0,0.0,0.10489580000000001,-0.20179037333333333,0.9192480399999999,-5.329589800000001,1.3688150666666667,-7.43733716,-48.80471640471958,-8.313475412308106,9.493561429547011,35.72900611066782,-12.581385908366673,-35.43783620767885,51.87189397075896,-1.0843974558989025,50.92204572358105,-1.0833194181214219,0.42977220000000005,-0.30821962666666664,0.5800199600000001,1.3180117866666667,0.7849373453682664,0.7868078107303408,0.7864516977029823,0.8265126654983781
LBP03_S06,LBP03,175,176,6,175,175,1715749837.0,2024-05-15 05:10:37+00:00,2024-05-15 14:10:37+09:00,2024,5,15,5,10,37,0,5.0,10.0,37.0,40.529392,141.492264,38.435001,3.0,13.0,-0.428955,-0.376465,0.52124,22.216797,251.525879,3.356934,-279.0,58.0,354.0,2684.0,0.0,1016.799988,30.76,0.037657,-29.496908,3.853125,0.0,1.0,1.0,6.0,0.0,0.0,0.0,4.0,0.0,0.10312821333333334,-0.20949870666666667,0.9261914000000001,-4.821777306666668,1.6536458,-8.994954346666667,-57.16000579137358,-6.274579485529641,16.470561437894975,33.44260587901287,-12.832369087787859,-34.77901375016305,49.926519824820865,-1.1058712641689008,49.558413696363104,-1.0882121786938137,-0.5320832133333333,-0.16696629333333332,-0.4049514000000001,1.1040009066666667,0.6891849718200175,0.744633864191217,0.7716952291703375,0.8167512856708131
LBP03_S06,LBP03,176,177,6,176,176,1715749837.04,2024-05-15 05:10:37.040000+00:00,2024-05-15 14:10:37.040000+09:00,2024,5,15,5,10,37,40,,,,,,,,,-0.409668,-0.421387,-0.02002,-169.98291,-119.384766,-50.598145,,,,,,,,,,,0.0,1.0,1.0,6.0,0.0,0.0,0.0,4.0,0.0,0.09946609333333334,-0.21758789333333334,0.9342675600000001,-0.09521480000000149,1.1271158533333334,-9.975585853333333,-61.98035449403009,-3.9733635400358667,22.945178864711988,30.96339169925167,-12.991303629389293,-33.86120659557457,47.68738730126084,-1.1341197138138235,47.90919376591594,-1.0923406800233755,-0.5091340933333333,-0.20379910666666667,-0.9542875600000001,1.6672207600000002,1.100643606279181,0.7636106436707213,0.7845415521680728,0.8220008200300366
LBP03_S06,LBP03,177,178,6,177,177,1715749837.08,2024-05-15 05:10:37.080000+00:00,2024-05-15 14:10:37.080000+09:00,2024,5,15,5,10,37,80,,,,,,,,,0.293945,0.159424,0.206055,77.941895,-85.021973,-20.080566,,,,,,,,,,,0.0,1.0,1.0,6.0,0.0,0.0,0.0,4.0,0.0,0.10282873333333334,-0.2060026,0.9340722533333333,-0.12288408000000156,1.355794226666667,-9.83072908,-62.65619333697156,-0.6056755068280041,28.52200291754073,28.457143965772808,-13.015530649662413,-32.72032647887294,45.27507974222746,-1.100699227318196,46.06404743603086,-1.0996274958996788,0.19111626666666667,0.36542660000000005,-0.7280172533333333,1.28456012,0.8367025448289107,0.7649325907925524,0.7895156776359356,0.8239164991732268
LBP03_S06,LBP03,178,179,6,178,178,1715749837.12,2024-05-15 05:10:37.120000+00:00,2024-05-15 14:10:37.120000+09:00,2024,5,15,5,10,37,120,,,,,,,,,0.530029,-0.251709,0.742676,-96.862793,-170.471191,2.624512,,,,,,,,,,,0.0,1.0,1.0,6.0,0.0,0.0,0.0,4.0,0.0,0.10371416000000001,-0.21121093333333335,0.9397102800000001,-0.6787109066666681,2.427571573333333,-9.917805906666667,-58.86142340584072,4.344702734827382,32.580013831443026,26.10268702953918,-12.841742540269317,-31.41712592561522,42.817010907565695,-1.1069421438885907,44.12085678015881,-1.1003258704744712,0.42631484,-0.040498066666666666,-0.19703428000000012,0.6638471866666668,0.4713883151957437,0.7660235862781729,0.7933887371968298,0.8213208511303142
LBP03_S06,LBP03,179,180,6,179,179,1715749837.16,2024-05-15 05:10:37.160000+00:00,2024-05-15 14:10:37.160000+09:00,2024,5,15,5,10,37,160,,,,,,,,,0.674072,0.376465,1.049072,-22.460938,110.595703,101.623535,,,,,,,,,,,0.0,1.0,1.0,6.0,0.0,0.0,0.0,4.0,0.0,0.10550777333333335,-0.21879557333333333,0.94633464,-1.4632161200000016,2.0336913733333337,-9.152018146666668,-50.85658111600592,10.65954966514525,34.41445412154485,24.068423784898943,-12.415360553663508,-30.040547760753427,40.44582439428155,-1.1136546821314808,42.17207150808956,-1.101943864431418,0.5685642266666666,0.5952605733333334,0.10273736,1.2665621599999999,0.8295513215889436,0.7812870418262494,0.7820953917030448,0.8275026364269187
LBP03_S06,LBP03,180,181,6,180,180,1715749837.2,2024-05-15 05:10:37.200000+00:00,2024-05-15 14:10:37.200000+09:00,2024,5,15,5,10,37,200,,,,,,,,,-0.240723,-0.046143,1.625,-214.538574,52.612305,93.75,,,,,,,,,,,0.0,1.0,1.0,6.0,0.0,0.0,0.0,4.0,0.0,0.10669918666666668,-0.21135417333333334,0.9440852933333334,2.831217466666665,3.4708658400000005,-8.715006426666667,-39.76901883786724,17.30760494418874,33.55485357923162,22.477663031384253,-11.723056355895958,-28.69835361758416,38.291916719274795,-1.0959645100314601,40.29209696355413,-1.1072980236760244,-0.3474221866666667,0.16521117333333335,0.6809147066666666,1.1935480666666667,0.7820752811190094,0.7776161477958836,0.7791075130507105,0.8224638927558272
LBP03_S06,LBP03,181,182,6,181,181,1715749837.24,2024-05-15 05:10:37.240000+00:00,2024-05-15 14:10:37.240000+09:00,2024,5,15,5,10,37,240,,,,,,,,,0.160645,-1.001465,2.184082,-113.647461,-36.254883,63.293457,,,,,,,,,,,0.0,1.0,1.0,6.0,0.0,0.0,0.0,4.0,0.0,0.10699216,-0.21055013333333333,0.9489160133333333,1.1539713733333319,2.65950516,-8.822428293333333,-27.654676713583186,22.784894692445004,30.076972599511926,21.371475962840925,-10.811660568198157,-27.495274713603685,36.4639838833986,-1.0934547680431526,38.53100867447794,-1.1085007949896961,0.05365284000000001,-0.7909148666666668,1.2351659866666669,2.079733693333334,1.4676716145557418,0.793030791945563,0.7920406147600434,0.8300049541346992
LBP03_S06,LBP03,182,183,6,182,182,1715749837.28,2024-05-15 05:10:37.280000+00:00,2024-05-15 14:10:37.280000+09:00,2024,5,15,5,10,37,280,,,,,,,,,0.273193,-0.405762,1.670166,34.851074,70.800781,42.541504,,,,,,,,,,,0.0,1.0,1.0,6.0,0.0,0.0,0.0,4.0,0.0,0.11276038666666667,-0.21748698666666666,0.9616308666666666,1.7846679866666653,4.107259053333334,-9.072265533333333,-17.166747463473754,25.69958017638945,24.703121715921178,20.684806064301974,-9.783677361142578,-26.507149844966836,35.017289123063804,-1.0850418771616377,36.917385751365025,-1.1029078318531296,0.16043261333333336,-0.18827501333333335,0.7085351333333334,1.05724276,0.7504719443352391,0.7973192749228705,0.7928725516417536,0.8293965190062805
LBP03_S06,LBP03,183,184,6,183,183,1715749837.32,2024-05-15 05:10:37.320000+00:00,2024-05-15 14:10:37.320000+09:00,2024,5,15,5,10,37,320,,,,,,,,,0.079102,-0.380127,0.90918,97.77832,164.001465,22.583008,,,,,,,,,,,0.0,1.0,1.0,6.0,0.0,0.0,0.0,4.0,0.0,0.1069238,-0.21344076,0.9694791733333333,2.8352864799999984,5.47363276,-9.395344960000001,-10.820070290405285,25.332494682358007,18.589431146375144,20.25200325268576,-8.770377573848258,-25.763572599111832,33.92380921424304,-1.0992930018580358,35.46813309003248,-1.1043495544153132,-0.027821799999999994,-0.16668623999999999,-0.060299173333333345,0.25480721333333334,0.17942782801243784,0.776355883637678,0.7716343061204828,0.8134637727733749
