file_name,test_id,_program_index,program_index,session_id,index,_index,unixtime,datetime_utc,datetime_jst,rtc_year,rtc_month,rtc_day,rtc_hour,rtc_min,rtc_sec,rtc_msec,gps_hour,gps_min,gps_sec,latitude,longitude,altitude,fix_type,SIV,acc_x,acc_y,acc_z,gyro_x,gyro_y,gyro_z,mag_x,mag_y,mag_z,illuminance,atmopress,water_pressure,water_temp,depth,alt_wps,battery_level,behavior_class,camera_command,camera_recording,camera_count,play_audio,speaker_on,audio_file,prev_sd_write_time_ms,delay_occurred_counter,acc_x_ma,acc_y_ma,acc_z_ma,gyro_x_ma,gyro_y_ma,gyro_z_ma,gyro_x_lowpass,gyro_y_lowpass,gyro_z_lowpass,angle_x,angle_y,angle_z,combined_angle_change,gravity_adjusted_angle,smoothed_angle_change,smoothed_gravity_angle,acc_x_dy,acc_y_dy,acc_z_dy,ODBA,VeDBA,smoothed_VeDBA_1s,smoothed_VeDBA_2s,smoothed_VeDBA_3s
LBP03_S02,LBP03,-1650,1,2,0,-1650,1715719263.0,2024-05-14 20:41:03+00:00,2024-05-15 05:41:03+09:00,2024,5,14,20,41,3,0,20.0,41.0,2.0,40.552868,141.538605,5.808,3.0,16.0,-0.077637,-0.651367,1.786621,-64.27002,-71.411133,38.208008,-306.0,40.0,364.0,643.0,0.0,1016.0,19.219999,0.029729,-22.857084,4.028906,0.0,1.0,1.0,2.0,0.0,0.0,0.0,4.0,0.0,,,,,,,-63.746243374878205,-71.50794476081632,37.26832651725594,-2.5498497349951283,-2.8603177904326524,1.4907330606902378,4.111622136280904,,7.532100559326129,,,,,,,,,
LBP03_S02,LBP03,-1649,2,2,1,-1649,1715719263.04,2024-05-14 20:41:03.040000+00:00,2024-05-15 05:41:03.040000+09:00,2024,5,14,20,41,3,40,,,,,,,,,0.461914,-0.401611,1.483154,12.939453,-23.4375,41.564941,,,,,,,,,,,0.0,1.0,1.0,2.0,0.0,0.0,0.0,4.0,0.0,,,,,,,-39.351182665639755,-53.15645902220605,20.464476513416983,-4.123897041620719,-4.986576151320895,2.309312121226917,6.870617948631403,,7.742498017052302,,,,,,,,,
LBP03_S02,LBP03,-1648,3,2,2,-1648,1715719263.08,2024-05-14 20:41:03.080000+00:00,2024-05-15 05:41:03.080000+09:00,2024,5,14,20,41,3,80,,,,,,,,,-0.499023,0.119141,-0.167725,111.938477,219.238281,-36.92627,,,,,,,,,,,0.0,1.0,1.0,2.0,0.0,0.0,0.0,4.0,0.0,,,,,,,-17.835877255797207,-36.36013681719161,5.723005262541401,-4.837332131852607,-6.440981624008559,2.5382323317285733,8.445629035453896,,7.820306098056315,,,,,,,,,
LBP03_S02,LBP03,-1647,4,2,3,-1647,1715719263.12,2024-05-14 20:41:03.120000+00:00,2024-05-15 05:41:03.120000+09:00,2024,5,14,20,41,3,120,,,,,,,,,0.047119,0.050781,0.163818,63.354492,-156.860352,-72.265625,,,,,,,,,,,0.0,1.0,1.0,2.0,0.0,0.0,0.0,4.0,0.0,,,,,,,-1.0654280377437326,-22.099012989459723,-5.530219280068758,-4.879949253362357,-7.324942143586949,2.317023560525823,9.101498794282168,,7.810376108835855,,,,,,,,,
LBP03_S02,LBP03,-1646,5,2,4,-1646,1715719263.16,2024-05-14 20:41:03.160000+00:00,2024-05-15 05:41:03.160000+09:00,2024,5,14,20,41,3,160,,,,,,,,,0.363525,0.110107,0.620361,-16.662598,-100.891113,-60.48584,,,,,,,,,,,0.0,1.0,1.0,2.0,0.0,0.0,0.0,4.0,0.0,,,,,,,10.321772127996274,-10.779377964567928,-12.74899039445359,-4.467078368242506,-7.756117262169666,1.8070639447476793,9.131134881982275,,7.746890200718947,,,,,,,,,
LBP03_S02,LBP03,-1645,6,2,5,-1645,1715719263.2,2024-05-14 20:41:03.200000+00:00,2024-05-15 05:41:03.200000+09:00,2024,5,14,20,41,3,200,,,,,,,,,0.59668,-0.189697,1.28125,-25.390625,-1.403809,4.577637,,,,,,,,,,,0.0,1.0,1.0,2.0,0.0,0.0,0.0,4.0,0.0,,,,,,,16.830887278871494,-2.3370542135735497,-16.30709921615678,-3.793842877087646,-7.849599430712608,1.1547799761014081,8.794485305683166,,7.655022411785708,,,,,,,,,
LBP03_S02,LBP03,-1644,7,2,6,-1644,1715719263.24,2024-05-14 20:41:03.240000+00:00,2024-05-15 05:41:03.240000+09:00,2024,5,14,20,41,3,240,,,,,,,,,-0.167725,-0.020508,1.500244,-76.11084,55.297852,48.64502,,,,,,,,,,,0.0,1.0,1.0,2.0,0.0,0.0,0.0,4.0,0.0,,,,,,,19.6307645592429,3.548893615473945,-17.21263531047078,-3.00861229471793,-7.70764368609365,0.4662745636825769,8.287154584080387,,7.896061288762335,,,,,,,,,
LBP03_S02,LBP03,-1643,8,2,7,-1643,1715719263.28,2024-05-14 20:41:03.280000+00:00,2024-05-15 05:41:03.280000+09:00,2024,5,14,20,41,3,280,,,,,,,,,-0.05835,-0.641846,1.803467,-18.615723,-52.429199,38.146973,,,,,,,,,,,0.0,1.0,1.0,2.0,0.0,0.0,0.0,4.0,0.0,,,,,,,19.96555239046661,7.2907762140180115,-16.63865361506204,-2.2099901990992654,-7.41601263753293,-0.1992715809199047,7.740866184292637,,7.839741294407924,,,,,,,,,
LBP03_S02,LBP03,-1642,9,2,8,-1642,1715719263.32,2024-05-14 20:41:03.320000+00:00,2024-05-15 05:41:03.320000+09:00,2024,5,14,20,41,3,320,,,,,,,,,0.547363,-0.618652,1.605713,-26.000977,-19.104004,36.560059,,,,,,,,,,,0.0,1.0,1.0,2.0,0.0,0.0,0.0,4.0,0.0,,,,,,,18.75304220819008,9.330770552632384,-15.49947837940432,-1.459868510771662,-7.0427818154276345,-0.8192507160960775,7.239002935783683,,7.6114238997126025,,,,,,,,,
LBP03_S02,LBP03,-1641,10,2,9,-1641,1715719263.36,2024-05-14 20:41:03.360000+00:00,2024-05-15 05:41:03.360000+09:00,2024,5,14,20,41,3,360,,,,,,,,,-0.59082,0.185059,-0.372314,172.241211,265.869141,-67.504883,,,,,,,,,,,0.0,1.0,1.0,2.0,0.0,0.0,0.0,4.0,0.0,,,,,,,16.50977806137901,10.136353160880159,-14.260641442401495,-0.7994773883165016,-6.637327688992428,-1.3896763737921374,6.828212311386562,,7.308854942570572,,,,,,,,,
LBP03_S02,LBP03,-1640,11,2,10,-1640,1715719263.4,2024-05-14 20:41:03.400000+00:00,2024-05-15 05:41:03.400000+09:00,2024,5,14,20,41,3,400,,,,,,,,,0.150635,0.030273,0.077148,50.292969,-151.489258,-77.392578,,,,,,,,,,,0.0,1.0,1.0,2.0,0.0,0.0,0.0,4.0,0.0,,,,,,,13.529404753600504,10.169344685915762,-13.02120946451469,-0.2583011981724814,-6.230553901555798,-1.9105247523727251,6.522010906047181,,7.001144340103944,,,,,,,,,
LBP03_S02,LBP03,-1639,12,2,11,-1639,1715719263.44,2024-05-14 20:41:03.440000+00:00,2024-05-15 05:41:03.440000+09:00,2024,5,14,20,41,3,440,,,,,,,,,0.430176,0.194824,0.647461,4.577637,-83.92334,-63.903809,,,,,,,,,,,0.0,1.0,1.0,2.0,0.0,0.0,0.0,4.0,0.0,,,,,,,10.103734943306916,9.784316502581165,-11.7464005082507,0.14584819955979522,-5.839181241452551,-2.380380772702753,6.307418005087276,,6.732992599297917,,,,,,,,,
LBP03_S02,LBP03,-1638,13,2,12,-1638,1715719263.48,2024-05-14 20:41:03.480000+00:00,2024-05-15 05:41:03.480000+09:00,2024,5,14,20,41,3,480,,,,,,,,,0.548096,-0.016357,1.228027,-1.708984,8.728027,9.643555,,,,,,,,,,,0.0,1.0,1.0,2.0,0.0,0.0,0.0,4.0,0.0,,,,,,,6.601682815146156,9.107984424832214,-10.46239270684424,0.4099155121656415,-5.474861864459263,-2.7988764809765225,6.1624550885006775,,6.530585709259301,,,,,,,,,
LBP03_S02,LBP03,-1637,14,2,13,-1637,1715719263.52,2024-05-14 20:41:03.520000+00:00,2024-05-15 05:41:03.520000+09:00,2024,5,14,20,41,3,520,,,,,,,,,-0.353027,-0.312256,1.591797,-115.234375,94.665527,38.208008,,,,,,,,,,,0.0,1.0,1.0,2.0,0.0,0.0,0.0,4.0,0.0,,,,,,,3.376568931276286,8.016538657097474,-9.292974111402458,0.5449782694166929,-5.154200318175364,-3.170595445432621,6.075809222861883,,6.406492968006243,,,,,,,,,
LBP03_S02,LBP03,-1636,15,2,14,-1636,1715719263.56,2024-05-14 20:41:03.560000+00:00,2024-05-15 05:41:03.560000+09:00,2024,5,14,20,41,3,560,,,,,,,,,-0.023438,-0.686768,1.799561,-21.057129,-58.59375,30.090332,,,,,,,,,,,0.0,1.0,1.0,2.0,0.0,0.0,0.0,4.0,0.0,,,,,,,0.6257445306022004,6.274083338926878,-8.358681256506017,0.570008050640781,-4.903236984618289,-3.5049426956928618,6.054028857315985,,6.362947252814768,,,,,,,,,
LBP03_S02,LBP03,-1635,16,2,15,-1635,1715719263.6,2024-05-14 20:41:03.600000+00:00,2024-05-15 05:41:03.600000+09:00,2024,5,14,20,41,3,600,,,,,,,,,0.419434,-0.241455,1.413818,14.770508,40.466309,33.081055,,,,,,,,,,,0.0,1.0,1.0,2.0,0.0,0.0,0.0,4.0,0.0,,,,,,,-1.641554536291941,3.766614819018841,-7.662408168597127,0.5043458691891033,-4.7525723918575355,-3.8114390224367467,6.112967897622902,,6.394511904950774,,,,,,,,,
LBP03_S02,LBP03,-1634,17,2,16,-1634,1715719263.64,2024-05-14 20:41:03.640000+00:00,2024-05-15 05:41:03.640000+09:00,2024,5,14,20,41,3,640,,,,,,,,,-0.540527,0.118164,-0.29126,133.789062,198.608398,-54.077148,,,,,,,,,,,0.0,1.0,1.0,2.0,0.0,0.0,0.0,4.0,0.0,,,,,,,-3.4787667027078166,0.6855896245565771,-7.079312437773391,0.3651952010807906,-4.725148806875272,-4.094611519947683,6.263085683694222,,6.491226244056702,,,,,,,,,
LBP03_S02,LBP03,-1633,18,2,17,-1633,1715719263.68,2024-05-14 20:41:03.680000+00:00,2024-05-15 05:41:03.680000+09:00,2024,5,14,20,41,3,680,,,,,,,,,0.2146,0.033936,0.316406,14.099121,-187.561035,-65.307617,,,,,,,,,,,0.0,1.0,1.0,2.0,0.0,0.0,0.0,4.0,0.0,,,,,,,-4.8228078986548795,-2.4626539798964813,-6.469091370956936,0.17228288513459544,-4.823654966071132,-4.35337517478596,6.499938771762061,,6.641902288734384,,,,,,,,,
LBP03_S02,LBP03,-1632,19,2,18,-1632,1715719263.72,2024-05-14 20:41:03.720000+00:00,2024-05-15 05:41:03.720000+09:00,2024,5,14,20,41,3,720,,,,,,,,,0.282471,-0.035156,0.634521,-39.0625,-47.363281,-55.969238,,,,,,,,,,,0.0,1.0,1.0,2.0,0.0,0.0,0.0,4.0,0.0,,,,,,,-5.431430790131618,-5.04216529329344,-5.817688229909575,-0.04497434647066928,-5.02534157780287,-4.586082703982343,6.80354578386893,,6.835945123379713,,,,,,,,,
LBP03_S02,LBP03,-1631,20,2,19,-1631,1715719263.76,2024-05-14 20:41:03.760000+00:00,2024-05-15 05:41:03.760000+09:00,2024,5,14,20,41,3,760,,,,,,,,,0.508789,-0.062988,1.184814,-10.742188,-9.094238,32.592773,,,,,,,,,,,0.0,1.0,1.0,2.0,0.0,0.0,0.0,4.0,0.0,,,,,,,-5.022770014662163,-6.558968261918416,-5.281468594682083,-0.24588514705715583,-5.287700308279606,-4.797341447769626,7.143858832746623,,7.0626311922187215,,,,,,,,,
LBP03_S02,LBP03,-1630,21,2,20,-1630,1715719263.8,2024-05-14 20:41:03.800000+00:00,2024-05-15 05:41:03.800000+09:00,2024,5,14,20,41,3,800,,,,,,,,,-0.26709,-0.163574,1.490723,-146.179199,49.316406,44.86084,,,,,,,,,,,0.0,1.0,1.0,2.0,0.0,0.0,0.0,4.0,0.0,,,,,,,-3.534737506519265,-6.848800197967613,-5.080147924586239,-0.38727464731792643,-5.561652316198311,-5.000547364753076,7.489154297106462,,7.308783995542159,,,,,,,,,
LBP03_S02,LBP03,-1629,22,2,21,-1629,1715719263.84,2024-05-14 20:41:03.840000+00:00,2024-05-15 05:41:03.840000+09:00,2024,5,14,20,41,3,840,,,,,,,,,0.096191,-0.702881,1.813232,-10.742188,-110.534668,29.35791,,,,,,,,,,,0.0,1.0,1.0,2.0,0.0,0.0,0.0,4.0,0.0,,,,,,,-1.308892987238778,-6.074562086925781,-5.308812165764875,-0.4396303668074776,-5.804634799675342,-5.212899851383671,7.814178451864097,,7.557189077218996,,,,,,,,,
LBP03_S02,LBP03,-1628,23,2,22,-1628,1715719263.88,2024-05-14 20:41:03.880000+00:00,2024-05-15 05:41:03.880000+09:00,2024,5,14,20,41,3,880,,,,,,,,,0.430908,-0.548584,1.402588,31.066895,73.486328,44.494629,,,,,,,,,,,0.0,1.0,1.0,2.0,0.0,0.0,0.0,4.0,0.0,,,,,,,0.964455559931954,-4.557068218987603,-5.813225620137554,-0.40105214441019943,-5.986917528434846,-5.445428876189173,8.102883434953961,,7.787523841277162,,,,,,,,,
LBP03_S02,LBP03,-1627,24,2,23,-1627,1715719263.92,2024-05-14 20:41:03.920000+00:00,2024-05-15 05:41:03.920000+09:00,2024,5,14,20,41,3,920,,,,,,,,,-0.610352,0.182861,-0.319824,136.169434,171.813965,-70.556641,,,,,,,,,,,0.0,1.0,1.0,2.0,0.0,0.0,0.0,4.0,0.0,,,,,,,2.542301550291555,-2.5588387484046775,-6.235497367481163,-0.29936008239853723,-6.089271078371033,-5.69484877088842,8.342669911251969,,7.979692242949865,,,,,,,,,
LBP03_S02,LBP03,-1626,25,2,24,-1626,1715719263.96,2024-05-14 20:41:03.960000+00:00,2024-05-15 05:41:03.960000+09:00,2024,5,14,20,41,3,960,,,,,,,,,0.106445,0.027588,0.053223,61.828613,-131.103516,-76.049805,,,,,,,,,,,0.0,1.0,1.0,2.0,0.0,0.0,0.0,4.0,0.0,,,,,,,2.988788891613953,-0.16105396081361462,-6.21515751030939,-0.17980852673397912,-6.095713236803578,-5.943455071300796,8.51555689055036,,8.118045680302895,,,,,,,,,
LBP03_S02,LBP03,-1625,26,2,25,-1625,1715719264.0,2024-05-14 20:41:04+00:00,2024-05-15 05:41:04+09:00,2024,5,14,20,41,4,0,20.0,41.0,3.0,40.552799,141.538544,5.92,3.0,16.0,0.426025,0.012207,0.644775,-47.546387,-79.467773,-42.96875,-305.0,47.0,363.0,985.0,0.0,1016.099976,19.23,0.03072,-23.687103,4.028906,0.0,1.0,1.0,2.0,0.0,0.0,0.0,5.0,0.0,,,,,,,2.3608705900965496,2.6897017504615457,-5.612762103942413,-0.08537370313011713,-5.988125166785116,-6.167965555458492,8.597018714391274,,8.194783161971666,,,,,,,,,
LBP03_S02,LBP03,-1624,27,2,26,-1624,1715719264.04,2024-05-14 20:41:04.040000+00:00,2024-05-15 05:41:04.040000+09:00,2024,5,14,20,41,4,40,,,,,,,,,0.641602,-0.254639,1.355225,-46.203613,24.963379,19.40918,,,,,,,,,,,0.0,1.0,1.0,2.0,0.0,0.0,0.0,5.0,0.0,,,,,,,1.0986907642739225,6.012622178924407,-4.59893434843233,-0.04142607255916023,-5.74762027962814,-6.351922929395785,8.566433324275877,,8.211305538957783,,,,,,,,,
LBP03_S02,LBP03,-1623,28,2,27,-1623,1715719264.08,2024-05-14 20:41:04.080000+00:00,2024-05-15 05:41:04.080000+09:00,2024,5,14,20,41,4,80,,,,,,,,,-0.290283,-0.169189,1.567627,-89.416504,80.688477,62.866211,,,,,,,,,,,0.0,1.0,1.0,2.0,0.0,0.0,0.0,5.0,0.0,,,,,,,-0.2915269178781275,9.638045569012954,-3.5457214668095856,-0.05308714927428533,-5.3620984568676215,-6.4937517880681686,8.421622788489088,,8.17714819605391,,,,,,,,,
LBP03_S02,LBP03,-1622,29,2,28,-1622,1715719264.12,2024-05-14 20:41:04.120000+00:00,2024-05-15 05:41:04.120000+09:00,2024,5,14,20,41,4,120,,,,,,,,,-0.123291,-0.431396,1.819824,-29.968262,-74.829102,37.597656,,,,,,,,,,,0.0,1.0,1.0,2.0,0.0,0.0,0.0,5.0,0.0,,,,,,,-1.535178314527519,13.173322560306417,-2.80073787527611,-0.1144942818553861,-4.835165554455365,-6.605781303079213,8.187080157399226,,8.10731457581779,,,,,,,,,
LBP03_S02,LBP03,-1621,30,2,29,-1621,1715719264.16,2024-05-14 20:41:04.160000+00:00,2024-05-15 05:41:04.160000+09:00,2024,5,14,20,41,4,160,,,,,,,,,0.55835,-0.591064,1.589844,27.46582,10.131836,23.4375,,,,,,,,,,,0.0,1.0,1.0,2.0,0.0,0.0,0.0,5.0,0.0,,,,,,,-2.670261176831276,16.094630213543546,-2.506468144729228,-0.22130472892863712,-4.191380345913624,-6.706040028868382,7.911233649434344,,8.019627366266546,,,,,,,,,
LBP03_S02,LBP03,-1620,31,2,30,-1620,1715719264.2,2024-05-14 20:41:04.200000+00:00,2024-05-15 05:41:04.200000+09:00,2024,5,14,20,41,4,200,,,,,,,,,-0.48877,0.187988,-0.157715,116.699219,220.88623,-55.297852,,,,,,,,,,,0.0,1.0,1.0,2.0,0.0,0.0,0.0,5.0,0.0,,,,,,,-3.8802574771035645,17.89845038663241,-2.5860410639350384,-0.3765150280127797,-3.4754423304483275,-6.809481671425783,7.654378066967639,,7.9332342428011255,,,,,,,,,
LBP03_S02,LBP03,-1619,32,2,31,-1619,1715719264.24,2024-05-14 20:41:04.240000+00:00,2024-05-15 05:41:04.240000+09:00,2024,5,14,20,41,4,240,,,,,,,,,0.104004,-0.128418,0.369629,6.04248,-148.4375,-60.241699,,,,,,,,,,,0.0,1.0,1.0,2.0,0.0,0.0,0.0,5.0,0.0,,,,,,,-5.226079091108304,18.231761637254184,-2.8877100543408334,-0.5855581916571119,-2.74617186495816,-6.9249900735994165,7.4726050228253715,,7.868063626676178,,,,,,,,,
LBP03_S02,LBP03,-1618,33,2,32,-1618,1715719264.28,2024-05-14 20:41:04.280000+00:00,2024-05-15 05:41:04.280000+09:00,2024,5,14,20,41,4,280,,,,,,,,,0.382324,-0.002686,0.773438,16.235352,-8.239746,-60.72998,,,,,,,,,,,0.0,1.0,1.0,2.0,0.0,0.0,0.0,5.0,0.0,,,,,,,-6.489769266933933,16.94931203455871,-3.361073123626377,-0.8451489623344692,-2.068199383575812,-7.059432998544471,7.404547232592752,,7.844059766111547,,,,,,,,,
LBP03_S02,LBP03,-1617,34,2,33,-1617,1715719264.32,2024-05-14 20:41:04.320000+00:00,2024-05-15 05:41:04.320000+09:00,2024,5,14,20,41,4,320,,,,,,,,,0.367676,0.011963,1.252441,-47.424316,64.025879,41.625977,,,,,,,,,,,0.0,1.0,1.0,2.0,0.0,0.0,0.0,5.0,0.0,,,,,,,-7.251935765859906,14.107956483188326,-4.116880626479358,-1.1352263929688655,-1.5038811242482788,-7.224108223603646,7.465797815739533,,7.879060428369416,-0.9191759442993778,,,,,,,,
LBP03_S02,LBP03,-1616,35,2,34,-1616,1715719264.36,2024-05-14 20:41:04.360000+00:00,2024-05-15 05:41:04.360000+09:00,2024,5,14,20,41,4,360,,,,,,,,,-0.385498,-0.478516,1.759277,-154.418945,21.606445,54.80957,,,,,,,,,,,0.0,1.0,1.0,2.0,0.0,0.0,0.0,5.0,0.0,,,,,,,-7.1479091754283495,9.952819004498734,-5.315631252212441,-1.4211427599859996,-1.1057683640683296,-7.4367334736921435,7.65162565589615,,7.985115241209786,-0.9074556275791383,,,,,,,,
LBP03_S02,LBP03,-1615,36,2,35,-1615,1715719264.4,2024-05-14 20:41:04.400000+00:00,2024-05-15 05:41:04.400000+09:00,2024,5,14,20,41,4,400,,,,,,,,,-0.100342,-0.32251,1.719482,26.000977,-59.570312,25.024414,,,,,,,,,,,0.0,1.0,1.0,2.0,0.0,0.0,0.0,5.0,0.0,,,,,,,-6.114083015501349,4.929573845487769,-6.967457367035257,-1.6657060806060535,-0.9085854102488188,-7.715431768373554,7.945312553141812,,8.164454525227644,-0.9219011856942575,,,,,,,,
LBP03_S02,LBP03,-1614,37,2,36,-1614,1715719264.44,2024-05-14 20:41:04.440000+00:00,2024-05-15 05:41:04.440000+09:00,2024,5,14,20,41,4,440,,,,,,,,,0.520508,-0.651611,1.582764,-22.155762,18.859863,18.493652,,,,,,,,,,,0.0,1.0,1.0,2.0,0.0,0.0,0.0,5.0,0.0,,,,,,,-4.441999593654473,-0.2980851831743465,-8.799976770140864,-1.8433860643522324,-0.9205088175757926,-8.067430839179188,8.32639471862956,,8.407261689822633,-0.9231997014447235,,,,,,,,
LBP03_S02,LBP03,-1613,38,2,37,-1613,1715719264.48,2024-05-14 20:41:04.480000+00:00,2024-05-15 05:41:04.480000+09:00,2024,5,14,20,41,4,480,,,,,,,,,-0.589844,-0.024902,-0.224121,139.892578,188.415527,-60.852051,,,,,,,,,,,0.0,1.0,1.0,2.0,0.0,0.0,0.0,5.0,0.0,0.11988930666666665,-0.15802408,0.9831998399999999,2.51139324,1.82291664,-6.946614639999999,-2.6008421335002234,-4.880185396226883,-10.305113450267482,-1.9474197496922414,-1.115716233424868,-8.479635377189888,8.77162941106779,-0.9191759442993778,8.69286660397042,-0.9222331709430394,-0.7097333066666667,0.13312208,-1.20732084,2.0501762266666668,1.4067929717886112,1.4067929717886112,1.4067929717886112,1.4067929717886112
LBP03_S02,LBP03,-1612,39,2,38,-1612,1715719264.52,2024-05-14 20:41:04.520000+00:00,2024-05-15 05:41:04.520000+09:00,2024,5,14,20,41,4,520,,,,,,,,,0.281982,0.246582,0.337158,41.564941,-157.775879,-74.890137,,,,,,,,,,,0.0,1.0,1.0,2.0,0.0,0.0,0.0,5.0,0.0,0.12080402666666666,-0.15155598666666664,0.9775357733333334,1.764322933333333,3.2177734133333336,-6.966145893333333,-0.9632603342873926,-7.91400289889608,-10.948590710387142,-1.985950163063737,-1.4322763493807114,-8.917579005605374,9.247628285802904,-0.8957353108588988,8.994154674110161,-0.9309192877285511,0.16117797333333334,0.39813798666666667,-0.6403777733333333,1.1996937333333333,0.7710874711044043,1.0889402214465078,1.0889402214465078,1.0889402214465078
LBP03_S02,LBP03,-1611,40,2,39,-1611,1715719264.56,2024-05-14 20:41:04.560000+00:00,2024-05-15 05:41:04.560000+09:00,2024,5,14,20,41,4,560,,,,,,,,,0.354736,-0.275879,0.990234,-48.88916,-39.672852,-26.184082,,,,,,,,,,,0.0,1.0,1.0,2.0,0.0,0.0,0.0,5.0,0.0,0.10895506666666664,-0.1535319066666667,0.9799804400000002,1.3134765866666664,2.3567708133333336,-7.409668026666666,0.3617548086856485,-8.686202082537074,-10.41329291136516,-1.971479970716311,-1.7797244326821944,-9.33411072205998,9.704626489612913,-0.950792301924496,9.283302238481683,-0.9387045329997006,0.24578093333333334,-0.1223470933333333,0.010253559999999773,0.37838158666666644,0.2747402663061849,0.8175402363997334,0.8175402363997334,0.8175402363997334
LBP03_S02,LBP03,-1610,41,2,40,-1610,1715719264.6,2024-05-14 20:41:04.600000+00:00,2024-05-15 05:41:04.600000+09:00,2024,5,14,20,41,4,600,,,,,,,,,0.303467,0.134277,1.145752,-22.155762,-29.907227,14.038086,,,,,,,,,,,0.0,1.0,1.0,2.0,0.0,0.0,0.0,5.0,0.0,0.11963214666666667,-0.16033204,1.0023567466666667,-1.0099283733333335,-1.9514974133333332,-6.654459693333333,1.4775713941215076,-6.939996724617118,-8.729375421397487,-1.9123771149514508,-2.057324301666879,-9.68328573891588,10.08244971291753,-0.9270952486961216,9.536581083064792,-0.94090179053887,0.18383485333333333,0.29460904,0.14339525333333336,0.6218391466666666,0.3757019276345819,0.7070806592084455,0.7070806592084455,0.7070806592084455
LBP03_S02,LBP03,-1609,42,2,41,-1609,1715719264.64,2024-05-14 20:41:04.640000+00:00,2024-05-15 05:41:04.640000+09:00,2024,5,14,20,41,4,640,,,,,,,,,0.156494,-0.528564,1.744385,-118.652344,-21.850586,29.418945,,,,,,,,,,,0.0,1.0,1.0,2.0,0.0,0.0,0.0,5.0,0.0,0.12426430666666666,-0.16352214666666667,1.0116080533333334,-1.0457356666666668,1.9181314933333335,-5.27262376,2.4955221989823344,-3.0180480572513657,-6.226952484236116,-1.8125562269921573,-2.1780462239569336,-9.932363838285324,10.328654164303261,-0.9183670489363028,9.736948673941587,-0.9367852126042714,0.03222969333333334,-0.3650418533333334,0.7327769466666667,1.1300484933333335,0.8193023626131677,0.72952499988939,0.72952499988939,0.72952499988939
LBP03_S02,LBP03,-1608,43,2,42,-1608,1715719264.68,2024-05-14 20:41:04.680000+00:00,2024-05-15 05:41:04.680000+09:00,2024,5,14,20,41,4,680,,,,,,,,,0.23877,-0.268555,1.552002,29.35791,-5.065918,6.04248,,,,,,,,,,,0.0,1.0,1.0,2.0,0.0,0.0,0.0,5.0,0.0,0.11154946666666668,-0.16551106666666668,0.9995019333333333,1.0245768399999997,5.056152320000001,-5.576985733333333,3.359984528813149,2.2271997371463765,-3.3638662568226314,-1.6781568458396314,-2.0889582344710784,-10.06691848855823,10.417427933990158,-0.97434987165611,9.874721616891115,-0.9389571768295335,0.12722053333333333,-0.10304393333333331,0.5525000666666668,0.7827645333333335,0.5762459891097669,0.7039784980927862,0.7039784980927862,0.7039784980927862
LBP03_S02,LBP03,-1607,44,2,43,-1607,1715719264.72,2024-05-14 20:41:04.720000+00:00,2024-05-15 05:41:04.720000+09:00,2024,5,14,20,41,4,720,,,,,,,,,0.287354,-0.284668,1.460449,41.687012,65.612793,22.888184,,,,,,,,,,,0.0,1.0,1.0,2.0,0.0,0.0,0.0,5.0,0.0,0.10537433333333332,-0.16013997333333332,0.98352212,3.6303711066666664,4.033203106666667,-6.58854172,3.854234460064253,7.734210572451785,-0.546728501755107,-1.5239874674370613,-1.779589811573007,-10.088787628628435,10.357273459454753,-0.9854160046265968,9.947716031203559,-0.9420719266685491,0.18197966666666668,-0.12452802666666665,0.47692688000000005,0.7834345733333334,0.5254360830511544,0.6784724388011245,0.6784724388011245,0.6784724388011245
LBP03_S02,LBP03,-1606,45,2,44,-1606,1715719264.76,2024-05-14 20:41:04.760000+00:00,2024-05-15 05:41:04.760000+09:00,2024,5,14,20,41,4,760,,,,,,,,,-0.114502,-0.012207,0.606934,57.739258,162.231445,6.408691,,,,,,,,,,,0.0,1.0,1.0,2.0,0.0,0.0,0.0,5.0,0.0,0.11107094666666668,-0.15844726666666667,0.9717805866666667,4.514973973333333,2.4861653466666676,-8.019205786666667,3.7910719222187317,12.597509166249326,1.9553587580219218,-1.372344590548312,-1.275689444923034,-10.010573278307557,10.184414101727235,-0.9562825933130565,9.961876918517227,-0.9479751315374971,-0.2255729466666667,0.14624026666666667,-0.3648465866666667,0.7366598000000001,0.4531913521515367,0.650312302969926,0.650312302969926,0.650312302969926
LBP03_S02,LBP03,-1605,46,2,45,-1605,1715719264.8,2024-05-14 20:41:04.800000+00:00,2024-05-15 05:41:04.800000+09:00,2024,5,14,20,41,4,800,,,,,,,,,-0.04248,-0.115723,0.37793,26.245117,-101.745605,-43.701172,,,,,,,,,,,0.0,1.0,1.0,2.0,0.0,0.0,0.0,5.0,0.0,0.11677733333333333,-0.14900065333333332,0.9635286266666666,5.02115888,4.03889972,-8.86881516,3.246207921408353,16.30943410791401,3.979364294154296,-1.242496273691978,-0.6233120806064736,-9.851398706541385,9.948988461909767,-0.9038525891274823,9.931922668508351,-0.9529126186066235,-0.15925733333333333,0.03327765333333331,-0.5855986266666666,0.7781336133333332,0.6077796080699845,0.6455864479810436,0.6455864479810436,0.6455864479810436
LBP03_S02,LBP03,-1604,47,2,46,-1604,1715719264.84,2024-05-14 20:41:04.840000+00:00,2024-05-15 05:41:04.840000+09:00,2024,5,14,20,41,4,840,,,,,,,,,0.35498,0.151611,0.88208,58.532715,19.042969,-26.123047,,,,,,,,,,,0.0,1.0,1.0,2.0,0.0,0.0,0.0,5.0,0.0,0.10445637333333334,-0.14963542666666668,0.96239256,3.308919306666666,3.9916992000000007,-8.653971413333334,2.652579803752156,18.76392800870318,5.372062049409427,-1.1363930815418917,0.12724503974165358,-9.636516224565009,9.704124148124848,-0.9585048548568915,9.880490548487582,-0.9627353522179625,0.25052362666666667,0.3012464266666667,-0.08031255999999998,0.6320826133333334,0.3999520026095736,0.6210230034438966,0.6210230034438966,0.6210230034438966
LBP03_S02,LBP03,-1603,48,2,47,-1603,1715719264.88,2024-05-14 20:41:04.880000+00:00,2024-05-15 05:41:04.880000+09:00,2024,5,14,20,41,4,880,,,,,,,,,0.302979,-0.199463,1.170166,-55.114746,-35.095215,15.808105,,,,,,,,,,,0.0,1.0,1.0,2.0,0.0,0.0,0.0,5.0,0.0,0.11169269333333334,-0.15726238666666667,0.9876822666666667,2.1053060266666663,-1.3216146133333324,-7.325032613333333,2.6592831584499494,20.057428272093475,5.919678926417109,-1.0300217552038937,0.9295421706253926,-9.399729067508325,9.501573554192232,-0.9503234426895343,9.834835061442437,-0.9672070608265326,0.19128630666666666,-0.04220061333333333,0.18248373333333334,0.41597065333333333,0.26771562489917294,0.5889041508489217,0.5889041508489217,0.5889041508489217
LBP03_S02,LBP03,-1602,49,2,48,-1602,1715719264.92,2024-05-14 20:41:04.920000+00:00,2024-05-15 05:41:04.920000+09:00,2024,5,14,20,41,4,920,,,,,,,,,0.071777,-0.208252,1.390869,-106.201172,45.593262,22.216797,,,,,,,,,,,0.0,1.0,1.0,2.0,0.0,0.0,0.0,5.0,0.0,0.11768878666666666,-0.16738282666666665,1.0079557066666667,1.3712565466666664,0.04313148000000088,-5.525716213333333,3.808217169821299,20.24126332207487,5.37038640861865,-0.8776930684110418,1.7391927035083876,-9.184913611163578,9.389237158939567,-0.9547673595483794,9.821781230888174,-0.9621734848794719,-0.04591178666666666,-0.04086917333333334,0.38291329333333324,0.46969425333333326,0.38781538352063194,0.5721467535715642,0.5721467535715642,0.5721467535715642
LBP03_S02,LBP03,-1601,50,2,49,-1601,1715719264.96,2024-05-14 20:41:04.960000+00:00,2024-05-15 05:41:04.960000+09:00,2024,5,14,20,41,4,960,,,,,,,,,0.065918,-0.301758,1.657715,38.452148,-21.66748,16.113281,,,,,,,,,,,0.0,1.0,1.0,2.0,0.0,0.0,0.0,5.0,0.0,0.10652016,-0.16732422666666666,0.9972818800000001,3.7052409199999996,4.534505186666667,-4.800618546666667,6.2031925921483175,19.1854815031562,3.5474259184912325,-0.629565364725109,2.5066119636346356,-9.043016574423929,9.405083989524158,-1.0001671726157593,9.862890654646925,-0.95875287175717,-0.04060216,-0.13443377333333337,0.66043312,0.8354690533333333,0.6751984010661148,0.5800738033788374,0.5800738033788374,0.5800738033788374
LBP03_S02,LBP03,-1600,51,2,50,-1600,1715719265.0,2024-05-14 20:41:05+00:00,2024-05-15 05:41:05+09:00,2024,5,14,20,41,5,0,20.0,41.0,4.0,40.552734,141.538467,5.724,3.0,16.0,0.22876,-0.440918,1.633545,-29.541016,-2.380371,19.714355,-305.0,57.0,357.0,903.0,0.0,1016.0,19.27,0.029729,-22.857084,4.028906,0.0,1.0,1.0,2.0,0.0,0.0,0.0,4.0,0.0,0.09994789333333333,-0.16616537333333334,0.9835416533333333,5.389811226666666,2.8328450400000014,-5.633951880000001,9.364047803096119,16.625825154993287,0.486290259644143,-0.2550034526012643,3.171644969834367,-9.023564964038163,9.568128512709853,-1.0253225848095127,9.971629324673838,-0.9589508611325541,0.12881210666666665,-0.27475262666666667,0.6500033466666667,1.05356808,0.7173464402657925,0.5898789917279056,0.5898789917279056,0.5898789917279056
LBP03_S02,LBP03,-1599,52,2,51,-1599,1715719265.04,2024-05-14 20:41:05.040000+00:00,2024-05-15 05:41:05.040000+09:00,2024,5,14,20,41,5,40,,,,,,,,,0.027832,-0.18457,0.893311,54.6875,117.248535,10.864258,,,,,,,,,,,0.0,1.0,1.0,2.0,0.0,0.0,0.0,4.0,0.0,0.10882158666666666,-0.1575227866666667,0.9698600133333334,7.531738306666666,1.220703120000001,-6.833496146666667,12.35768742131279,12.358528454657602,-3.487314967255669,0.2393040442512473,3.6659861080206713,-9.16305756272839,9.872099293851814,-0.9630841350220043,10.152882994171941,-0.9637582093692243,-0.08098958666666667,-0.02704721333333332,-0.07654901333333342,0.1845858133333334,0.11467613674973191,0.5581988013960274,0.5581988013960274,0.5581988013960274
LBP03_S02,LBP03,-1598,53,2,52,-1598,1715719265.08,2024-05-14 20:41:05.080000+00:00,2024-05-15 05:41:05.080000+09:00,2024,5,14,20,41,5,80,,,,,,,,,-0.256104,-0.072998,0.37793,61.279297,27.770996,-36.010742,,,,,,,,,,,0.0,1.0,1.0,2.0,0.0,0.0,0.0,4.0,0.0,0.11399086666666666,-0.15175781333333332,0.9624055866666666,7.882486999999999,1.9612630133333342,-7.18343104,14.146273220833919,6.470927272325251,-7.787955884956043,0.805154973084604,3.9248231989136815,-9.474575798126631,10.286889628447502,-0.9240141121855004,10.403665532847842,-0.9650960129135353,-0.3700948666666667,0.07875981333333333,-0.5844755866666667,1.0333302666666666,0.6962650572437651,0.566827942386511,0.566827942386511,0.566827942386511
LBP03_S02,LBP03,-1597,54,2,53,-1597,1715719265.12,2024-05-14 20:41:05.120000+00:00,2024-05-15 05:41:05.120000+09:00,2024,5,14,20,41,5,120,,,,,,,,,0.219971,0.001709,0.875488,32.653809,-41.809082,-22.216797,,,,,,,,,,,0.0,1.0,1.0,2.0,0.0,0.0,0.0,4.0,0.0,0.10728513333333332,-0.15131510666666667,0.9652246000000001,6.364746106666666,1.5681966000000012,-6.630045626666667,13.986113177565462,-0.5248765632866558,-11.701160967680442,1.3645995001872224,3.903828136382215,-9.942622236833849,10.768367697042276,-0.9512098734035791,10.713626746082165,-0.9727900913549007,0.11268586666666668,0.15302410666666666,-0.08973660000000006,0.3554465733333334,0.2101597943163943,0.5458474630882688,0.5458474630882688,0.5458474630882688
LBP03_S02,LBP03,-1596,55,2,54,-1596,1715719265.16,2024-05-14 20:41:05.160000+00:00,2024-05-15 05:41:05.160000+09:00,2024,5,14,20,41,5,160,,,,,,,,,0.228027,-0.200195,1.017822,23.4375,-10.620117,-18.432617,,,,,,,,,,,0.0,1.0,1.0,2.0,0.0,0.0,0.0,4.0,0.0,0.11050128000000001,-0.15826172,0.9925716133333333,4.47916668,-2.5699869866666654,-5.249837293333332,11.700355192282702,-7.735400235566053,-14.558965194095368,1.8326137078785305,3.594412126959573,-10.524980844597664,11.271800801996374,-0.9582624870668981,11.065101694390346,-0.9758149674575751,0.11752572,-0.04193328000000002,0.02525038666666668,0.1847093866666667,0.12731173103800364,0.5225954779743652,0.5225954779743652,0.5225954779743652
LBP03_S02,LBP03,-1595,56,2,55,-1595,1715719265.2,2024-05-14 20:41:05.200000+00:00,2024-05-15 05:41:05.200000+09:00,2024,5,14,20,41,5,200,,,,,,,,,0.149414,-0.052002,0.966309,-21.057129,-33.874512,-14.282227,,,,,,,,,,,0.0,1.0,1.0,2.0,0.0,0.0,0.0,4.0,0.0,0.11565751999999999,-0.16343750666666668,1.0102213599999998,4.619140639999999,-0.7600911599999988,-3.6263021333333327,7.72370275257929,-14.086673835759777,-15.892232807423541,2.141561817981702,3.0309451735291817,-11.160670156894605,11.761525156890784,-0.9519260714941842,11.433685058229852,-0.9698008438879727,0.033756480000000005,0.11143550666666668,-0.04391235999999987,0.18910434666666656,0.12444142175665106,0.5016400013313276,0.5016400013313276,0.5016400013313276
LBP03_S02,LBP03,-1594,57,2,56,-1594,1715719265.24,2024-05-14 20:41:05.240000+00:00,2024-05-15 05:41:05.240000+09:00,2024,5,14,20,41,5,240,,,,,,,,,0.154053,-0.176025,0.982666,-7.019043,-10.437012,-13.977051,,,,,,,,,,,0.0,1.0,1.0,2.0,0.0,0.0,0.0,4.0,0.0,0.10725582666666668,-0.1581836,1.0021875066666666,6.105143239999999,2.9663085733333348,-3.069661506666667,2.92809198901413,-18.58777354548735,-15.514330919864884,2.258685497542267,2.2874342317096876,-11.7812433936892,12.211949534883875,-0.971882890300001,11.790447032703746,-0.9638157338004062,0.04679717333333332,-0.01784139999999998,-0.01952150666666652,0.08416007999999982,0.053752955346536506,0.47924564903208805,0.47924564903208805,0.47924564903208805
LBP03_S02,LBP03,-1593,58,2,57,-1593,1715719265.28,2024-05-14 20:41:05.280000+00:00,2024-05-15 05:41:05.280000+09:00,2024,5,14,20,41,5,280,,,,,,,,,0.204102,-0.274658,1.066162,-19.592285,-38.452148,-14.343262,,,,,,,,,,,0.0,1.0,1.0,2.0,0.0,0.0,0.0,4.0,0.0,0.09891924,-0.16513998666666665,0.99275392,5.39957684,1.0172525733333346,-3.893229213333333,-1.6747288789240982,-20.554973126528616,-13.526776347708378,2.191696342385303,1.4652353066485428,-12.322314447597535,12.601185686535434,-1.0272642271031882,12.105987519397232,-0.964356367376711,0.10518276,-0.10951801333333336,0.0734080800000001,0.28810885333333347,0.16866047093194125,0.4644558786463668,0.4644558786463668,0.4644558786463668
LBP03_S02,LBP03,-1592,59,2,58,-1592,1715719265.32,2024-05-14 20:41:05.320000+00:00,2024-05-15 05:41:05.320000+09:00,2024,5,14,20,41,5,320,,,,,,,,,0.181152,-0.231445,0.956055,-4.394531,-27.282715,-12.878418,,,,,,,,,,,0.0,1.0,1.0,2.0,0.0,0.0,0.0,4.0,0.0,0.10639645333333334,-0.1615787866666667,0.9810449333333332,8.519694026666667,-0.1416015866666652,-4.986979213333333,-5.230320289811515,-19.73468400616125,-10.263772402708367,1.9824835307928426,0.6758479464020929,-12.73286534370587,12.903986642021401,-0.9850161205751242,12.355458533714542,-0.967237449025075,0.07475554666666667,-0.06986621333333332,-0.024989933333333214,0.1696116933333332,0.10532889580250739,0.44813192488073683,0.44813192488073683,0.44813192488073683
LBP03_S02,LBP03,-1591,60,2,59,-1591,1715719265.36,2024-05-14 20:41:05.360000+00:00,2024-05-15 05:41:05.360000+09:00,2024,5,14,20,41,5,360,,,,,,,,,0.153564,-0.0625,0.893311,-13.61084,15.014648,2.258301,,,,,,,,,,,0.0,1.0,1.0,2.0,0.0,0.0,0.0,4.0,0.0,0.11112302666666667,-0.15303386666666668,0.9750455866666666,8.205566426666666,1.7887369600000014,-5.18636072,-7.242809092542561,-16.31059319970493,-6.203116448492757,1.69277116709114,0.023424218413895748,-12.98099000164558,13.090917627919211,-0.9400259369197346,12.523198140987866,-0.9719574965336764,0.04244097333333334,0.09053386666666668,-0.08173458666666666,0.2147094266666667,0.12914395025965922,0.43426288250590733,0.43426288250590733,0.43426288250590733
LBP03_S02,LBP03,-1590,61,2,60,-1590,1715719265.4,2024-05-14 20:41:05.400000+00:00,2024-05-15 05:41:05.400000+09:00,2024,5,14,20,41,5,400,,,,,,,,,0.258301,-0.139404,0.968506,-14.587402,-34.057617,7.202148,,,,,,,,,,,0.0,1.0,1.0,2.0,0.0,0.0,0.0,4.0,0.0,0.10066730666666666,-0.14632488,0.9767806133333333,6.463216159999999,2.062174466666668,-4.990234413333333,-7.637997125388604,-10.816549844629396,-1.8721906295122501,1.3872512820755958,-0.4092377753712801,-13.05587762682607,13.135748257448784,-0.9654714839338471,12.605826307700891,-0.9789562112623118,0.15763369333333332,0.00692087999999999,-0.008274613333333347,0.17282918666666666,0.15800237048759094,0.4227520278384775,0.4227520278384775,0.4227520278384775
LBP03_S02,LBP03,-1589,62,2,61,-1589,1715719265.44,2024-05-14 20:41:05.440000+00:00,2024-05-15 05:41:05.440000+09:00,2024,5,14,20,41,5,440,,,,,,,,,0.195801,-0.11084,0.917236,-7.019043,10.375977,3.173828,,,,,,,,,,,0.0,1.0,1.0,2.0,0.0,0.0,0.0,4.0,0.0,0.10512044000000001,-0.15383464000000002,1.0068066533333333,4.93245444,-2.0214843866666654,-3.6206055066666667,-6.696878748979062,-3.9981299937824093,2.225964137904504,1.1193761321164333,-0.5691629751225764,-12.96683906130989,13.02750416078668,-0.9684904707850523,12.61313496051487,-0.9815459689647881,0.09068056,0.04299464000000003,-0.08957065333333325,0.22324585333333327,0.13451544509536206,0.41122256452875283,0.41122256452875283,0.41122256452875283
LBP03_S02,LBP03,-1588,63,2,62,-1588,1715719265.48,2024-05-14 20:41:05.480000+00:00,2024-05-15 05:41:05.480000+09:00,2024,5,14,20,41,5,480,,,,,,,,,0.175781,-0.046387,1.031982,25.878906,8.972168,1.220703,,,,,,,,,,,0.0,1.0,1.0,2.0,0.0,0.0,0.0,4.0,0.0,0.11453776,-0.16211264,1.0296321733333331,3.1803385599999996,-2.0540364666666653,-2.0922851866666665,-4.905236975349222,3.329667724616592,5.651961452941087,0.9231666531024644,-0.43597626613791274,-12.740760603192248,12.781599771620595,-0.9528249286691424,12.566432125554979,-0.9768949253269781,0.06124323999999999,0.11572564,0.002349826666666832,0.17931870666666683,0.13095296821557953,0.36018896438583153,0.40044296467055385,0.40044296467055385
LBP03_S02,LBP03,-1587,64,2,63,-1587,1715719265.52,2024-05-14 20:41:05.520000+00:00,2024-05-15 05:41:05.520000+09:00,2024,5,14,20,41,5,520,,,,,,,,,0.103271,-0.096924,0.975342,21.728516,31.921387,0.793457,,,,,,,,,,,0.0,1.0,1.0,2.0,0.0,0.0,0.0,4.0,0.0,0.10034505333333334,-0.15681641333333335,1.0149576933333333,5.6925456,2.5870768133333346,-2.2664388266666666,-2.7864514781891314,10.390247041563626,8.037785592914064,0.8117085939748991,-0.020366384475367705,-12.419249179475685,12.445763769775512,-0.9984103484895923,12.494430214678596,-0.9696687254787963,0.002925946666666665,0.05989241333333335,-0.03961569333333326,0.10243405333333327,0.07186839011044932,0.3322202011460735,0.3882735359831426,0.3882735359831426
LBP03_S02,LBP03,-1586,65,2,64,-1586,1715719265.56,2024-05-14 20:41:05.560000+00:00,2024-05-15 05:41:05.560000+09:00,2024,5,14,20,41,5,560,,,,,,,,,0.191406,-0.160645,1.061279,-6.774902,3.967285,0.549316,,,,,,,,,,,0.0,1.0,1.0,2.0,0.0,0.0,0.0,4.0,0.0,0.09330402666666666,-0.15595377333333335,0.9996256533333333,6.687825546666667,-0.06347657333333208,-3.2828776266666666,-0.7834979526180823,16.49747808985175,9.082799212378513,0.7803686758701759,0.6395327391187022,-12.055937210980543,12.098082469126641,-1.0282496343532523,12.427857398262855,-0.9682943585648098,0.09810197333333333,-0.004691226666666659,0.061653346666666775,0.16444654666666675,0.11596180377491667,0.3258690626448227,0.37854811697570595,0.37854811697570595
LBP03_S02,LBP03,-1585,66,2,65,-1585,1715719265.6,2024-05-14 20:41:05.600000+00:00,2024-05-15 05:41:05.600000+09:00,2024,5,14,20,41,5,600,,,,,,,,,0.24292,-0.134521,1.024414,-34.851074,6.286621,12.390137,,,,,,,,,,,0.0,1.0,1.0,2.0,0.0,0.0,0.0,4.0,0.0,0.10193032,-0.15223958666666665,0.9873600266666664,8.151041693333333,-1.9661458533333322,-4.546712266666667,0.7764720696092724,21.05541145675461,8.56311139998444,0.8114275586545467,1.4817491973888866,-11.713412754981166,11.83461168503057,-0.9778236485189463,12.395003459634465,-0.9707905199380329,0.14098968,0.017718586666666647,0.03705397333333349,0.19576224000000014,0.14685038345116422,0.316715000877486,0.37055853995761834,0.37055853995761834
LBP03_S02,LBP03,-1584,67,2,66,-1584,1715719265.64,2024-05-14 20:41:05.640000+00:00,2024-05-15 05:41:05.640000+09:00,2024,5,14,20,41,5,640,,,,,,,,,0.105713,-0.14502,1.016602,-8.361816,20.141602,6.286621,,,,,,,,,,,0.0,1.0,1.0,2.0,0.0,0.0,0.0,4.0,0.0,0.11063474666666667,-0.14764649333333332,0.9781770933333334,8.008626333333334,-0.8365885599999987,-4.95930992,1.6545077968249038,23.537867239732982,6.368948457107237,0.8776078705275429,2.423263886978206,-11.458654816696876,11.744921185284946,-0.925372453921903,12.419827618587627,-0.9735820579558336,-0.004921746666666671,0.002626493333333313,0.03842490666666665,0.04597314666666663,0.03882776725261101,0.2854960170630637,0.3595008475341181,0.3595008475341181
LBP03_S02,LBP03,-1583,68,2,67,-1583,1715719265.68,2024-05-14 20:41:05.680000+00:00,2024-05-15 05:41:05.680000+09:00,2024,5,14,20,41,5,680,,,,,,,,,0.03418,-0.137695,0.855225,10.742188,10.620117,-2.13623,,,,,,,,,,,0.0,1.0,1.0,2.0,0.0,0.0,0.0,4.0,0.0,0.10051104,-0.14280274666666667,0.9784537866666667,6.11083988,0.07568357333333457,-4.235026066666666,1.665839342818955,23.497420459138052,2.56533416780697,0.9442414442403011,3.363160705343728,-11.356041449984598,11.881166577771623,-0.9550022286213707,12.52228597516422,-0.9792967559571725,-0.06633104,0.005107746666666663,-0.1232287866666667,0.19466757333333334,0.14004010070987274,0.26804778152706793,0.35242146860430373,0.35242146860430373
LBP03_S02,LBP03,-1582,69,2,68,-1582,1715719265.72,2024-05-14 20:41:05.720000+00:00,2024-05-15 05:41:05.720000+09:00,2024,5,14,20,41,5,720,,,,,,,,,0.22998,-0.05542,1.063232,12.207031,-12.207031,-10.131836,,,,,,,,,,,0.0,1.0,1.0,2.0,0.0,0.0,0.0,4.0,0.0,0.10344398666666667,-0.1522819066666667,1.0047233199999999,4.2553711199999995,-4.409179706666666,-2.8833007999999998,0.6888257101346597,20.64424498164278,-2.546436358254486,0.9717944726456875,4.18893050460944,-11.457898904314778,12.238258477863997,-0.9712724514352576,12.718948589905267,-0.9817300385889128,0.1265360133333333,0.09686190666666669,0.05850868000000009,0.2819066000000001,0.1697552864235396,0.2538205496619633,0.34671315041115486,0.34671315041115486
LBP03_S02,LBP03,-1581,70,2,69,-1581,1715719265.76,2024-05-14 20:41:05.760000+00:00,2024-05-15 05:41:05.760000+09:00,2024,5,14,20,41,5,760,,,,,,,,,0.075684,-0.178711,1.303467,-14.343262,3.601074,18.432617,,,,,,,,,,,0.0,1.0,1.0,2.0,0.0,0.0,0.0,4.0,0.0,0.10763343999999998,-0.15632488,1.0223274800000002,3.9412435199999996,-3.9469401199999985,-1.6918945466666666,-1.273896459930968,14.999428441541822,-8.400706781617819,0.9208386142484488,4.788907642271113,-11.79392717557949,12.762378241635298,-0.9649875506519661,13.021896693765987,-0.9744907409739092,-0.03194943999999998,-0.02238612000000001,0.28113951999999975,0.33547507999999976,0.2838332869675406,0.2470462270546035,0.3448077000037726,0.3448077000037726
LBP03_S02,LBP03,-1580,71,2,70,-1580,1715719265.8,2024-05-14 20:41:05.800000+00:00,2024-05-15 05:41:05.800000+09:00,2024,5,14,20,41,5,800,,,,,,,,,0.407471,-0.069824,1.313965,-24.780273,74.768066,43.945312,,,,,,,,,,,0.0,1.0,1.0,2.0,0.0,0.0,0.0,4.0,0.0,0.10175453333333334,-0.15725912,1.0187565066666666,4.803059920000001,-0.4394531466666649,-1.1539713733333334,-4.009314649608855,7.072555936740512,-14.212514677729024,0.7604660282640946,5.071809879740734,-12.362427762688652,13.383989846980407,-0.9933868641118535,13.43550012391052,-0.9631277005772688,0.3057164666666667,0.08743512,0.29520849333333343,0.6883600800000002,0.43388421581880837,0.24009041136455644,0.3474275975277442,0.3474275975277442
LBP03_S02,LBP03,-1579,72,2,71,-1579,1715719265.84,2024-05-14 20:41:05.840000+00:00,2024-05-15 05:41:05.840000+09:00,2024,5,14,20,41,5,840,,,,,,,,,-0.239258,-0.074219,0.345703,40.222168,157.104492,-18.981934,,,,,,,,,,,0.0,1.0,1.0,2.0,0.0,0.0,0.0,4.0,0.0,0.09254554666666666,-0.15373698666666666,0.9988736933333333,5.565592466666667,-2.3470052266666652,-2.5724284133333337,-7.025096992316191,-2.044093945921352,-19.1263002897453,0.479462148571447,4.990046121903879,-13.127479774278465,14.052087726552623,-1.025637450798442,13.95315636699695,-0.9589902522399918,-0.33180354666666667,0.07951798666666667,-0.6531706933333333,1.0644922266666668,0.7369183526101426,0.2535690653645792,0.35855590481581273,0.35855590481581273
LBP03_S02,LBP03,-1578,73,2,72,-1578,1715719265.88,2024-05-14 20:41:05.880000+00:00,2024-05-15 05:41:05.880000+09:00,2024,5,14,20,41,5,880,,,,,,,,,-0.131104,-0.074707,0.269775,-16.052246,-123.718262,-99.487305,,,,,,,,,,,0.0,1.0,1.0,2.0,0.0,0.0,0.0,4.0,0.0,0.10161781333333332,-0.15155598666666667,0.9812369733333335,6.732584653333333,-3.754069026666665,-3.3927409066666665,-9.543664892227142,-10.788056095787804,-22.45570081376722,0.09771555288236128,4.558523878072367,-14.025707806829153,14.748225919031052,-0.9771577549865441,14.557386569771932,-0.9609293822015419,-0.2327218133333333,0.07684898666666667,-0.7114619733333335,1.0210327733333335,0.7524914276270589,0.27296009747369465,0.36949855822723626,0.36949855822723626
LBP03_S02,LBP03,-1577,74,2,73,-1577,1715719265.92,2024-05-14 20:41:05.920000+00:00,2024-05-15 05:41:05.920000+09:00,2024,5,14,20,41,5,920,,,,,,,,,0.255371,-0.017578,0.693359,54.992676,-99.67041,-84.777832,,,,,,,,,,,0.0,1.0,1.0,2.0,0.0,0.0,0.0,4.0,0.0,0.11050778666666666,-0.14768554666666667,0.9731673200000001,7.009277360000001,-3.247884133333332,-3.5164388266666666,-10.604353164273842,-17.489472836376994,-23.92803449782784,-0.32645857368859243,3.858944964617287,-14.982829186742267,15.475244808382703,-0.9260173723395563,15.22501437595165,-0.9618845811916952,0.14486321333333335,0.13010754666666666,-0.2798083200000001,0.5547790800000001,0.3408900412421873,0.2710830837825569,0.3687253550654782,0.3687253550654782
LBP03_S02,LBP03,-1576,75,2,74,-1576,1715719265.96,2024-05-14 20:41:05.960000+00:00,2024-05-15 05:41:05.960000+09:00,2024,5,14,20,41,5,960,,,,,,,,,0.495117,0.030029,1.122314,-0.549316,-27.587891,-34.973145,,,,,,,,,,,0.0,1.0,1.0,2.0,0.0,0.0,0.0,4.0,0.0,0.10369462666666666,-0.13519857333333332,0.9715624933333331,6.066080746666667,-2.5113932399999985,-2.565917986666667,-9.296132702130121,-20.873634032316673,-23.796520341059935,-0.6983038817737972,3.0239996033246204,-15.934690000384665,16.234116770571994,-0.9146192303868481,15.93511480753825,-0.9626992857433508,0.3914223733333333,0.16522757333333332,0.15075150666666692,0.7074014533333335,0.4508188573005698,0.262107902031935,0.37088571038745427,0.37088571038745427
LBP03_S02,LBP03,-1575,76,2,75,-1575,1715719266.0,2024-05-14 20:41:06+00:00,2024-05-15 05:41:06+09:00,2024,5,14,20,41,6,0,20.0,41.0,5.0,40.552681,141.538406,6.475,3.0,16.0,-0.009033,-0.16626,1.361816,-120.300293,33.203125,36.743164,-301.0,58.0,357.0,860.0,0.0,1015.799988,19.34,0.027747,-21.196339,4.028906,1.0,1.0,1.0,2.0,0.0,0.0,0.0,4.0,0.0,0.10661454666666667,-0.14559897333333335,1.0006640533333335,3.355306013333334,-6.435546879999999,-1.171875013333333,-5.080921625977129,-20.484851053819057,-22.72284085780747,-0.9015407468128824,2.2046055611718582,-16.84360363469696,17.01117411589484,-0.9364491651461757,16.67459507613619,-0.9608638751524976,-0.11564754666666667,-0.020661026666666638,0.3611519466666664,0.4974605199999997,0.37977883255134454,0.24860519772335712,0.37111373916088736,0.37111373916088736
LBP03_S02,LBP03,-1574,77,2,76,-1574,1715719266.04,2024-05-14 20:41:06.040000+00:00,2024-05-15 05:41:06.040000+09:00,2024,5,14,20,41,6,40,,,,,,,,,-0.426758,-0.549805,1.666504,-20.874023,-88.012695,8.300781,,,,,,,,,,,1.0,1.0,1.0,2.0,0.0,0.0,0.0,4.0,0.0,0.10885413333333332,-0.15133790666666666,1.0187923066666666,2.5236002933333337,-5.9806315199999975,0.2766926933333333,1.9172821386586028,-16.844475899862452,-21.46040282396335,-0.8248494612665384,1.53082652517736,-17.702019747655495,17.787223213034782,-0.9447637535374044,17.43801826827423,-0.9548762782425,-0.5356121333333334,-0.3984670933333333,0.6477116933333333,1.58179092,0.9301541912630045,0.281224319903888,0.3850897504634403,0.3850897504634403
LBP03_S02,LBP03,-1573,78,2,77,-1573,1715719266.08,2024-05-14 20:41:06.080000+00:00,2024-05-15 05:41:06.080000+09:00,2024,5,14,20,41,6,80,,,,,,,,,0.301758,-0.390869,1.510498,-62.316895,-103.881836,19.714355,,,,,,,,,,,1.0,1.0,1.0,2.0,0.0,0.0,0.0,4.0,0.0,0.10178382666666666,-0.1476139466666667,1.01011392,4.203287786666667,-2.0947265599999985,0.5045572799999999,10.827150595629083,-11.281007215748168,-20.49632259558577,-0.391763437441375,1.0795862365474334,-18.521872651478926,18.55744463956882,-0.9645542185229031,18.223111107197568,-0.9446293701696742,0.19997417333333337,-0.24325505333333333,0.5003840799999999,0.9436133066666665,0.5912249305382844,0.2770227148356688,0.3901174377823389,0.3901174377823389
LBP03_S02,LBP03,-1572,79,2,78,-1572,1715719266.12,2024-05-14 20:41:06.120000+00:00,2024-05-15 05:41:06.120000+09:00,2024,5,14,20,41,6,120,,,,,,,,,0.394531,-0.188477,0.857666,60.668945,133.361816,31.37207,,,,,,,,,,,1.0,1.0,1.0,2.0,0.0,0.0,0.0,4.0,0.0,0.09759437333333333,-0.14618490666666667,0.99521808,4.7729492533333335,-3.479003893333332,-0.3881836000000001,20.258403660489154,-5.492641555523486,-19.84323828688094,0.4185727089781912,0.8598805743264939,-19.315602182954162,19.339262793729986,-0.9794194969518154,19.026401243039125,-0.9445860532900244,0.2969366266666667,-0.042292093333333336,-0.13755207999999997,0.4767808,0.3299705382712541,0.2818151445938632,0.3886853687463607,0.3886853687463607
LBP03_S02,LBP03,-1571,80,2,79,-1571,1715719266.16,2024-05-14 20:41:06.160000+00:00,2024-05-15 05:41:06.160000+09:00,2024,5,14,20,41,6,160,,,,,,,,,-0.590088,-0.039062,-0.287598,138.61084,134.460449,-83.312988,,,,,,,,,,,1.0,1.0,1.0,2.0,0.0,0.0,0.0,4.0,0.0,0.09905596,-0.13819662666666668,0.9778710666666668,5.963541706666668,-4.057617173333332,-1.2727864666666668,28.79047181844538,-0.9969730900041417,-19.08979975181176,1.5701915817160064,0.8200016507263282,-20.079194173026632,20.157180927614665,-0.9466334447434328,19.842245787618822,-0.9488315416940998,-0.68914396,0.09913462666666668,-1.2654690666666668,2.0537476533333336,1.4443541914984102,0.33449684301227944,0.41323580648478053,0.41323580648478053
LBP03_S02,LBP03,-1570,81,2,80,-1570,1715719266.2,2024-05-14 20:41:06.200000+00:00,2024-05-15 05:41:06.200000+09:00,2024,5,14,20,41,6,200,,,,,,,,,0.133545,0.213135,0.082764,170.043945,-78.125,-71.289062,,,,,,,,,,,1.0,1.0,1.0,2.0,0.0,0.0,0.0,4.0,0.0,0.10334306666666668,-0.14024089333333334,0.9750943733333334,4.92106124,-4.399414053333332,-1.2386067733333335,35.49365769534397,1.316503306614237,-17.674104533773093,2.9899378895297652,0.8726617829908977,-20.786158354377555,21.01822176836086,-0.9335108950118772,20.664890092215803,-0.9574970924590591,0.03020193333333332,0.3533758933333333,-0.8923303733333334,1.2759082,0.9602292298922215,0.3679283553377023,0.425667475198586,0.425667475198586
LBP03_S02,LBP03,-1569,82,2,81,-1569,1715719266.24,2024-05-14 20:41:06.240000+00:00,2024-05-15 05:41:06.240000+09:00,2024,5,14,20,41,6,240,,,,,,,,,0.259521,0.106445,0.619629,-9.765625,-60.72998,-58.654785,,,,,,,,,,,1.0,1.0,1.0,2.0,0.0,0.0,0.0,4.0,0.0,0.10006506666666666,-0.13280274666666667,0.9753417733333333,3.224283893333334,-4.322102853333332,-0.4256184933333333,40.196033967261236,1.348878854735544,-15.219812466998782,4.597779248220215,0.9266169371803195,-21.394950853057505,21.90301611578597,-0.9231683700701854,21.49030362804437,-0.9651187651660754,0.15945593333333336,0.23924774666666665,-0.3557127733333333,0.7544164533333333,0.4573808654423284,0.384073471741534,0.4263722172040025,0.4263722172040025
LBP03_S02,LBP03,-1568,83,2,82,-1568,1715719266.28,2024-05-14 20:41:06.280000+00:00,2024-05-15 05:41:06.280000+09:00,2024,5,14,20,41,6,280,,,,,,,,,0.369629,0.06665,1.18457,19.348145,64.025879,-25.57373,,,,,,,,,,,1.0,1.0,1.0,2.0,0.0,0.0,0.0,4.0,0.0,0.09631506666666667,-0.1433952,0.9935221066666666,1.888834666666667,-7.543131493333332,0.08138021333333333,43.33539100710044,-0.36381693045736146,-11.743022060793344,6.331194888504233,0.912064259962025,-21.86467173548924,22.781127277446657,-0.9767245861900454,22.314713986960996,-0.9687812594886518,0.2733139333333333,0.2100452,0.19104789333333327,0.6744070266666666,0.394105049123051,0.39309125486917834,0.42567075702832957,0.42567075702832957
LBP03_S02,LBP03,-1567,84,2,83,-1567,1715719266.32,2024-05-14 20:41:06.320000+00:00,2024-05-15 05:41:06.320000+09:00,2024,5,14,20,41,6,320,,,,,,,,,-0.376709,-0.66626,1.520508,-154.418945,-22.644043,52.67334,,,,,,,,,,,1.0,1.0,1.0,2.0,0.0,0.0,0.0,4.0,0.0,0.10339513333333333,-0.15126304,1.0126822533333335,0.9684245066666669,-7.445475253333332,1.4111328133333332,45.487672574678356,-2.9977757804445297,-7.622476129372111,8.150701791491366,0.7921532287442438,-22.169570780664124,23.63369025417967,-0.9684722563803089,23.129953670174277,-0.9659020127018483,-0.48010413333333335,-0.51499696,0.5078257466666665,1.5029268399999998,0.8681064661840447,0.4236023576844399,0.4350842827550469,0.4350842827550469
LBP03_S02,LBP03,-1566,85,2,84,-1566,1715719266.36,2024-05-14 20:41:06.360000+00:00,2024-05-15 05:41:06.360000+09:00,2024,5,14,20,41,6,360,,,,,,,,,-0.048096,-0.386963,1.524414,81.970215,-132.629395,32.165527,,,,,,,,,,,1.0,1.0,1.0,2.0,0.0,0.0,0.0,4.0,0.0,0.09687170666666665,-0.15231772,1.0033560799999999,1.656087266666667,-4.868164053333332,1.6031901066666667,46.87220035532313,-5.794093503569302,-3.3742274547766167,10.025589805704291,0.5603894886014716,-22.304539878855188,24.460559816541775,-1.0012747380364426,23.919154300193462,-0.9621519543937319,-0.14496770666666664,-0.23464528,0.5210579200000001,0.9006709066666667,0.5895552555928898,0.4420188098977691,0.438302428022502,0.438302428022502
LBP03_S02,LBP03,-1565,86,2,85,-1565,1715719266.4,2024-05-14 20:41:06.400000+00:00,2024-05-15 05:41:06.400000+09:00,2024,5,14,20,41,6,400,,,,,,,,,0.600342,-0.72876,1.597656,-4.760742,-49.133301,57.556152,,,,,,,,,,,1.0,1.0,1.0,2.0,0.0,0.0,0.0,4.0,0.0,0.09130204,-0.14722332,0.9878970933333333,3.7410482000000003,-5.715332013333333,0.27180990666666655,47.146280314580565,-8.268441555296125,0.6122089720785873,11.911441018287514,0.22965182638962667,-22.280051519972044,25.2653094741805,-1.0126658922163394,24.656752993868036,-0.966475340191478,0.5090399600000001,-0.5815366799999999,0.6097589066666667,1.7003355466666668,0.9844351249937969,0.4750761200780173,0.44944799326681417,0.44944799326681417
LBP03_S02,LBP03,-1564,87,2,86,-1564,1715719266.44,2024-05-14 20:41:06.440000+00:00,2024-05-15 05:41:06.440000+09:00,2024,5,14,20,41,6,440,,,,,,,,,-0.407471,0.199219,-0.153076,179.626465,252.929688,-9.521484,,,,,,,,,,,1.0,1.0,1.0,2.0,0.0,0.0,0.0,4.0,0.0,0.09434241333333333,-0.14190430666666667,0.9768521733333334,5.228678413333333,-7.320963533333332,-1.1604817600000001,45.60754991322081,-10.217705004468808,4.208787525049089,13.735743014816347,-0.17905637378912564,-22.11170001897008,26.031326802201075,-0.9813886967631663,25.31362316695305,-0.9690660743440616,-0.5018134133333334,0.3411233066666667,-1.1299281733333335,1.9728648933333335,1.282544147015944,0.5209972681548406,0.46610991634179677,0.46610991634179677
LBP03_S02,LBP03,-1563,88,2,87,-1563,1715719266.48,2024-05-14 20:41:06.480000+00:00,2024-05-15 05:41:06.480000+09:00,2024,5,14,20,41,6,480,,,,,,,,,0.055176,0.070557,0.19751,124.633789,-118.896484,-52.856445,,,,,,,,,,,1.0,1.0,1.0,2.0,0.0,0.0,0.0,4.0,0.0,0.10239254666666667,-0.13961264,0.9719954,4.206543000000001,-7.09716796,-1.6308593600000003,41.6602273924372,-11.581739066462966,7.484812558869902,15.402152110513835,-0.6423259364476444,-21.812307516615284,26.7098414717016,-0.9357617506548692,25.864209948401633,-0.9755287279365733,-0.047216546666666664,0.21016964,-0.7744854,1.0318715866666666,0.8038832717938689,0.5479144802979722,0.4540517223419019,0.47273292331144523
LBP03_S02,LBP03,-1562,89,2,88,-1562,1715719266.52,2024-05-14 20:41:06.520000+00:00,2024-05-15 05:41:06.520000+09:00,2024,5,14,20,41,6,520,,,,,,,,,0.3125,0.335938,0.565674,45.410156,-26.245117,-51.757812,,,,,,,,,,,1.0,1.0,1.0,2.0,0.0,0.0,0.0,4.0,0.0,0.09768550666666666,-0.13490234666666667,0.9720019066666666,2.8027344133333334,-5.961100253333331,-1.2426757600000005,35.24739832846433,-12.304231312724196,10.512179268770572,16.81204804365241,-1.1344951889566122,-21.39182034586446,27.231269093921846,-0.9419189138706515,26.291492879943796,-0.9785216835815425,0.21481449333333336,0.4708403466666667,-0.4063279066666666,1.0919827466666665,0.6579804452499777,0.5713589625035533,0.4517895818248133,0.47629537565641694
LBP03_S02,LBP03,-1561,90,2,89,-1561,1715719266.56,2024-05-14 20:41:06.560000+00:00,2024-05-15 05:41:06.560000+09:00,2024,5,14,20,41,6,560,,,,,,,,,0.364258,-0.254395,1.240479,5.249023,-3.051758,3.845215,,,,,,,,,,,1.0,1.0,1.0,2.0,0.0,0.0,0.0,4.0,0.0,0.09294917333333333,-0.14242188,0.9857681733333332,1.507975293333334,-8.717447906666665,-1.2394205600000001,26.996438232499614,-12.307026367804417,13.194220143699171,17.891905572952396,-1.626776243668789,-20.864051540116492,27.533167864360387,-0.9898673027208945,26.588068172386954,-0.9802531351823042,0.27130882666666667,-0.11197311999999998,0.2547108266666669,0.6379927733333335,0.38861814709428405,0.582265216236328,0.4540671394405753,0.47464108832505597
LBP03_S02,LBP03,-1560,91,2,90,-1560,1715719266.6,2024-05-14 20:41:06.600000+00:00,2024-05-15 05:41:06.600000+09:00,2024,5,14,20,41,6,600,,,,,,,,,-0.083496,-0.208252,1.625244,-99.060059,10.986328,74.584961,,,,,,,,,,,1.0,1.0,1.0,2.0,0.0,0.0,0.0,4.0,0.0,0.10380204,-0.14890950666666666,1.00376296,0.593261746666667,-9.793294253333334,-0.13346353333333344,18.022496405189464,-11.575464284544596,15.2450775218582,18.612805429159973,-2.0897948150505727,-20.254248439242165,27.58692349921105,-0.9594182365377113,26.754859705963515,-0.976245173486803,-0.18729804,-0.05934249333333333,0.6214810399999999,0.8681215733333333,0.6517981055375505,0.6024631251197835,0.4595890629986347,0.4779217738289911
LBP03_S02,LBP03,-1559,92,2,91,-1559,1715719266.64,2024-05-14 20:41:06.640000+00:00,2024-05-15 05:41:06.640000+09:00,2024,5,14,20,41,6,640,,,,,,,,,-0.299316,-0.402832,1.759766,-7.629395,-111.755371,49.438477,,,,,,,,,,,1.0,1.0,1.0,2.0,0.0,0.0,0.0,4.0,0.0,0.09625321333333334,-0.14685872,0.9911685600000001,2.0564778933333336,-5.956217426666666,-0.2189127466666668,9.541726280047552,-10.265342952855953,16.32763102036209,18.994474480361877,-2.5004085331648107,-19.601143198427682,27.408883930271767,-0.9877949059953051,26.800115280864247,-0.9730925607593941,-0.3955692133333334,-0.25597328,0.7685974399999999,1.420139933333333,0.9015205751316295,0.6369708374349442,0.46123342724900396,0.4856235702163118
LBP03_S02,LBP03,-1558,93,2,92,-1558,1715719266.68,2024-05-14 20:41:06.680000+00:00,2024-05-15 05:41:06.680000+09:00,2024,5,14,20,41,6,680,,,,,,,,,0.601318,-0.354248,1.640137,24.597168,-51.818848,56.45752,,,,,,,,,,,1.0,1.0,1.0,2.0,0.0,0.0,0.0,4.0,0.0,0.09209632000000001,-0.14652344,0.9808235066666666,2.3046875333333334,-7.547200506666665,-0.7495117066666668,2.5237408748396257,-8.737885860351426,16.24112856336252,19.095424115355463,-2.8499239675788677,-18.951498055893182,27.053956592868307,-1.0066541426397357,26.739947434157852,-0.9790743735307086,0.50922168,-0.20772456,0.6593134933333333,1.3762597333333333,0.8585746878988568,0.6657122209225035,0.4668800012247858,0.4922834116035001
LBP03_S02,LBP03,-1557,94,2,93,-1557,1715719266.72,2024-05-14 20:41:06.720000+00:00,2024-05-15 05:41:06.720000+09:00,2024,5,14,20,41,6,720,,,,,,,,,-0.347656,0.358887,0.031982,72.387695,232.116699,-14.221191,,,,,,,,,,,1.0,1.0,1.0,2.0,0.0,0.0,0.0,4.0,0.0,0.09443681333333333,-0.14344076,0.9753807866666667,3.4326172266666672,-7.856445293333333,-1.2760416533333336,-2.470250326467836,-7.481161790986663,15.024334687477129,18.99661410229675,-3.1491704392183344,-18.350524668394097,26.599443178611214,-0.9857867723879272,26.599264479633227,-0.9897647034495233,-0.44209281333333333,0.50232776,-0.9433987866666668,1.88781936,1.156624617043809,0.7051869941473144,0.4795037719046389,0.503938520470874
LBP03_S02,LBP03,-1556,95,2,94,-1556,1715719266.76,2024-05-14 20:41:06.760000+00:00,2024-05-15 05:41:06.760000+09:00,2024,5,14,20,41,6,760,,,,,,,,,-0.116455,-0.584717,0.477295,-63.659668,-155.273438,-29.174805,,,,,,,,,,,1.0,1.0,1.0,2.0,0.0,0.0,0.0,4.0,0.0,0.09833004000000001,-0.14155925333333333,0.9798111199999999,3.2511393600000003,-7.32340492,-0.9155273333333336,-5.2708020436465395,-6.952128655865926,12.917342637505008,18.785782020550887,-3.4272555854529716,-17.8338309628939,26.12847515230739,-0.9611951210814299,26.410659241025325,-1.001490471240732,-0.21478504,-0.44315774666666674,-0.5025161199999999,1.1604589066666666,0.7035935280389761,0.7219774037901717,0.48451181542238764,0.5073808481875653
LBP03_S02,LBP03,-1555,96,2,95,-1555,1715719266.8,2024-05-14 20:41:06.800000+00:00,2024-05-15 05:41:06.800000+09:00,2024,5,14,20,41,6,800,,,,,,,,,0.293701,0.103516,0.612549,87.82959,-37.597656,-37.17041,,,,,,,,,,,1.0,1.0,1.0,2.0,0.0,0.0,0.0,4.0,0.0,0.09329422666666667,-0.14021485333333336,0.98782544,1.7049154000000006,-6.108398413333333,0.1944987066666664,-6.011322713116451,-7.424867348751234,10.236057969552228,18.545329112026227,-3.724250279403021,-17.424388644111808,25.71786522318782,-0.9811397649422493,26.209836193346042,-1.011308540390713,0.20040677333333332,0.24373085333333336,-0.37527644000000004,0.8194140666666667,0.49030603716816146,0.7242342766441459,0.4821623440043512,0.5070914446109652
LBP03_S02,LBP03,-1554,97,2,96,-1554,1715719266.84,2024-05-14 20:41:06.840000+00:00,2024-05-15 05:41:06.840000+09:00,2024,5,14,20,41,6,840,,,,,,,,,0.450684,-0.062012,1.363281,-34.301758,34.240723,14.404297,,,,,,,,,,,1.0,1.0,1.0,2.0,0.0,0.0,0.0,4.0,0.0,0.08531897333333333,-0.14678061333333334,1.0005533066666668,0.9887695600000003,-6.863606746666666,0.5957031333333331,-5.065190029122892,-8.910570348191879,7.2701245335780165,18.34272151086131,-4.080673093330696,-17.133583662768686,25.429648335137106,-1.041206824476313,26.028611121100948,-1.0216246220607614,0.36536502666666665,0.08476861333333334,0.3627276933333332,0.8128613333333332,0.5217745682078716,0.715628525268055,0.4845987953163171,0.5073361633375804
LBP03_S02,LBP03,-1553,98,2,97,-1553,1715719266.88,2024-05-14 20:41:06.880000+00:00,2024-05-15 05:41:06.880000+09:00,2024,5,14,20,41,6,880,,,,,,,,,-0.353271,-0.04541,1.532715,-99.609375,93.994141,59.204102,,,,,,,,,,,1.0,1.0,1.0,2.0,0.0,0.0,0.0,4.0,0.0,0.08781897333333333,-0.15163738666666668,1.0121483466666665,1.2263997733333338,-8.095703093333332,0.8919270933333331,-3.030426713596702,-11.158058037936517,4.277758723099745,18.221504442317443,-4.526995414848157,-16.962473313844697,25.303011926455394,-1.0426650498430161,25.88835166282437,-1.0265798806204642,-0.44108997333333333,0.10622738666666667,0.5205666533333335,1.0678840133333334,0.6905318695150118,0.7131501429435732,0.4930551202086339,0.5103393716355711
LBP03_S02,LBP03,-1552,99,2,98,-1552,1715719266.92,2024-05-14 20:41:06.920000+00:00,2024-05-15 05:41:06.920000+09:00,2024,5,14,20,41,6,920,,,,,,,,,-0.276367,-0.380371,1.932129,21.362305,-134.460449,32.165527,,,,,,,,,,,1.0,1.0,1.0,2.0,0.0,0.0,0.0,4.0,0.0,0.08416662666666667,-0.15105470666666668,1.00486644,2.6790364933333337,-4.955240853333333,0.4427083466666664,-0.7050066409989707,-13.719450207060115,1.5542757691425995,18.193304176677483,-5.075773423130562,-16.900302283078993,25.345216707842802,-1.0591765917827385,25.796568570168557,-1.028961593169172,-0.36053362666666666,-0.22931629333333334,0.92726256,1.51711248,1.0209732188080705,0.7403534700462084,0.5057182769143826,0.518575401428676
LBP03_S02,LBP03,-1551,100,2,99,-1551,1715719266.96,2024-05-14 20:41:06.960000+00:00,2024-05-15 05:41:06.960000+09:00,2024,5,14,20,41,6,960,,,,,,,,,0.812744,-0.593262,1.765137,-69.580078,-133.544922,38.574219,,,,,,,,,,,1.0,1.0,1.0,2.0,0.0,0.0,0.0,4.0,0.0,0.07770178666666666,-0.14947268,0.9911848,2.964681026666667,-6.545410133333333,-0.6982421733333336,1.0290508396936413,-16.063318996578616,-0.5229124694554785,18.23446621026523,-5.7183061829937065,-16.921218781857213,25.52493738756759,-1.0880479942207029,25.747539710478144,-1.0386850697823475,0.7350422133333334,-0.44378931999999993,0.7739522,1.9527837333333333,1.1559576219796588,0.7685590206333721,0.5153334613326536,0.5286925795326597
LBP03_S02,LBP03,-1550,101,2,100,-1550,1715719267.0,2024-05-14 20:41:07+00:00,2024-05-15 05:41:07+09:00,2024,5,14,20,41,7,0,20.0,41.0,6.0,40.552643,141.53833,6.58,3.0,15.0,-0.638428,0.409424,-0.455811,140.869141,268.615723,-56.030273,-297.0,51.0,367.0,897.0,0.0,1015.799988,19.4,0.027747,-21.196339,4.028906,0.0,1.0,1.0,2.0,0.0,0.0,0.0,5.0,0.0,0.08193030666666667,-0.14823244,0.98438468,2.9549154000000004,-7.963053359999999,-1.3631184800000005,1.4375745233803752,-17.700540350355162,-1.557515227216633,18.291969191200444,-6.426327797007913,-16.98351939094588,25.774672776760088,-1.0625790532381965,25.72580545128027,-1.0503495031530152,-0.7203583066666667,0.55765644,-1.44019568,2.7182104266666665,1.704130391650769,0.8215330829973491,0.535069140360353,0.5470587953470052
LBP03_S02,LBP03,-1549,102,2,101,-1549,1715719267.04,2024-05-14 20:41:07.040000+00:00,2024-05-15 05:41:07.040000+09:00,2024,5,14,20,41,7,40,,,,,,,,,0.113525,-0.189941,0.205322,28.442383,-173.828125,-56.82373,,,,,,,,,,,0.0,1.0,1.0,2.0,0.0,0.0,0.0,5.0,0.0,0.08652016,-0.14756837333333334,0.9868326,2.436523466666667,-8.786621066666665,-1.2548828000000003,0.19810690512204526,-18.28675169341191,-1.2985277177089367,18.299893467405326,-7.157797864744389,-17.03546049965424,26.006289347505984,-1.0373474915923342,25.710448527431502,-1.0611233245319651,0.027004840000000002,-0.04237262666666666,-0.7815105999999999,0.8508880666666666,0.7831242039334617,0.8156518835041673,0.5484381017040277,0.5506905708637199
LBP03_S02,LBP03,-1548,103,2,102,-1548,1715719267.08,2024-05-14 20:41:07.080000+00:00,2024-05-15 05:41:07.080000+09:00,2024,5,14,20,41,7,80,,,,,,,,,0.356689,0.109375,0.647705,20.324707,-62.011719,-31.921387,,,,,,,,,,,0.0,1.0,1.0,2.0,0.0,0.0,0.0,5.0,0.0,0.08555988,-0.14358073333333335,0.9934667199999999,0.8089192933333338,-7.623697893333333,-0.06917316000000066,-2.4598814017221846,-17.695459666473816,0.19985492095757323,18.20149821133644,-7.865616251403342,-17.027466302815935,26.13612566631015,-1.0304712681268122,25.67861945848815,-1.0669280276631679,0.27112912,0.2529557333333333,-0.34576171999999994,0.8698465733333333,0.506999772934404,0.8122828772000122,0.5446527960178404,0.5500285890769121
LBP03_S02,LBP03,-1547,104,2,103,-1547,1715719267.12,2024-05-14 20:41:07.120000+00:00,2024-05-15 05:41:07.120000+09:00,2024,5,14,20,41,7,120,,,,,,,,,0.529541,-0.086914,1.131104,-40.649414,9.887695,6.652832,,,,,,,,,,,0.0,1.0,1.0,2.0,0.0,0.0,0.0,5.0,0.0,0.08007810666666668,-0.15217124,1.00737948,0.42561850666666723,-8.579101533333333,0.4435221466666661,-5.8525871404235374,-16.062942161341496,2.5493153300577673,17.967394725719497,-8.508133937857002,-16.925493689613624,26.109154581707113,-1.0830215385196824,25.608104020951593,-1.069665845907469,0.44946289333333334,0.06525724000000001,0.12372452000000012,0.6384446533333334,0.4707262014220362,0.8179131037260434,0.5498641241599533,0.5488449713507199
LBP03_S02,LBP03,-1546,105,2,104,-1546,1715719267.16,2024-05-14 20:41:07.160000+00:00,2024-05-15 05:41:07.160000+09:00,2024,5,14,20,41,7,160,,,,,,,,,-0.200928,-0.227783,1.610596,-114.868164,78.552246,77.758789,,,,,,,,,,,0.0,1.0,1.0,2.0,0.0,0.0,0.0,5.0,0.0,0.08286456,-0.15553712,1.01537752,0.33040365333333377,-9.41487628,1.1254882933333328,-9.150583331490951,-13.781241611792986,5.176455606288216,17.60137139245986,-9.05938360232872,-16.718435465362095,25.911132560328657,-1.0778394547881078,25.47972115635201,-1.0698950603717097,-0.28379255999999997,-0.07224588000000001,0.59521848,0.95125692,0.6633571611295369,0.7866732225112885,0.560585032761784,0.5505289741415849
LBP03_S02,LBP03,-1545,106,2,105,-1545,1715719267.2,2024-05-14 20:41:07.200000+00:00,2024-05-15 05:41:07.200000+09:00,2024,5,14,20,41,7,200,,,,,,,,,-0.268799,-0.522949,1.8125,-22.460938,-115.478516,46.081543,,,,,,,,,,,0.0,1.0,1.0,2.0,0.0,0.0,0.0,5.0,0.0,0.07943030666666666,-0.15313152,1.0062238666666665,1.520182293333334,-6.711425759999999,1.0457356799999993,-11.73343847497472,-11.417906111450653,7.571978901998442,17.13203385346087,-9.516099846786746,-16.415556309282156,25.564295984700173,-1.0888779787317473,25.28023691376675,-1.065994436149705,-0.3482293066666667,-0.36981748000000003,0.8062761333333335,1.5243229200000001,0.9529479638039263,0.7863819718677566,0.5771551636027294,0.5563611334120536
LBP03_S02,LBP03,-1544,107,2,106,-1544,1715719267.24,2024-05-14 20:41:07.240000+00:00,2024-05-15 05:41:07.240000+09:00,2024,5,14,20,41,7,240,,,,,,,,,0.418213,-0.431641,1.689941,-17.51709,-113.769531,29.11377,,,,,,,,,,,0.0,1.0,1.0,2.0,0.0,0.0,0.0,5.0,0.0,0.07558590666666667,-0.14947266666666667,0.9927245199999999,2.398274746666667,-8.343098946666666,0.29947917333333274,-13.395971114661622,-9.574268911685024,9.487583191309554,16.596195008874407,-9.899070603254147,-16.036052981629773,25.111357645703574,-1.099253855788341,25.005433589950375,-1.0671993796252597,0.3426270933333333,-0.28216833333333335,0.69721648,1.3220119066666667,0.8265126214437081,0.8011472421078117,0.5926103569246729,0.5602204403839344
LBP03_S02,LBP03,-1543,108,2,107,-1543,1715719267.28,2024-05-14 20:41:07.280000+00:00,2024-05-15 05:41:07.280000+09:00,2024,5,14,20,41,7,280,,,,,,,,,-0.058594,-0.072754,0.505615,80.871582,254.821777,-20.385742,,,,,,,,,,,0.0,1.0,1.0,2.0,0.0,0.0,0.0,5.0,0.0,0.07916012000000001,-0.14575196,0.9830663199999999,2.5366211066666673,-9.624023426666666,-0.8813476533333341,-14.31541431217161,-8.715972192396917,10.962242450882325,16.02357843638754,-10.247709490950024,-15.59756328359448,24.597857551089803,-1.0700432322860263,24.661937649745585,-1.0701518539857315,-0.13775412,0.07299796000000001,-0.4774513199999999,0.6882033999999999,0.5022595571125336,0.8054734224273912,0.5992823386482847,0.5594040899153231
LBP03_S02,LBP03,-1542,109,2,108,-1542,1715719267.32,2024-05-14 20:41:07.320000+00:00,2024-05-15 05:41:07.320000+09:00,2024,5,14,20,41,7,320,,,,,,,,,-0.322998,0.276123,-0.23877,9.765625,-79.040527,-64.758301,,,,,,,,,,,0.0,1.0,1.0,2.0,0.0,0.0,0.0,5.0,0.0,0.08140621333333334,-0.14688152,0.9824608533333334,2.7115885466666674,-10.675455706666666,-1.5307617066666672,-14.845066801628379,-9.028117924968036,12.178367422348474,15.429775764322407,-10.608834207948746,-15.110428586700541,24.061388061846962,-1.0614687364251474,24.26641818058386,-1.0798485996175022,-0.4044042133333333,0.42300452,-1.2212308533333334,2.048639586666667,1.3542083993372083,0.8249174997535177,0.6242599287189787,0.5704430386572937
LBP03_S02,LBP03,-1541,110,2,109,-1541,1715719267.36,2024-05-14 20:41:07.360000+00:00,2024-05-15 05:41:07.360000+09:00,2024,5,14,20,41,7,360,,,,,,,,,0.294922,-0.314941,0.436523,-66.894531,-83.92334,-6.713867,,,,,,,,,,,0.0,1.0,1.0,2.0,0.0,0.0,0.0,5.0,0.0,0.08457353333333334,-0.14819010666666665,0.9995018666666667,0.5574544266666671,-12.13704424,-0.3133137866666673,-15.291708488291205,-10.366062003257358,13.264467291371144,14.818107424790758,-11.02347668807904,-14.579849895045696,23.530094961714987,-1.0490417520006547,23.84202400711324,-1.0840572641793502,0.21034846666666668,-0.16675089333333337,-0.5629788666666667,0.9400782266666667,0.6236966748105741,0.826283156522225,0.6341509832099971,0.5711725405224072
LBP03_S02,LBP03,-1540,111,2,110,-1540,1715719267.4,2024-05-14 20:41:07.400000+00:00,2024-05-15 05:41:07.400000+09:00,2024,5,14,20,41,7,400,,,,,,,,,0.566406,-0.032227,1.114258,46.75293,-21.606445,15.74707,,,,,,,,,,,0.0,1.0,1.0,2.0,0.0,0.0,0.0,5.0,0.0,0.08327470666666668,-0.15508138666666668,1.020833253333333,0.7332356800000004,-11.337890586666665,1.3728841333333328,-15.804510572701032,-12.338349325549308,14.189177641433924,14.185927001882717,-11.517010661101011,-14.012282789388339,23.02663953859634,-1.0746284879937436,23.413527772492003,-1.0811568907388276,0.48313129333333327,0.12285438666666668,0.09342474666666689,0.6994104266666669,0.5071855974009052,0.8071931754185093,0.6411346477482635,0.5703078521018463
LBP03_S02,LBP03,-1539,112,2,111,-1539,1715719267.44,2024-05-14 20:41:07.440000+00:00,2024-05-15 05:41:07.440000+09:00,2024,5,14,20,41,7,440,,,,,,,,,0.009521,0.284912,1.462402,-92.895508,74.09668,89.782715,,,,,,,,,,,0.0,1.0,1.0,2.0,0.0,0.0,0.0,5.0,0.0,0.08847002666666667,-0.16180665333333333,1.0333886,0.07486978666666701,-9.947102826666667,3.1518554933333327,-16.397237795964223,-14.473337085156272,14.811954012351023,13.53003749004415,-12.095944144507262,-13.419804628894298,22.57132994545808,-1.0668722351970543,23.00331703342689,-1.0745432511142847,-0.07894902666666667,0.4467186533333333,0.4290133999999999,0.9546810799999998,0.6243740877287596,0.7808663730470219,0.6509318206009312,0.5710287352435385
LBP03_S02,LBP03,-1538,113,2,112,-1538,1715719267.48,2024-05-14 20:41:07.480000+00:00,2024-05-15 05:41:07.480000+09:00,2024,5,14,20,41,7,480,,,,,,,,,-0.37085,-0.804932,1.958496,-63.415527,-105.895996,43.701172,,,,,,,,,,,0.0,1.0,1.0,2.0,0.0,0.0,0.0,5.0,0.0,0.07571612,-0.16097657333333332,1.0178547466666668,1.9498697866666668,-6.591796826666665,2.902018253333333,-17.032052515449735,-16.37496945273938,15.029986543933369,12.84875538942616,-12.750942922616838,-12.818605167136964,22.180930974692895,-1.1274387244445188,22.62961279769857,-1.0720485286824462,-0.44656612,-0.6439554266666667,0.9406412533333333,2.0311627999999997,1.2242981085249651,0.7976829665162658,0.6727987234071189,0.5685954704000231
LBP03_S02,LBP03,-1537,114,2,113,-1537,1715719267.52,2024-05-14 20:41:07.520000+00:00,2024-05-15 05:41:07.520000+09:00,2024,5,14,20,41,7,520,,,,,,,,,0.449951,-0.183838,1.696777,-20.812988,-123.657227,33.752441,,,,,,,,,,,0.0,1.0,1.0,2.0,0.0,0.0,0.0,5.0,0.0,0.07555661333333334,-0.15969076000000001,1.00309564,3.8077799466666664,-9.015299426666665,1.3793945599999995,-17.667267996399517,-17.80129656678313,14.886201346418963,12.142064669570178,-13.462994785288164,-12.223157113280205,21.865212847000898,-1.125108184138162,22.306764271917967,-1.0708491385931127,0.37439438666666663,-0.024147239999999986,0.69368136,1.0922229866666666,0.7886368461963825,0.8029092225541221,0.6871340925288376,0.5688294620679163
LBP03_S02,LBP03,-1536,115,2,114,-1536,1715719267.56,2024-05-14 20:41:07.560000+00:00,2024-05-15 05:41:07.560000+09:00,2024,5,14,20,41,7,560,,,,,,,,,-0.175537,0.003418,0.339355,77.087402,251.77002,-9.094238,,,,,,,,,,,0.0,1.0,1.0,2.0,0.0,0.0,0.0,5.0,0.0,0.08649086666666667,-0.15154948,0.9899608666666666,4.032389320000001,-8.8476562,0.5623372666666662,-18.22006635475851,-18.65310866799035,14.535952278318566,11.413262015379837,-14.209119132007778,-11.641719022147463,21.626170214116318,-1.04883572038288,22.046319888026954,-1.0710879252424301,-0.26202786666666666,0.15496748,-0.6506058666666665,1.0676012133333332,0.718304612618156,0.8160966811750769,0.6991809487057025,0.5747436533520758
LBP03_S02,LBP03,-1535,116,2,115,-1535,1715719267.6,2024-05-14 20:41:07.600000+00:00,2024-05-15 05:41:07.600000+09:00,2024,5,14,20,41,7,600,,,,,,,,,-0.010742,0.241455,0.028564,20.568848,-133.728027,-52.91748,,,,,,,,,,,0.0,1.0,1.0,2.0,0.0,0.0,0.0,5.0,0.0,0.08911130666666667,-0.14699218666666666,0.98734368,4.659830733333333,-6.765136666666666,0.5647786799999996,-18.487527250469537,-18.90923597774097,14.083458224756788,10.673760925361055,-14.965488571117417,-11.078380693157191,21.462188594049035,-1.022741582486321,21.857521731566727,-1.0782171538806153,-0.09985330666666667,0.38844718666666667,-0.9587796799999999,1.4470801733333332,1.0392883981178747,0.83159629287829,0.7170297089990366,0.5835914729585198
LBP03_S02,LBP03,-1534,117,2,116,-1534,1715719267.64,2024-05-14 20:41:07.640000+00:00,2024-05-15 05:41:07.640000+09:00,2024,5,14,20,41,7,640,,,,,,,,,0.266113,0.070557,0.443359,-29.35791,-65.246582,-36.92627,,,,,,,,,,,0.0,1.0,1.0,2.0,0.0,0.0,0.0,5.0,0.0,0.07966794666666667,-0.14819334666666667,0.9995051333333334,1.58935548,-7.893066346666664,1.0677083733333328,-18.133033013645278,-18.574261564072547,13.408978691966722,9.948439604815244,-15.708459033680318,-10.542021545478523,21.374315288420416,-1.0743066314699534,21.746728566104984,-1.0843295245615616,0.18644505333333333,0.21875034666666665,-0.5561461333333333,0.9613415333333333,0.6260287483022438,0.8205766198051144,0.7287737286200293,0.5810144914343741
LBP03_S02,LBP03,-1533,118,2,117,-1533,1715719267.68,2024-05-14 20:41:07.680000+00:00,2024-05-15 05:41:07.680000+09:00,2024,5,14,20,41,7,680,,,,,,,,,0.560303,-0.421875,1.34375,-48.828125,-30.700684,8.605957,,,,,,,,,,,0.0,1.0,1.0,2.0,0.0,0.0,0.0,5.0,0.0,0.08668942666666668,-0.15517577333333332,1.02955396,0.21158854666666674,-10.19694004,2.700195346666666,-16.811152552144225,-17.67697891900607,12.134396225035351,9.275993502729474,-16.41553819044056,-10.056645696477108,21.369372293283757,-1.0580493313926935,21.71623035481692,-1.0833006742192868,0.4736135733333333,-0.2666992266666667,0.3141960399999999,1.05450884,0.6278195966213928,0.8113464161540159,0.7385293185382598,0.5817021395345291
LBP03_S02,LBP03,-1532,119,2,118,-1532,1715719267.72,2024-05-14 20:41:07.720000+00:00,2024-05-15 05:41:07.720000+09:00,2024,5,14,20,41,7,720,,,,,,,,,0.041504,0.273193,1.479004,-85.571289,71.411133,83.862305,,,,,,,,,,,0.0,1.0,1.0,2.0,0.0,0.0,0.0,5.0,0.0,0.09249997333333335,-0.16803060000000003,1.0500617733333333,-1.73828124,-8.737792906666666,4.312337266666666,-14.38714235959884,-16.292930506472196,9.793487212374474,8.70050780834552,-17.06725541069945,-9.66490620798213,21.456944222936837,-1.0638566029183198,21.763317840695244,-1.0717294271022817,-0.05099597333333335,0.44122360000000005,0.4289422266666667,0.9211618000000001,0.6174708805368332,0.7897802666937368,0.7474836304205256,0.5829292701676715
LBP03_S02,LBP03,-1531,120,2,119,-1531,1715719267.76,2024-05-14 20:41:07.760000+00:00,2024-05-15 05:41:07.760000+09:00,2024,5,14,20,41,7,760,,,,,,,,,-0.395752,-0.806641,1.970459,-42.419434,-79.345703,44.433594,,,,,,,,,,,0.0,1.0,1.0,2.0,0.0,0.0,0.0,5.0,0.0,0.08041990666666667,-0.16794270666666666,1.03861972,0.38248698666666653,-5.219726506666666,4.055989613333333,-11.10502907253135,-14.542202497076664,6.132122175737343,8.256306645444266,-17.648943510582516,-9.419621320952636,21.642113397112706,-1.1203340383825064,21.880269944275085,-1.066638854598132,-0.47617190666666664,-0.6386982933333334,0.9318392799999999,2.0467094799999996,1.2259688570091818,0.810675279852545,0.7663263418213585,0.5932329702324401
LBP03_S02,LBP03,-1530,121,2,120,-1530,1715719267.8,2024-05-14 20:41:07.800000+00:00,2024-05-15 05:41:07.800000+09:00,2024,5,14,20,41,7,800,,,,,,,,,0.488525,-0.705811,1.814941,-42.785645,-94.421387,56.030273,,,,,,,,,,,0.0,1.0,1.0,2.0,0.0,0.0,0.0,5.0,0.0,0.07762693333333334,-0.16879556,1.0260904266666666,0.9244791733333333,-8.061523386666666,3.510742213333333,-7.559623829582375,-12.550204397229662,1.3593760146118485,7.953921692260971,-18.150951686471704,-9.365246280368162,21.91870788397891,-1.1357521948032059,22.05540799461793,-1.0698623806870047,0.4108980666666666,-0.53701544,0.7888505733333333,1.73676408,1.0389937589019131,0.8326227887218951,0.7784285326830205,0.5989824922435325
LBP03_S02,LBP03,-1529,122,2,121,-1529,1715719267.84,2024-05-14 20:41:07.840000+00:00,2024-05-15 05:41:07.840000+09:00,2024,5,14,20,41,7,840,,,,,,,,,-0.134277,0.07251,0.182617,110.107422,212.341309,-11.71875,,,,,,,,,,,0.0,1.0,1.0,2.0,0.0,0.0,0.0,5.0,0.0,0.08944333333333333,-0.15965818666666667,1.0165754533333333,2.95003256,-8.152669213333333,2.2119140799999997,-4.442035103995601,-10.397276979758082,-3.8193138064432626,7.776240288101146,-18.566842765662027,-9.518018832625891,22.266347832577413,-1.0565837317743068,22.274840961663863,-1.073466315227596,-0.22372033333333335,0.23216818666666666,-0.8339584533333333,1.2898469733333333,0.8941138385759341,0.8475163595366176,0.7815724424023364,0.6055713167230841
LBP03_S02,LBP03,-1528,123,2,122,-1528,1715719267.88,2024-05-14 20:41:07.880000+00:00,2024-05-15 05:41:07.880000+09:00,2024,5,14,20,41,7,880,,,,,,,,,-0.114746,0.182617,0.010742,101.257324,-98.632812,-84.04541,,,,,,,,,,,0.0,1.0,1.0,2.0,0.0,0.0,0.0,5.0,0.0,0.09532876,-0.15342446666666668,1.0138182933333333,0.9399414133333335,-5.5021158266666665,2.7514648666666663,-2.1869466600973007,-8.097609779361004,-8.43199583513181,7.688762421697254,-18.89074715683647,-9.855298666031164,22.65180583347616,-1.0117262532744684,22.52427088717608,-1.0775352503378912,-0.21007476,0.3360414666666667,-1.0030762933333333,1.54919252,1.0785255316198505,0.8630361060208113,0.7880931244821922,0.6163821154793596
LBP03_S02,LBP03,-1527,124,2,123,-1527,1715719267.92,2024-05-14 20:41:07.920000+00:00,2024-05-15 05:41:07.920000+09:00,2024,5,14,20,41,7,920,,,,,,,,,0.299805,0.190674,0.5625,5.371094,-74.829102,-85.205078,,,,,,,,,,,0.0,1.0,1.0,2.0,0.0,0.0,0.0,5.0,0.0,0.08175779999999999,-0.15206378666666667,1.0164322266666665,-0.5428059866666666,-4.795735613333333,2.403971386666666,-0.745442964552264,-5.640758162247693,-11.619038917719418,7.658944703115163,-19.116377483326374,-10.32006022273994,23.03473388279931,-1.074202459096664,22.79036411620709,-1.0835285571374504,0.2180472,0.34273778666666666,-0.45393222666666655,1.0147172133333333,0.6091537065827995,0.8465633255318004,0.7934583977890044,0.6193332931201886
LBP03_S02,LBP03,-1526,125,2,124,-1526,1715719267.96,2024-05-14 20:41:07.960000+00:00,2024-05-15 05:41:07.960000+09:00,2024,5,14,20,41,7,960,,,,,,,,,0.669678,-0.129883,1.293457,-38.208008,-4.882812,-19.165039,,,,,,,,,,,0.0,1.0,1.0,2.0,0.0,0.0,0.0,5.0,0.0,0.08478514666666667,-0.16040364,1.0423306666666665,-2.9858398399999997,-9.357910093333333,3.0924479466666663,0.3465065386656075,-3.085081428166092,-12.95603098581621,7.672804964661788,-19.239780740453018,-10.838301462172588,23.377550717544768,-1.081070981271607,23.061560589070087,-1.0844846833784194,0.5848928533333333,0.030520639999999988,0.25112633333333356,0.8665398266666668,0.6372563021578228,0.8258152727389269,0.7971871466861495,0.618827398468078
LBP03_S02,LBP03,-1525,126,2,125,-1525,1715719268.0,2024-05-14 20:41:08+00:00,2024-05-15 05:41:08+09:00,2024,5,14,20,41,8,0,20.0,41.0,7.0,40.552601,141.538239,6.605,3.0,15.0,-0.124268,-0.087646,1.634033,-134.82666,82.824707,48.828125,-295.0,55.0,364.0,911.0,0.0,1016.0,19.459999,0.029729,-22.857084,4.028906,0.0,1.0,1.0,2.0,0.0,0.0,0.0,4.0,0.0,0.091569,-0.16427409333333334,1.0564224666666666,-4.121093746666666,-6.977539,4.386393253333333,1.6243045799219074,-0.6368407417131953,-12.555729519344599,7.737777147858664,-19.265254370121546,-11.340530642946371,23.65651826450834,-1.058780927892234,23.328539787849014,-1.0733815719557016,-0.215837,0.07662809333333334,0.5776105333333335,0.8700756266666668,0.6213625378750476,0.782504558587898,0.8020188207926234,0.6175476131028681
LBP03_S02,LBP03,-1524,127,2,126,-1524,1715719268.04,2024-05-14 20:41:08.040000+00:00,2024-05-15 05:41:08.040000+09:00,2024,5,14,20,41,8,40,,,,,,,,,-0.327393,-0.748535,1.925781,-42.419434,-89.477539,11.108398,,,,,,,,,,,0.0,1.0,1.0,2.0,0.0,0.0,0.0,4.0,0.0,0.07990558666666667,-0.16452474666666664,1.04471348,-2.8662109333333325,-4.0974934266666665,4.127604186666667,3.293941342767315,1.3525274173902049,-10.927700144570306,7.869534801569357,-19.21115327342594,-11.777638648729184,23.86861454354263,-1.114995982572905,23.584730514638654,-1.0670521338386418,-0.40729858666666663,-0.5840102533333333,0.88106752,1.87237636,1.1328018756596754,0.7964916654569467,0.8060717744805569,0.6311226229550007
LBP03_S02,LBP03,-1523,128,2,127,-1523,1715719268.08,2024-05-14 20:41:08.080000+00:00,2024-05-15 05:41:08.080000+09:00,2024,5,14,20,41,8,80,,,,,,,,,0.557861,-0.55957,1.727539,-7.324219,-52.91748,46.936035,,,,,,,,,,,0.0,1.0,1.0,2.0,0.0,0.0,0.0,4.0,0.0,0.07815428,-0.16214193333333335,1.0321093066666667,-2.4503580666666664,-6.40299472,3.280436213333333,5.044467098009797,2.4828794579065354,-8.716461558119612,8.07131348548975,-19.11183809510968,-12.126297111053969,24.03030458359382,-1.1179823993882865,23.827096209448744,-1.0689787727965796,0.47970672000000003,-0.39742806666666664,0.6954296933333333,1.57256448,0.9336434350207026,0.8135574119403985,0.8129201445702052,0.6342876679920264
LBP03_S02,LBP03,-1522,129,2,128,-1522,1715719268.12,2024-05-14 20:41:08.120000+00:00,2024-05-15 05:41:08.120000+09:00,2024,5,14,20,41,8,120,,,,,,,,,-0.346191,0.155518,-0.069092,142.39502,245.97168,-28.625488,,,,,,,,,,,0.0,1.0,1.0,2.0,0.0,0.0,0.0,4.0,0.0,0.08623696,-0.16021810666666667,1.0207291066666666,-1.5055338399999996,-7.106933519999999,1.97672528,6.20307185690094,2.452635163572728,-6.480574385711593,8.319436359765787,-19.01373268856677,-12.385520086482433,24.16890895156679,-1.0734178653280113,24.056884016468274,-1.0725471557183854,-0.43242796000000006,0.3157361066666666,-1.0898211066666665,1.8379851733333332,1.2142459693896226,0.843298202659102,0.8306056531925726,0.6476754836596694
LBP03_S02,LBP03,-1521,130,2,129,-1521,1715719268.16,2024-05-14 20:41:08.160000+00:00,2024-05-15 05:41:08.160000+09:00,2024,5,14,20,41,8,160,,,,,,,,,-0.08374,-0.175049,0.241943,42.053223,-129.943848,-58.227539,,,,,,,,,,,0.0,1.0,1.0,2.0,0.0,0.0,0.0,4.0,0.0,0.09542966666666666,-0.15274414666666666,1.01461908,-1.4461262799999994,-4.979654880000001,2.278645853333333,6.128333575766779,1.1852429829142233,-4.602632420399765,8.564569702796458,-18.9663229692502,-12.569625383298424,24.311905384901998,-1.0093029241553282,24.27946976955584,-1.0751389866664276,-0.17916966666666667,-0.022304853333333347,-0.7726760799999999,0.9741505999999999,0.7934907690325277,0.8485035469752217,0.817588384743255,0.6565578708329298
LBP03_S02,LBP03,-1520,131,2,130,-1520,1715719268.2,2024-05-14 20:41:08.200000+00:00,2024-05-15 05:41:08.200000+09:00,2024,5,14,20,41,8,200,,,,,,,,,0.324951,0.179199,0.558105,63.537598,-57.067871,-53.771973,,,,,,,,,,,0.0,1.0,1.0,2.0,0.0,0.0,0.0,4.0,0.0,0.08499021333333333,-0.15750001333333336,1.0180403066666668,-4.1617838266666665,-4.517415293333333,2.505696626666666,4.580408207180178,-1.1323759009917829,-3.3037900552011368,8.747786031083665,-19.011618005289872,-12.70177698550647,24.4806151518753,-1.0724578136326075,24.502560506643515,-1.0783975176118807,0.23996078666666665,0.33669901333333335,-0.4599353066666668,1.0365951066666668,0.6184560542479042,0.8351238705929808,0.8107529212303686,0.6631447325994799
LBP03_S02,LBP03,-1519,132,2,131,-1519,1715719268.24,2024-05-14 20:41:08.240000+00:00,2024-05-15 05:41:08.240000+09:00,2024,5,14,20,41,8,240,,,,,,,,,0.446045,-0.034912,1.314941,-20.629883,29.541016,13.061523,,,,,,,,,,,0.0,1.0,1.0,2.0,0.0,0.0,0.0,4.0,0.0,0.08951494666666668,-0.16735353333333333,1.0413085466666667,-4.82666012,-8.304036386666667,3.4187825599999995,1.8358916438037476,-4.11297202962682,-2.668549369839855,8.821221696835815,-19.176136886474946,-12.808518960300065,24.69000478067832,-1.0758501213536844,24.733013195187404,-1.0779930792287347,0.3565300533333333,0.13244153333333333,0.2736324533333332,0.7626040399999998,0.4685393880974925,0.8208049412591322,0.8109760916834721,0.6686752183694926
LBP03_S02,LBP03,-1518,133,2,132,-1518,1715719268.28,2024-05-14 20:41:08.280000+00:00,2024-05-15 05:41:08.280000+09:00,2024,5,14,20,41,8,280,,,,,,,,,-0.173584,-0.173828,1.667236,-135.559082,52.67334,68.908691,,,,,,,,,,,0.0,1.0,1.0,2.0,0.0,0.0,0.0,4.0,0.0,0.09482743999999999,-0.16568361333333334,1.0507291200000002,-3.0688476133333324,-4.199218666666667,4.281412773333333,-1.5002088244710168,-7.281420643733395,-2.614814536363759,8.761213343856975,-19.467393712224283,-12.913111541754615,24.94968390367147,-1.0474100824925263,24.973660474036564,-1.0664898697576422,-0.26841143999999995,-0.00814438666666667,0.6165068799999998,0.8930627066666663,0.6724520542346375,0.8276126411440162,0.8165430317857036,0.6753924394801952
LBP03_S02,LBP03,-1517,134,2,133,-1517,1715719268.32,2024-05-14 20:41:08.320000+00:00,2024-05-15 05:41:08.320000+09:00,2024,5,14,20,41,8,320,,,,,,,,,-0.416992,-0.723877,1.910645,-58.105469,-83.92334,17.211914,,,,,,,,,,,0.0,1.0,1.0,2.0,0.0,0.0,0.0,4.0,0.0,0.08331052,-0.16526369333333332,1.0384048933333334,-3.0485025599999993,-2.946777266666667,3.798828133333333,-4.828221023536254,-10.175147555326994,-2.838496252760702,8.568084502915525,-19.874399614437362,-13.026651391865043,25.260591413674952,-1.1001207685770862,25.221864218984518,-1.0619226027865927,-0.50030252,-0.5586133066666666,0.8722401066666665,1.931155933333333,1.1502844176903795,0.8194556818781432,0.8221865908158305,0.6893251797720336
LBP03_S02,LBP03,-1516,135,2,134,-1516,1715719268.36,2024-05-14 20:41:08.360000+00:00,2024-05-15 05:41:08.360000+09:00,2024,5,14,20,41,8,360,,,,,,,,,0.341064,-0.426758,1.762939,4.211426,-77.392578,24.475098,,,,,,,,,,,0.0,1.0,1.0,2.0,0.0,0.0,0.0,4.0,0.0,0.08012692,-0.1644889466666667,1.0213703866666666,-1.765950479999999,-4.751790293333333,2.8320312533333327,-7.793343989664342,-12.410210132633878,-2.8302702579514305,8.256350743328952,-20.370808019742718,-13.1398622021831,25.608458088421546,-1.1136562907261394,25.47070878529337,-1.060196983561453,0.26093708,-0.26226905333333334,0.7415686133333335,1.2647747466666668,0.828732299561452,0.8276571068681783,0.8269701316952017,0.6986530244293908
LBP03_S02,LBP03,-1515,136,2,135,-1515,1715719268.4,2024-05-14 20:41:08.400000+00:00,2024-05-15 05:41:08.400000+09:00,2024,5,14,20,41,8,400,,,,,,,,,-0.015625,-0.095703,0.422363,94.360352,201.477051,-26.489258,,,,,,,,,,,0.0,1.0,1.0,2.0,0.0,0.0,0.0,4.0,0.0,0.0932454,-0.16584311999999998,1.0125552800000002,-0.8308918799999992,-7.638346293333334,1.817220053333333,-10.285223221870035,-13.720323624152108,-2.0354138023913144,7.84494181445415,-20.919620964708802,-13.221278754278751,25.961045149947214,-1.0547365440607732,25.712215787574316,-1.0650662099723311,-0.1088704,0.07014011999999999,-0.5901922800000001,0.7692028000000002,0.6042344973612256,0.8315390628665911,0.8193661191425502,0.7046027861210391
LBP03_S02,LBP03,-1514,137,2,136,-1514,1715719268.44,2024-05-14 20:41:08.440000+00:00,2024-05-15 05:41:08.440000+09:00,2024,5,14,20,41,8,440,,,,,,,,,-0.289062,0.007812,-0.108887,14.404297,-108.886719,-82.397461,,,,,,,,,,,0.0,1.0,1.0,2.0,0.0,0.0,0.0,4.0,0.0,0.10012690666666667,-0.15704429333333333,1.0034081466666667,-0.952148399999999,-4.3562824933333335,2.0328776133333326,-12.24732435639351,-13.98770050582091,-0.12125669867397093,7.3550488401984095,-21.47912898494164,-13.22612902222571,26.27508733203422,-0.9999638878619787,25.940708344635983,-1.0692410790269293,-0.38918890666666667,0.16485629333333335,-1.1122951466666666,1.6663403466666666,1.189893312789942,0.8541598318690383,0.8175131024580302,0.7186744910236337
LBP03_S02,LBP03,-1513,138,2,137,-1513,1715719268.48,2024-05-14 20:41:08.480000+00:00,2024-05-15 05:41:08.480000+09:00,2024,5,14,20,41,8,480,,,,,,,,,0.49292,0.046631,0.521973,25.146484,-97.351074,-48.64502,,,,,,,,,,,0.0,1.0,1.0,2.0,0.0,0.0,0.0,4.0,0.0,0.08670568000000001,-0.16070965333333334,1.00615228,-1.3085937199999993,-3.050130146666666,2.242838546666666,-13.487594259022583,-13.282643180701193,2.7876002026265616,6.815545069837507,-22.010434712169687,-13.114625014120646,26.51234203307338,-1.0723097296777921,26.154472879284178,-1.074300710455136,0.40621432,0.20734065333333335,-0.48417928,1.0977342533333334,0.6651539637400309,0.831794066077641,0.8147385162969534,0.7257971709639596
LBP03_S02,LBP03,-1512,139,2,138,-1512,1715719268.52,2024-05-14 20:41:08.520000+00:00,2024-05-15 05:41:08.520000+09:00,2024,5,14,20,41,8,520,,,,,,,,,0.44751,-0.047119,1.158936,-17.150879,-29.846191,8.911133,,,,,,,,,,,0.0,1.0,1.0,2.0,0.0,0.0,0.0,4.0,0.0,0.09596024,-0.17126954666666666,1.0372850933333335,-3.5205077866666663,-7.788085880000001,3.5701497333333325,-13.66500621103791,-11.892628245750714,6.065608957148494,6.268944821395991,-22.486139841999716,-12.872000655834707,26.65735461465529,-1.0561616730766143,26.355185045046163,-1.0772676331779525,0.35154976000000004,0.12415054666666667,0.12165090666666645,0.5973512133333332,0.39217283828244887,0.8159355057610835,0.8094223641576029,0.7300678969395864
LBP03_S02,LBP03,-1511,140,2,139,-1511,1715719268.56,2024-05-14 20:41:08.560000+00:00,2024-05-15 05:41:08.560000+09:00,2024,5,14,20,41,8,560,,,,,,,,,0.119385,0.138428,1.558838,-128.845215,91.186523,89.477539,,,,,,,,,,,0.0,1.0,1.0,2.0,0.0,0.0,0.0,4.0,0.0,0.09542638666666667,-0.17102541333333335,1.0454686933333333,-2.342936173333333,-2.685546813333333,4.401855453333333,-12.47849535228564,-10.28077254133766,8.79943966937239,5.769805007304565,-22.897370743653223,-12.520023069059812,26.72697540771146,-1.0579951882641077,26.546064770370926,-1.069632360193093,0.023958613333333337,0.3094534133333333,0.5133693066666667,0.8467813333333334,0.5999028881443405,0.811199436782131,0.8136480589786039,0.7365204447311786
LBP03_S02,LBP03,-1510,141,2,140,-1510,1715719268.6,2024-05-14 20:41:08.600000+00:00,2024-05-15 05:41:08.600000+09:00,2024,5,14,20,41,8,600,,,,,,,,,-0.168213,-0.778809,2.067871,-63.598633,-65.368652,50.842285,,,,,,,,,,,0.0,1.0,1.0,2.0,0.0,0.0,0.0,4.0,0.0,0.08300777333333334,-0.17073244,1.0319758533333334,-1.3232421599999995,-1.1507160799999996,3.6027018133333333,-9.922682495197218,-8.939949901073952,10.167527312398763,5.372897707496676,-23.25496873969618,-12.113321976563862,26.765540722491945,-1.1142065041785896,26.73025923664211,-1.0667479027485762,-0.25122077333333337,-0.60807656,1.0358951466666664,1.8951924799999997,1.2271706216591016,0.81871472572378,0.825155509301035,0.7509247145739512
LBP03_S02,LBP03,-1509,142,2,141,-1509,1715719268.64,2024-05-14 20:41:08.640000+00:00,2024-05-15 05:41:08.640000+09:00,2024,5,14,20,41,8,640,,,,,,,,,0.314697,-0.397461,1.616455,-15.50293,-42.541504,57.434082,,,,,,,,,,,0.0,1.0,1.0,2.0,0.0,0.0,0.0,4.0,0.0,0.07934892,-0.1684082266666667,1.02052728,-0.12125647999999946,-3.10546868,2.6253255066666665,-6.412876818609444,-8.192258540580777,9.784812413775818,5.1163826347522985,-23.582659081319413,-11.721929480012829,26.82765012716033,-1.126446435635751,26.910317842675234,-1.0679213013109798,0.23534808000000002,-0.22905277333333332,0.5959277199999999,1.0603285733333334,0.6804290846192395,0.8208907391764599,0.8207336794907871,0.7594793988055061
LBP03_S02,LBP03,-1508,143,2,142,-1508,1715719268.68,2024-05-14 20:41:08.680000+00:00,2024-05-15 05:41:08.680000+09:00,2024,5,14,20,41,8,680,,,,,,,,,-0.223389,0.042725,0.168701,99.975586,213.378906,-8.117676,,,,,,,,,,,0.0,1.0,1.0,2.0,0.0,0.0,0.0,4.0,0.0,0.08931962666666667,-0.16757164,1.0136978533333334,0.6681315466666672,-4.93570956,1.4542643066666663,-2.6663615793977176,-8.038621334679073,7.827901158734825,5.0097281715763895,-23.904203934706576,-11.408813433663436,26.956805561291322,-1.0770793097206914,27.0884531676136,-1.0729830947123697,-0.31270862666666666,0.21029663999999998,-0.8449968533333334,1.36800212,0.9252194572804212,0.832786733602821,0.8220665748784185,0.7699484568931135
LBP03_S02,LBP03,-1507,144,2,143,-1507,1715719268.72,2024-05-14 20:41:08.720000+00:00,2024-05-15 05:41:08.720000+09:00,2024,5,14,20,41,8,720,,,,,,,,,-0.05835,0.218994,0.050781,78.063965,-134.58252,-66.101074,,,,,,,,,,,0.0,1.0,1.0,2.0,0.0,0.0,0.0,4.0,0.0,0.09603837333333333,-0.15891929333333335,1.0084602266666667,-0.2278645466666664,-2.5260415866666666,2.0084635199999994,0.5973238093074045,-8.149654758215421,4.889922066736772,5.033621123948686,-24.230190125035193,-11.213216550993966,27.16938866692257,-1.023768038728491,27.266481946733272,-1.0733532000155304,-0.15438837333333333,0.37791329333333334,-0.9576792266666667,1.4899808933333334,1.0410589456353678,0.8497302562067626,0.8197552614502496,0.7815658390159378
LBP03_S02,LBP03,-1506,145,2,144,-1506,1715719268.76,2024-05-14 20:41:08.760000+00:00,2024-05-15 05:41:08.760000+09:00,2024,5,14,20,41,8,760,,,,,,,,,0.34375,0.100342,0.579102,-3.967285,-92.468262,-70.129395,,,,,,,,,,,0.0,1.0,1.0,2.0,0.0,0.0,0.0,4.0,0.0,0.08609045333333333,-0.16452150666666665,1.0118261199999998,-1.5185546533333332,-1.8294270133333332,2.2290038799999996,2.9410859200919504,-8.02015030797047,1.6755272124174607,5.151264560752364,-24.550996137354012,-11.146195462497268,27.450402751133353,-1.0848117162809705,27.44453987584664,-1.0769715041645243,0.2576595466666667,0.26486350666666664,-0.4327241199999998,0.9552471733333332,0.5690266102582635,0.8234525663367258,0.8170639230946354,0.7853684166598142
LBP03_S02,LBP03,-1505,146,2,145,-1505,1715719268.8,2024-05-14 20:41:08.800000+00:00,2024-05-15 05:41:08.800000+09:00,2024,5,14,20,41,8,800,,,,,,,,,0.575928,-0.154541,1.268555,-11.657715,-4.089355,-4.760742,,,,,,,,,,,0.0,1.0,1.0,2.0,0.0,0.0,0.0,4.0,0.0,0.09205725333333334,-0.16833986666666667,1.0275813333333335,-2.2949218399999993,-5.930175706666667,3.0623372133333326,4.302002594772736,-7.210623453877876,-1.2706946992866723,5.323344664543273,-24.839421075509126,-11.197023250468735,27.761631210278438,-1.0664705296848118,27.618761835457796,-1.0779215430116857,0.48387074666666663,0.01379886666666666,0.24097366666666664,0.7386432799999999,0.5407306318563982,0.8035220412549051,0.8180724149884001,0.7867930355403153
LBP03_S02,LBP03,-1504,147,2,146,-1504,1715719268.84,2024-05-14 20:41:08.840000+00:00,2024-05-15 05:41:08.840000+09:00,2024,5,14,20,41,8,840,,,,,,,,,-0.001709,-0.172363,1.623779,-121.337891,47.485352,72.32666,,,,,,,,,,,0.0,1.0,1.0,2.0,0.0,0.0,0.0,4.0,0.0,0.09746741333333334,-0.17170574666666666,1.0369465733333334,-0.7454426799999997,-2.0255533199999998,4.004720026666666,4.865651947024404,-5.534740523017772,-3.65820730668371,5.517970742424249,-25.060810696429836,-11.343351542736084,28.056440581417938,-1.0505818218758787,27.779286943261933,-1.0673227903860751,-0.09917641333333334,-0.0006572533333333297,0.5868324266666667,0.6866660933333334,0.5951543412687982,0.7915636613626198,0.8195400104496187,0.7849028487224308
LBP03_S02,LBP03,-1503,148,2,147,-1503,1715719268.88,2024-05-14 20:41:08.880000+00:00,2024-05-15 05:41:08.880000+09:00,2024,5,14,20,41,8,880,,,,,,,,,-0.228516,-0.591553,1.869629,-2.868652,-63.781738,26.977539,,,,,,,,,,,0.0,1.0,1.0,2.0,0.0,0.0,0.0,4.0,0.0,0.08918941333333334,-0.16683921333333332,1.0279784799999998,0.8764648666666669,-1.5014647733333333,3.0541991866666662,4.8595306682940835,-3.089980804172634,-5.366287030797687,5.712351969156012,-25.184409928596743,-11.558003023967991,28.292629824270065,-1.0760107827093965,27.910260463361745,-1.0622751765471103,-0.31770541333333335,-0.4247137866666667,0.8416505200000002,1.5840697200000002,0.9948337188004404,0.7882159888498432,0.8256260474353272,0.7881340792714092
LBP03_S02,LBP03,-1502,149,2,148,-1502,1715719268.92,2024-05-14 20:41:08.920000+00:00,2024-05-15 05:41:08.920000+09:00,2024,5,14,20,41,8,920,,,,,,,,,0.64502,-0.521973,1.63501,5.615234,4.638672,48.64502,,,,,,,,,,,0.0,1.0,1.0,2.0,0.0,0.0,0.0,4.0,0.0,0.08503902666666666,-0.16554689333333333,1.0161913733333334,1.2727864800000002,-2.5854491466666665,2.0279947599999995,4.441975494106103,-0.14116743575452795,-6.308991743723579,5.890030988920256,-25.190056626026923,-11.810362693716934,28.437933905789016,-1.0923447145665557,27.992650791717985,-1.0621139813319043,0.5599809733333334,-0.3564261066666667,0.6188186266666666,1.5352257066666668,0.907499175051154,0.8001498075885775,0.8233565665601889,0.7956888677221954
LBP03_S02,LBP03,-1501,150,2,149,-1501,1715719268.96,2024-05-14 20:41:08.960000+00:00,2024-05-15 05:41:08.960000+09:00,2024,5,14,20,41,8,960,,,,,,,,,-0.461426,0.092285,-0.042725,140.075684,224.060059,-53.710938,,,,,,,,,,,0.0,1.0,1.0,2.0,0.0,0.0,0.0,4.0,0.0,0.09222653333333333,-0.16913088,1.0102571333333334,2.4332682533333334,-4.964192639999999,0.7633463199999996,3.7560803641262526,3.0431288997294192,-6.391505568769248,6.040274203485306,-25.068331470037748,-12.066022916467704,28.46919500382297,-1.06749557673572,28.0091647666272,-1.0671142536600378,-0.5536525333333333,0.26141588000000004,-1.0529821333333333,1.8680505466666668,1.218047931364694,0.8233814727568523,0.8245983727478897,0.8059185887097171
LBP03_S02,LBP03,-1500,151,2,150,-1500,1715719269.0,2024-05-14 20:41:09+00:00,2024-05-15 05:41:09+09:00,2024,5,14,20,41,9,0,20.0,41.0,8.0,40.552551,141.538162,6.475,3.0,15.0,-0.020996,-0.069824,0.254883,19.042969,-148.55957,-77.453613,-300.0,54.0,360.0,877.0,0.0,1016.0,19.52,0.029729,-22.857084,4.028906,0.0,1.0,1.0,2.0,0.0,0.0,0.0,3.0,0.0,0.09841794666666667,-0.15723309333333332,1.003763,2.0393880400000004,-2.1411132133333335,1.3077799066666664,3.057702686551534,6.283933030400614,-5.597495376298566,6.162582310947368,-24.816974148821725,-12.289922731519646,28.370791800533354,-1.008218977922486,27.949250343023145,-1.0703819416785607,-0.11941394666666667,0.08740909333333333,-0.74888,0.95570304,0.7633618373064407,0.829061444734108,0.805783001661003,0.8110330287731183
LBP03_S02,LBP03,-1499,152,2,151,-1499,1715719269.04,2024-05-14 20:41:09.040000+00:00,2024-05-15 05:41:09.040000+09:00,2024,5,14,20,41,9,40,,,,,,,,,0.393311,0.060791,0.681396,-4.02832,-75.439453,-52.978516,,,,,,,,,,,0.0,1.0,1.0,2.0,0.0,0.0,0.0,3.0,0.0,0.08785805333333334,-0.16434897333333334,1.0072102666666667,0.7584635600000001,-1.426594973333333,1.2084960533333329,2.750549761548297,9.456853942772451,-4.116700841084137,6.2726043014093,-24.438699991110827,-12.454590765163012,28.137385328158384,-1.0759702972461025,27.811956781385742,-1.0766358597345023,0.30545294666666667,0.22513997333333335,-0.3258142666666667,0.8564071866666667,0.5001444257246315,0.8037551467367062,0.8001234060968264,0.8052995652326067
LBP03_S02,LBP03,-1498,153,2,152,-1498,1715719269.08,2024-05-14 20:41:09.080000+00:00,2024-05-15 05:41:09.080000+09:00,2024,5,14,20,41,9,80,,,,,,,,,0.498291,-0.049072,1.314209,-15.258789,52.307129,19.897461,,,,,,,,,,,0.0,1.0,1.0,2.0,0.0,0.0,0.0,3.0,0.0,0.09143878666666667,-0.17090170666666668,1.0274837066666667,-0.18066403999999964,-5.63964836,1.961262973333333,3.236693376007549,12.379465747185998,-2.3718265878623326,6.402072036449601,-23.943521361223386,-12.549463828677505,27.780708844853756,-1.0754673575686302,27.605542869812847,-1.082160559444871,0.4068522133333333,0.12182970666666668,0.2867252933333333,0.8154072133333333,0.5124281361886799,0.7869065347834252,0.8002319733619119,0.8042489413079453
LBP03_S02,LBP03,-1497,154,2,153,-1497,1715719269.12,2024-05-14 20:41:09.120000+00:00,2024-05-15 05:41:09.120000+09:00,2024,5,14,20,41,9,120,,,,,,,,,-0.313721,-0.278564,1.769775,-169.616699,48.76709,69.091797,,,,,,,,,,,0.0,1.0,1.0,2.0,0.0,0.0,0.0,3.0,0.0,0.09472654666666668,-0.17639974666666666,1.0377864533333334,0.47119142666666713,-2.08984368,2.7962239066666665,4.656109792161329,14.743068311147422,-0.8768774282683145,6.5883164281360544,-23.35379862877749,-12.584538925808237,27.33452841601478,-1.073770762009826,27.344558314560988,-1.0781520213673261,-0.4084475466666667,-0.10216425333333332,0.7319885466666667,1.2426003466666669,0.8444371885986283,0.7721141835517855,0.8077061931054439,0.8111084966456437
LBP03_S02,LBP03,-1496,155,2,154,-1496,1715719269.16,2024-05-14 20:41:09.160000+00:00,2024-05-15 05:41:09.160000+09:00,2024,5,14,20,41,9,160,,,,,,,,,-0.063477,-0.562744,1.966064,35.27832,-38.330078,39.123535,,,,,,,,,,,0.0,1.0,1.0,2.0,0.0,0.0,0.0,3.0,0.0,0.08424804,-0.17485026666666664,1.0255794266666665,1.801757826666667,-0.4134113866666664,2.1272785999999995,6.708485522493706,16.169653802857457,0.002663178265765089,6.8566558490358025,-22.70701247666319,-12.584432398677606,26.85125851509276,-1.1174885964661994,27.046377443070178,-1.0770889120278455,-0.14772504,-0.3878937333333334,0.9404845733333336,1.476103346666667,1.0280055780394652,0.7814947759120631,0.8149991614436424,0.8055571817995244
LBP03_S02,LBP03,-1495,156,2,155,-1495,1715719269.2,2024-05-14 20:41:09.200000+00:00,2024-05-15 05:41:09.200000+09:00,2024,5,14,20,41,9,200,,,,,,,,,0.569336,-0.750977,1.62085,23.803711,31.311035,49.621582,,,,,,,,,,,0.0,1.0,1.0,2.0,0.0,0.0,0.0,3.0,0.0,0.07926430666666667,-0.16941081333333333,1.00991536,2.8540039200000007,-2.455240813333333,1.17431636,8.723473503902628,16.36761821717344,0.22809945486976368,7.205594789191908,-22.052307747976254,-12.575308420482816,26.38869559390439,-1.1290097102442282,26.728852329551792,-1.0790075864980315,0.4900716933333333,-0.5815661866666667,0.61093464,1.68257252,0.9755155705741136,0.7957771565651115,0.815450513579046,0.8057609996752829
LBP03_S02,LBP03,-1494,157,2,156,-1494,1715719269.24,2024-05-14 20:41:09.240000+00:00,2024-05-15 05:41:09.240000+09:00,2024,5,14,20,41,9,240,,,,,,,,,-0.646484,0.113037,-0.238525,149.291992,203.125,-77.880859,,,,,,,,,,,0.0,1.0,1.0,2.0,0.0,0.0,0.0,3.0,0.0,0.08636717333333334,-0.17410808,0.9999055866666665,3.5815429866666673,-5.002441333333333,-0.1822917200000005,9.978727345155713,15.287320003152125,0.07885640618056666,7.604743882998136,-21.440814947850168,-12.572154164235593,25.99230146568901,-1.1058288189795658,26.409230477577513,-1.0860807980628409,-0.7328511733333333,0.28714508,-1.2384305866666665,2.25842684,1.4673900153728023,0.8357311816561238,0.828268061457628,0.8192277883410226
LBP03_S02,LBP03,-1493,158,2,157,-1493,1715719269.28,2024-05-14 20:41:09.280000+00:00,2024-05-15 05:41:09.280000+09:00,2024,5,14,20,41,9,280,,,,,,,,,0.160156,0.002686,0.244873,59.997559,-149.108887,-66.467285,,,,,,,,,,,0.0,1.0,1.0,2.0,0.0,0.0,0.0,3.0,0.0,0.09468097333333332,-0.16117513333333333,0.9893456933333334,3.641764346666667,-2.5048827466666665,0.229492133333333,10.076662008711663,13.176259190497994,-0.03556457309754618,8.007810363346602,-20.913764580230247,-12.573576747159494,25.682784271751462,-1.0359254019339488,26.10321930823909,-1.091276558699193,0.06547502666666667,0.16386113333333333,-0.7444726933333334,0.9738088533333334,0.7650993669146987,0.8394370741633262,0.8335248576536713,0.8241743792449112
LBP03_S02,LBP03,-1492,159,2,158,-1492,1715719269.32,2024-05-14 20:41:09.320000+00:00,2024-05-15 05:41:09.320000+09:00,2024,5,14,20,41,9,320,,,,,,,,,0.509521,0.019043,0.806885,-2.502441,-29.47998,-44.73877,,,,,,,,,,,0.0,1.0,1.0,2.0,0.0,0.0,0.0,3.0,0.0,0.08489257333333335,-0.16101237333333335,0.9906640533333333,2.087402373333334,-1.5706379466666667,0.492350213333333,9.13078030461208,10.492812152726199,0.19344019955838895,8.373041575531085,-20.494052094121198,-12.565839139177159,25.45612519088092,-1.0817136211717484,25.823192103484047,-1.0990647385713495,0.42462842666666667,0.18005537333333335,-0.18377905333333333,0.7884628533333333,0.4964916702661898,0.8132853642663588,0.8163705230722509,0.8192195152993398
LBP03_S02,LBP03,-1491,160,2,159,-1491,1715719269.36,2024-05-14 20:41:09.360000+00:00,2024-05-15 05:41:09.360000+09:00,2024,5,14,20,41,9,360,,,,,,,,,0.393311,0.080566,1.317627,-68.786621,66.162109,72.631836,,,,,,,,,,,0.0,1.0,1.0,2.0,0.0,0.0,0.0,3.0,0.0,0.08677733333333335,-0.16663412,1.0117220000000002,1.3859049733333335,-5.205891853333332,1.366373653333333,7.638023639128163,7.729907182143746,0.8592237975657525,8.678562521096211,-20.184855806835447,-12.531470187274529,25.293943868639087,-1.08668232143758,25.57577639916219,-1.102444709038439,0.3065336666666667,0.24720012,0.30590499999999987,0.8596387866666666,0.49864682607344996,0.8000819453268386,0.8138695260975085,0.8180074029057474
LBP03_S02,LBP03,-1490,161,2,160,-1490,1715719269.4,2024-05-14 20:41:09.400000+00:00,2024-05-15 05:41:09.400000+09:00,2024,5,14,20,41,9,400,,,,,,,,,-0.41748,-0.626709,1.793701,-115.966797,3.845215,31.494141,,,,,,,,,,,0.0,1.0,1.0,2.0,0.0,0.0,0.0,3.0,0.0,0.09036782666666668,-0.17033854666666667,1.02064128,1.2898763333333338,-1.4721679066666669,2.7937825066666666,6.134965280844143,5.2572627705163,1.8999385533940476,8.923961132329977,-19.974565296014795,-12.455472645138768,25.17457328079058,-1.0789510935705793,25.36027138086356,-1.0945208334719756,-0.5078478266666667,-0.45637045333333326,0.77305972,1.7372779999999999,1.0314091023508603,0.817168929526424,0.8243539961965075,0.8186337226038415
LBP03_S02,LBP03,-1489,162,2,161,-1489,1715719269.44,2024-05-14 20:41:09.440000+00:00,2024-05-15 05:41:09.440000+09:00,2024,5,14,20,41,9,440,,,,,,,,,-0.18042,-0.42627,1.789307,-3.601074,-89.233398,42.114258,,,,,,,,,,,0.0,1.0,1.0,2.0,0.0,0.0,0.0,3.0,0.0,0.08070961333333333,-0.17208008,1.0081543066666665,1.4379883066666672,-0.7714843066666665,2.819010373333333,4.886685034253423,3.261898301035967,3.249475111194239,9.119428533700113,-19.844089363973357,-12.325493640690999,25.077273634774148,-1.1279279036096246,25.169455444407014,-1.0910296759097196,-0.26112961333333334,-0.25418991999999996,0.7811526933333335,1.2964722266666668,0.8619748956269803,0.8040521928399056,0.8291060123544719,0.813026132585322
LBP03_S02,LBP03,-1488,163,2,162,-1488,1715719269.48,2024-05-14 20:41:09.480000+00:00,2024-05-15 05:41:09.480000+09:00,2024,5,14,20,41,9,480,,,,,,,,,0.563965,-0.219727,1.254395,39.489746,59.631348,44.189453,,,,,,,,,,,0.0,1.0,1.0,2.0,0.0,0.0,0.0,3.0,0.0,0.07492185333333334,-0.17092448,0.9934407600000001,2.9093424800000007,-2.5415038399999994,2.165527293333333,3.825062634486478,1.7908696108799282,4.931258964901148,9.272431039079573,-19.77245457953816,-12.128243282094953,24.980436797303348,-1.153349156290193,24.993137433962723,-1.0883965349335043,0.4890431466666667,-0.048802520000000016,0.2609542399999998,0.7987999066666664,0.5564548504901029,0.7997042283099084,0.8157491471937748,0.8097270869679384
LBP03_S02,LBP03,-1487,164,2,163,-1487,1715719269.52,2024-05-14 20:41:09.520000+00:00,2024-05-15 05:41:09.520000+09:00,2024,5,14,20,41,9,520,,,,,,,,,-0.562256,0.317139,-0.3125,139.526367,189.758301,-71.166992,,,,,,,,,,,0.0,1.0,1.0,2.0,0.0,0.0,0.0,3.0,0.0,0.08541665333333334,-0.17298503999999998,0.9841243600000001,3.6442057600000015,-5.034993426666666,1.477864533333333,2.7619539104018616,0.8398962512766236,7.004571379551534,9.382909195495648,-19.738858729487095,-11.848060426912891,24.860371372796205,-1.1075704666807222,24.82302373699041,-1.0916438950007539,-0.6476726533333333,0.49012404,-1.29662436,2.4344210533333333,1.530011820675635,0.8452177876056359,0.8305766466833597,0.8213541719736138
LBP03_S02,LBP03,-1486,165,2,164,-1486,1715719269.56,2024-05-14 20:41:09.560000+00:00,2024-05-15 05:41:09.560000+09:00,2024,5,14,20,41,9,560,,,,,,,,,0.23291,-0.075684,0.295166,36.437988,-175.964355,-59.692383,,,,,,,,,,,0.0,1.0,1.0,2.0,0.0,0.0,0.0,3.0,0.0,0.09328449333333334,-0.15966473333333336,0.97503256,3.811035186666667,-2.3063150399999994,2.4527994399999997,1.6956750694229974,0.407342275330983,9.40158084735107,9.450736198272567,-19.722565038473856,-11.471997193018849,24.69620833210643,-1.0382498408015648,24.65646092408551,-1.0953752189970043,0.13962550666666668,0.08398073333333336,-0.67986656,0.9034728000000001,0.6991184342365473,0.8491864094493241,0.8301929231157277,0.8254941758021774
LBP03_S02,LBP03,-1485,166,2,165,-1485,1715719269.6,2024-05-14 20:41:09.600000+00:00,2024-05-15 05:41:09.600000+09:00,2024,5,14,20,41,9,600,,,,,,,,,0.522705,-0.063965,0.771729,-28.198242,-41.809082,-23.193359,,,,,,,,,,,0.0,1.0,1.0,2.0,0.0,0.0,0.0,3.0,0.0,0.08302408000000001,-0.16238609333333334,0.9776888133333334,2.4137370133333342,-2.0328775466666666,2.7180989199999996,0.9623693984499713,0.4646641519515504,11.794950378026636,9.489230974210566,-19.703978472395793,-11.000199177897784,24.480536229338956,-1.0940981346216674,24.49726233539453,-1.0994675606391167,0.43968092,0.09842109333333335,-0.20595981333333335,0.7440618266666666,0.49540434771333675,0.8199157584914937,0.8193152421076368,0.8234089256978545
LBP03_S02,LBP03,-1484,167,2,166,-1484,1715719269.64,2024-05-14 20:41:09.640000+00:00,2024-05-15 05:41:09.640000+09:00,2024,5,14,20,41,9,640,,,,,,,,,0.390137,0.157715,1.301514,-3.173828,47.790527,72.08252,,,,,,,,,,,0.0,1.0,1.0,2.0,0.0,0.0,0.0,3.0,0.0,0.08988605333333334,-0.16970381333333334,1.0020800933333331,0.3556315333333341,-5.900065053333334,3.803710893333333,1.1042062327874533,0.8814491267496123,13.631139436100495,9.533399223522064,-19.66872050732581,-10.454953600453765,24.229121361246076,-1.0794974092174137,24.35366061824797,-1.098128452536277,0.3002509466666667,0.32741881333333334,0.2994339066666669,0.927103666666667,0.5357372254757923,0.8141280841257558,0.8175094116511077,0.81853181436911
LBP03_S02,LBP03,-1483,168,2,167,-1483,1715719269.68,2024-05-14 20:41:09.680000+00:00,2024-05-15 05:41:09.680000+09:00,2024,5,14,20,41,9,680,,,,,,,,,-0.181641,-0.710938,1.896729,-179.077148,-17.150879,73.486328,,,,,,,,,,,0.0,1.0,1.0,2.0,0.0,0.0,0.0,3.0,0.0,0.09141925333333334,-0.16800458666666665,1.0059993733333334,1.0595703333333342,-1.4819335333333326,4.725748653333333,2.5377687921176695,1.4039251336193137,14.347437109110878,9.63490997520677,-19.612563501981036,-9.88105611608933,23.981647302028353,-1.068399002606445,24.235031765554893,-1.0857721292853961,-0.27306025333333334,-0.5429334133333333,0.8907296266666667,1.7067232933333334,1.0783032324378834,0.8202514351320542,0.8265190843674375,0.821461528296297
LBP03_S02,LBP03,-1482,169,2,168,-1482,1715719269.72,2024-05-14 20:41:09.720000+00:00,2024-05-15 05:41:09.720000+09:00,2024,5,14,20,41,9,720,,,,,,,,,-0.008301,-0.380127,1.7771,22.521973,-51.879883,54.260254,,,,,,,,,,,0.0,1.0,1.0,2.0,0.0,0.0,0.0,3.0,0.0,0.08164386666666668,-0.17012697333333332,0.9944238533333334,1.085612000000001,-1.1499022799999996,4.34407548,5.251626409008076,1.745322049223422,13.647532713554154,9.844975031567094,-19.5427506200121,-9.335154807547163,23.79049706183193,-1.119026861134254,24.149344957949932,-1.0757316989587526,-0.08994486666666668,-0.21000002666666667,0.7826761466666665,1.0826210399999998,0.8153355387818357,0.8112224988579128,0.8304763775323376,0.816911007252804
LBP03_S02,LBP03,-1481,170,2,169,-1481,1715719269.76,2024-05-14 20:41:09.760000+00:00,2024-05-15 05:41:09.760000+09:00,2024,5,14,20,41,9,760,,,,,,,,,0.281982,-0.459473,1.183838,68.17627,152.587891,35.522461,,,,,,,,,,,0.0,1.0,1.0,2.0,0.0,0.0,0.0,3.0,0.0,0.07934569333333333,-0.16906577333333334,0.9812630533333333,1.873372413333334,-3.623860613333333,3.1811523066666667,8.740996567678303,1.7454771567600635,11.656102966703937,10.194614894274226,-19.472931533741697,-8.868910688879005,23.70195798172931,-1.1276057378587017,24.10226621423583,-1.0683778205759664,0.20263630666666668,-0.2904072266666667,0.20257494666666664,0.69561848,0.40796377179442656,0.8047799853193593,0.8141162758280426,0.8129692771695435
LBP03_S02,LBP03,-1480,171,2,170,-1480,1715719269.8,2024-05-14 20:41:09.800000+00:00,2024-05-15 05:41:09.800000+09:00,2024,5,14,20,41,9,800,,,,,,,,,-0.570068,0.13501,-0.311768,89.355469,56.335449,-73.364258,,,,,,,,,,,0.0,1.0,1.0,2.0,0.0,0.0,0.0,3.0,0.0,0.09266274666666667,-0.16927410666666667,0.97393884,3.224283866666667,-5.358886653333333,2.281901013333333,12.218093882994598,1.4865921876875416,8.851638900031869,10.68333864959401,-19.413467846234195,-8.51484513287773,23.738556109324964,-1.0655600125421851,24.09734701399413,-1.0675460449494225,-0.6627307466666666,0.30428410666666666,-1.28570684,2.252721693333333,1.4781214221335386,0.842275616930445,0.8228988290926751,0.8261401489690818
LBP03_S02,LBP03,-1479,172,2,171,-1479,1715719269.84,2024-05-14 20:41:09.840000+00:00,2024-05-15 05:41:09.840000+09:00,2024,5,14,20,41,9,840,,,,,,,,,0.211914,-0.003906,0.085693,61.889648,-101.135254,-58.105469,,,,,,,,,,,0.0,1.0,1.0,2.0,0.0,0.0,0.0,3.0,0.0,0.09890297333333334,-0.15673504,0.9662077199999999,3.3886718933333344,-2.670898373333333,3.12093096,14.946775139893552,1.2611024159778317,5.828274346818932,11.281209655189752,-19.363023749595083,-8.281714159004972,23.89098510784336,-1.0043646711008145,24.135971333879475,-1.066188859176186,0.11301102666666665,0.15282904,-0.8805147199999999,1.1463547866666666,0.9007965251666182,0.8545013042863577,0.8230324828244888,0.8311937750618651
LBP03_S02,LBP03,-1478,173,2,172,-1478,1715719269.88,2024-05-14 20:41:09.880000+00:00,2024-05-15 05:41:09.880000+09:00,2024,5,14,20,41,9,880,,,,,,,,,0.630615,-0.146973,0.871582,-29.47998,-122.497559,-16.906738,,,,,,,,,,,0.0,1.0,1.0,2.0,0.0,0.0,0.0,3.0,0.0,0.09120766666666667,-0.16158854666666667,0.96970056,2.089843760000001,-2.3038736399999995,3.27718096,16.484700982707803,1.3829226268050068,3.0496694180715527,11.940597694498065,-19.307706844522883,-8.15972738228211,24.123568721253758,-1.0529448530237575,24.216343313604987,-1.0665734484415892,0.5394073333333333,0.014615546666666673,-0.09811856000000008,0.6521414400000001,0.5484534048345555,0.8366460917277224,0.8124310402887829,0.8292993955327923
LBP03_S02,LBP03,-1477,174,2,173,-1477,1715719269.92,2024-05-14 20:41:09.920000+00:00,2024-05-15 05:41:09.920000+09:00,2024,5,14,20,41,9,920,,,,,,,,,0.239746,0.279541,1.246094,12.268066,111.694336,48.339844,,,,,,,,,,,0.0,1.0,1.0,2.0,0.0,0.0,0.0,3.0,0.0,0.09692706666666667,-0.16434245333333333,0.9874186666666667,0.9497070400000005,-5.982259053333333,4.077148413333333,16.71522190850607,1.9597389363315738,0.7490719708854963,12.609206570838307,-19.22931728706962,-8.12976450344669,24.38958393565516,-1.0340316828528597,24.332190964051676,-1.0655010966729002,0.14281893333333331,0.44388345333333334,0.25867533333333337,0.84537772,0.5332379355753937,0.821675642148692,0.8109127248686347,0.8227962584230233
LBP03_S02,LBP03,-1476,175,2,174,-1476,1715719269.96,2024-05-14 20:41:09.960000+00:00,2024-05-15 05:41:09.960000+09:00,2024,5,14,20,41,9,960,,,,,,,,,-0.193848,-0.868164,1.970947,-96.313477,-35.583496,54.321289,,,,,,,,,,,0.0,1.0,1.0,2.0,0.0,0.0,0.0,3.0,0.0,0.09880532000000002,-0.16596680000000003,0.9947949733333333,2.3689778666666674,-1.6544595733333327,4.986165346666666,15.720209955737715,2.7878380364797493,-0.9921978705070783,13.238014969067816,-19.11780376561043,-8.169452418266973,24.64701632968948,-1.0299320845361264,24.472722963485914,-1.0562065602212676,-0.29265332,-0.7021972000000001,0.9761520266666667,1.9710025466666667,1.2375781399815946,0.822456850493368,0.8229191616251101,0.8238845319963825
LBP03_S02,LBP03,-1475,176,2,175,-1475,1715719270.0,2024-05-14 20:41:10+00:00,2024-05-15 05:41:10+09:00,2024,5,14,20,41,10,0,20.0,41.0,9.0,40.552505,141.538055,6.569,3.0,15.0,0.055664,-0.382568,1.87915,-25.024414,-86.730957,43.518066,-298.0,54.0,362.0,834.0,0.0,1016.5,19.57,0.034684,-27.007534,4.028906,0.0,1.0,1.0,2.0,0.0,0.0,0.0,4.0,0.0,0.08798826666666666,-0.16652669333333334,0.9860059066666665,2.5838216266666674,-1.6853840533333333,4.418131493333334,13.65069301579634,3.4444226948933374,-2.093926565710954,13.78404268969967,-18.980026857814696,-8.25320948089541,24.866779428192384,-1.0805262768893042,24.624867719623783,-1.0511178993190495,-0.032324266666666664,-0.21604130666666668,0.8931440933333336,1.1415096666666669,0.9194699972582037,0.8287011768914385,0.8288813108127734,0.8134223934044815
LBP03_S02,LBP03,-1474,177,2,176,-1474,1715719270.04,2024-05-14 20:41:10.040000+00:00,2024-05-15 05:41:10.040000+09:00,2024,5,14,20,41,10,40,,,,,,,,,0.073486,-0.171631,0.819092,116.760254,208.862305,5.554199,,,,,,,,,,,0.0,1.0,1.0,2.0,0.0,0.0,0.0,4.0,0.0,0.08628253333333333,-0.1644140666666667,0.9754102,3.2153320400000003,-2.9874673866666663,3.4195963333333332,10.72333659154478,3.5170865466421724,-2.406417850809663,14.21297615336146,-18.839343395949008,-8.349466194927798,25.032841158501185,-1.0833433018714438,24.777305059049713,-1.0509599195693646,-0.012796533333333332,-0.007216933333333314,-0.15631819999999996,0.1763316666666666,0.1570070541196442,0.814975682027239,0.8093654143819726,0.8050741647402974
LBP03_S02,LBP03,-1473,178,2,177,-1473,1715719270.08,2024-05-14 20:41:10.080000+00:00,2024-05-15 05:41:10.080000+09:00,2024,5,14,20,41,10,80,,,,,,,,,-0.574707,0.131348,-0.364258,96.801758,53.100586,-91.85791,,,,,,,,,,,0.0,1.0,1.0,2.0,0.0,0.0,0.0,4.0,0.0,0.09427406666666667,-0.16902670666666667,0.9728223066666667,4.850260426666667,-4.719238213333334,2.1948242,7.332687255384669,2.824863644482008,-1.7945461988656557,14.506283643576847,-18.726348850169728,-8.421248042882425,25.14012380649525,-1.0576754849195538,24.9244220869087,-1.0570523909837264,-0.6689810666666667,0.30037470666666666,-1.3370803066666668,2.30643608,1.5249735664723454,0.8554774992385857,0.8211920170110055,0.8186471486541365
LBP03_S02,LBP03,-1472,179,2,178,-1472,1715719270.12,2024-05-14 20:41:10.120000+00:00,2024-05-15 05:41:10.120000+09:00,2024,5,14,20,41,10,120,,,,,,,,,0.255127,0.087402,0.272461,49.499512,-136.71875,-66.650391,,,,,,,,,,,0.0,1.0,1.0,2.0,0.0,0.0,0.0,4.0,0.0,0.09435218666666666,-0.15703452,0.9644987466666665,3.99495444,-2.3543293599999995,2.4552408666666663,4.1300555322284085,1.4888570389559423,-0.3115723672054533,14.671485864865984,-18.66679456861149,-8.433710937570643,25.195817056174313,-1.0260814966179281,25.068097007041665,-1.0634748545376536,0.16077481333333332,0.24443652,-0.6920377466666665,1.0972490799999999,0.7513414641316928,0.8517536702599082,0.811933926905847,0.8223886854902653
LBP03_S02,LBP03,-1471,180,2,179,-1471,1715719270.16,2024-05-14 20:41:10.160000+00:00,2024-05-15 05:41:10.160000+09:00,2024,5,14,20,41,10,160,,,,,,,,,0.546875,-0.165039,1.098389,-55.664062,-58.71582,-10.070801,,,,,,,,,,,0.0,1.0,1.0,2.0,0.0,0.0,0.0,4.0,0.0,0.08781573333333333,-0.16469077333333335,0.9706413200000001,2.6212565333333333,-2.6302082666666666,2.41292316,1.9071131241446295,-0.1901847498532461,1.6924578625874245,14.74777038983177,-18.67440195860562,-8.366012623067146,25.22340554310799,-1.0767191288365214,25.216368304467068,-1.0723816363359286,0.4590592666666667,-0.0003482266666666456,0.12774767999999992,0.5871551733333332,0.4765028870004163,0.8296935626183464,0.8055941692652047,0.8198972951685437
LBP03_S02,LBP03,-1470,181,2,180,-1470,1715719270.2,2024-05-14 20:41:10.200000+00:00,2024-05-15 05:41:10.200000+09:00,2024,5,14,20,41,10,200,,,,,,,,,0.235107,0.125977,1.419678,-89.660645,65.246582,87.646484,,,,,,,,,,,0.0,1.0,1.0,2.0,0.0,0.0,0.0,4.0,0.0,0.09280922666666666,-0.16884117333333334,0.9900065600000001,1.8123372666666668,-5.956217373333334,3.1119791466666666,1.268984670359309,-1.9474026657456407,3.6472121552350982,14.798529776646141,-18.752298065235447,-8.220124136857741,25.262929503584235,-1.0639802150453355,25.379890365756026,-1.0778727831708699,0.14229777333333335,0.2948181733333334,0.4296714399999999,0.8667873866666667,0.5401703046030035,0.8122797519795019,0.8040284542723067,0.8143935930458647
LBP03_S02,LBP03,-1469,182,2,181,-1469,1715719270.24,2024-05-14 20:41:10.240000+00:00,2024-05-15 05:41:10.240000+09:00,2024,5,14,20,41,10,240,,,,,,,,,-0.327881,-0.851807,1.942383,-114.318848,-61.523438,45.654297,,,,,,,,,,,0.0,1.0,1.0,2.0,0.0,0.0,0.0,4.0,0.0,0.09454425333333333,-0.1725814,0.9981934133333334,2.280273466666667,-1.22070304,4.014485653333333,2.2761901185216504,-3.698356207126655,5.002745341610158,14.889577381387008,-18.90023231352051,-8.020014323193335,25.3621553864332,-1.0652893852444336,25.568353728791855,-1.073133463735467,-0.4224252533333333,-0.6792256,0.9441895866666665,2.04584044,1.237450801413479,0.8030821834211289,0.8194066825386264,0.819872768778795
LBP03_S02,LBP03,-1468,183,2,182,-1468,1715719270.28,2024-05-14 20:41:10.280000+00:00,2024-05-15 05:41:10.280000+09:00,2024,5,14,20,41,10,280,,,,,,,,,0.388916,-0.359131,1.687256,22.644043,-52.734375,42.114258,,,,,,,,,,,0.0,1.0,1.0,2.0,0.0,0.0,0.0,4.0,0.0,0.083916,-0.17416017333333333,0.9853385866666667,3.007812533333334,-0.4435220533333338,3.7003580533333333,4.311273830301984,-5.519729323205481,5.481621694646,15.062028334599088,-19.121021486448733,-7.8007494554074945,25.56031792258344,-1.117169488563029,25.78876126819357,-1.0749394934166339,0.305,-0.18497082666666664,0.7019174133333334,1.19188824,0.7873545972802265,0.8039723926357502,0.8217047333995383,0.823674035981031
