file_name,test_id,_program_index,program_index,session_id,index,_index,unixtime,datetime_utc,datetime_jst,rtc_year,rtc_month,rtc_day,rtc_hour,rtc_min,rtc_sec,rtc_msec,gps_hour,gps_min,gps_sec,latitude,longitude,altitude,fix_type,SIV,acc_x,acc_y,acc_z,gyro_x,gyro_y,gyro_z,mag_x,mag_y,mag_z,illuminance,atmopress,water_pressure,water_temp,depth,alt_wps,battery_level,behavior_class,camera_command,camera_recording,camera_count,play_audio,speaker_on,audio_file,prev_sd_write_time_ms,delay_occurred_counter,acc_x_ma,acc_y_ma,acc_z_ma,gyro_x_ma,gyro_y_ma,gyro_z_ma,gyro_x_lowpass,gyro_y_lowpass,gyro_z_lowpass,angle_x,angle_y,angle_z,combined_angle_change,gravity_adjusted_angle,smoothed_angle_change,smoothed_gravity_angle,acc_x_dy,acc_y_dy,acc_z_dy,ODBA,VeDBA,smoothed_VeDBA_1s,smoothed_VeDBA_2s,smoothed_VeDBA_3s
LBP03_S05,LBP03,0,1,5,0,0,1715748666.0,2024-05-15 04:51:06+00:00,2024-05-15 13:51:06+09:00,2024,5,15,4,51,6,0,4.0,51.0,6.0,40.540947,141.504242,-3.89,3.0,14.0,0.555908,0.17334,1.150146,123.046875,207.946777,-125.061035,-280.0,-7.0,367.0,5540.0,0.0,1018.900024,28.780001,0.058468,-46.906914,3.853125,1.0,1.0,1.0,5.0,0.0,0.0,0.0,4.0,0.0,,,,,,,122.70033559771429,207.6622701712384,-124.77025665400994,4.908013423908572,8.306490806849535,-4.9908102661603975,10.862530663080063,,18.73835640759031,,,,,,,,,
LBP03_S05,LBP03,1,2,5,1,1,1715748666.04,2024-05-15 04:51:06.040000+00:00,2024-05-15 13:51:06.040000+09:00,2024,5,15,4,51,6,40,,,,,,,,,-0.751221,-0.294189,1.436768,-166.137695,29.968262,32.592773,,,,,,,,,,,1.0,1.0,1.0,5.0,0.0,0.0,0.0,4.0,0.0,,,,,,,78.50877258320263,130.93102958451288,-83.67442332700281,8.048364327236676,13.54373199023005,-8.337787199240509,17.82491346253708,,18.929641422102744,,,,,,,,,
LBP03_S05,LBP03,2,3,5,2,2,1715748666.08,2024-05-15 04:51:06.080000+00:00,2024-05-15 13:51:06.080000+09:00,2024,5,15,4,51,6,80,,,,,,,,,0.325195,0.42627,1.271729,-75.073242,-197.20459,15.808105,,,,,,,,,,,1.0,1.0,1.0,5.0,0.0,0.0,0.0,4.0,0.0,,,,,,,39.71923733578082,63.39726932930612,-46.778335318499764,9.63713382066791,16.079622763402295,-10.2089206119805,21.34597565239188,,18.845492863602747,,,,,,,,,
LBP03_S05,LBP03,3,4,5,3,3,1715748666.12,2024-05-15 04:51:06.120000+00:00,2024-05-15 13:51:06.120000+09:00,2024,5,15,4,51,6,120,,,,,,,,,0.179932,-0.959961,1.061035,-220.88623,-77.941895,-59.570312,,,,,,,,,,,1.0,1.0,1.0,5.0,0.0,0.0,0.0,4.0,0.0,,,,,,,10.133127518931557,12.05611637262629,-17.39165344040871,10.04245892142517,16.561867418307347,-10.904586749596847,22.227380541790918,,18.650483984990267,,,,,,,,,
LBP03_S05,LBP03,4,5,5,4,4,1715748666.16,2024-05-15 04:51:06.160000+00:00,2024-05-15 13:51:06.160000+09:00,2024,5,15,4,51,6,160,,,,,,,,,0.357178,-0.561768,1.157471,168.457031,10.192871,15.991211,,,,,,,,,,,1.0,1.0,1.0,5.0,0.0,0.0,0.0,4.0,0.0,,,,,,,-8.837081305719247,-19.761364353803955,2.5761705763658105,9.6889756691964,15.77141284415519,-10.801539926542215,21.430981718151614,,18.46151374705435,,,,,,,,,
LBP03_S05,LBP03,5,6,5,5,5,1715748666.2,2024-05-15 04:51:06.200000+00:00,2024-05-15 13:51:06.200000+09:00,2024,5,15,4,51,6,200,,,,,,,,,0.476562,0.499268,0.747314,192.565918,31.616211,17.39502,,,,,,,,,,,1.0,1.0,1.0,5.0,0.0,0.0,0.0,4.0,0.0,,,,,,,-18.10129196496575,-32.674631039120804,12.81034967171962,8.964923990597772,14.464427602590359,-10.289125939673431,19.886066494664902,,18.3497565496128,,,,,,,,,
LBP03_S05,LBP03,6,7,5,6,6,1715748666.24,2024-05-15 04:51:06.240000+00:00,2024-05-15 13:51:06.240000+09:00,2024,5,15,4,51,6,240,,,,,,,,,0.101318,-0.280518,1.133545,-108.825684,37.597656,-0.793457,,,,,,,,,,,1.0,1.0,1.0,5.0,0.0,0.0,0.0,4.0,0.0,,,,,,,-20.112559393717138,-30.452489558675474,14.431967390140947,8.160421614849087,13.24632802024334,-9.711847244067792,18.340601512602774,,19.095894441765573,,,,,,,,,
LBP03_S05,LBP03,7,8,5,7,7,1715748666.28,2024-05-15 04:51:06.280000+00:00,2024-05-15 13:51:06.280000+09:00,2024,5,15,4,51,6,280,,,,,,,,,0.393555,-0.124268,1.114502,11.047363,27.893066,-0.610352,,,,,,,,,,,1.0,1.0,1.0,5.0,0.0,0.0,0.0,4.0,0.0,,,,,,,-17.85804475205222,-18.58007085298951,9.593927168351929,7.446099824766998,12.503125186123759,-9.328090157333715,17.28542183470289,,19.27974923400628,,,,,,,,,
LBP03_S05,LBP03,8,9,5,8,8,1715748666.32,2024-05-15 04:51:06.320000+00:00,2024-05-15 13:51:06.320000+09:00,2024,5,15,4,51,6,320,,,,,,,,,0.035645,-0.106689,1.008545,-16.052246,50.964355,1.586914,,,,,,,,,,,1.0,1.0,1.0,5.0,0.0,0.0,0.0,4.0,0.0,,,,,,,-14.030389248670591,-2.7463811394988213,0.9586903289788841,6.884884254820174,12.393269940543806,-9.28974254417456,16.94975184356704,,19.257499925193052,,,,,,,,,
LBP03_S05,LBP03,9,10,5,9,9,1715748666.36,2024-05-15 04:51:06.360000+00:00,2024-05-15 13:51:06.360000+09:00,2024,5,15,4,51,6,360,,,,,,,,,0.234619,-0.306396,1.181885,-34.912109,-26.672363,-13.73291,,,,,,,,,,,1.0,1.0,1.0,5.0,0.0,0.0,0.0,4.0,0.0,,,,,,,-10.54714872247616,12.326890422279416,-8.82705271573241,6.462998305921128,12.886345557434984,-9.642824652803856,17.343941772638814,,19.28531006674243,,,,,,,,,
LBP03_S05,LBP03,10,11,5,10,10,1715748666.4,2024-05-15 04:51:06.400000+00:00,2024-05-15 13:51:06.400000+09:00,2024,5,15,4,51,6,400,,,,,,,,,0.178711,-0.135986,1.091797,15.197754,35.03418,-32.653809,,,,,,,,,,,1.0,1.0,1.0,5.0,0.0,0.0,0.0,4.0,0.0,,,,,,,-8.397444322351573,23.52179540037771,-17.570497521098126,6.127100533027066,13.827217373450093,-10.345644553647782,18.32390958460783,,19.510491382447903,,,,,,,,,
LBP03_S05,LBP03,11,12,5,11,11,1715748666.44,2024-05-15 04:51:06.440000+00:00,2024-05-15 13:51:06.440000+09:00,2024,5,15,4,51,6,440,,,,,,,,,0.136475,-0.078613,1.040039,-4.943848,18.005371,-28.198242,,,,,,,,,,,1.0,1.0,1.0,5.0,0.0,0.0,0.0,4.0,0.0,,,,,,,-7.728169659542984,29.440222619106468,-23.823578068633303,5.817973746645346,15.004826278214352,-11.298587676393113,19.663461384944128,,19.98291234730284,,,,,,,,,
LBP03_S05,LBP03,12,13,5,12,12,1715748666.48,2024-05-15 04:51:06.480000+00:00,2024-05-15 13:51:06.480000+09:00,2024,5,15,4,51,6,480,,,,,,,,,0.220947,-0.124512,0.965576,-27.832031,-1.89209,-20.568848,,,,,,,,,,,1.0,1.0,1.0,5.0,0.0,0.0,0.0,4.0,0.0,,,,,,,-8.079175083757178,30.143048963312264,-26.997281077688758,5.494806743295059,16.210548236746842,-12.378478919500663,21.1234825642596,,20.680518733869718,,,,,,,,,
LBP03_S05,LBP03,13,14,5,13,13,1715748666.52,2024-05-15 04:51:06.520000+00:00,2024-05-15 13:51:06.520000+09:00,2024,5,15,4,51,6,520,,,,,,,,,0.233154,-0.281494,1.057617,-48.095703,-3.662109,-30.700684,,,,,,,,,,,1.0,1.0,1.0,5.0,0.0,0.0,0.0,4.0,0.0,,,,,,,-8.68264060345709,26.69776275353927,-27.3009385040304,5.147501119156775,17.27845874688841,-13.47051645966188,22.505481957284687,,21.540403350050642,,,,,,,,,
LBP03_S05,LBP03,14,15,5,14,14,1715748666.56,2024-05-15 04:51:06.560000+00:00,2024-05-15 13:51:06.560000+09:00,2024,5,15,4,51,6,560,,,,,,,,,0.260254,-0.200439,1.116699,26.916504,50.537109,-35.03418,,,,,,,,,,,1.0,1.0,1.0,5.0,0.0,0.0,0.0,4.0,0.0,,,,,,,-8.747584174538162,20.697601637666608,-25.536562886469927,4.797597752175249,18.106362812395076,-14.491978975120677,23.682794875206348,,22.487507646912555,,,,,,,,,
LBP03_S05,LBP03,15,16,5,15,15,1715748666.6,2024-05-15 04:51:06.600000+00:00,2024-05-15 13:51:06.600000+09:00,2024,5,15,4,51,6,600,,,,,,,,,0.136719,-0.033203,0.990723,3.356934,22.827148,-18.310547,,,,,,,,,,,1.0,1.0,1.0,5.0,0.0,0.0,0.0,4.0,0.0,,,,,,,-7.6705980251907855,13.855413467681469,-22.79906863060006,4.490773831167617,18.660579351102335,-15.40394172034468,24.610276143214286,,23.456018635117005,,,,,,,,,
LBP03_S05,LBP03,16,17,5,16,16,1715748666.64,2024-05-15 04:51:06.640000+00:00,2024-05-15 13:51:06.640000+09:00,2024,5,15,4,51,6,640,,,,,,,,,0.160645,-0.280518,1.08374,-31.433105,-8.361816,-8.300781,,,,,,,,,,,1.0,1.0,1.0,5.0,0.0,0.0,0.0,4.0,0.0,,,,,,,-5.149973872735601,7.706931402183473,-20.145773076628455,4.284774876258194,18.968856607189675,-16.209772643409817,25.316665378271566,,24.401734646527036,,,,,,,,,
LBP03_S05,LBP03,17,18,5,17,17,1715748666.68,2024-05-15 04:51:06.680000+00:00,2024-05-15 13:51:06.680000+09:00,2024,5,15,4,51,6,680,,,,,,,,,0.159424,-0.0896,0.920654,8.666992,16.479492,2.502441,,,,,,,,,,,1.0,1.0,1.0,5.0,0.0,0.0,0.0,4.0,0.0,,,,,,,-1.209032664438669,3.413212211131555,-18.306441003986375,4.236413569680647,19.105385095634936,-16.942030283569274,25.884267996512133,,25.30566104207658,,,,,,,,,
LBP03_S05,LBP03,18,19,5,18,18,1715748666.72,2024-05-15 04:51:06.720000+00:00,2024-05-15 13:51:06.720000+09:00,2024,5,15,4,51,6,720,,,,,,,,,0.19873,-0.379883,1.017334,-79.650879,-13.122559,1.037598,,,,,,,,,,,1.0,1.0,1.0,5.0,0.0,0.0,0.0,4.0,0.0,,,,,,,3.859089810147505,1.6435614917855954,-17.504329236951214,4.390777162086548,19.17112755530636,-17.642203453047323,26.42079481218615,,26.1704758247002,,,,,,,,,
LBP03_S05,LBP03,19,20,5,19,19,1715748666.76,2024-05-15 04:51:06.760000+00:00,2024-05-15 13:51:06.760000+09:00,2024,5,15,4,51,6,760,,,,,,,,,0.349854,-0.348633,1.050049,130.737305,6.958008,-23.986816,,,,,,,,,,,1.0,1.0,1.0,5.0,0.0,0.0,0.0,4.0,0.0,,,,,,,9.608568882813103,2.530346746222493,-17.437497527581847,4.7751199173990715,19.272341425155258,-18.339703354150597,27.029051654683325,,27.01254391753764,,,,,,,,,
LBP03_S05,LBP03,20,21,5,20,20,1715748666.8,2024-05-15 04:51:06.800000+00:00,2024-05-15 13:51:06.800000+09:00,2024,5,15,4,51,6,800,,,,,,,,,-0.016846,0.054688,0.931641,32.592773,25.32959,-28.686523,,,,,,,,,,,1.0,1.0,1.0,5.0,0.0,0.0,0.0,4.0,0.0,,,,,,,15.57764861933457,5.69298294735074,-17.424046294598796,5.398225862172454,19.500060743049286,-19.03666520593455,27.781069698708123,,27.852301907434338,,,,,,,,,
LBP03_S05,LBP03,21,22,5,21,21,1715748666.84,2024-05-15 04:51:06.840000+00:00,2024-05-15 13:51:06.840000+09:00,2024,5,15,4,51,6,840,,,,,,,,,0.434814,-0.283691,1.251709,6.103516,-22.033691,-33.447266,,,,,,,,,,,1.0,1.0,1.0,5.0,0.0,0.0,0.0,4.0,0.0,,,,,,,21.376498409872955,10.326413945169712,-16.659898203128858,6.253285798567372,19.913117300856076,-19.703061134059705,28.702725340439574,,28.70528803661535,,,,,,,,,
LBP03_S05,LBP03,22,23,5,22,22,1715748666.88,2024-05-15 04:51:06.880000+00:00,2024-05-15 13:51:06.880000+09:00,2024,5,15,4,51,6,880,,,,,,,,,0.191162,-0.334961,1.024414,-38.085938,6.774902,-28.076172,,,,,,,,,,,1.0,1.0,1.0,5.0,0.0,0.0,0.0,4.0,0.0,,,,,,,26.67969621207694,15.347148339590749,-14.500129995421068,7.32047364705045,20.527003234439707,-20.283066333876548,29.771630390495822,,29.57548286508092,,,,,,,,,
LBP03_S05,LBP03,23,24,5,23,23,1715748666.92,2024-05-15 04:51:06.920000+00:00,2024-05-15 13:51:06.920000+09:00,2024,5,15,4,51,6,920,,,,,,,,,0.345215,-0.070801,1.028076,50.842285,43.212891,-8.605957,,,,,,,,,,,1.0,1.0,1.0,5.0,0.0,0.0,0.0,4.0,0.0,,,,,,,31.150649599827013,19.587602789523977,-10.673831486781008,8.56649963104353,21.310507346020668,-20.710019593347788,30.92616288565911,,30.45215967136223,,,,,,,,,
LBP03_S05,LBP03,24,25,5,24,24,1715748666.96,2024-05-15 04:51:06.960000+00:00,2024-05-15 13:51:06.960000+09:00,2024,5,15,4,51,6,960,,,,,,,,,0.143066,-0.543701,1.165527,-6.408691,12.939453,-7.446289,,,,,,,,,,,1.0,1.0,1.0,5.0,0.0,0.0,0.0,4.0,0.0,,,,,,,34.384510085505966,22.018650369924348,-5.37577438684696,9.94188003446377,22.19125336081764,-20.925050568821668,32.080374774173286,,31.31093031031803,,,,,,,,,
LBP03_S05,LBP03,25,26,5,25,25,1715748667.0,2024-05-15 04:51:07+00:00,2024-05-15 13:51:07+09:00,2024,5,15,4,51,7,0,4.0,51.0,7.0,40.540928,141.504303,-3.942,3.0,14.0,0.225098,-0.12085,0.993164,92.285156,49.255371,11.901855,-283.0,7.0,367.0,6426.0,0.0,1019.299988,28.780001,0.062432,-50.219452,3.853125,1.0,1.0,1.0,5.0,0.0,0.0,0.0,5.0,0.0,,,,,,,35.94237918145859,21.961185552718018,0.7740822428878759,11.379575201722114,23.06970078292636,-20.894087279106152,33.14013743502443,,32.11889192417489,,,,,,,,,
LBP03_S05,LBP03,26,27,5,26,26,1715748667.04,2024-05-15 04:51:07.040000+00:00,2024-05-15 13:51:07.040000+09:00,2024,5,15,4,51,7,40,,,,,,,,,0.134766,-0.178223,0.92749,15.319824,7.019043,15.50293,,,,,,,,,,,1.0,1.0,1.0,5.0,0.0,0.0,0.0,5.0,0.0,,,,,,,35.48093359130878,19.236811907724213,6.8728593491736145,12.798812545374465,23.83917325923533,-20.61917290513921,34.01861366292728,,32.84271605536848,,,,,,,,,
LBP03_S05,LBP03,27,28,5,27,27,1715748667.08,2024-05-15 04:51:07.080000+00:00,2024-05-15 13:51:07.080000+09:00,2024,5,15,4,51,7,80,,,,,,,,,0.187012,-0.372559,0.873779,25.634766,11.108398,0.366211,,,,,,,,,,,1.0,1.0,1.0,5.0,0.0,0.0,0.0,5.0,0.0,,,,,,,32.919377464919314,14.218790904959306,11.930859376872313,14.115587643971239,24.407924895433702,-20.141938530064316,34.6510360593252,,33.45745932747043,,,,,,,,,
LBP03_S05,LBP03,28,29,5,28,28,1715748667.12,2024-05-15 04:51:07.120000+00:00,2024-05-15 13:51:07.120000+09:00,2024,5,15,4,51,7,120,,,,,,,,,0.274414,0.152588,1.005371,85.571289,20.141602,3.295898,,,,,,,,,,,1.0,1.0,1.0,5.0,0.0,0.0,0.0,5.0,0.0,,,,,,,28.56519387794737,7.770493759117169,15.077447804201357,15.258195399089134,24.718744645798388,-19.538840617896263,35.00850120174419,,33.95336880786691,,,,,,,,,
LBP03_S05,LBP03,29,30,5,29,29,1715748667.16,2024-05-15 04:51:07.160000+00:00,2024-05-15 13:51:07.160000+09:00,2024,5,15,4,51,7,160,,,,,,,,,0.087646,-0.601562,1.134521,-18.859863,-10.070801,34.240723,,,,,,,,,,,1.0,1.0,1.0,5.0,0.0,0.0,0.0,5.0,0.0,,,,,,,23.134495709617514,1.0827599602056985,15.745489202725432,16.183575227473835,24.762055044206615,-18.909021049787246,35.108667793251854,,34.33850375232895,,,,,,,,,
LBP03_S05,LBP03,30,31,5,30,30,1715748667.2,2024-05-15 04:51:07.200000+00:00,2024-05-15 13:51:07.200000+09:00,2024,5,15,4,51,7,200,,,,,,,,,0.096924,0.092529,1.010498,124.633789,32.409668,16.052246,,,,,,,,,,,1.0,1.0,1.0,5.0,0.0,0.0,0.0,5.0,0.0,,,,,,,17.634011007115696,-4.56484638304248,13.809627539764142,16.888935667758464,24.579461188884917,-18.35663594819668,35.019311010643975,,34.63654290309586,,,,,,,,,
LBP03_S05,LBP03,31,32,5,31,31,1715748667.24,2024-05-15 04:51:07.240000+00:00,2024-05-15 13:51:07.240000+09:00,2024,5,15,4,51,7,240,,,,,,,,,0.023438,-0.174561,1.001221,-88.867188,-16.906738,14.038086,,,,,,,,,,,1.0,1.0,1.0,5.0,0.0,0.0,0.0,5.0,0.0,,,,,,,13.117114870573356,-8.084810951609176,9.650891293665863,17.413620262581397,24.25606875082055,-17.970600296450044,34.85015806145919,,34.88093880056745,,,,,,,,,
LBP03_S05,LBP03,32,33,5,32,32,1715748667.28,2024-05-15 04:51:07.280000+00:00,2024-05-15 13:51:07.280000+09:00,2024,5,15,4,51,7,280,,,,,,,,,0.14917,-0.27124,0.985596,-57.006836,-47.180176,23.254395,,,,,,,,,,,1.0,1.0,1.0,5.0,0.0,0.0,0.0,5.0,0.0,,,,,,,10.386550865880512,-8.854145556137675,4.120274371261229,17.829082297216615,23.901902928575044,-17.805789321599594,34.73072519446056,,35.107640734050115,,,,,,,,,
LBP03_S05,LBP03,33,34,5,33,33,1715748667.32,2024-05-15 04:51:07.320000+00:00,2024-05-15 13:51:07.320000+09:00,2024,5,15,4,51,7,320,,,,,,,,,0.22998,-0.357666,1.017578,20.690918,-46.447754,2.502441,,,,,,,,,,,1.0,1.0,1.0,5.0,0.0,0.0,0.0,5.0,0.0,,,,,,,9.764685854913578,-6.904970302369557,-1.611005424482477,18.21966973141316,23.62570411648026,-17.870229538578894,34.7775123302795,,35.34846980137286,-0.8464518949829639,,,,,,,,
LBP03_S05,LBP03,34,35,5,34,34,1715748667.36,2024-05-15 04:51:07.360000+00:00,2024-05-15 13:51:07.360000+09:00,2024,5,15,4,51,7,360,,,,,,,,,0.255859,-0.179443,0.947266,58.71582,-1.525879,-23.55957,,,,,,,,,,,1.0,1.0,1.0,5.0,0.0,0.0,0.0,5.0,0.0,,,,,,,11.036899824345758,-2.9522236799488333,-6.297101704377864,18.66114572438699,23.507615169282307,-18.12211360675401,35.060766281842405,,35.62624015428166,-0.8516501348684119,,,,,,,,
LBP03_S05,LBP03,35,36,5,35,35,1715748667.4,2024-05-15 04:51:07.400000+00:00,2024-05-15 13:51:07.400000+09:00,2024,5,15,4,51,7,400,,,,,,,,,0.221191,0.046387,0.891357,65.429688,26.733398,-16.113281,,,,,,,,,,,1.0,1.0,1.0,5.0,0.0,0.0,0.0,5.0,0.0,,,,,,,13.580998231659049,1.7850710486265438,-8.905896211941222,19.204385653653354,23.57901801122737,-18.47834945523166,35.58409640974028,,35.95164321251826,-0.8143152363427383,,,,,,,,
LBP03_S05,LBP03,36,37,5,36,36,1715748667.44,2024-05-15 04:51:07.440000+00:00,2024-05-15 13:51:07.440000+09:00,2024,5,15,4,51,7,440,,,,,,,,,0.257324,-0.30249,0.929688,-60.119629,7.507324,-25.756836,,,,,,,,,,,1.0,1.0,1.0,5.0,0.0,0.0,0.0,5.0,0.0,,,,,,,16.59303952579521,5.93338456857139,-8.869515195794841,19.868107234685162,23.816353393970225,-18.83313006306345,36.28563299775395,,36.321365717118034,-0.8153571751025875,,,,,,,,
LBP03_S05,LBP03,37,38,5,37,37,1715748667.48,2024-05-15 04:51:07.480000+00:00,2024-05-15 13:51:07.480000+09:00,2024,5,15,4,51,7,480,,,,,,,,,0.211914,-0.449463,1.050049,76.599121,31.433105,-43.762207,,,,,,,,,,,1.0,1.0,1.0,5.0,0.0,0.0,0.0,5.0,0.0,0.16317054666666667,-0.18512045333333332,0.9878320133333334,3.025716146666666,6.6194660800000005,-1.28417972,19.291916047289444,8.372776305611191,-6.213049733023805,20.63978387657674,24.151264446194673,-19.081652052384403,37.05932673255263,-0.8464518949829639,36.71713165924091,-0.8179329649315676,0.048743453333333325,-0.2643425466666667,0.06221698666666664,0.3753029866666666,0.27590552667708174,0.27590552667708174,0.27590552667708174,0.27590552667708174
LBP03_S05,LBP03,38,39,5,38,38,1715748667.52,2024-05-15 04:51:07.520000+00:00,2024-05-15 13:51:07.520000+09:00,2024,5,15,4,51,7,520,,,,,,,,,0.114258,0.237549,0.873047,60.36377,51.879883,3.295898,,,,,,,,,,,1.0,1.0,1.0,5.0,0.0,0.0,0.0,5.0,0.0,0.15247718666666665,-0.17669597333333334,0.98121092,7.263183599999999,3.582356706666667,0.8341471066666667,21.03426309424464,8.561857430753236,-1.5073090462873682,21.481154400346526,24.493738743424803,-19.141944414235898,37.786204730832296,-0.8568483747538599,37.10611562206894,-0.8185972920904088,-0.038219186666666655,0.4142449733333333,-0.10816391999999997,0.56062808,0.42983605915646717,0.3528707929167745,0.3528707929167745,0.3528707929167745
LBP03_S05,LBP03,39,40,5,39,39,1715748667.56,2024-05-15 04:51:07.560000+00:00,2024-05-15 13:51:07.560000+09:00,2024,5,15,4,51,7,560,,,,,,,,,0.086914,-0.302002,1.13501,-67.932129,7.873535,33.081055,,,,,,,,,,,1.0,1.0,1.0,5.0,0.0,0.0,0.0,5.0,0.0,0.17561846666666667,-0.15979818666666668,0.9644075333333334,3.8802083333333326,0.9016926399999999,2.701822893333333,21.33734416012347,6.666025841381378,4.349475484256704,22.334648166751464,24.760379777080058,-18.96796539486563,38.36269837561781,-0.7396454392913907,37.44379402444389,-0.822304013237812,-0.08870446666666666,-0.14220381333333332,0.17060246666666667,0.40151074666666664,0.23915603393163717,0.31496587325506203,0.31496587325506203,0.31496587325506203
LBP03_S05,LBP03,40,41,5,40,40,1715748667.6,2024-05-15 04:51:07.600000+00:00,2024-05-15 13:51:07.600000+09:00,2024,5,15,4,51,7,600,,,,,,,,,0.091797,-0.093018,1.004639,20.874023,-2.380371,41.442871,,,,,,,,,,,1.0,1.0,1.0,5.0,0.0,0.0,0.0,5.0,0.0,0.1740917733333333,-0.18643556000000003,0.97017576,-0.2596028666666674,5.692545506666667,2.4169921733333326,19.854513390628753,3.4452724971198956,10.445733202946835,23.128828702376612,24.89819067696485,-18.550136066747758,38.71653605664169,-0.8184829913821358,37.68003860852189,-0.822980798346026,-0.08229477333333331,0.09341756000000002,0.034463240000000006,0.21017557333333334,0.12917811403498625,0.2685189334500431,0.2685189334500431,0.2685189334500431
LBP03_S05,LBP03,41,42,5,41,41,1715748667.64,2024-05-15 04:51:07.640000+00:00,2024-05-15 13:51:07.640000+09:00,2024,5,15,4,51,7,640,,,,,,,,,0.237793,-0.349365,1.116455,-17.63916,-58.166504,31.066895,,,,,,,,,,,1.0,1.0,1.0,5.0,0.0,0.0,0.0,5.0,0.0,0.17256182666666667,-0.18857422666666665,0.9724837066666667,6.4322916533333325,9.221191346666668,3.15022784,16.371215517216708,-0.05284833389560088,16.142553988013987,23.78367732306528,24.89607674360903,-17.904433907227197,38.80781748268804,-0.8282361242474879,37.76799543986092,-0.8244077515005414,0.06523117333333334,-0.16079077333333333,0.14397129333333325,0.3699932399999999,0.2254695368950037,0.2599090541390352,0.2599090541390352,0.2599090541390352
LBP03_S05,LBP03,42,43,5,42,42,1715748667.68,2024-05-15 04:51:07.680000+00:00,2024-05-15 13:51:07.680000+09:00,2024,5,15,4,51,7,680,,,,,,,,,0.145508,-0.027588,1.037598,74.890137,19.226074,39.794922,,,,,,,,,,,1.0,1.0,1.0,5.0,0.0,0.0,0.0,5.0,0.0,0.15993812,-0.17245117333333332,0.9533365733333333,9.891764306666667,12.408040306666669,4.115397106666666,10.872450457792382,-2.873368717449715,21.213411969561932,24.218575341376976,24.781141994911042,-17.05589742844472,38.620564822740796,-0.8219189278846146,37.67380933641658,-0.8289912698539015,-0.01443011999999999,0.14486317333333332,0.0842614266666667,0.24355472,0.16820688266334355,0.2446253588930866,0.2446253588930866,0.2446253588930866
LBP03_S05,LBP03,43,44,5,43,43,1715748667.72,2024-05-15 04:51:07.720000+00:00,2024-05-15 13:51:07.720000+09:00,2024,5,15,4,51,7,720,,,,,,,,,0.132812,-0.324219,0.978516,-29.541016,-54.6875,5.187988,,,,,,,,,,,1.0,1.0,1.0,5.0,0.0,0.0,0.0,5.0,0.0,0.15784177333333335,-0.17836264,0.9565885333333334,4.516601546666666,7.77425124,1.9222004799999999,3.6680366129526485,-4.45964686869537,25.783037939178275,24.36529680589508,24.602756120163228,-16.024575910877587,38.15429635402897,-0.8445443401222318,37.38459536274058,-0.8310319295959465,-0.02502977333333334,-0.14585636,0.021927466666666673,0.1928136,0.1496040811608608,0.23105089064562576,0.23105089064562576,0.23105089064562576
LBP03_S05,LBP03,44,45,5,44,44,1715748667.76,2024-05-15 04:51:07.760000+00:00,2024-05-15 13:51:07.760000+09:00,2024,5,15,4,51,7,760,,,,,,,,,0.250244,0.010254,1.06665,109.924316,15.50293,15.686035,,,,,,,,,,,1.0,1.0,1.0,5.0,0.0,0.0,0.0,5.0,0.0,0.16361977333333336,-0.17857422666666667,0.9550911333333333,6.057942693333333,10.096028586666666,3.868001266666667,-4.508028693525996,-4.7741551505415645,30.101011393402562,24.18497565815404,24.411789914141565,-14.820535455141485,37.42321212262242,-0.8277182941035237,36.91265307111371,-0.8299011281597787,0.08662422666666666,0.18882822666666665,0.11155886666666681,0.38701132000000016,0.23580762617783851,0.23164548258715237,0.23164548258715237,0.23164548258715237
LBP03_S05,LBP03,45,46,5,45,45,1715748667.8,2024-05-15 04:51:07.800000+00:00,2024-05-15 13:51:07.800000+09:00,2024,5,15,4,51,7,800,,,,,,,,,0.127197,-0.096436,0.931396,-73.852539,-18.676758,-8.422852,,,,,,,,,,,1.0,1.0,1.0,5.0,0.0,0.0,0.0,5.0,0.0,0.15790362666666666,-0.17523112,0.9505208266666667,5.975748679999999,12.525227813333334,6.04410804,-12.525604385557012,-4.199547222529765,34.25914882180265,23.68395148273176,24.243808025240373,-13.450169502269379,36.4636647231306,-0.8358233767366645,36.29534973677859,-0.8641638608505018,-0.030706626666666653,0.07879512,-0.019124826666666705,0.12862657333333335,0.08670251929494603,0.21554070888801832,0.21554070888801832,0.21554070888801832
LBP03_S05,LBP03,46,47,5,46,46,1715748667.84,2024-05-15 04:51:07.840000+00:00,2024-05-15 13:51:07.840000+09:00,2024,5,15,4,51,7,840,,,,,,,,,0.313477,-0.020996,0.939209,-40.100098,8.789062,20.751953,,,,,,,,,,,1.0,1.0,1.0,5.0,0.0,0.0,0.0,5.0,0.0,0.14657874666666668,-0.17470053333333332,0.9366861866666667,7.138671853333332,16.37776688,6.872558559999999,-19.063141257183318,-3.2639256147218614,37.98676051030387,22.921425832444427,24.1132510006515,-11.930699081857224,35.343771963310594,-0.8702429350341419,35.591546439649505,-0.8921233175123856,0.16689825333333333,0.15370453333333334,0.0025228133333332625,0.3231255999999999,0.22690631353060703,0.2166772693522772,0.2166772693522772,0.2166772693522772
LBP03_S05,LBP03,47,48,5,47,47,1715748667.88,2024-05-15 04:51:07.880000+00:00,2024-05-15 13:51:07.880000+09:00,2024,5,15,4,51,7,880,,,,,,,,,0.224609,-0.15332,1.14502,-14.648438,23.376465,50.109863,,,,,,,,,,,1.0,1.0,1.0,5.0,0.0,0.0,0.0,5.0,0.0,0.14364906666666669,-0.16997722666666668,0.92955728,7.0564778399999994,13.069661413333334,6.459147093333335,-22.948556880311695,-2.2927572959746048,40.623147923233084,22.00348355723196,24.021540708812513,-10.305773164927901,34.16718699579265,-0.8668584924034145,34.87621934256409,-0.9230146656137819,0.08095993333333332,0.016657226666666664,0.21546271999999989,0.31307987999999987,0.23077295707114567,0.21795869550853794,0.21795869550853794,0.21795869550853794
LBP03_S05,LBP03,48,49,5,48,48,1715748667.92,2024-05-15 04:51:07.920000+00:00,2024-05-15 13:51:07.920000+09:00,2024,5,15,4,51,7,920,,,,,,,,,0.188232,-0.023438,1.077637,-40.771484,26.916504,76.599121,,,,,,,,,,,1.0,1.0,1.0,5.0,0.0,0.0,0.0,5.0,0.0,0.13750649333333334,-0.15557618666666664,0.9460644399999999,8.894042946666666,15.910644479999998,10.274251266666667,-23.52584718376711,-1.1179355738578716,41.28638121858198,21.062449669881275,23.9768232858582,-8.654317916184622,33.06678181456351,-0.8455403603921816,34.23480944498541,-0.956417470102236,0.05072550666666667,0.13213818666666666,0.13157256000000006,0.31443625333333336,0.19324832715213475,0.21589949814550435,0.21589949814550435,0.21589949814550435
LBP03_S05,LBP03,49,50,5,49,49,1715748667.96,2024-05-15 04:51:07.960000+00:00,2024-05-15 13:51:07.960000+09:00,2024,5,15,4,51,7,960,,,,,,,,,0.209717,-0.01709,1.123535,8.728027,16.296387,50.537109,,,,,,,,,,,1.0,1.0,1.0,5.0,0.0,0.0,0.0,5.0,0.0,0.09097002666666668,-0.17313804,0.9617317600000002,0.45166013333333166,11.183268173333333,6.870930946666667,-20.92551791084463,1.0343461125644473,39.17025584879902,20.22542895344749,24.018197130360775,-7.087507682232661,32.18966503226664,-1.082272766198622,33.757989893321714,-0.9890252699688308,0.11874697333333331,0.15604804,0.1618032399999998,0.43659825333333313,0.2542284856938075,0.21884788180306616,0.21884788180306616,0.21884788180306616
LBP03_S05,LBP03,50,51,5,50,50,1715748668.0,2024-05-15 04:51:08+00:00,2024-05-15 13:51:08+09:00,2024,5,15,4,51,8,0,4.0,51.0,8.0,40.540909,141.504349,-3.574,3.0,14.0,0.158447,-0.219727,1.026611,-130.126953,0.854492,24.169922,-280.0,-3.0,362.0,5106.0,0.0,1019.299988,28.83,0.062432,-50.219452,3.853125,1.0,1.0,1.0,5.0,0.0,0.0,0.0,4.0,0.0,0.09867836,-0.19584311999999998,0.9700716,2.735188773333332,10.11311844,8.196614546666666,-16.150902372401724,5.403613456363491,33.853255972094125,19.579392858551422,24.234341668615315,-5.733377443348896,31.678503085350812,-1.0980775580009743,33.53625918706325,-1.024027636457062,0.05976864,-0.023883880000000024,0.056539399999999906,0.14019191999999991,0.08567049552596268,0.2093352113547016,0.2093352113547016,0.2093352113547016
LBP03_S05,LBP03,51,52,5,51,51,1715748668.04,2024-05-15 04:51:08.040000+00:00,2024-05-15 13:51:08.040000+09:00,2024,5,15,4,51,8,40,,,,,,,,,0.210938,-0.227783,1.016602,84.655762,22.033691,23.376465,,,,,,,,,,,1.0,1.0,1.0,5.0,0.0,0.0,0.0,4.0,0.0,0.08836586666666668,-0.19382164000000002,0.967666,6.033528613333332,9.868164013333331,7.731933560000001,-10.937452365627626,13.308073759204262,25.514384290164713,19.141894763926317,24.766664618983484,-4.712802071742308,31.654546511833914,-1.1371496052614498,33.652563109589245,-1.0598009467241365,0.1225721333333333,-0.033961359999999996,0.04893599999999998,0.20546949333333328,0.13627924984726777,0.20446481392087268,0.20446481392087268,0.20446481392087268
LBP03_S05,LBP03,52,53,5,52,52,1715748668.08,2024-05-15 04:51:08.080000+00:00,2024-05-15 13:51:08.080000+09:00,2024,5,15,4,51,8,80,,,,,,,,,0.123047,0.121338,0.740234,-34.057617,20.080566,32.958984,,,,,,,,,,,1.0,1.0,1.0,5.0,0.0,0.0,0.0,4.0,0.0,0.08363278666666667,-0.19293622666666665,0.96449868,5.880533826666665,8.388671826666666,7.806803360000001,-7.389312255786732,25.599306985783024,14.99852109237914,18.84632227369485,25.790636898414803,-4.112861228047143,32.20646584695401,-1.1559469727691556,34.17107167149989,-1.0933240584516333,0.03941421333333334,0.31427422666666666,-0.2242646800000001,0.5779531200000001,0.3880933089543278,0.21594159486046363,0.21594159486046363,0.21594159486046363
LBP03_S05,LBP03,53,54,5,53,53,1715748668.12,2024-05-15 04:51:08.120000+00:00,2024-05-15 13:51:08.120000+09:00,2024,5,15,4,51,8,120,,,,,,,,,0.168701,-0.143799,0.883301,-52.91748,14.770508,20.629883,,,,,,,,,,,1.0,1.0,1.0,5.0,0.0,0.0,0.0,4.0,0.0,0.08018226666666668,-0.19264,0.9639225066666668,5.454101533333333,7.615559853333332,7.793782533333333,-7.451354439315239,42.11087601468017,3.7196206995812746,18.54826809612224,27.47507193900201,-3.9640764000638917,33.38610083739198,-1.1706223387881802,35.12220497976275,-1.130527120322989,0.08851873333333331,0.048840999999999996,-0.08062150666666679,0.21798124000000008,0.12930907458156665,0.21084556425582265,0.21084556425582265,0.21084556425582265
LBP03_S05,LBP03,54,55,5,54,54,1715748668.16,2024-05-15 04:51:08.160000+00:00,2024-05-15 13:51:08.160000+09:00,2024,5,15,4,51,8,160,,,,,,,,,0.079834,-0.434326,0.91626,-26.428223,0.793457,-7.8125,,,,,,,,,,,1.0,1.0,1.0,5.0,0.0,0.0,0.0,4.0,0.0,0.07709957333333332,-0.18889650666666666,0.9614387866666666,5.171712199999999,7.6725259999999995,7.745768213333332,-12.322574396383429,61.283143679739325,-6.5811746138944685,18.055365120266902,29.926397686191585,-4.2273233846196705,35.205905060037814,-1.1777419589858351,36.48730949168329,-1.171516871287057,0.0027344266666666783,-0.24542949333333333,-0.04517878666666664,0.2933427066666666,0.24956809902654678,0.21299681618752953,0.21299681618752953,0.21299681618752953
LBP03_S05,LBP03,55,56,5,55,55,1715748668.2,2024-05-15 04:51:08.200000+00:00,2024-05-15 13:51:08.200000+09:00,2024,5,15,4,51,8,200,,,,,,,,,0.131592,0.056396,0.847168,124.755859,43.945312,-45.654297,,,,,,,,,,,1.0,1.0,1.0,5.0,0.0,0.0,0.0,4.0,0.0,0.07350256000000001,-0.1884896,0.96197916,4.786783813333332,7.770182253333334,7.898763013333334,-21.94928853864609,80.13598155667395,-14.179806541179767,17.17739357872106,33.13183694845854,-4.794515646266861,37.626703948390535,-1.193556479407409,38.18869464238638,-1.1930780027146979,0.05808943999999998,0.2448856,-0.11481116000000002,0.4177862,0.27663142010158426,0.21634600586721664,0.21634600586721664,0.21634600586721664
LBP03_S05,LBP03,56,57,5,56,56,1715748668.24,2024-05-15 04:51:08.240000+00:00,2024-05-15 13:51:08.240000+09:00,2024,5,15,4,51,8,240,,,,,,,,,0.340088,0.077148,1.163818,-5.67627,38.513184,-24.169922,,,,,,,,,,,1.0,1.0,1.0,5.0,0.0,0.0,0.0,4.0,0.0,0.06897457333333334,-0.18310222666666667,0.9610937466666667,5.3124999599999985,8.368326786666666,8.164062493333333,-34.75968183582209,94.69598113864778,-17.742156403583316,15.787006305288175,36.91967619400445,-5.504201902410194,40.52885758241705,-1.2054740523091099,40.090241514295656,-1.216197703141542,0.27111342666666666,0.26025022666666664,0.20272425333333333,0.7340879066666666,0.4270009291424914,0.22687875203098037,0.22687875203098037,0.22687875203098037
LBP03_S05,LBP03,57,58,5,57,57,1715748668.28,2024-05-15 04:51:08.280000+00:00,2024-05-15 13:51:08.280000+09:00,2024,5,15,4,51,8,280,,,,,,,,,0.401611,-0.360352,1.469482,-158.752441,155.456543,-18.371582,,,,,,,,,,,1.0,1.0,1.0,5.0,0.0,0.0,0.0,4.0,0.0,0.06091141333333334,-0.17943359999999997,0.9593815066666668,3.1697590666666655,8.802083293333334,9.19270832,-47.79071433002916,100.85643299811626,-16.63165926083952,13.875377732087008,40.9539335139291,-6.169468272843774,43.678520078421236,-1.2388891111169722,42.010804255152046,-1.2401231604726122,0.34069958666666667,-0.18091840000000003,0.5101004933333332,1.0317184799999999,0.6395390442438267,0.246529242136354,0.246529242136354,0.246529242136354
LBP03_S05,LBP03,58,59,5,58,58,1715748668.32,2024-05-15 04:51:08.320000+00:00,2024-05-15 13:51:08.320000+09:00,2024,5,15,4,51,8,320,,,,,,,,,0.400391,-0.262451,1.572754,117.126465,159.729004,-30.212402,,,,,,,,,,,1.0,1.0,1.0,5.0,0.0,0.0,0.0,4.0,0.0,0.05854488,-0.18230470666666668,0.9623307200000001,2.1223957866666656,8.7687174,10.10009764,-57.26986930531023,95.4792349473793,-11.06991492043536,11.584582959874599,44.773102911824274,-6.612264869661189,46.71782693376887,-1.2554378700328614,43.74874948266743,-1.2648682205903747,0.34184612,-0.08014629333333331,0.6104232799999999,1.0324156933333333,0.7042008086193067,0.2673324951583064,0.2673324951583064,0.2673324951583064
LBP03_S05,LBP03,59,60,5,59,59,1715748668.36,2024-05-15 04:51:08.360000+00:00,2024-05-15 13:51:08.360000+09:00,2024,5,15,4,51,8,360,,,,,,,,,-0.138428,0.291748,1.251465,-118.164062,242.370605,-6.469727,,,,,,,,,,,1.0,1.0,1.0,5.0,0.0,0.0,0.0,4.0,0.0,0.050429653333333345,-0.18318688000000002,0.9574706933333332,2.1110025466666653,9.650065053333334,10.831705719999999,-59.56412946616426,77.40320993104116,-2.110526547624376,9.202017781228028,47.869231309065924,-6.696685931566164,49.20351653929758,-1.2978840804750311,45.11268282233025,-1.2926611475285703,-0.18885765333333335,0.47493488000000006,0.2939943066666668,0.9577868400000003,0.5896295496458791,0.28134541057080953,0.28134541057080953,0.28134541057080953
LBP03_S05,LBP03,60,61,5,60,60,1715748668.4,2024-05-15 04:51:08.400000+00:00,2024-05-15 13:51:08.400000+09:00,2024,5,15,4,51,8,400,,,,,,,,,0.130127,-0.088379,1.290283,-176.696777,31.311035,35.522461,,,,,,,,,,,1.0,1.0,1.0,5.0,0.0,0.0,0.0,4.0,0.0,0.043623013333333335,-0.18001956000000002,0.9555240800000001,2.9858397866666655,10.151367146666667,11.42333984,-52.26611986223076,47.9908704137477,8.561944017494316,7.111372986738797,49.78886612561583,-6.354208170866391,50.693971804443564,-1.3292745622694158,45.95155316681706,-1.3251058799797244,0.08650398666666666,0.09164056000000002,0.33475891999999996,0.5129034666666666,0.35769325750691305,0.28452657085981387,0.28452657085981387,0.28452657085981387
LBP03_S05,LBP03,61,62,5,61,61,1715748668.44,2024-05-15 04:51:08.440000+00:00,2024-05-15 13:51:08.440000+09:00,2024,5,15,4,51,8,440,,,,,,,,,-0.313721,-0.514648,1.009521,-110.412598,-32.775879,38.696289,,,,,,,,,,,1.0,1.0,1.0,5.0,0.0,0.0,0.0,4.0,0.0,0.03513668,-0.18154625333333332,0.9543880133333332,2.3282877066666656,10.10986324,11.757812493333333,-35.095461742198204,10.981485532826015,18.952298900757263,5.707554517050869,50.22812554692887,-5.5961162148361,50.86017392039776,-1.376404178572152,46.17704181809947,-1.3594384161075637,-0.34885768000000006,-0.3331017466666667,0.05513298666666666,0.7370924133333334,0.4854874877338792,0.29256500753477643,0.29256500753477643,0.29256500753477643
LBP03_S05,LBP03,62,63,5,62,62,1715748668.48,2024-05-15 04:51:08.480000+00:00,2024-05-15 13:51:08.480000+09:00,2024,5,15,4,51,8,480,,,,,,,,,0.100342,-0.007812,0.821777,-5.065918,-115.539551,6.04248,,,,,,,,,,,1.0,1.0,1.0,5.0,0.0,0.0,0.0,4.0,0.0,0.02938798666666667,-0.17680993333333336,0.9509635333333334,2.330729106666665,10.631510373333333,11.937662746666666,-10.281958824115568,-28.31791629743822,27.11560490062938,5.296276164086246,49.09540889503134,-4.511492018810925,49.58591812210786,-1.4033975739467828,45.77221276062171,-1.3983017359449823,0.07095401333333333,0.16899793333333335,-0.1291865333333334,0.3691384800000001,0.22424079440130668,0.2904984182437455,0.28993715318348917,0.28993715318348917
LBP03_S05,LBP03,63,64,5,63,63,1715748668.52,2024-05-15 04:51:08.520000+00:00,2024-05-15 13:51:08.520000+09:00,2024,5,15,4,51,8,520,,,,,,,,,0.189209,-0.495117,1.078125,-76.477051,-83.984375,11.59668,,,,,,,,,,,1.0,1.0,1.0,5.0,0.0,0.0,0.0,4.0,0.0,0.021324826666666668,-0.17650393333333333,0.9493359333333334,1.3289387466666658,10.858561159999999,11.667480466666666,17.78579565670261,-64.2205482453177,31.486873931039877,6.00770799035435,46.526586965218634,-3.2520170615693296,47.02543423402019,-1.4485516081701348,44.78406903519374,-1.4389365242739764,0.16788417333333333,-0.31861306666666667,0.12878906666666656,0.6152863066666665,0.3824735358157811,0.28860391731011803,0.29336442661431483,0.29336442661431483
LBP03_S05,LBP03,64,65,5,64,64,1715748668.56,2024-05-15 04:51:08.560000+00:00,2024-05-15 13:51:08.560000+09:00,2024,5,15,4,51,8,560,,,,,,,,,0.025146,-0.591309,0.799316,121.21582,-73.730469,62.133789,,,,,,,,,,,1.0,1.0,1.0,5.0,0.0,0.0,0.0,4.0,0.0,0.011780546666666671,-0.17430014666666666,0.9481738266666665,2.155761666666666,11.337076786666666,11.239420573333334,43.62264187002124,-91.84526228388187,31.135569966327562,7.7526136651552005,42.85277647386336,-2.0065942629162272,43.59460850490593,-1.5021892834973751,43.30588094881483,-1.481996767755152,0.01336545333333333,-0.4170088533333333,-0.14885782666666647,0.5792321333333331,0.4429826990539364,0.29675698391501,0.2987079363443013,0.2987079363443013
LBP03_S05,LBP03,65,66,5,65,65,1715748668.6,2024-05-15 04:51:08.600000+00:00,2024-05-15 13:51:08.600000+09:00,2024,5,15,4,51,8,600,,,,,,,,,-0.077148,-0.19043,0.369873,169.921875,-100.524902,43.212891,,,,,,,,,,,1.0,1.0,1.0,5.0,0.0,0.0,0.0,4.0,0.0,0.005377546666666672,-0.16077149333333332,0.9459407599999999,2.649739519999999,11.0262044,10.854492186666667,62.12766233301572,-107.99507556719158,25.922580950381793,10.23772015847583,38.53297345117569,-0.9696910249009556,39.88159046121464,-1.5368818406858022,41.46219619139221,-1.5235754399184218,-0.08252554666666667,-0.029658506666666667,-0.5760677599999999,0.6882518133333333,0.58270417621787,0.31489802640232534,0.30850091013304504,0.30850091013304504
LBP03_S05,LBP03,66,67,5,66,66,1715748668.64,2024-05-15 04:51:08.640000+00:00,2024-05-15 13:51:08.640000+09:00,2024,5,15,4,51,8,640,,,,,,,,,0.222168,-0.230469,0.566162,210.81543,-212.097168,-9.277344,,,,,,,,,,,1.0,1.0,1.0,5.0,0.0,0.0,0.0,4.0,0.0,-0.0037435466666666615,-0.16292969333333335,0.9451725333333333,1.4868163466666657,10.502929653333332,10.081380213333334,70.00748313653779,-111.58093208308047,16.541034315606268,13.03801948393734,34.069736167852476,-0.3080496522767049,36.48056700763946,-1.5941072506832945,39.40358459691939,-1.5645529557737774,0.22591154666666666,-0.06753930666666666,-0.37901053333333323,0.6724613866666665,0.4463704394781954,0.323734062505653,0.3130965611112167,0.3130965611112167
LBP03_S05,LBP03,67,68,5,67,67,1715748668.68,2024-05-15 04:51:08.680000+00:00,2024-05-15 13:51:08.680000+09:00,2024,5,15,4,51,8,680,,,,,,,,,0.244629,0.300537,0.532715,137.268066,-30.151367,16.723633,,,,,,,,,,,1.0,1.0,1.0,5.0,0.0,0.0,0.0,4.0,0.0,-0.01179041333333333,-0.16034832000000002,0.9435188933333333,1.9742837866666658,10.596516893333334,9.2985026,66.64881107865396,-103.57442501629676,4.426443256977588,15.703971927083499,29.926759167200604,-0.13099192199760137,33.797082824141505,-1.6452369944069134,37.30411471296995,-1.6101042061280932,0.25641941333333335,0.46088532000000004,-0.4108038933333332,1.1281086266666667,0.668525266914825,0.3437467978757123,0.3245620032339137,0.3245620032339137
LBP03_S05,LBP03,68,69,5,68,68,1715748668.72,2024-05-15 04:51:08.720000+00:00,2024-05-15 13:51:08.720000+09:00,2024,5,15,4,51,8,720,,,,,,,,,0.0,0.09375,0.594727,-40.161133,-79.833984,1.281738,,,,,,,,,,,1.0,1.0,1.0,5.0,0.0,0.0,0.0,4.0,0.0,-0.01842453333333333,-0.16145834666666667,0.9414974133333331,0.9798176399999993,9.790039026666667,9.803873693333331,54.13623195748144,-86.55724804580414,-8.459359627110288,17.869421205382757,26.464469245368438,-0.4693663070820129,31.935946069979806,-1.6860403048446173,35.350215449878355,-1.657419341693122,0.01842453333333333,0.2552083466666667,-0.34677041333333314,0.6204032933333332,0.4309529941887576,0.3550007543968281,0.3278867217012526,0.3278867217012526
LBP03_S05,LBP03,69,70,5,69,69,1715748668.76,2024-05-15 04:51:08.760000+00:00,2024-05-15 13:51:08.760000+09:00,2024,5,15,4,51,8,760,,,,,,,,,0.444092,-0.144287,1.071289,-156.494141,-117.797852,-5.065918,,,,,,,,,,,1.0,1.0,1.0,5.0,0.0,0.0,0.0,4.0,0.0,-0.022946026666666664,-0.16180013333333335,0.9411946800000001,4.166666599999998,9.463704386666668,11.090494786666666,36.45378083229866,-63.998050838974606,-19.942780231729216,19.327572438674704,23.904547211809454,-1.2670775163511816,30.766668965071403,-1.713670802107731,33.7181483455325,-1.704300075633741,0.46703802666666666,0.017513133333333347,0.13009431999999987,0.6146454799999999,0.48513478569167506,0.3649738407773816,0.33265181454944726,0.33265181454944726
LBP03_S05,LBP03,70,71,5,70,70,1715748668.8,2024-05-15 04:51:08.800000+00:00,2024-05-15 13:51:08.800000+09:00,2024,5,15,4,51,8,800,,,,,,,,,0.041748,-0.318848,0.825439,54.504395,54.443359,-60.60791,,,,,,,,,,,1.0,1.0,1.0,5.0,0.0,0.0,0.0,4.0,0.0,-0.02547532,-0.15187174666666667,0.93908204,6.895344986666665,9.949544226666667,10.098470039999999,18.23221717752564,-39.43256193895661,-28.006858194074212,20.05686112577573,22.327244734251188,-2.38735184411415,30.107855859715357,-1.7390497208229727,32.54803899469274,-1.7513592305038492,0.06722332,-0.16697625333333335,-0.11364303999999992,0.3478426133333333,0.21287269545317805,0.3700206478237109,0.3291288992819099,0.3291288992819099
LBP03_S05,LBP03,71,72,5,71,71,1715748668.84,2024-05-15 04:51:08.840000+00:00,2024-05-15 13:51:08.840000+09:00,2024,5,15,4,51,8,840,,,,,,,,,-0.296387,-0.057617,0.609863,115.661621,-4.394531,-45.043945,,,,,,,,,,,1.0,1.0,1.0,5.0,0.0,0.0,0.0,4.0,0.0,-0.037522839999999995,-0.14190756000000002,0.9364973999999999,6.438802013333333,10.78369136,8.64501952,3.519007529828129,-15.732711264421415,-31.15346060700357,20.197621426968855,21.69793628367433,-3.6334902683942927,29.86547508090334,-1.8319166821153094,31.926488993463373,-1.799924481333748,-0.25886416,0.08429056000000001,-0.3266343999999999,0.6697891199999999,0.42521239763320534,0.37795289118781483,0.33187414209194693,0.33187414209194693
LBP03_S05,LBP03,72,73,5,72,72,1715748668.88,2024-05-15 04:51:08.880000+00:00,2024-05-15 13:51:08.880000+09:00,2024,5,15,4,51,8,880,,,,,,,,,0.391357,0.735596,0.133545,-38.391113,-73.730469,47.241211,,,,,,,,,,,1.0,1.0,1.0,5.0,0.0,0.0,0.0,4.0,0.0,-0.04145512,-0.13251629333333334,0.93432292,4.903157479999999,9.536946573333333,7.44303384,-5.078322687966354,5.377337972549259,-28.685976361727615,19.9944885194502,21.9130298025763,-4.780929322863397,30.046925491191907,-1.8765489295970683,31.885999976324097,-1.8425497445223598,0.43281212,0.8681122933333334,-0.8007779199999999,2.1017023333333333,1.257851566050176,0.41903603554697605,0.35759573720189775,0.35759573720189775
LBP03_S05,LBP03,73,74,5,73,73,1715748668.92,2024-05-15 04:51:08.920000+00:00,2024-05-15 13:51:08.920000+09:00,2024,5,15,4,51,8,920,,,,,,,,,0.09375,-1.628662,0.813232,-475.769043,165.405273,-197.570801,,,,,,,,,,,1.0,1.0,1.0,5.0,0.0,0.0,0.0,4.0,0.0,-0.04685225333333334,-0.1308398666666667,0.9329134266666667,0.46223950666666574,9.151204386666667,5.815429666666666,-6.7352054539398765,23.456118150666974,-20.840005782217645,19.725080301292607,22.85127452860298,-5.614529554152103,30.70476319056163,-1.917358947576324,32.42088976840908,-1.8793022046682535,0.14060225333333334,-1.4978221333333335,-0.1196814266666667,1.7581058133333336,1.5091599585976956,0.47167250080479844,0.38871909453691933,0.38871909453691933
LBP03_S05,LBP03,74,75,5,74,74,1715748668.96,2024-05-15 04:51:08.960000+00:00,2024-05-15 13:51:08.960000+09:00,2024,5,15,4,51,8,960,,,,,,,,,-0.352051,-1.102051,0.489014,455.078125,88.500977,36.132812,,,,,,,,,,,1.0,1.0,1.0,5.0,0.0,0.0,0.0,4.0,0.0,-0.05648766666666667,-0.13397789333333332,0.93716472,-1.0213216933333342,8.821614546666668,6.781412746666667,-2.253051277934286,39.10111710693176,-8.710780259894204,19.634958250175234,24.41531921288025,-5.962960764547871,31.893514996508323,-1.97278083219846,33.508866926808736,-1.920302035520658,-0.29556333333333334,-0.9680731066666666,-0.44815071999999995,1.7117871599999999,1.106960835666231,0.5057817948036955,0.40762019298769064,0.40762019298769064
LBP03_S05,LBP03,75,76,5,75,75,1715748669.0,2024-05-15 04:51:09+00:00,2024-05-15 13:51:09+09:00,2024,5,15,4,51,9,0,4.0,51.0,9.0,40.54089,141.504379,-3.525,3.0,14.0,-0.246094,0.805176,0.653564,440.856934,-19.836426,33.813477,-283.0,8.0,366.0,19800.0,0.0,1019.0,28.9,0.059459,-47.735023,3.853125,1.0,1.0,1.0,5.0,0.0,0.0,0.0,4.0,0.0,-0.06478845333333333,-0.1345736,0.9390201866666666,-2.8442383600000007,7.459309866666666,8.199055973333333,6.449790311240422,53.382450794914305,6.0248234573267325,19.892949862624853,26.550617244676822,-5.721967826254802,33.666090448921025,-2.0225343489847893,35.12175262106496,-1.9619581065174656,-0.18130554666666668,0.9397496,-0.2854561866666666,1.4065113333333334,0.9987423323653271,0.54230466827727,0.42277717092045053,0.42277717092045053
LBP03_S05,LBP03,76,77,5,76,76,1715748669.04,2024-05-15 04:51:09.040000+00:00,2024-05-15 13:51:09.040000+09:00,2024,5,15,4,51,9,40,,,,,,,,,0.984375,0.973145,0.176514,-419.86084,-171.081543,172.668457,,,,,,,,,,,1.0,1.0,1.0,5.0,0.0,0.0,0.0,4.0,0.0,-0.06761072,-0.14133466666666666,0.9384993466666667,-3.0403646666666675,6.223144493333334,9.297688786666667,16.917166303935478,67.11977776823133,21.50853595843535,20.56963651478227,29.235408355406076,-4.861626387917388,36.07567683624669,-2.020359882569411,37.21764246217825,-2.0069739473757524,1.05198572,1.1144796666666668,-0.7619853466666666,2.9284507333333334,1.7115374816322555,0.6053149975486695,0.45499617868824566,0.45499617868824566
LBP03_S05,LBP03,77,78,5,77,77,1715748669.08,2024-05-15 04:51:09.080000+00:00,2024-05-15 13:51:09.080000+09:00,2024,5,15,4,51,9,80,,,,,,,,,0.210693,-1.571533,1.704346,-385.559082,162.109375,-5.554199,,,,,,,,,,,1.0,1.0,1.0,5.0,0.0,0.0,0.0,4.0,0.0,-0.06804366666666667,-0.14513674666666668,0.9354524666666667,0.4134113733333326,6.145019493333334,10.134277319999999,26.567847594781217,80.2705322394096,36.05891573930704,21.63235041857352,32.44622964498246,-3.4192697583451066,39.145980744991306,-2.0127615958658525,39.723401474466435,-2.0488076683870533,0.27873666666666663,-1.4263962533333334,0.7688935333333332,2.4740264533333334,1.644231634067911,0.6555605305532128,0.48400192150238386,0.48400192150238386
LBP03_S05,LBP03,78,79,5,78,78,1715748669.12,2024-05-15 04:51:09.120000+00:00,2024-05-15 13:51:09.120000+09:00,2024,5,15,4,51,9,120,,,,,,,,,0.065186,-1.120361,1.234131,281.005859,186.706543,-4.577637,,,,,,,,,,,1.0,1.0,1.0,5.0,0.0,0.0,0.0,4.0,0.0,-0.07708663999999998,-0.1339225466666667,0.9314778533333333,2.9223631999999995,8.371581986666667,10.697428359999998,32.9847997212088,91.68539931255646,48.33508442592214,22.95174240742187,36.11364561748472,-1.485866381308221,42.81571765397636,-2.0960386133686604,42.522722083318996,-2.090092314167917,0.14227263999999998,-0.9864384533333332,0.30265314666666676,1.4313642400000002,1.041585931881985,0.6920516048452295,0.49727773127332675,0.49727773127332675
LBP03_S05,LBP03,79,80,5,79,79,1715748669.16,2024-05-15 04:51:09.160000+00:00,2024-05-15 13:51:09.160000+09:00,2024,5,15,4,51,9,160,,,,,,,,,-0.5896,0.647461,-0.278564,427.91748,249.206543,88.378906,,,,,,,,,,,1.0,1.0,1.0,5.0,0.0,0.0,0.0,4.0,0.0,-0.08304366666666665,-0.13345054666666667,0.93000976,2.6407876799999994,8.859863240000001,9.52799476,34.29601936281148,99.31425810904456,57.2859061780729,24.32358318193433,40.086215941846504,0.805569865814695,46.89552590763362,-2.130231512075812,45.45808163030623,-2.1291307434650153,-0.5065563333333334,0.7809115466666666,-1.20857376,2.4960416399999996,1.5254745805545151,0.7430878641063482,0.521189285907773,0.521189285907773
LBP03_S05,LBP03,80,81,5,80,80,1715748669.2,2024-05-15 04:51:09.200000+00:00,2024-05-15 13:51:09.200000+09:00,2024,5,15,4,51,9,200,,,,,,,,,0.319336,0.055908,0.991211,-210.571289,-315.917969,-147.094727,,,,,,,,,,,1.0,1.0,1.0,5.0,0.0,0.0,0.0,4.0,0.0,-0.08930344,-0.12608401333333333,0.9267903599999999,3.6523436666666664,8.209635373333334,8.440755173333333,29.664515918695784,100.7511163735158,62.02098042484262,25.510163818682162,44.116260596787136,3.2864090828084,51.06675427084826,-2.1892081294058414,48.34498923727507,-2.1633433100627095,0.40863944,0.1819920133333333,0.06442064000000003,0.6550520933333334,0.45194834184743216,0.7501005409761823,0.5196156280882197,0.5196156280882197
LBP03_S05,LBP03,81,82,5,81,81,1715748669.24,2024-05-15 04:51:09.240000+00:00,2024-05-15 13:51:09.240000+09:00,2024,5,15,4,51,9,240,,,,,,,,,0.534668,-0.296387,1.02124,6.774902,211.730957,145.141602,,,,,,,,,,,1.0,1.0,1.0,5.0,0.0,0.0,0.0,4.0,0.0,-0.09577153333333334,-0.11890302666666668,0.9257617066666668,3.7174478399999997,8.3772786,7.031249973333334,19.622093571788746,93.9532801844492,61.793269101656655,26.295047561553712,47.8743918041651,5.758139846874666,54.92306520378527,-2.2502538922283177,50.99216125321483,-2.1962435813641785,0.6304395333333334,-0.17748397333333332,0.09547829333333313,0.9034017999999998,0.6618690735164958,0.7594952667511424,0.5227768157644037,0.5227768157644037
LBP03_S05,LBP03,82,83,5,82,82,1715748669.28,2024-05-15 04:51:09.280000+00:00,2024-05-15 13:51:09.280000+09:00,2024,5,15,4,51,9,280,,,,,,,,,-0.035156,0.126465,0.771729,4.882812,210.083008,162.597656,,,,,,,,,,,1.0,1.0,1.0,5.0,0.0,0.0,0.0,4.0,0.0,-0.09790694666666666,-0.11214196000000001,0.9180956933333334,1.1328124266666664,7.652180933333334,5.464680959999999,6.004206224982468,78.00456614734208,56.191095835545546,26.535215810553012,50.994574450058785,8.005783680296489,58.04013157971743,-2.2893953874057016,53.22269059623667,-2.2304039007073007,0.06275094666666667,0.23860696,-0.1463666933333334,0.4477246000000001,0.2868696072875942,0.745388489272893,0.5176483981888209,0.5176483981888209
LBP03_S05,LBP03,83,84,5,83,83,1715748669.32,2024-05-15 04:51:09.320000+00:00,2024-05-15 13:51:09.320000+09:00,2024,5,15,4,51,9,320,,,,,,,,,-0.813721,-0.066895,-0.029053,71.166992,339.904785,63.720703,,,,,,,,,,,1.0,1.0,1.0,5.0,0.0,0.0,0.0,4.0,0.0,-0.10526045333333332,-0.11615237333333334,0.9178971333333333,-1.2296550266666668,8.518880159999998,4.40022784,-8.509398209438336,53.74388726440898,45.46307747461986,26.19483988217548,53.144329940635146,9.824306779281283,60.05835866043404,-2.3077432405473104,54.89423771340819,-2.265670737323209,-0.7084605466666667,0.04925737333333334,-0.9469501333333333,1.7046680533333334,1.1836626166399569,0.7645669615937192,0.5318189134750153,0.5318189134750153
LBP03_S05,LBP03,84,85,5,84,84,1715748669.36,2024-05-15 04:51:09.360000+00:00,2024-05-15 13:51:09.360000+09:00,2024,5,15,4,51,9,360,,,,,,,,,0.014893,0.047852,0.647217,-41.07666,-274.780273,-44.73877,,,,,,,,,,,1.0,1.0,1.0,5.0,0.0,0.0,0.0,4.0,0.0,-0.11196293333333332,-0.12177411999999999,0.9211067733333332,-0.7666016400000003,7.948404906666666,3.387044253333333,-21.086693828839323,23.97833525227328,30.770307334073667,25.351372129021907,54.103463350726074,11.05511907264423,60.76259106619673,-2.3149064981754006,55.91669483430532,-2.292301176904115,0.1268559333333333,0.16962612,-0.2738897733333332,0.5703718266666665,0.346238438571904,0.75483131715076,0.5279526535812005,0.5279526535812005
LBP03_S05,LBP03,85,86,5,85,85,1715748669.4,2024-05-15 04:51:09.400000+00:00,2024-05-15 13:51:09.400000+09:00,2024,5,15,4,51,9,400,,,,,,,,,-0.281982,0.944092,2.329834,153.015137,248.10791,253.479004,,,,,,,,,,,1.0,1.0,1.0,5.0,0.0,0.0,0.0,4.0,0.0,-0.12000329333333333,-0.12114586666666667,0.9167024666666667,-0.9431966800000003,7.959798133333332,2.3046874799999997,-29.49834967945858,-6.939228376634679,14.17209933421022,24.171438141843563,53.82589421566069,11.622003046012638,60.13781060831855,-2.3515370619994775,56.26440967561001,-2.32261689636501,-0.1619787066666667,1.0652378666666666,1.4131315333333334,2.640348106666667,1.777050799638259,0.8116056188360139,0.553444452480324,0.553444452480324
LBP03_S05,LBP03,86,87,5,86,86,1715748669.44,2024-05-15 04:51:09.440000+00:00,2024-05-15 13:51:09.440000+09:00,2024,5,15,4,51,9,440,,,,,,,,,-3.35376,-1.395752,2.215088,-638.122559,-336.547852,-283.447266,,,,,,,,,,,1.0,1.0,1.0,5.0,0.0,0.0,0.0,4.0,0.0,-0.12619144,-0.12471682666666667,0.9149479066666667,-1.2084961600000002,7.4560546400000005,2.2086588399999996,-32.754069546687454,-34.10727843418896,-1.7162348322719518,22.861275359976066,52.46160307829313,11.55335365272176,58.380970266465106,-2.361963076000633,55.98018855919895,-2.348274498114937,-3.22756856,-1.2710351733333334,1.3001400933333334,5.798743826666666,3.7044693929959496,0.9403648950464968,0.6164649512906366,0.6164649512906366
LBP03_S05,LBP03,87,88,5,87,87,1715748669.48,2024-05-15 04:51:09.480000+00:00,2024-05-15 13:51:09.480000+09:00,2024,5,15,4,51,9,480,,,,,,,,,0.799072,-1.827393,1.591064,143.432617,-82.15332,78.857422,,,,,,,,,,,1.0,1.0,1.0,5.0,0.0,0.0,0.0,4.0,0.0,-0.1337956133333333,-0.1312956,0.9120703066666668,-1.5372722000000003,6.735839786666668,1.8505859333333334,-31.383002913708903,-53.29379876888023,-14.299469902792351,21.605955243427708,50.32985112753792,10.981374856610067,55.86145191670656,-2.36542996202493,55.17074832053318,-2.369227420411439,0.9328676133333333,-1.6960974,0.6789936933333333,3.3079587066666667,2.0513460970493083,1.0134491071524168,0.6519737626980812,0.6445998757172772
LBP03_S05,LBP03,88,89,5,88,88,1715748669.52,2024-05-15 04:51:09.520000+00:00,2024-05-15 13:51:09.520000+09:00,2024,5,15,4,51,9,520,,,,,,,,,-0.540283,-0.129883,0.877197,199.279785,-22.033691,-65.551758,,,,,,,,,,,1.0,1.0,1.0,5.0,0.0,0.0,0.0,4.0,0.0,-0.13580733333333334,-0.13411134666666666,0.9117024666666667,2.625325453333333,7.088216093333334,2.7099609333333334,-27.166571097179386,-61.92822928880192,-21.61654448055122,20.519292399540532,47.85272195598584,10.116713077388019,53.04028886294762,-2.3623430091777253,53.99531509073988,-2.388882989050727,-0.4044756666666666,0.00422834666666666,-0.03450546666666665,0.44320947999999993,0.4059668349395827,1.014388839117369,0.6514963782137435,0.6400107787792446
LBP03_S05,LBP03,89,90,5,89,89,1715748669.56,2024-05-15 04:51:09.560000+00:00,2024-05-15 13:51:09.560000+09:00,2024,5,15,4,51,9,560,,,,,,,,,-0.094727,-0.134033,0.87915,15.441895,-60.424805,-29.418945,,,,,,,,,,,1.0,1.0,1.0,5.0,0.0,0.0,0.0,4.0,0.0,-0.14727544,-0.12569012,0.9098958266666667,3.759765559999999,7.89469396,3.5416666666666665,-22.383079324922345,-59.554310672932104,-22.788412884770587,19.62396922654364,45.470549529068556,9.205176561997195,50.37267432068056,-2.433388706684759,52.64862091130924,-2.4100017080528247,0.05254844,-0.008342880000000025,-0.030745826666666698,0.09163714666666672,0.061451184289195875,0.9991275785267792,0.6479422812208945,0.6290945600152815
LBP03_S05,LBP03,90,91,5,90,90,1715748669.6,2024-05-15 04:51:09.600000+00:00,2024-05-15 13:51:09.600000+09:00,2024,5,15,4,51,9,600,,,,,,,,,-0.12207,-0.010986,0.94751,-28.625488,-35.15625,-19.287109,,,,,,,,,,,1.0,1.0,1.0,5.0,0.0,0.0,0.0,4.0,0.0,-0.15221685333333335,-0.12659181333333333,0.9123958266666666,3.1884764933333325,6.68701168,2.6472981866666667,-18.919173666803008,-47.68263463204027,-18.175710890462934,18.86720227987152,43.563244143786946,8.478148126378677,48.22454310673763,-2.4457841469051127,51.33847976007458,-2.4340952625698002,0.03014685333333335,0.11560581333333333,0.03511417333333333,0.18086684000000003,0.12452526655762036,0.9808004221403693,0.6478492242713473,0.6197506842105099
LBP03_S05,LBP03,91,92,5,91,91,1715748669.64,2024-05-15 04:51:09.640000+00:00,2024-05-15 13:51:09.640000+09:00,2024,5,15,4,51,9,640,,,,,,,,,-0.070557,0.000244,0.897461,-52.612305,-4.089355,-11.901855,,,,,,,,,,,1.0,1.0,1.0,5.0,0.0,0.0,0.0,4.0,0.0,-0.15709641333333332,-0.12686850666666666,0.9123274666666669,3.632812426666666,6.131184853333333,2.242024746666667,-17.659975329751695,-29.200505222627584,-9.231797799665877,18.16080326668145,42.39522393488184,8.108876214392042,46.828662817127494,-2.45978311519334,50.25935164967782,-2.457472310429009,0.08653941333333333,0.12711250666666665,-0.014866466666666911,0.2285183866666669,0.1544916542804562,0.9691252707324597,0.6464296666190564,0.6112914291208726
LBP03_S05,LBP03,92,93,5,92,92,1715748669.68,2024-05-15 04:51:09.680000+00:00,2024-05-15 13:51:09.680000+09:00,2024,5,15,4,51,9,680,,,,,,,,,-0.110352,-0.059082,0.961182,-20.202637,23.803711,13.977051,,,,,,,,,,,1.0,1.0,1.0,5.0,0.0,0.0,0.0,4.0,0.0,-0.16181321333333334,-0.12367189333333335,0.9158333200000001,5.235188733333333,6.572265586666667,3.2918294400000003,-18.3488253134424,-7.59145457155375,1.8816715833679123,17.426850254143755,42.09156575201969,8.184143077726759,46.285799281784584,-2.4859510737985784,49.566339103739516,-2.4817991803241077,0.05146121333333334,0.06458989333333334,0.04534867999999992,0.1613997866666666,0.09421578199162078,0.9461528913355315,0.6449498446056218,0.6020579354221359
LBP03_S05,LBP03,93,94,5,93,93,1715748669.72,2024-05-15 04:51:09.720000+00:00,2024-05-15 13:51:09.720000+09:00,2024,5,15,4,51,9,720,,,,,,,,,-0.140869,0.02417,0.950928,-40.222168,31.738281,20.935059,,,,,,,,,,,1.0,1.0,1.0,5.0,0.0,0.0,0.0,4.0,0.0,-0.16849616,-0.11998698666666667,0.9147070133333334,5.21240228,6.069335906666667,3.0550130400000004,-19.843042331162703,13.79975688621717,12.80486528323746,16.633128560897248,42.64355602746838,8.696337689056257,46.59141686612751,-2.5189304305682896,49.355764632188006,-2.504582051778811,0.02762716000000001,0.14415698666666668,0.03622098666666662,0.20800513333333331,0.1511835197684786,0.9349621123587204,0.6449814333777742,0.594147857954528
LBP03_S05,LBP03,94,95,5,94,94,1715748669.76,2024-05-15 04:51:09.760000+00:00,2024-05-15 13:51:09.760000+09:00,2024,5,15,4,51,9,760,,,,,,,,,-0.254883,-0.073486,0.921631,-29.968262,39.489746,53.161621,,,,,,,,,,,1.0,1.0,1.0,5.0,0.0,0.0,0.0,4.0,0.0,-0.17519864,-0.11503581333333335,0.9074218666666667,4.588216093333332,5.413411426666666,3.2047526266666666,-20.57139305599621,32.293500510519706,21.486239610441764,15.810272838657399,43.93529604788917,9.555787273473928,47.661179553850104,-2.5558420433451556,49.65709725673078,-2.5298319866764656,-0.07968436000000004,0.04154981333333335,0.01420913333333329,0.13544330666666668,0.0909828757884081,0.9191960359625898,0.6420849383699857,0.5854725996413189
LBP03_S05,LBP03,95,96,5,95,95,1715748669.8,2024-05-15 04:51:09.800000+00:00,2024-05-15 13:51:09.800000+09:00,2024,5,15,4,51,9,800,,,,,,,,,-0.194336,-0.160645,1.152832,-45.959473,22.827148,39.367676,,,,,,,,,,,1.0,1.0,1.0,5.0,0.0,0.0,0.0,4.0,0.0,-0.18285814666666667,-0.11228841333333335,0.9007747333333334,4.252929626666666,3.173828093333334,1.8912760666666668,-19.012596810828985,46.124656339507105,26.565038018191924,15.049768966224239,45.780282301469455,10.618388794201605,49.34652950435106,-2.5853075405915678,50.43741893316012,-2.549838947185961,-0.011477853333333343,-0.04835658666666666,0.2520572666666667,0.3118917066666667,0.25691042460488733,0.9209575451286581,0.6454890964761845,0.5799037492169727
LBP03_S05,LBP03,96,97,5,96,96,1715748669.84,2024-05-15 04:51:09.840000+00:00,2024-05-15 13:51:09.840000+09:00,2024,5,15,4,51,9,840,,,,,,,,,-0.173828,-0.349854,0.887207,5.249023,44.067383,21.42334,,,,,,,,,,,1.0,1.0,1.0,5.0,0.0,0.0,0.0,4.0,0.0,-0.19346035999999997,-0.11331054666666666,0.8945865866666666,1.9661457733333327,1.8766275733333335,2.2583007999999998,-14.07897813163504,54.44104022973254,27.547426877064062,14.486609840958836,47.95792391065876,11.720285869284169,51.450844807082056,-2.605231774951617,51.6156262240684,-2.5697412333200043,0.01963235999999996,-0.23654345333333332,-0.007379586666666604,0.2635553999999999,0.2374714575973274,0.9134479075272229,0.6457003993575189,0.5741965443566452
LBP03_S05,LBP03,97,98,5,97,97,1715748669.88,2024-05-15 04:51:09.880000+00:00,2024-05-15 13:51:09.880000+09:00,2024,5,15,4,51,9,880,,,,,,,,,-0.319336,-0.097412,0.878418,27.526855,44.372559,16.296387,,,,,,,,,,,1.0,1.0,1.0,5.0,0.0,0.0,0.0,4.0,0.0,-0.19799160000000002,-0.11910481333333335,0.89049804,4.317219986666665,-0.8471679866666667,2.468261746666667,-5.358169494041053,57.142475900448055,24.754896817658622,14.272283061197195,50.24362294667668,12.710481741990513,53.75570720119145,-2.593258676571967,53.080684688404745,-2.5913865595650205,-0.12134439999999999,0.021692813333333352,-0.012080039999999959,0.15511725333333332,0.12385866513117458,0.868088191490463,0.6435621135187195,0.5668139561726212
LBP03_S05,LBP03,98,99,5,98,98,1715748669.92,2024-05-15 04:51:09.920000+00:00,2024-05-15 13:51:09.920000+09:00,2024,5,15,4,51,9,920,,,,,,,,,-0.29126,-0.185303,0.942871,1.525879,40.100098,16.479492,,,,,,,,,,,1.0,1.0,1.0,5.0,0.0,0.0,0.0,4.0,0.0,-0.20425136,-0.11674478666666668,0.88504232,6.742350186666666,-1.3134765733333333,1.9930013333333336,6.780399835741784,54.6688958919599,19.0889831526161,14.543499054626865,52.43037878235508,13.474041068095158,56.053615108375276,-2.6148423581542684,54.70793934317245,-2.613752622291147,-0.08700864000000003,-0.06855821333333331,0.057828679999999966,0.2133955333333333,0.12495954657668554,0.8127201750096225,0.6421963379072104,0.5596872721468803
LBP03_S05,LBP03,99,100,5,99,99,1715748669.96,2024-05-15 04:51:09.960000+00:00,2024-05-15 13:51:09.960000+09:00,2024,5,15,4,51,9,960,,,,,,,,,-0.288086,-0.188477,0.908691,-6.225586,52.062988,6.04248,,,,,,,,,,,1.0,1.0,1.0,5.0,0.0,0.0,0.0,4.0,0.0,-0.20412765333333333,-0.11164388,0.8834635466666666,7.621256439999999,-0.7600911600000001,1.5283203466666668,21.186731876681897,47.81752314899699,11.701413058162991,15.390968329694141,54.34307970831496,13.942097590421678,58.175891084974054,-2.633458311779715,56.37026961960007,-2.634823173968017,-0.08395834666666668,-0.07683312,0.025227453333333427,0.18601892000000012,0.11657082270285347,0.7731045744910874,0.6394431846473914,0.5526536777112608
LBP03_S05,LBP03,100,101,5,100,100,1715748670.0,2024-05-15 04:51:10+00:00,2024-05-15 13:51:10+09:00,2024,5,15,4,51,10,0,4.0,51.0,10.0,40.540874,141.504379,-3.434,3.0,14.0,-0.379639,-0.0979,0.871094,17.150879,66.28418,-8.361816,-281.0,4.0,363.0,1957.0,0.0,1019.099976,28.969999,0.06045,-48.563061,3.853125,1.0,1.0,1.0,5.0,0.0,0.0,0.0,4.0,0.0,-0.21130538666666665,-0.11231772,0.8849349066666667,8.073730399999999,0.9545898266666668,1.4583333733333337,36.02818138414177,37.617909155290526,3.6710311208917834,16.83209558505981,55.847796074526585,14.08893883525735,60.00661601582045,-2.644807008245544,57.94491253467163,-2.6540782943607186,-0.16833361333333335,0.014417719999999995,-0.013840906666666708,0.19659224000000006,0.16951591879587583,0.7399355179483094,0.6411200931127897,0.5466671502282079
LBP03_S05,LBP03,101,102,5,101,101,1715748670.04,2024-05-15 04:51:10.040000+00:00,2024-05-15 13:51:10.040000+09:00,2024,5,15,4,51,10,40,,,,,,,,,-0.581055,-0.012939,0.840332,77.331543,42.907715,-16.601562,,,,,,,,,,,1.0,1.0,1.0,5.0,0.0,0.0,0.0,4.0,0.0,-0.21729497333333334,-0.10673178666666668,0.8848632933333335,8.96158848,2.09879556,1.0807292000000002,48.998540618931244,25.24635555150066,-4.224899975437041,18.79203720981706,56.85765029658661,13.91994283623987,61.47924746049085,-2.6762363776435,59.31906467249969,-2.6697709053250542,-0.3637600266666666,0.09379278666666667,-0.0445312933333335,0.5020841066666668,0.37828756246693107,0.6866055211816964,0.6459602593651829,0.5440766950318805
LBP03_S05,LBP03,102,103,5,102,102,1715748670.08,2024-05-15 04:51:10.080000+00:00,2024-05-15 13:51:10.080000+09:00,2024,5,15,4,51,10,80,,,,,,,,,-0.293213,0.64209,0.706299,62.683105,-12.207031,-28.503418,,,,,,,,,,,1.0,1.0,1.0,5.0,0.0,0.0,0.0,4.0,0.0,-0.2229460133333334,-0.10030925333333333,0.8854264533333333,7.549641866666666,3.3642578,0.3116862266666669,57.65196407178198,11.941470542834935,-11.585067842299466,21.098115772688338,57.33530911830001,13.45654012254789,62.558345829461615,-2.7096117010598437,60.39686510910021,-2.684242777414894,-0.07026698666666661,0.7423992533333333,-0.17912745333333324,0.9917936933333332,0.7669294265464,0.6515134328808359,0.6535369817170243,0.5474532515699794
LBP03_S05,LBP03,103,104,5,103,103,1715748670.12,2024-05-15 04:51:10.120000+00:00,2024-05-15 13:51:10.120000+09:00,2024,5,15,4,51,10,120,,,,,,,,,-0.409668,-0.009277,0.947754,-1.647949,-19.104004,-54.6875,,,,,,,,,,,1.0,1.0,1.0,5.0,0.0,0.0,0.0,4.0,0.0,-0.22698573333333333,-0.09668945333333334,0.8931478133333334,5.803222599999999,4.656575506666667,-0.47851559999999976,59.848028698194334,-1.1002743896849188,-18.28210686691077,23.492036920616112,57.29129814271261,12.725255847871459,63.21471963040383,-2.7296359473369867,61.10829160496409,-2.700691646806196,-0.18268226666666665,0.08741245333333333,0.05460618666666661,0.3247009066666666,0.20975124117510752,0.6182400452525608,0.6551458250488952,0.542412923056623
LBP03_S05,LBP03,104,105,5,104,104,1715748670.16,2024-05-15 04:51:10.160000+00:00,2024-05-15 13:51:10.160000+09:00,2024,5,15,4,51,10,160,,,,,,,,,-0.515869,-0.407959,1.010498,17.700195,-3.051758,-24.475098,,,,,,,,,,,1.0,1.0,1.0,5.0,0.0,0.0,0.0,4.0,0.0,-0.23439458666666668,-0.09459634666666668,0.8981575866666667,2.799479106666666,7.801920560000002,-0.6795247066666665,54.26547437180589,-12.834187823999095,-24.214393217971885,25.66265589548835,56.777930629752646,11.756680119152584,63.40760870456576,-2.7483932472721757,61.41826438145962,-2.7177750175258577,-0.28147441333333334,-0.31336265333333335,0.11234041333333322,0.7071774799999999,0.43594078305815254,0.5746586933527063,0.6588732787295274,0.5408471562919397
LBP03_S05,LBP03,105,106,5,105,105,1715748670.2,2024-05-15 04:51:10.200000+00:00,2024-05-15 13:51:10.200000+09:00,2024,5,15,4,51,10,200,,,,,,,,,-0.400635,0.009277,0.858887,50.048828,-28.076172,53.955078,,,,,,,,,,,1.0,1.0,1.0,5.0,0.0,0.0,0.0,4.0,0.0,-0.24501633333333336,-0.10041665333333333,0.9036068,1.393229106666666,8.41145832,-0.9204101199999999,40.91243983373196,-22.447620155927805,-29.010065397864224,27.29915348883763,55.88002582351553,10.596277503238015,63.08805088263154,-2.7422336502349225,61.33268602901482,-2.7339479985347137,-0.15561866666666666,0.10969365333333334,-0.04471980000000009,0.3100321200000001,0.19557537551738108,0.5644037746995043,0.6572521578378432,0.5358432174401344
LBP03_S05,LBP03,106,107,5,106,106,1715748670.24,2024-05-15 04:51:10.240000+00:00,2024-05-15 13:51:10.240000+09:00,2024,5,15,4,51,10,240,,,,,,,,,-0.315674,-0.200195,0.978516,150.146484,-41.381836,110.534668,,,,,,,,,,,1.0,1.0,1.0,5.0,0.0,0.0,0.0,4.0,0.0,-0.2496192,-0.09999673333333335,0.9074967733333333,1.621907493333333,9.589843733333334,-1.2003580266666665,21.50283358521297,-29.388928556414463,-31.847842099834438,28.159266832246146,54.70446868125895,9.322363819244638,62.22884917308724,-2.7499504958500194,60.898187365191006,-2.747347083535293,-0.0660548,-0.10019826666666666,0.07101922666666671,0.23727229333333338,0.13945128110697236,0.5435070630031233,0.6515011648771329,0.5301804754925179
LBP03_S05,LBP03,107,108,5,107,107,1715748670.28,2024-05-15 04:51:10.280000+00:00,2024-05-15 13:51:10.280000+09:00,2024,5,15,4,51,10,280,,,,,,,,,-0.040527,0.473389,0.827148,147.644043,-10.742188,-51.147461,,,,,,,,,,,1.0,1.0,1.0,5.0,0.0,0.0,0.0,4.0,0.0,-0.2620378266666667,-0.10231118666666666,0.90605472,3.418782493333333,11.218261706666667,-1.3191731333333332,-0.5074971741820304,-33.35283760932008,-31.568961907466786,28.138966945278867,53.37035517688615,8.059605342945966,60.86997215983032,-2.7577473704849864,60.19451439473055,-2.763777829407622,0.2215108266666667,0.5757001866666667,-0.07890671999999999,0.8761177333333333,0.6218713867993472,0.5569071341835934,0.6511478117282432,0.5314718967785295
LBP03_S05,LBP03,108,109,5,108,108,1715748670.32,2024-05-15 04:51:10.320000+00:00,2024-05-15 13:51:10.320000+09:00,2024,5,15,4,51,10,320,,,,,,,,,-0.673584,0.389648,0.82373,-13.549805,16.113281,-106.506348,,,,,,,,,,,1.0,1.0,1.0,5.0,0.0,0.0,0.0,4.0,0.0,-0.2682585333333333,-0.0961686,0.90740564,3.4545897733333337,10.917968746666666,-0.1310220933333332,-20.43772671732116,-34.25348566779247,-27.145871904669015,27.32145787658602,52.000215750174455,6.9737704667592055,59.15334287333049,-2.785676065350883,59.321502398791836,-2.781319963245127,-0.40532546666666663,0.4858166,-0.08367564000000005,0.9748177066666667,0.6382069534982525,0.5350889076579253,0.6498279346258221,0.5329543281218591
LBP03_S05,LBP03,109,110,5,109,109,1715748670.36,2024-05-15 04:51:10.360000+00:00,2024-05-15 13:51:10.360000+09:00,2024,5,15,4,51,10,360,,,,,,,,,-0.039062,0.524902,0.78418,-56.45752,-95.031738,-113.708496,,,,,,,,,,,1.0,1.0,1.0,5.0,0.0,0.0,0.0,4.0,0.0,-0.2690918666666667,-0.09364906666666667,0.9118034266666666,2.549641853333333,10.930175773333334,0.2905273866666668,-33.507867775233976,-32.220681407204594,-18.359471580660742,25.98114316557666,50.71138849388627,6.239391603532776,57.32010756052615,-2.795188121868275,58.38400119469678,-2.7922782540804336,0.2300298666666667,0.6185510666666667,-0.1276234266666666,0.97620436,0.6721658282502151,0.5481260032450578,0.651478660197909,0.5348613349729324
LBP03_S05,LBP03,110,111,5,110,110,1715748670.4,2024-05-15 04:51:10.400000+00:00,2024-05-15 13:51:10.400000+09:00,2024,5,15,4,51,10,400,,,,,,,,,-0.183594,0.172119,0.785645,-267.63916,-2.197266,-138.183594,,,,,,,,,,,1.0,1.0,1.0,5.0,0.0,0.0,0.0,4.0,0.0,-0.27759446666666665,-0.1015104,0.9220898799999999,1.9563801333333333,11.654459626666666,-1.3216145466666664,-36.32545848359067,-27.63316634621531,-6.346254363020184,24.528124826233036,49.606061840037654,5.985541429011969,55.66162937758226,-2.7787978582513344,57.47741741121416,-2.7998184720747568,0.09400046666666664,0.2736294,-0.13644487999999988,0.5040747466666665,0.31988488797710574,0.4898393667786116,0.6507224928073128,0.5319562478513671
LBP03_S05,LBP03,111,112,5,111,111,1715748670.44,2024-05-15 04:51:10.440000+00:00,2024-05-15 13:51:10.440000+09:00,2024,5,15,4,51,10,440,,,,,,,,,-0.465332,-0.537842,1.248535,-171.386719,-17.211914,46.691895,,,,,,,,,,,1.0,1.0,1.0,5.0,0.0,0.0,0.0,4.0,0.0,-0.2814453733333333,-0.08394854666666668,0.9256185333333333,6.2776692,9.802246093333332,1.5055338933333335,-28.197556658852086,-21.16333561575264,6.3376492661820265,23.40022255987895,48.75952841540755,6.23904739965925,54.442517755886335,-2.8405438363667956,56.675789917563485,-2.8157580576929933,-0.18388662666666672,-0.45389345333333336,0.3229164666666666,0.9606965466666667,0.5866077078339402,0.3651248993721313,0.652744897209314,0.5326849339844681
LBP03_S05,LBP03,112,113,5,112,112,1715748670.48,2024-05-15 04:51:10.480000+00:00,2024-05-15 13:51:10.480000+09:00,2024,5,15,4,51,10,480,,,,,,,,,-0.410645,-0.494141,1.189209,-60.119629,-70.739746,62.561035,,,,,,,,,,,1.0,1.0,1.0,5.0,0.0,0.0,0.0,4.0,0.0,-0.28592778666666663,-0.07192054666666667,0.9312923599999999,-0.4475912133333327,11.277669266666667,-0.12613927999999988,-11.667104968332985,-13.777833586237358,16.287121474629057,22.933538361145633,48.20841507195806,6.890532258644412,53.828225870074434,-2.885033039434891,56.02441795304509,-2.8343909054071528,-0.12471721333333335,-0.42222045333333336,0.25791664000000003,0.8048543066666668,0.5102406174576142,0.30348068018846347,0.6584648936704401,0.535809401861542
LBP03_S05,LBP03,113,114,5,113,113,1715748670.52,2024-05-15 04:51:10.520000+00:00,2024-05-15 13:51:10.520000+09:00,2024,5,15,4,51,10,520,,,,,,,,,-0.097412,-0.269531,0.833984,45.654297,-40.83252,85.693359,,,,,,,,,,,1.0,1.0,1.0,5.0,0.0,0.0,0.0,4.0,0.0,-0.2873210133333333,-0.08603838666666669,0.9355013466666666,-3.8769531999999995,12.131347653333334,0.06429040000000015,8.075178338420335,-6.638432422770946,20.29784553903115,23.256545494682445,47.94287777504722,7.702446080205658,53.839707589453226,-2.839218855690057,55.538438066382945,-2.8495171231750325,0.18990901333333332,-0.18349261333333333,-0.10151734666666667,0.4749189733333333,0.2829147294987953,0.29855859597083195,0.6564737175441003,0.5338504507994396
LBP03_S05,LBP03,114,115,5,114,114,1715748670.56,2024-05-15 04:51:10.560000+00:00,2024-05-15 13:51:10.560000+09:00,2024,5,15,4,51,10,560,,,,,,,,,0.054443,-0.587158,0.906494,191.101074,2.01416,95.825195,,,,,,,,,,,1.0,1.0,1.0,5.0,0.0,0.0,0.0,4.0,0.0,-0.30717453333333333,-0.09658201333333334,0.9434700933333333,2.7148436800000004,14.374186199999997,-1.564941373333333,24.78233656662515,-0.8816375806424006,16.50082082026224,24.24783895734745,47.90761227182153,8.362478913016147,54.34177086973961,-2.8237954272154027,55.206790305157575,-2.8616812203485216,0.36161753333333335,-0.49057598666666663,-0.03697609333333329,0.8891696133333332,0.6105729035801157,0.32052346474246873,0.659825521634624,0.5388026757280859
LBP03_S05,LBP03,115,116,5,115,115,1715748670.6,2024-05-15 04:51:10.600000+00:00,2024-05-15 13:51:10.600000+09:00,2024,5,15,4,51,10,600,,,,,,,,,-0.586426,0.748047,0.706543,209.04541,164.611816,83.679199,,,,,,,,,,,1.0,1.0,1.0,5.0,0.0,0.0,0.0,4.0,0.0,-0.31686528,-0.07365233333333335,0.93460616,6.768391853333333,12.48291016,-0.9138997066666663,33.17990340641119,2.6766481179037576,5.135312848382001,25.575035093603898,48.01467819653768,8.567891426951427,55.071775946124795,-2.9016295064172914,54.99925963258602,-2.8740891197613,-0.26956072,0.8216993333333333,-0.22806315999999993,1.3193232133333335,0.8943520454030105,0.35131653589628437,0.6660584790183269,0.5490049948129929
LBP03_S05,LBP03,116,117,5,116,116,1715748670.64,2024-05-15 04:51:10.640000+00:00,2024-05-15 13:51:10.640000+09:00,2024,5,15,4,51,10,640,,,,,,,,,-0.208984,-0.313965,1.006348,-38.757324,-21.54541,-56.640625,,,,,,,,,,,1.0,1.0,1.0,5.0,0.0,0.0,0.0,4.0,0.0,-0.31787114666666666,-0.06281574666666667,0.9351888399999999,2.064615813333334,8.4358724,-1.6520181866666663,30.67737696737535,3.788206281763638,-11.34568818609547,26.802130172298913,48.16620644780823,8.114063899507608,55.71512952790321,-2.9362789729916106,54.874026203074095,-2.887125838605482,0.10888714666666666,-0.2511492533333333,0.07115916000000011,0.4311955600000001,0.2828356134064532,0.35645029426132424,0.662787782496892,0.5497698758331456
LBP03_S05,LBP03,117,118,5,117,117,1715748670.68,2024-05-15 04:51:10.680000+00:00,2024-05-15 13:51:10.680000+09:00,2024,5,15,4,51,10,680,,,,,,,,,-0.323975,0.524902,0.796143,150.756836,-29.541016,-41.748047,,,,,,,,,,,1.0,1.0,1.0,5.0,0.0,0.0,0.0,4.0,0.0,-0.31669926666666665,-0.07139322666666667,0.9537435199999998,-1.9938151733333334,5.20182292,-1.353352813333333,18.156251112317143,2.8316874685333437,-28.89005285156418,27.5283802167916,48.279473946549565,6.95846178544504,56.01017329320898,-2.9090095481637843,54.784442420847505,-2.8947203447830163,-0.007275733333333367,0.5962952266666667,-0.1576005199999998,0.7611714799999999,0.61681347062565,0.3773542018066854,0.6617535465711084,0.5557512970059765
LBP03_S05,LBP03,118,119,5,118,118,1715748670.72,2024-05-15 04:51:10.720000+00:00,2024-05-15 13:51:10.720000+09:00,2024,5,15,4,51,10,720,,,,,,,,,-0.352295,0.214355,0.901367,-24.658203,-42.114258,-100.524902,,,,,,,,,,,1.0,1.0,1.0,5.0,0.0,0.0,0.0,4.0,0.0,-0.3315169733333333,-0.07490233333333333,0.9462012000000001,-0.616048253333333,8.6686198,-0.5696613999999995,-0.39470523952501785,0.6350511583781514,-42.97548015680976,27.5125920072106,48.30487599288469,5.23944257917265,55.83686526107678,-2.9073170370857717,54.685832797532406,-2.8976100498379935,-0.020778026666666727,0.2892573333333333,-0.044834200000000046,0.3548695600000001,0.293447843353656,0.3830447747500925,0.6590034435544065,0.5576692138352137
LBP03_S05,LBP03,119,120,5,119,119,1715748670.76,2024-05-15 04:51:10.760000+00:00,2024-05-15 13:51:10.760000+09:00,2024,5,15,4,51,10,760,,,,,,,,,0.090088,0.517334,0.491699,-83.92334,-38.879395,-101.806641,,,,,,,,,,,1.0,1.0,1.0,5.0,0.0,0.0,0.0,4.0,0.0,-0.3457715333333333,-0.07359698666666667,0.9413802399999999,-0.9570313199999997,5.666503920000001,-3.9103189599999997,-19.216158762177866,-1.848116573484437,-49.88148771054873,26.743945656723486,48.23095132994531,3.2441830707507004,55.24480083481049,-2.91926711599606,54.54424845350841,-2.9024515180595603,0.4358595333333333,0.5909309866666667,-0.44968123999999987,1.47647176,0.8610378513214902,0.41384697377141577,0.6665215048670028,0.566005616837129
LBP03_S05,LBP03,120,121,5,120,120,1715748670.8,2024-05-15 04:51:10.800000+00:00,2024-05-15 13:51:10.800000+09:00,2024,5,15,4,51,10,800,,,,,,,,,-0.424316,-0.397217,0.916504,-251.037598,46.325684,-88.256836,,,,,,,,,,,1.0,1.0,1.0,5.0,0.0,0.0,0.0,4.0,0.0,-0.34937179999999995,-0.07783526666666668,0.9456054933333333,-0.4760742799999996,3.286132826666667,-5.026041613333334,-32.605704247987475,-3.8462091507663936,-47.70981521017242,25.439717486803985,48.077102963914655,1.3357904623438035,54.409295082463075,-2.9091650466931585,54.3470794312269,-2.9106875128970335,-0.07494420000000007,-0.3193817333333333,-0.02910149333333334,0.4234274266666667,0.3293451405666622,0.41674436240988677,0.6688509537692724,0.5692408517874186
LBP03_S05,LBP03,121,122,5,121,121,1715748670.84,2024-05-15 04:51:10.840000+00:00,2024-05-15 13:51:10.840000+09:00,2024,5,15,4,51,10,840,,,,,,,,,-0.189209,-0.442627,1.179932,-5.371094,-33.996582,-55.236816,,,,,,,,,,,1.0,1.0,1.0,5.0,0.0,0.0,0.0,4.0,0.0,-0.34726568,-0.07498044,0.9572331066666665,-0.1586914666666661,-0.8585611866666663,-5.34830724,-36.62651048902439,-4.940863110532712,-36.86358459828082,23.974657067243008,47.879468439493344,-0.13875292158742947,53.546679933620474,-2.916488898142136,54.11080968918278,-2.919594680090541,0.15805668000000003,-0.36764656,0.22269889333333348,0.7484021333333335,0.45797456726803887,0.4255644867967152,0.6695061971619691,0.572321761837251
LBP03_S05,LBP03,122,123,5,122,122,1715748670.88,2024-05-15 04:51:10.880000+00:00,2024-05-15 13:51:10.880000+09:00,2024,5,15,4,51,10,880,,,,,,,,,-0.378418,-0.106201,0.814697,-27.893066,24.230957,-31.066895,,,,,,,,,,,1.0,1.0,1.0,5.0,0.0,0.0,0.0,4.0,0.0,-0.3522494133333333,-0.07686846666666668,0.9610124,0.10742181333333387,2.0670572933333338,-4.812011666666667,-30.165516670020462,-5.077718384319621,-19.87518578588128,22.76803640044219,47.67635970412056,-0.9337603530226806,52.84212963692349,-2.913930089984661,53.87911481968363,-2.9261687996808283,-0.02616858666666666,-0.029332533333333327,-0.14631539999999998,0.20181651999999997,0.15150375809544114,0.4266702905152859,0.6473792410028745,0.5712648391842415
LBP03_S05,LBP03,123,124,5,123,123,1715748670.92,2024-05-15 04:51:10.920000+00:00,2024-05-15 13:51:10.920000+09:00,2024,5,15,4,51,10,920,,,,,,,,,-0.275879,-0.29126,0.946045,-60.668945,-10.864258,69.396973,,,,,,,,,,,1.0,1.0,1.0,5.0,0.0,0.0,0.0,4.0,0.0,-0.3532162133333333,-0.08620114666666667,0.9417057600000001,-1.1922201199999996,-1.745605466666666,-9.093424426666665,-15.072855927011716,-4.462570882307855,-0.667507769592863,22.16512216336172,47.497856868828244,-0.960460663806395,52.423864149213216,-2.887633537905725,53.70905897123494,-2.9360420068824373,0.07733721333333332,-0.20505885333333335,0.0043392399999999665,0.28673530666666663,0.21920083690607714,0.4304399421284615,0.6215800585690421,0.5716108726476274
LBP03_S05,LBP03,124,125,5,124,124,1715748670.96,2024-05-15 04:51:10.960000+00:00,2024-05-15 13:51:10.960000+09:00,2024,5,15,4,51,10,960,,,,,,,,,-0.360596,-0.510498,0.907715,-15.930176,-37.719727,23.681641,,,,,,,,,,,1.0,1.0,1.0,5.0,0.0,0.0,0.0,4.0,0.0,-0.31302741333333334,-0.07133461333333334,0.9243229466666666,7.43245436,3.383789066666667,-5.209960879999999,4.561462583855374,-3.406472994755613,16.510474014127272,22.347580666715935,47.36159794903802,-0.3000417032413042,52.37008064692456,-2.9061553755901377,53.6510401984767,-2.945512915220559,-0.04756858666666669,-0.43916338666666666,-0.01660794666666654,0.5033399199999999,0.4420441997340121,0.44345887720970795,0.6082817258503976,0.5741150821681635
LBP03_S05,LBP03,125,126,5,125,125,1715748671.0,2024-05-15 04:51:11+00:00,2024-05-15 13:51:11+09:00,2024,5,15,4,51,11,0,4.0,51.0,11.0,40.540871,141.504379,-3.46,3.0,14.0,0.007568,-0.430908,0.999023,182.067871,27.282715,88.623047,-290.0,4.0,364.0,2953.0,0.0,1019.200012,29.030001,0.061441,-49.391544,3.853125,1.0,1.0,1.0,5.0,0.0,0.0,0.0,4.0,0.0,-0.33216152,-0.04753252000000001,0.9142480799999998,6.306152280000002,5.01383464,-4.573567653333332,23.6906756687229,-2.1723552249780345,28.156608364921276,23.29520769346485,47.2747037400389,0.8262226313555469,52.709078525683566,-2.9907011783523605,53.73228600747152,-2.955735170245347,0.33972952,-0.38337548,0.0847749200000002,0.8078799200000002,0.5192106436559898,0.45744666620411245,0.598691092076211,0.5798956174765639
LBP03_S05,LBP03,126,127,5,126,126,1715748671.04,2024-05-15 04:51:11.040000+00:00,2024-05-15 13:51:11.040000+09:00,2024,5,15,4,51,11,40,,,,,,,,,-0.64917,0.403809,0.881104,169.73877,82.519531,85.754395,,,,,,,,,,,1.0,1.0,1.0,5.0,0.0,0.0,0.0,4.0,0.0,-0.33111334666666664,-0.04378577333333333,0.9140527733333332,3.308105413333335,4.969889320000001,-4.029947853333332,37.728926263214824,-0.8664862340921401,32.30327039047605,24.804364743993442,47.240044290675215,2.118353446974589,53.39818083291162,-3.002020168894491,53.95127907318041,-2.9664228476090955,-0.3180566533333334,0.4475947733333333,-0.03294877333333324,0.7986002,0.5500788466293624,0.4643183175706097,0.5754619193761531,0.5854129454336584
LBP03_S05,LBP03,127,128,5,127,127,1715748671.08,2024-05-15 04:51:11.080000+00:00,2024-05-15 13:51:11.080000+09:00,2024,5,15,4,51,11,80,,,,,,,,,-0.247559,0.053711,0.927734,-76.904297,-70.495605,-34.118652,,,,,,,,,,,1.0,1.0,1.0,5.0,0.0,0.0,0.0,4.0,0.0,-0.3349902933333333,-0.042402306666666674,0.91461268,2.945963480000002,5.63883464,-3.900553319999999,43.68237080506168,0.5865040038054216,28.836569595856123,26.55165957619591,47.26350445082743,3.2718162308088337,54.30961480872208,-3.0077416201798712,54.28384907011404,-2.9767054995975286,0.0874312933333333,0.09611330666666668,0.013121319999999992,0.19666591999999997,0.13059160696952343,0.43886480478753465,0.5451891188341853,0.5819795894071944
LBP03_S05,LBP03,128,129,5,128,128,1715748671.12,2024-05-15 04:51:11.120000+00:00,2024-05-15 13:51:11.120000+09:00,2024,5,15,4,51,11,120,,,,,,,,,-0.197266,-0.164551,0.878174,-19.592285,-26.916504,-9.765625,,,,,,,,,,,1.0,1.0,1.0,5.0,0.0,0.0,0.0,4.0,0.0,-0.33531908,-0.044287080000000006,0.9161003066666666,3.4179686800000013,6.148274746666667,-2.506510359999999,40.71708982119964,2.370192357822316,19.320065594696235,28.180343169043894,47.358312145140324,4.044618854596683,55.25667753349439,-3.0020261204669842,54.69507925110598,-2.9882168877807325,0.13805308,-0.12026392,-0.03792630666666663,0.29624330666666665,0.1869771860110929,0.4379538425809741,0.5280969439167674,0.5827484975595881
LBP03_S05,LBP03,129,130,5,129,129,1715748671.16,2024-05-15 04:51:11.160000+00:00,2024-05-15 13:51:11.160000+09:00,2024,5,15,4,51,11,160,,,,,,,,,-0.273926,-0.19458,1.179199,93.75,33.874512,70.922852,,,,,,,,,,,1.0,1.0,1.0,5.0,0.0,0.0,0.0,4.0,0.0,-0.34187506666666667,-0.038658826666666674,0.9101758266666667,4.381510346666668,6.486816413333334,-2.6017252133333324,30.119639453363803,4.639552826582842,6.438600599880042,29.385128747178445,47.543894258203636,4.302162878591885,56.05725892475867,-3.0214896662439474,55.14906682982382,-3.0033548929671063,0.06794906666666667,-0.15592117333333333,0.26902317333333337,0.49289341333333336,0.3182796816399866,0.4332473985242475,0.5039530459384768,0.5836646519944341
LBP03_S05,LBP03,130,131,5,130,130,1715748671.2,2024-05-15 04:51:11.200000+00:00,2024-05-15 13:51:11.200000+09:00,2024,5,15,4,51,11,200,,,,,,,,,-0.369629,0.332764,0.762695,123.046875,6.225586,-63.415527,,,,,,,,,,,1.0,1.0,1.0,5.0,0.0,0.0,0.0,4.0,0.0,-0.3459766266666666,-0.040862600000000006,0.9108236133333333,3.529459573333335,5.916341146666667,-3.3536783466666655,14.782665377274782,7.39236399289928,-6.746647198446459,29.976435362269438,47.839588817919605,4.032296990654026,56.599225739552075,-3.0160418203306416,55.61273782706343,-3.0187367193257946,-0.023652373333333365,0.37362660000000003,-0.14812861333333327,0.5454075866666667,0.40261440247452096,0.441528959602533,0.5029663671510187,0.5853444250927399
LBP03_S05,LBP03,131,132,5,131,131,1715748671.24,2024-05-15 04:51:11.240000+00:00,2024-05-15 13:51:11.240000+09:00,2024,5,15,4,51,11,240,,,,,,,,,-0.162598,0.448486,0.617432,-52.490234,-10.681152,-12.939453,,,,,,,,,,,1.0,1.0,1.0,5.0,0.0,0.0,0.0,4.0,0.0,-0.3490462933333333,-0.040100880000000005,0.9122819466666667,5.270182226666668,5.994466146666667,-2.8287760133333326,-1.606744117605651,10.40882817168803,-17.53823737014386,29.912165597565213,48.255941944787125,3.3307674958482716,56.872379902956666,-3.019315418026463,56.056441892605015,-3.0256572986642363,0.18644829333333332,0.48858688,-0.29484994666666675,0.96988512,0.6003470633261924,0.4599647908913018,0.5017359269472125,0.5876557068818559
LBP03_S05,LBP03,132,133,5,132,132,1715748671.28,2024-05-15 04:51:11.280000+00:00,2024-05-15 13:51:11.280000+09:00,2024,5,15,4,51,11,280,,,,,,,,,-0.172852,-0.154297,0.970947,-183.898926,-12.512207,-116.882324,,,,,,,,,,,1.0,1.0,1.0,5.0,0.0,0.0,0.0,4.0,0.0,-0.3509343066666667,-0.03705401333333334,0.9129167066666666,5.779622333333336,5.2335612000000005,-3.588053359999999,-15.49852480293565,13.280025174001471,-24.17433936083605,29.29222460544779,48.787142951747185,2.3637939214148296,56.95443144684295,-3.0290439718167037,56.4563245210846,-3.031699661262548,0.1780823066666667,-0.11724298666666666,0.05803029333333343,0.3533555866666668,0.22096773704455955,0.4439286449011104,0.5004178895423519,0.5820747561191989
LBP03_S05,LBP03,133,134,5,133,133,1715748671.32,2024-05-15 04:51:11.320000+00:00,2024-05-15 13:51:11.320000+09:00,2024,5,15,4,51,11,320,,,,,,,,,-0.394775,-0.339111,1.108643,-54.382324,62.438965,-2.685547,,,,,,,,,,,1.0,1.0,1.0,5.0,0.0,0.0,0.0,4.0,0.0,-0.35403977333333336,-0.03398109333333334,0.9084440533333332,6.313476506666668,5.333658866666666,-3.8110351333333323,-24.312390393016827,15.513665441209179,-26.109729198330054,28.319728989727114,49.40768956939555,1.3194047534816273,56.963739936391626,-3.0390135897694632,56.79967665725769,-3.0392080249087767,-0.040735226666666624,-0.3051299066666667,0.20019894666666682,0.5460640800000001,0.36721007186682164,0.4330887696358531,0.4840888386468892,0.5775815462958325
LBP03_S05,LBP03,134,135,5,134,134,1715748671.36,2024-05-15 04:51:11.360000+00:00,2024-05-15 13:51:11.360000+09:00,2024,5,15,4,51,11,360,,,,,,,,,-0.478271,-0.142822,0.944824,58.166504,38.085938,9.277344,,,,,,,,,,,1.0,1.0,1.0,5.0,0.0,0.0,0.0,4.0,0.0,-0.35902676,-0.02733069333333334,0.9097721733333335,5.678710893333335,5.124511733333334,-3.986816386666666,-26.9363367510723,16.681880520342848,-23.953836951897014,27.24227551968422,50.074964790209265,0.36125127540574675,57.006790619320654,-3.05997363917702,57.089589394822966,-3.046430495410715,-0.11924424,-0.11549130666666667,0.03505182666666651,0.2697873733333332,0.16966455505326292,0.412988718707975,0.4805573609765163,0.5719820130345976
LBP03_S05,LBP03,135,136,5,135,135,1715748671.4,2024-05-15 04:51:11.400000+00:00,2024-05-15 13:51:11.400000+09:00,2024,5,15,4,51,11,400,,,,,,,,,-0.339355,0.088623,0.881104,5.187988,-3.662109,-0.12207,,,,,,,,,,,1.0,1.0,1.0,5.0,0.0,0.0,0.0,4.0,0.0,-0.3598796266666667,-0.02741533333333334,0.9112435333333334,4.522298133333336,4.25944012,-4.444173159999999,-23.766474675150686,16.556752765560407,-19.11939917897943,26.291616532678194,50.73723490083168,-0.40352469175343053,57.146119181099465,-3.05990697173678,57.34463234077297,-3.0510460388160565,0.020524626666666657,0.11603833333333333,-0.030139533333333413,0.1667024933333334,0.1216328350904267,0.40505863659250785,0.44744900168555973,0.5688345407357112
LBP03_S05,LBP03,136,137,5,136,136,1715748671.44,2024-05-15 04:51:11.440000+00:00,2024-05-15 13:51:11.440000+09:00,2024,5,15,4,51,11,440,,,,,,,,,-0.304443,-0.13208,0.891113,-44.494629,8.728027,3.845215,,,,,,,,,,,1.0,1.0,1.0,5.0,0.0,0.0,0.0,4.0,0.0,-0.36239264,-0.026721973333333343,0.9117611066666665,4.911295533333335,3.7516276133333335,-4.414062479999998,-16.357457000871864,15.183901291891948,-13.328207174185131,25.63731825264332,51.34459095250736,-0.9366529787208357,57.3970071177075,-3.062443794877606,57.59277679456916,-3.0539928073788225,0.05794963999999997,-0.10535802666666666,-0.0206481066666665,0.18395577333333313,0.12200335597081614,0.38647446251798284,0.375799680945057,0.563988085645537
LBP03_S05,LBP03,137,138,5,137,137,1715748671.48,2024-05-15 04:51:11.480000+00:00,2024-05-15 13:51:11.480000+09:00,2024,5,15,4,51,11,480,,,,,,,,,-0.437988,-0.05835,0.932129,28.869629,13.061523,0.793457,,,,,,,,,,,1.0,1.0,1.0,5.0,0.0,0.0,0.0,4.0,0.0,-0.36558925333333336,-0.019960893333333337,0.9090365066666666,5.438639280000001,3.5099284,-4.635416639999999,-6.878237378991703,12.879398212421126,-8.144482685927882,25.36218875748365,51.859766881004205,-1.2624322861579511,57.74313617045289,-3.0828252566421552,57.86262730530672,-3.057392329916822,-0.07239874666666662,-0.03838910666666666,0.023092493333333408,0.1338803466666667,0.08513850643462645,0.3694703780770634,0.3364755291327634,0.5621333884726478
LBP03_S05,LBP03,138,139,5,138,138,1715748671.52,2024-05-15 04:51:11.520000+00:00,2024-05-15 13:51:11.520000+09:00,2024,5,15,4,51,11,520,,,,,,,,,-0.26001,-0.076172,1.072754,-9.887695,1.831055,-16.723633,,,,,,,,,,,1.0,1.0,1.0,5.0,0.0,0.0,0.0,4.0,0.0,-0.36747726666666664,-0.022988240000000004,0.9099674933333334,4.108886680000002,2.4527994933333335,-4.886067693333333,2.4390247286276723,10.17144187531526,-4.656807605638125,25.45974974662876,52.266624556016815,-1.448704590383476,58.15580490914713,-3.0742508254863705,58.1764346205945,-3.0607944858209475,0.10746726666666662,-0.05318376,0.1627865066666666,0.32343753333333325,0.20218103888663427,0.3662410304525769,0.3323998132117045,0.5597294885135926
LBP03_S05,LBP03,139,140,5,139,139,1715748671.56,2024-05-15 04:51:11.560000+00:00,2024-05-15 13:51:11.560000+09:00,2024,5,15,4,51,11,560,,,,,,,,,-0.398682,-0.109619,0.841553,15.319824,21.179199,4.455566,,,,,,,,,,,1.0,1.0,1.0,5.0,0.0,0.0,0.0,4.0,0.0,-0.36592778666666664,-0.025162720000000003,0.9104036933333335,3.738606733333335,1.7749023600000002,-4.55078124,9.742470675486924,7.716903806716845,-3.3495877101783136,25.849448573648235,52.57530070828549,-1.5826880987906087,58.60768838425879,-3.0676451002973613,58.5479065302294,-3.063344304455664,-0.03275421333333334,-0.08445628,-0.06885069333333349,0.18606118666666682,0.11378101640873421,0.3463693549657217,0.3334464098540952,0.5553401327449898
LBP03_S05,LBP03,140,141,5,140,140,1715748671.6,2024-05-15 04:51:11.600000+00:00,2024-05-15 13:51:11.600000+09:00,2024,5,15,4,51,11,600,,,,,,,,,-0.380127,0.081055,0.948975,38.94043,-3.601074,-16.052246,,,,,,,,,,,1.0,1.0,1.0,5.0,0.0,0.0,0.0,4.0,0.0,-0.36845708,-0.032958946666666676,0.9142448400000001,3.5416666400000016,1.9645182400000003,-3.701171866666666,13.845332960379652,6.208498753194595,-4.138843238010756,26.403261892063423,52.823640658413275,-1.748241828311039,59.08067027751392,-3.045509505958302,58.984679930784566,-3.06474025996675,-0.01166992,0.11401394666666667,0.034730159999999954,0.16041402666666663,0.11975621520798621,0.3153855217579207,0.33335102882710255,0.5491674932648581
LBP03_S05,LBP03,141,142,5,141,141,1715748671.64,2024-05-15 04:51:11.640000+00:00,2024-05-15 13:51:11.640000+09:00,2024,5,15,4,51,11,640,,,,,,,,,-0.333496,-0.073486,0.941895,-14.465332,23.803711,-24.353027,,,,,,,,,,,1.0,1.0,1.0,5.0,0.0,0.0,0.0,4.0,0.0,-0.3681868933333333,-0.030237600000000007,0.9123763466666666,3.479817680000002,1.960449226666667,-3.0485025999999995,14.339146478028594,6.272314322675647,-6.512400073026747,26.976827751184565,53.0745332313203,-2.008737831232109,59.570885010332255,-3.053310643406462,59.4925175539221,-3.064498488173167,0.034690893333333306,-0.04324839999999999,0.029518653333333478,0.10745794666666678,0.06281109040160207,0.3065845408377267,0.33151741754952546,0.5440533686105035
LBP03_S05,LBP03,142,143,5,142,142,1715748671.68,2024-05-15 04:51:11.680000+00:00,2024-05-15 13:51:11.680000+09:00,2024,5,15,4,51,11,680,,,,,,,,,-0.552002,-0.135986,0.941406,31.799316,15.563965,-1.342773,,,,,,,,,,,1.0,1.0,1.0,5.0,0.0,0.0,0.0,4.0,0.0,-0.36874028,-0.026907520000000004,0.9109342933333333,3.238932266666668,2.1134440266666665,-2.848307279999999,11.55033351518323,8.350373905845915,-9.709057841125295,27.438841091791893,53.40854818755414,-2.397100144877121,60.09250459972083,-3.0630655308579526,60.077631299499615,-3.06322853588907,-0.18326172000000002,-0.10907847999999999,0.030471706666666654,0.32281190666666665,0.21543327905327947,0.2905293331748318,0.3339417674907586,0.5380121421056828
LBP03_S05,LBP03,143,144,5,143,143,1715748671.72,2024-05-15 04:51:11.720000+00:00,2024-05-15 13:51:11.720000+09:00,2024,5,15,4,51,11,720,,,,,,,,,-0.345215,0.125244,0.886475,-23.010254,8.544922,-19.714355,,,,,,,,,,,1.0,1.0,1.0,5.0,0.0,0.0,0.0,4.0,0.0,-0.36958662666666664,-0.02646481333333334,0.9117090266666668,2.703450493333335,2.6855468933333335,-3.481445293333333,6.378466033479763,12.57053246997112,-12.886974826796145,27.693979733131084,53.91136948635298,-2.912579137948967,60.678459032740456,-3.064511776116633,60.74521581570218,-3.058495142704147,0.024371626666666646,0.15170881333333333,-0.025234026666666742,0.20131446666666672,0.15571222280605207,0.2850199083529277,0.3340323415515101,0.5343422651539135
LBP03_S05,LBP03,144,145,5,144,144,1715748671.76,2024-05-15 04:51:11.760000+00:00,2024-05-15 13:51:11.760000+09:00,2024,5,15,4,51,11,760,,,,,,,,,-0.487305,-0.317871,0.963135,-21.728516,4.333496,-13.977051,,,,,,,,,,,1.0,1.0,1.0,5.0,0.0,0.0,0.0,4.0,0.0,-0.37302412,-0.02339841333333334,0.9106055066666666,0.8707682000000019,3.2836914266666666,-5.13264972,0.06732760967642797,18.62424865377631,-15.259164385905681,27.69667283751814,54.65633943250403,-3.5229457133851945,61.37452462487241,-3.07393319428788,61.49491719221942,-3.0541387770271724,-0.11428087999999997,-0.29447258666666665,0.052529493333333344,0.46128295999999996,0.32020863745625067,0.2633867397983181,0.3386168567848669,0.5321432498441079
LBP03_S05,LBP03,145,146,5,145,145,1715748671.8,2024-05-15 04:51:11.800000+00:00,2024-05-15 13:51:11.800000+09:00,2024,5,15,4,51,11,800,,,,,,,,,-0.424805,0.141846,0.926758,57.189941,31.921387,28.503418,,,,,,,,,,,1.0,1.0,1.0,5.0,0.0,0.0,0.0,4.0,0.0,-0.3780078533333333,-0.02944333333333334,0.90979496,-0.34261070666666504,3.1575521066666665,-4.600423159999999,-6.046104220077959,25.69490134412108,-16.20143584985409,27.45482866871502,55.68413548626888,-4.171003147379358,62.224495412474774,-3.0574892538009517,62.31585364226042,-3.053410464672494,-0.04679714666666668,0.17128933333333335,0.01696303999999993,0.23504951999999996,0.17837531605006587,0.25734794681765427,0.33704615461377047,0.5316832847853997
LBP03_S05,LBP03,146,147,5,146,146,1715748671.84,2024-05-15 04:51:11.840000+00:00,2024-05-15 13:51:11.840000+09:00,2024,5,15,4,51,11,840,,,,,,,,,-0.358887,0.131348,0.939697,47.790527,-3.479004,-13.427734,,,,,,,,,,,1.0,1.0,1.0,5.0,0.0,0.0,0.0,4.0,0.0,-0.37378585333333336,-0.03186845333333334,0.9104655333333334,0.39713538666666826,2.66113284,-3.3235676933333322,-10.781397514276042,32.492533684830256,-15.351022531905773,27.02357276814398,56.98383683366209,-4.785044048655589,63.24814457348272,-3.049744272036634,63.18400737964623,-3.0562598876538525,0.01489885333333335,0.16321645333333334,0.02923146666666665,0.20734677333333335,0.16648142572925306,0.2456882211561028,0.33562635397640905,0.528233538493347
LBP03_S05,LBP03,147,148,5,147,147,1715748671.88,2024-05-15 04:51:11.880000+00:00,2024-05-15 13:51:11.880000+09:00,2024,5,15,4,51,11,880,,,,,,,,,-0.246338,0.145996,0.905029,-82.885742,-19.40918,-73.669434,,,,,,,,,,,1.0,1.0,1.0,5.0,0.0,0.0,0.0,4.0,0.0,-0.37925136,-0.037324173333333335,0.9117187866666666,1.5193684666666685,3.921712266666667,-1.8774413866666657,-13.350618018883456,37.442926987275975,-12.701267603966556,26.48954804738864,58.48155391315313,-5.293094752814251,64.41898133247854,-3.0354913247929196,64.06347538004538,-3.0604487374480187,0.13291335999999998,0.18332017333333334,-0.006689786666666642,0.32292331999999996,0.2265325593884872,0.24868937320782464,0.33767983186155526,0.5144826184045245
LBP03_S05,LBP03,148,149,5,148,148,1715748671.92,2024-05-15 04:51:11.920000+00:00,2024-05-15 13:51:11.920000+09:00,2024,5,15,4,51,11,920,,,,,,,,,-0.195068,-0.311523,1.077881,-151.672363,26.489258,14.465332,,,,,,,,,,,1.0,1.0,1.0,5.0,0.0,0.0,0.0,4.0,0.0,-0.3831836533333333,-0.03937169333333334,0.9110937866666666,5.614420546666668,3.775227893333334,-0.21484373333333256,-13.536311041094066,39.040768793056785,-8.662235445964452,25.94809560574488,60.0431846648754,-5.639584170652829,65.65281867431956,-3.0306871687166286,64.91118808251713,-3.0661082639730313,0.18811565333333333,-0.27215130666666665,0.16678721333333346,0.6270541733333335,0.3705021015876965,0.25474142379508946,0.3425906829617755,0.49930051364439115
LBP03_S05,LBP03,149,150,5,149,149,1715748671.96,2024-05-15 04:51:11.960000+00:00,2024-05-15 13:51:11.960000+09:00,2024,5,15,4,51,11,960,,,,,,,,,-0.688232,-0.199951,0.914551,-49.316406,199.157715,-86.242676,,,,,,,,,,,1.0,1.0,1.0,5.0,0.0,0.0,0.0,4.0,0.0,-0.382933,-0.028720653333333342,0.9041764666666667,8.636881493333336,4.22281904,-0.8789062399999993,-11.716209722469086,36.302155247270456,-4.027605392777021,25.479447216846115,61.49527087476621,-5.80068838636391,66.8170528846687,-3.0603619767505768,65.68338405945474,-3.069266470430369,-0.30529899999999993,-0.17123034666666664,0.010374533333333269,0.48690387999999984,0.3501927211728868,0.2510673646526444,0.34726312093117623,0.48921027211781326
LBP03_S05,LBP03,150,151,5,150,150,1715748672.0,2024-05-15 04:51:12+00:00,2024-05-15 13:51:12+09:00,2024,5,15,4,51,12,0,4.0,51.0,12.0,40.540871,141.504379,-3.512,3.0,13.0,-0.350586,-0.253662,0.969238,183.654785,44.189453,48.095703,-297.0,1.0,358.0,3593.0,0.0,1019.5,29.1,0.064414,-51.875576,3.853125,1.0,1.0,1.0,5.0,0.0,0.0,0.0,4.0,0.0,-0.38568364,-0.024000600000000004,0.8987890933333333,9.10237628,5.1074219066666675,-1.8050130133333326,-8.659276463899149,29.160787129531162,0.19765391253987766,25.133076158290148,62.66170235994746,-5.792782229862315,67.76220765137207,-3.074003735771884,66.34189658283654,-3.0724288479516657,0.035097639999999986,-0.2296614,0.0704489066666667,0.33520794666666665,0.2427740748804499,0.2400099019016228,0.3487282840528676,0.47913069535134817
LBP03_S05,LBP03,151,152,5,151,151,1715748672.04,2024-05-15 04:51:12.040000+00:00,2024-05-15 13:51:12.040000+09:00,2024,5,15,4,51,12,40,,,,,,,,,-0.504639,0.182373,0.77417,74.523926,-2.868652,50.476074,,,,,,,,,,,1.0,1.0,1.0,5.0,0.0,0.0,0.0,4.0,0.0,-0.39041672,-0.016621040000000007,0.8964485999999999,9.325358053333334,5.714518266666667,-2.9028320133333327,-5.1534992104705655,18.614779618979572,3.088580752795455,24.926936189871327,63.40629354470664,-5.669238999750497,68.36556501432366,-3.0951991413481243,66.85897379985911,-3.075889725911439,-0.11422227999999995,0.19899404,-0.1222785999999999,0.4354949199999999,0.25999502537910213,0.2284065490516124,0.3463624333111111,0.45977679593463944
LBP03_S05,LBP03,152,153,5,152,152,1715748672.08,2024-05-15 04:51:12.080000+00:00,2024-05-15 13:51:12.080000+09:00,2024,5,15,4,51,12,80,,,,,,,,,-0.516113,0.148193,1.039551,-81.542969,20.263672,43.273926,,,,,,,,,,,1.0,1.0,1.0,5.0,0.0,0.0,0.0,4.0,0.0,-0.39792647999999997,-0.00797521333333334,0.89434248,6.553548160000001,5.520019573333334,-4.1642252399999995,-1.6694578769034343,6.51313898347838,4.110398942804976,24.86015787479519,63.66681910404578,-5.504823042038297,68.56963162443841,-3.1196607961080836,67.22031702710333,-3.0792602944591545,-0.11818652000000007,0.15616821333333333,0.14520851999999984,0.4195632533333332,0.24380746224434208,0.23293518326260515,0.3358999940250699,0.4411044736436585
LBP03_S05,LBP03,153,154,5,153,153,1715748672.12,2024-05-15 04:51:12.120000+00:00,2024-05-15 13:51:12.120000+09:00,2024,5,15,4,51,12,120,,,,,,,,,-0.010254,-0.307617,1.277832,-71.777344,-116.821289,-59.936523,,,,,,,,,,,1.0,1.0,1.0,5.0,0.0,0.0,0.0,4.0,0.0,-0.3955924933333333,-0.01647781333333334,0.89536136,2.7905273333333342,3.350423226666667,-5.227864559999999,1.7458664090766194,-4.9578875718670465,3.3125919959672236,24.929992531158252,63.46850360117109,-5.372319362199608,68.40041880211655,-3.0960938406900103,67.42665306035515,-3.082042943101521,0.3853384933333333,-0.2911391866666666,0.3824706400000001,1.0589483199999998,0.6160613369781788,0.2500985493012886,0.34402619594113126,0.4354308123782746
LBP03_S05,LBP03,154,155,5,154,154,1715748672.16,2024-05-15 04:51:12.160000+00:00,2024-05-15 13:51:12.160000+09:00,2024,5,15,4,51,12,160,,,,,,,,,-0.501709,0.00415,1.113037,123.535156,6.652832,110.778809,,,,,,,,,,,1.0,1.0,1.0,5.0,0.0,0.0,0.0,4.0,0.0,-0.39889978666666664,-0.01313797333333334,0.8955306266666667,3.291015613333334,3.8232422400000003,-4.19514972,5.315761733356573,-13.884135509224054,1.3146528918317448,25.142623000492517,62.91313818080213,-5.319733246526338,67.95964985869038,-3.1055569695008405,67.49410672313778,-3.086208668785914,-0.10280921333333332,0.01728797333333334,0.21750637333333334,0.33760356,0.2412003955403313,0.24701537785730238,0.3401313881907749,0.41830715657808537
LBP03_S05,LBP03,155,156,5,155,155,1715748672.2,2024-05-15 04:51:12.200000+00:00,2024-05-15 13:51:12.200000+09:00,2024,5,15,4,51,12,200,,,,,,,,,-0.791992,-0.207275,0.425537,-107.23877,-55.908203,-88.317871,,,,,,,,,,,1.0,1.0,1.0,5.0,0.0,0.0,0.0,4.0,0.0,-0.40125004,-0.018141226666666673,0.8952474133333334,0.6306966000000013,4.536946666666667,-3.7101236799999993,9.250637552959834,-19.09562625135889,-0.9136708529331822,25.51264850261091,62.14931313074777,-5.356280080643666,67.39526758270058,-3.0920980333986896,67.45309451909641,-3.089178166323976,-0.39074196000000005,-0.1891337733333333,-0.46971041333333335,1.0495861466666667,0.6395926327856796,0.2564945070697487,0.34901173333614083,0.42080908045726206
LBP03_S05,LBP03,156,157,5,156,156,1715748672.24,2024-05-15 04:51:12.240000+00:00,2024-05-15 13:51:12.240000+09:00,2024,5,15,4,51,12,240,,,,,,,,,-0.534424,-0.198486,0.659668,-18.798828,-13.427734,-105.407715,,,,,,,,,,,1.0,1.0,1.0,5.0,0.0,0.0,0.0,4.0,0.0,-0.4028158,-0.02138992000000001,0.8955924666666666,0.23518878666666798,4.9080404133333335,-2.762044253333333,13.503390292400788,-20.353668755505343,-2.383733384885236,26.05278411430694,61.33516638052756,-5.451629416039076,66.86157684592479,-3.0834499575137846,67.3451004341321,-3.0911328020663524,-0.1316082,-0.17709608,-0.23592446666666655,0.5446287466666666,0.3230233642177566,0.24540155910541128,0.35268317499835655,0.41629113766661213
LBP03_S05,LBP03,157,158,5,157,157,1715748672.28,2024-05-15 04:51:12.280000+00:00,2024-05-15 13:51:12.280000+09:00,2024,5,15,4,51,12,280,,,,,,,,,-0.305176,-0.191406,1.088623,40.95459,31.555176,78.918457,,,,,,,,,,,1.0,1.0,1.0,5.0,0.0,0.0,0.0,4.0,0.0,-0.4111328533333333,-0.029355413333333337,0.9014550933333334,1.5966796800000012,5.349934946666667,-1.7797851333333323,17.67940543781652,-18.24030403637185,-2.392974213409688,26.759960331819602,60.60555421907269,-5.547348384575463,66.48234166499681,-3.0633178112165846,67.2170963477203,-3.0919734250617243,0.10595685333333332,-0.16205058666666666,0.1871679066666665,0.4551753466666665,0.26929365513003517,0.2473345958288303,0.34563162036497025,0.4160567916378447
LBP03_S05,LBP03,158,159,5,158,158,1715748672.32,2024-05-15 04:51:12.320000+00:00,2024-05-15 13:51:12.320000+09:00,2024,5,15,4,51,12,320,,,,,,,,,-0.655762,0.147217,0.843018,94.970703,29.052734,39.550781,,,,,,,,,,,1.0,1.0,1.0,5.0,0.0,0.0,0.0,4.0,0.0,-0.41101892,-0.02595046666666667,0.9016211066666667,5.086263013333334,4.52962244,-0.9236653466666657,21.133903507966437,-13.8512312923147,-0.6928374687245219,27.60531647213826,60.0515049673801,-5.5750618833244445,66.32735530214575,-3.0723444255605616,67.11437226581099,-3.092305529177163,-0.24474307999999995,0.17316746666666666,-0.05860310666666668,0.4765136533333333,0.30548399439352336,0.24486555272989835,0.33897716118287574,0.4043477433412256
LBP03_S05,LBP03,159,160,5,159,159,1715748672.36,2024-05-15 04:51:12.360000+00:00,2024-05-15 13:51:12.360000+09:00,2024,5,15,4,51,12,360,,,,,,,,,-0.358887,-0.09375,0.930664,-21.118164,-55.358887,-4.516602,,,,,,,,,,,1.0,1.0,1.0,5.0,0.0,0.0,0.0,4.0,0.0,-0.4149772533333333,-0.01943353333333334,0.8975455866666666,5.540364573333335,5.19938156,0.3133138133333342,23.19938135684432,-8.438533208600308,2.5046317639433164,28.53329172641203,59.71396363903609,-5.474876612766712,66.40693084425509,-3.0900569521311962,67.07341255435355,-3.0960285076744887,0.056090253333333284,-0.07431646666666666,0.03311841333333343,0.16352513333333338,0.09882248245481794,0.24203186982596056,0.3275102942669678,0.4010488639263311
LBP03_S05,LBP03,160,161,5,160,160,1715748672.4,2024-05-15 04:51:12.400000+00:00,2024-05-15 13:51:12.400000+09:00,2024,5,15,4,51,12,400,,,,,,,,,-0.354492,0.244141,0.881836,55.541992,-37.841797,-67.626953,,,,,,,,,,,1.0,1.0,1.0,5.0,0.0,0.0,0.0,4.0,0.0,-0.41547204,-0.018134706666666674,0.8984635600000002,5.834960920000001,4.52636724,0.6494140800000008,23.42746178548278,-3.117467027682611,6.631010698385507,29.470390197831343,59.58926495792878,-5.209636184831292,66.68226680172906,-3.0935500931956503,67.11661761899491,-3.0974455111555743,0.06098004000000001,0.26227570666666666,-0.016627560000000208,0.3398833066666669,0.269784334862969,0.2479579298168623,0.32650828320468506,0.38095197772932726
LBP03_S05,LBP03,161,162,5,161,161,1715748672.44,2024-05-15 04:51:12.440000+00:00,2024-05-15 13:51:12.440000+09:00,2024,5,15,4,51,12,440,,,,,,,,,-0.3396,-0.280762,0.911377,8.728027,48.156738,7.8125,,,,,,,,,,,1.0,1.0,1.0,5.0,0.0,0.0,0.0,4.0,0.0,-0.41667646666666663,-0.014371680000000006,0.89972984,5.965169253333335,4.320475320000001,-0.5802408666666659,21.740206413709263,1.3192981272070246,10.921268922948062,30.339998454379714,59.64203688301706,-4.7727854279133695,67.0855241502057,-3.1036053713018417,67.25010863208858,-3.098994756317706,0.07707646666666662,-0.26639032,0.01164715999999999,0.3551139466666666,0.2775612376388061,0.2541802450835819,0.32032735380078237,0.33525986899123195
LBP03_S05,LBP03,162,163,5,162,162,1715748672.48,2024-05-15 04:51:12.480000+00:00,2024-05-15 13:51:12.480000+09:00,2024,5,15,4,51,12,480,,,,,,,,,-0.635986,-0.042236,0.835449,58.959961,40.100098,126.586914,,,,,,,,,,,1.0,1.0,1.0,5.0,0.0,0.0,0.0,4.0,0.0,-0.4194303733333334,-0.007073506666666673,0.8979687733333332,5.889485666666667,5.127766986666666,-0.7617187333333324,18.444642241823274,4.484256251108632,14.60234659834299,31.077784144052647,59.821407133061406,-4.18869156397965,67.54239080534516,-3.1229818372624703,67.4649161163681,-3.102597904011497,-0.21655562666666667,-0.03516249333333333,-0.06251977333333325,0.31423789333333324,0.22812597930981204,0.2598997439985893,0.31468506103782634,0.31095026742137205
LBP03_S05,LBP03,163,164,5,163,163,1715748672.52,2024-05-15 04:51:12.520000+00:00,2024-05-15 13:51:12.520000+09:00,2024,5,15,4,51,12,520,,,,,,,,,-0.46167,0.151123,0.862549,-25.57373,-25.32959,-24.780273,,,,,,,,,,,1.0,1.0,1.0,5.0,0.0,0.0,0.0,4.0,0.0,-0.42524092,-0.0031770266666666723,0.8963379200000001,3.168131506666668,4.941406306666667,-1.622721333333333,14.121441741500915,6.381565491125289,17.078812174079193,31.642641813712682,60.076669752706415,-3.5055390770164823,67.9908216875422,-3.1333236256632646,67.7409231423554,-3.108586275337019,-0.03642908,0.15430002666666667,-0.03378892000000011,0.2245180266666668,0.16210264406772287,0.25829660820583283,0.31226881932920486,0.3076987448764139
LBP03_S05,LBP03,164,165,5,164,164,1715748672.56,2024-05-15 04:51:12.560000+00:00,2024-05-15 13:51:12.560000+09:00,2024,5,15,4,51,12,560,,,,,,,,,-0.385498,-0.030273,0.921143,-11.71875,-10.253906,-19.714355,,,,,,,,,,,1.0,1.0,1.0,5.0,0.0,0.0,0.0,4.0,0.0,-0.42456384,-0.008391880000000004,0.8965625199999999,1.092122386666668,4.076334693333333,-2.884928373333333,9.437502021288745,7.302648301221426,18.058786302435305,32.02014189456423,60.36877568475527,-2.78318762491907,68.39170050510391,-3.1197270043117005,68.05229983699971,-3.112416273615197,0.03906584000000002,-0.021881119999999997,0.024580480000000127,0.08552744000000015,0.05107957776245226,0.2557885506599816,0.30107895281285163,0.30756045678939065
LBP03_S05,LBP03,165,166,5,165,165,1715748672.6,2024-05-15 04:51:12.600000+00:00,2024-05-15 13:51:12.600000+09:00,2024,5,15,4,51,12,600,,,,,,,,,-0.146729,-0.152344,1.059082,6.774902,3.051758,85.266113,,,,,,,,,,,1.0,1.0,1.0,5.0,0.0,0.0,0.0,4.0,0.0,-0.4283691733333333,-0.013144480000000005,0.8949414266666665,1.8098958266666678,4.899902399999999,-2.7172851466666663,4.955789088832351,7.662030575729725,17.576448922276533,32.218373458117526,60.67525690778446,-2.080129668028009,68.73017771363747,-3.1075904850200056,68.37299918482054,-3.1126287295923807,0.2816401733333333,-0.13919952,0.16414057333333354,0.5849802666666668,0.3544570797962087,0.26517658524351045,0.2902810535007156,0.31062621429923853
LBP03_S05,LBP03,166,167,5,166,166,1715748672.64,2024-05-15 04:51:12.640000+00:00,2024-05-15 13:51:12.640000+09:00,2024,5,15,4,51,12,640,,,,,,,,,-0.562256,0.422363,0.453125,19.65332,21.30127,-19.042969,,,,,,,,,,,1.0,1.0,1.0,5.0,0.0,0.0,0.0,4.0,0.0,-0.4336426,-0.008622986666666672,0.8908268399999999,2.388509106666668,5.856933653333334,-2.4047851466666663,1.0147513949910727,7.83327667028234,15.91796015135057,32.258963513917166,60.98858797459575,-1.4434112619739858,69.00965168871987,-3.119481434451693,68.681149290907,-3.112988681571562,-0.1286134,0.43098598666666665,-0.4377018399999999,0.9973012266666665,0.6275932027213055,0.2877678697362986,0.29717620528701266,0.31693423494511647
LBP03_S05,LBP03,167,168,5,167,167,1715748672.68,2024-05-15 04:51:12.680000+00:00,2024-05-15 13:51:12.680000+09:00,2024,5,15,4,51,12,680,,,,,,,,,-0.417969,-0.224365,1.009766,-84.106445,-18.981934,-42.419434,,,,,,,,,,,1.0,1.0,1.0,5.0,0.0,0.0,0.0,4.0,0.0,-0.43550132,-0.007190693333333339,0.8870703333333332,0.9879557200000014,5.109863333333333,-3.3919270799999994,-2.2830318363117605,8.039775896273431,13.497237563078203,32.167642240464694,61.31017901044669,-0.9035217594508577,69.24241192486977,-3.1232015244718028,68.96165744964235,-3.1139662459919895,0.017532320000000046,-0.21717430666666668,0.12269566666666676,0.3574022933333335,0.2500525711515632,0.28915264142022995,0.2898409872975309,0.31901205880058237
LBP03_S05,LBP03,168,169,5,168,168,1715748672.72,2024-05-15 04:51:12.720000+00:00,2024-05-15 13:51:12.720000+09:00,2024,5,15,4,51,12,720,,,,,,,,,-0.371094,0.081299,1.060303,90.332031,37.597656,60.302734,,,,,,,,,,,1.0,1.0,1.0,5.0,0.0,0.0,0.0,4.0,0.0,-0.43655926666666667,-0.012132106666666672,0.8888900000000001,-0.6705729199999986,5.086263066666667,-2.4194335999999996,-4.981973487063704,8.322356527200805,10.736761353463244,31.968363300982148,61.64307327153472,-0.4740513053123279,69.44112224858875,-3.110644408342341,69.20685256460607,-3.11325897815827,0.06546526666666669,0.09343110666666667,0.17141299999999993,0.33030937333333327,0.20590650645789657,0.2911604127663037,0.28809016055961567,0.319741698623108
LBP03_S05,LBP03,169,170,5,169,169,1715748672.76,2024-05-15 04:51:12.760000+00:00,2024-05-15 13:51:12.760000+09:00,2024,5,15,4,51,12,760,,,,,,,,,-0.396484,0.155029,0.969238,8.239746,-17.578125,-3.78418,,,,,,,,,,,1.0,1.0,1.0,5.0,0.0,0.0,0.0,4.0,0.0,-0.4412955866666667,-0.01956374666666667,0.8918034133333334,-0.24820963999999857,4.838053426666667,-2.6586914133333326,-7.137332627537027,8.574418734372468,7.9935628488728145,31.682869995880665,61.986050020909616,-0.15430879135741532,69.61392432246349,-3.092181511903036,69.41548045686382,-3.1112853161256773,0.04481158666666668,0.17459274666666666,0.0774345866666667,0.29683892,0.19618058186383416,0.28619929054260707,0.2747930151704626,0.32114433470411363
LBP03_S05,LBP03,170,171,5,170,170,1715748672.8,2024-05-15 04:51:12.800000+00:00,2024-05-15 13:51:12.800000+09:00,2024,5,15,4,51,12,800,,,,,,,,,-0.427246,0.069824,0.817383,-5.92041,30.334473,22.644043,,,,,,,,,,,1.0,1.0,1.0,5.0,0.0,0.0,0.0,4.0,0.0,-0.4451041733333333,-0.017708280000000007,0.8901465199999999,2.942708333333335,5.034179733333333,-0.9928385466666663,-8.708375812638876,8.618164395512107,5.5373520727324905,31.33453496337511,62.330776596730104,0.0671852915518843,69.76376786259365,-3.0971496129874616,69.59076488508626,-3.1112794817165543,0.017858173333333283,0.08753228,-0.07276351999999997,0.17815397333333327,0.11521868008093207,0.28367302510384174,0.27051048596074795,0.31925511144379426
LBP03_S05,LBP03,171,172,5,171,171,1715748672.84,2024-05-15 04:51:12.840000+00:00,2024-05-15 13:51:12.840000+09:00,2024,5,15,4,51,12,840,,,,,,,,,-0.547852,0.148926,0.986816,-42.358398,28.381348,8.239746,,,,,,,,,,,1.0,1.0,1.0,5.0,0.0,0.0,0.0,4.0,0.0,-0.44518881333333327,-0.011227160000000005,0.8863248933333333,3.8590494800000013,4.581705773333333,-0.7275390666666662,-9.540125777027356,8.289125463618651,3.555003563957825,30.952929932294015,62.66234161527485,0.2093854341101973,69.89060573755908,-3.1133810155061186,69.73839718252212,-3.1126614695787294,-0.10266318666666674,0.16015316000000002,0.10049110666666672,0.3633074533333335,0.21514466545473968,0.2856195546928612,0.265653887924482,0.31895742088189305
LBP03_S05,LBP03,172,173,5,172,172,1715748672.88,2024-05-15 04:51:12.880000+00:00,2024-05-15 13:51:12.880000+09:00,2024,5,15,4,51,12,880,,,,,,,,,-0.383301,-0.10376,0.98877,-59.204102,-20.507812,-18.005371,,,,,,,,,,,1.0,1.0,1.0,5.0,0.0,0.0,0.0,4.0,0.0,-0.4475879066666666,-0.010260360000000005,0.88462568,2.713216146666668,4.293619826666666,-1.0424804799999996,-9.431933857896338,7.498741720075851,2.1499511670294953,30.57565257797816,62.96229128407788,0.2953834807913771,69.99434195498245,-3.115909158925275,69.86512661120003,-3.1132868880987004,0.06428690666666659,-0.09349964,0.10414432000000007,0.26193086666666665,0.15401632522937533,0.2827189053264967,0.26570413926716063,0.31935952301653575
LBP03_S05,LBP03,173,174,5,173,173,1715748672.92,2024-05-15 04:51:12.920000+00:00,2024-05-15 13:51:12.920000+09:00,2024,5,15,4,51,12,920,,,,,,,,,-0.479736,-0.133301,0.981689,30.700684,2.01416,18.737793,,,,,,,,,,,1.0,1.0,1.0,5.0,0.0,0.0,0.0,4.0,0.0,-0.44968426666666667,-0.011230413333333338,0.88466148,2.627766933333335,4.29850264,-1.0083007999999998,-8.231583107549037,6.258066811763842,1.3261755876244556,30.2463892536762,63.21261395654843,0.34843050429635536,70.07710061011974,-3.1135870053373367,69.97820903419071,-3.114038495783701,-0.03005173333333333,-0.12207058666666666,0.09702752000000003,0.24914984,0.15880388673717138,0.2742509767324757,0.26449620026378257,0.3198107808853422
LBP03_S05,LBP03,174,175,5,174,174,1715748672.96,2024-05-15 04:51:12.960000+00:00,2024-05-15 13:51:12.960000+09:00,2024,5,15,4,51,12,960,,,,,,,,,-0.527832,0.318604,0.704346,33.325195,33.935547,-10.559082,,,,,,,,,,,1.0,1.0,1.0,5.0,0.0,0.0,0.0,4.0,0.0,-0.4521289333333333,-0.00882806666666667,0.8845052400000001,3.2625325600000012,4.195963586666667,-0.999348973333333,-5.889693957299213,4.664736905131689,0.9704407808562953,30.010801495384232,63.3992034327537,0.38724813553060716,70.14454478732839,-3.1196686602204764,70.0855569815615,-3.1159006402471316,-0.07570306666666665,0.3274320666666667,-0.18015924000000005,0.5832943733333333,0.38131360366726996,0.27549581203225104,0.2632815883424477,0.3233406846315345
LBP03_S05,LBP03,175,176,5,175,175,1715748673.0,2024-05-15 04:51:13+00:00,2024-05-15 13:51:13+09:00,2024,5,15,4,51,13,0,4.0,51.0,13.0,40.540871,141.504395,-3.827,3.0,13.0,-0.52124,-0.324951,0.940918,-82.580566,-13.000488,-27.160645,-295.0,-2.0,355.0,3646.0,0.0,1019.400024,29.16,0.063423,-51.047798,3.853125,1.0,1.0,1.0,5.0,0.0,0.0,0.0,4.0,0.0,-0.45316734666666664,-0.008137960000000005,0.8827799733333334,3.056640626666668,4.0502930133333335,-1.1686197999999997,-2.456298797149591,2.867208477291774,0.8565458867722661,29.912549543498248,63.51389177184537,0.4215099710014978,70.20650068799597,-3.121410363641752,70.1961704596936,-3.1199094496079303,-0.0680726533333334,-0.31681304,0.058138026666666676,0.44302372000000007,0.3292178892323074,0.2789535646063253,0.2594817332539741,0.32547004423735354
LBP03_S05,LBP03,176,177,5,176,176,1715748673.04,2024-05-15 04:51:13.040000+00:00,2024-05-15 13:51:13.040000+09:00,2024,5,15,4,51,13,40,,,,,,,,,-0.464844,-0.176025,0.873047,49.560547,-7.93457,8.544922,,,,,,,,,,,1.0,1.0,1.0,5.0,0.0,0.0,0.0,4.0,0.0,-0.45762697333333335,-0.006438733333333338,0.8799479466666665,3.3634440133333348,4.005533893333333,-1.0563151066666663,1.95433971167525,1.0210054230236385,0.690103956298757,29.990723131965257,63.55473198876632,0.44911412925344807,70.27694597549902,-3.125735619651404,70.32035857820617,-3.1237980503277587,-0.007217026666666626,-0.16958626666666665,-0.006900946666666519,0.1837042399999998,0.16987998817030017,0.27534896311797324,0.2518777560847928,0.32269127658006513
LBP03_S05,LBP03,177,178,5,177,177,1715748673.08,2024-05-15 04:51:13.080000+00:00,2024-05-15 13:51:13.080000+09:00,2024,5,15,4,51,13,80,,,,,,,,,-0.48291,0.057373,0.994385,47.912598,2.01416,35.217285,,,,,,,,,,,1.0,1.0,1.0,5.0,0.0,0.0,0.0,4.0,0.0,-0.4581510533333334,-0.004420506666666672,0.8808659066666666,3.245442720000001,3.629557333333333,-1.178385413333333,7.193843189939785,-0.7488375913099089,0.19373756421411348,30.278476859562847,63.52477848511393,0.4568636318220126,70.3732361547766,-3.1307176013218085,70.4693615378017,-3.125880020300257,-0.024758946666666615,0.06179350666666667,0.11351909333333332,0.2000715466666666,0.13159797664640693,0.27086058369405586,0.25189788347833053,0.31422019058139855
LBP03_S05,LBP03,178,179,5,178,178,1715748673.12,2024-05-15 04:51:13.120000+00:00,2024-05-15 13:51:13.120000+09:00,2024,5,15,4,51,13,120,,,,,,,,,-0.389404,0.194824,0.807617,-6.286621,-19.40918,-5.737305,,,,,,,,,,,1.0,1.0,1.0,5.0,0.0,0.0,0.0,4.0,0.0,-0.4593229333333333,-0.005019466666666672,0.8797981866666666,2.6896158933333343,3.693847693333333,-1.1206054666666663,13.075954917676746,-2.3635267658530736,-0.7941547448036402,30.801515056269917,63.430237414479805,0.425097442029867,70.5146017222966,-3.129265852976648,70.65418298810371,-2.500644381016967,0.06991893333333332,0.19984346666666666,-0.07218118666666662,0.3419435866666666,0.22368771114308086,0.2551656386606519,0.25263209398097025,0.31440601018097153
LBP03_S05,LBP03,179,180,5,179,179,1715748673.16,2024-05-15 04:51:13.160000+00:00,2024-05-15 13:51:13.160000+09:00,2024,5,15,4,51,13,160,,,,,,,,,-0.557373,-0.158203,0.902344,-0.366211,8.422852,-9.460449,,,,,,,,,,,1.0,1.0,1.0,5.0,0.0,0.0,0.0,4.0,0.0,-0.4608007999999999,-0.003805280000000005,0.87921876,2.836914066666668,3.24951176,-0.9847005199999995,19.32667156632142,-3.7753193018571367,-2.2509457354015514,31.574581918922775,63.27922464240552,0.3350596126138049,70.72005910378464,-3.13226960551102,70.88369078200684,-1.8756838597601242,-0.09657220000000011,-0.15439772000000002,0.023125240000000047,0.27409516000000017,0.18357456926027643,0.25286060560944973,0.24993799173337602,0.3110411273303332
LBP03_S05,LBP03,180,181,5,180,180,1715748673.2,2024-05-15 04:51:13.200000+00:00,2024-05-15 13:51:13.200000+09:00,2024,5,15,4,51,13,200,,,,,,,,,-0.464111,0.04248,0.916992,9.887695,14.831543,6.469727,,,,,,,,,,,1.0,1.0,1.0,5.0,0.0,0.0,0.0,4.0,0.0,-0.45933596000000004,-0.002262320000000005,0.8790169466666666,2.459309906666668,2.9964193066666662,-0.9163411466666663,25.509473432579814,-4.930445122444638,-3.9650831148293872,32.59496085622597,63.082006837507734,0.1764562880206294,71.00564904771913,-3.13603562018575,71.16232717081121,-1.2497729186985196,-0.004775039999999953,0.04474232,0.0379750533333334,0.08749241333333335,0.05887937569007942,0.22963207532562574,0.2430632911976872,0.30921851399930245
LBP03_S05,LBP03,181,182,5,181,181,1715748673.24,2024-05-15 04:51:13.240000+00:00,2024-05-15 13:51:13.240000+09:00,2024,5,15,4,51,13,240,,,,,,,,,-0.573486,0.029785,0.895752,12.695312,3.479004,-13.305664,,,,,,,,,,,1.0,1.0,1.0,5.0,0.0,0.0,0.0,4.0,0.0,-0.4616015866666666,-0.0030207866666666712,0.87873048,2.991536466666668,3.12825524,-0.36539714666666623,30.981732076532996,-5.737479391846066,-5.597819078168703,33.834230139287286,62.85250766183389,-0.04745647510611872,71.38063533351446,-3.1342007152311004,71.48804081578557,-1.2516669093941224,-0.11188441333333343,0.03280578666666667,0.017021520000000012,0.16171172000000011,0.11783069943301468,0.22142436873423604,0.2334129639198237,0.30893023957698307
LBP03_S05,LBP03,182,183,5,182,182,1715748673.28,2024-05-15 04:51:13.280000+00:00,2024-05-15 13:51:13.280000+09:00,2024,5,15,4,51,13,280,,,,,,,,,-0.414307,0.02002,0.766357,56.640625,-20.202637,-11.230469,,,,,,,,,,,1.0,1.0,1.0,5.0,0.0,0.0,0.0,4.0,0.0,-0.46085613333333325,0.0020996533333333288,0.8779882933333333,3.293457040000001,2.9549154,-0.03743490666666621,34.93820927363186,-6.070221182946969,-6.787179437267023,35.23175851023256,62.60969881451601,-0.31894365259679963,71.84255645800255,3.1364472339076217,71.85116582061251,-0.6262974044173022,0.04654913333333327,0.01792034666666667,-0.11163129333333333,0.17610077333333327,0.12226817365942234,0.21554334947541154,0.2314389726521209,0.30226886340178405
LBP03_S05,LBP03,183,184,5,183,183,1715748673.32,2024-05-15 04:51:13.320000+00:00,2024-05-15 13:51:13.320000+09:00,2024,5,15,4,51,13,320,,,,,,,,,-0.356934,0.207764,0.874023,41.931152,-21.118164,-10.742188,,,,,,,,,,,1.0,1.0,1.0,5.0,0.0,0.0,0.0,4.0,0.0,-0.46036458666666663,0.002272173333333329,0.87682292,2.600911466666668,2.4934896133333333,-0.1131185066666662,36.55544631062205,-5.8128753295906215,-7.259343024120729,36.693976362657445,62.377183801332386,-0.6093173735616288,72.37217854915099,3.1360182072310945,72.2347705374579,-0.0007067269487949889,0.10343058666666666,0.20549182666666668,-0.0027999199999999558,0.3117223333333333,0.23007089480640663,0.2125268254919269,0.2286961891109126,0.29682704928589276
