file_name,test_id,_program_index,program_index,session_id,index,_index,unixtime,datetime_utc,datetime_jst,rtc_year,rtc_month,rtc_day,rtc_hour,rtc_min,rtc_sec,rtc_msec,gps_hour,gps_min,gps_sec,latitude,longitude,altitude,fix_type,SIV,acc_x,acc_y,acc_z,gyro_x,gyro_y,gyro_z,mag_x,mag_y,mag_z,illuminance,atmopress,water_pressure,water_temp,depth,alt_wps,battery_level,behavior_class,camera_command,camera_recording,camera_count,play_audio,speaker_on,audio_file,prev_sd_write_time_ms,delay_occurred_counter,acc_x_ma,acc_y_ma,acc_z_ma,gyro_x_ma,gyro_y_ma,gyro_z_ma,gyro_x_lowpass,gyro_y_lowpass,gyro_z_lowpass,angle_x,angle_y,angle_z,combined_angle_change,gravity_adjusted_angle,smoothed_angle_change,smoothed_gravity_angle,acc_x_dy,acc_y_dy,acc_z_dy,ODBA,VeDBA,smoothed_VeDBA_1s,smoothed_VeDBA_2s,smoothed_VeDBA_3s
LBP03_S03,LBP03,-1650,1,3,0,-1650,1715720052.0,2024-05-14 20:54:12+00:00,2024-05-15 05:54:12+09:00,2024,5,14,20,54,12,0,20.0,54.0,11.0,40.539017,141.532303,23.464001,3.0,13.0,0.643066,-0.206299,1.440674,-17.51709,-25.57373,3.356934,-301.0,0.0,373.0,2408.0,0.0,1015.099976,18.870001,0.020811,-15.381901,4.014844,0.0,1.0,1.0,3.0,0.0,0.0,0.0,4.0,0.0,,,,,,,-17.61615132449017,-25.78217124735744,3.461867355562857,-0.7046460529796067,-1.0312868498942975,0.1384746942225143,1.2566836784508109,,1.8656719932796313,,,,,,,,,
LBP03_S03,LBP03,-1649,2,3,1,-1649,1715720052.04,2024-05-14 20:54:12.040000+00:00,2024-05-15 05:54:12.040000+09:00,2024,5,14,20,54,12,40,,,,,,,,,-0.033936,0.006592,1.474854,-140.441895,50.354004,54.992676,,,,,,,,,,,0.0,1.0,1.0,3.0,0.0,0.0,0.0,4.0,0.0,,,,,,,-10.970985832148198,-13.117714968273953,2.705006673941503,-1.1434854862655346,-1.5559954486252556,0.2466749611801744,1.9466713718333861,,1.843070685371191,,,,,,,,,
LBP03_S03,LBP03,-1648,3,3,2,-1648,1715720052.08,2024-05-14 20:54:12.080000+00:00,2024-05-15 05:54:12.080000+09:00,2024,5,14,20,54,12,80,,,,,,,,,-0.041992,-0.766602,1.971924,-30.700684,-31.555176,23.4375,,,,,,,,,,,0.0,1.0,1.0,3.0,0.0,0.0,0.0,4.0,0.0,,,,,,,-4.963666964965514,-2.8279779984761455,1.9448628690510494,-1.342032164864155,-1.6691145685643014,0.32446947594221637,2.1661657866704895,,1.8296284841135277,,,,,,,,,
LBP03_S03,LBP03,-1647,4,3,3,-1647,1715720052.12,2024-05-14 20:54:12.120000+00:00,2024-05-15 05:54:12.120000+09:00,2024,5,14,20,54,12,120,,,,,,,,,0.176758,-0.470459,1.61377,-1.586914,39.611816,19.470215,,,,,,,,,,,0.0,1.0,1.0,3.0,0.0,0.0,0.0,4.0,0.0,,,,,,,-0.3669814717965566,3.4707387291329286,1.4030837170765453,-1.3567114237360174,-1.5302850193989843,0.38059282462527816,2.0802136972073346,,1.8480703090112276,,,,,,,,,
LBP03_S03,LBP03,-1646,5,3,4,-1646,1715720052.16,2024-05-14 20:54:12.160000+00:00,2024-05-15 05:54:12.160000+09:00,2024,5,14,20,54,12,160,,,,,,,,,-0.161865,-0.134521,0.463623,95.275879,207.336426,-0.488281,,,,,,,,,,,0.0,1.0,1.0,3.0,0.0,0.0,0.0,4.0,0.0,,,,,,,2.238969343626891,5.325379738351902,1.3352332895629986,-1.2671526499909418,-1.3172698298649081,0.4340021562077981,1.878625432236136,,1.9075442272197556,,,,,,,,,
LBP03_S03,LBP03,-1645,6,3,5,-1645,1715720052.2,2024-05-14 20:54:12.200000+00:00,2024-05-15 05:54:12.200000+09:00,2024,5,14,20,54,12,200,,,,,,,,,-0.230713,0.044189,-0.006104,28.991699,-99.304199,-56.762695,,,,,,,,,,,0.0,1.0,1.0,3.0,0.0,0.0,0.0,4.0,0.0,,,,,,,2.6800289286859313,3.4824020233391946,1.8977971333565045,-1.1599514928435046,-1.1779737489313404,0.5099140415420582,1.7300641458289885,,2.005870441801879,,,,,,,,,
LBP03_S03,LBP03,-1644,7,3,6,-1644,1715720052.24,2024-05-14 20:54:12.240000+00:00,2024-05-15 05:54:12.240000+09:00,2024,5,14,20,54,12,240,,,,,,,,,0.355957,0.049561,0.480957,15.258789,-109.802246,-53.222656,,,,,,,,,,,0.0,1.0,1.0,3.0,0.0,0.0,0.0,4.0,0.0,,,,,,,1.3127331683205137,-0.5010865842544587,3.008915876688228,-1.1074421661106841,-1.1980172123015187,0.6302706766095874,1.7489752765675486,,2.221698077769728,,,,,,,,,
LBP03_S03,LBP03,-1643,8,3,7,-1643,1715720052.28,2024-05-14 20:54:12.280000+00:00,2024-05-15 05:54:12.280000+09:00,2024,5,14,20,54,12,280,,,,,,,,,0.465332,-0.110352,0.980225,-5.554199,-61.584473,12.145996,,,,,,,,,,,0.0,1.0,1.0,3.0,0.0,0.0,0.0,4.0,0.0,,,,,,,-1.0558918622922655,-4.8962709700512255,4.314147626792545,-1.1496778406023747,-1.3938680511035677,0.8028365816812891,1.9771630832951272,,2.415812342188664,,,,,,,,,
LBP03_S03,LBP03,-1642,9,3,8,-1642,1715720052.32,2024-05-14 20:54:12.320000+00:00,2024-05-15 05:54:12.320000+09:00,2024,5,14,20,54,12,320,,,,,,,,,0.264648,0.016602,1.571289,-68.054199,25.695801,72.875977,,,,,,,,,,,0.0,1.0,1.0,3.0,0.0,0.0,0.0,4.0,0.0,,,,,,,-3.448072557985772,-8.391339536563464,5.31520004727576,-1.2876007429218055,-1.7295216325661062,1.0154445835723196,2.38333557288798,,2.6256425885482435,,,,,,,,,
LBP03_S03,LBP03,-1641,10,3,9,-1641,1715720052.36,2024-05-14 20:54:12.360000+00:00,2024-05-15 05:54:12.360000+09:00,2024,5,14,20,54,12,360,,,,,,,,,-0.190674,-0.588867,1.851562,-72.570801,-53.283691,23.498535,,,,,,,,,,,0.0,1.0,1.0,3.0,0.0,0.0,0.0,4.0,0.0,,,,,,,-5.061614945296338,-10.377152568836648,5.6090909710497,-1.490065340733659,-2.144607735319572,1.2398082224143077,2.890806373040987,,2.869271563057958,,,,,,,,,
LBP03_S03,LBP03,-1640,11,3,10,-1640,1715720052.4,2024-05-14 20:54:12.400000+00:00,2024-05-15 05:54:12.400000+09:00,2024,5,14,20,54,12,400,,,,,,,,,0.286621,-0.353027,1.629639,-5.004883,0.610352,37.963867,,,,,,,,,,,0.0,1.0,1.0,3.0,0.0,0.0,0.0,4.0,0.0,,,,,,,-5.50417654271031,-10.866730235945226,5.098315619872165,-1.7102324024420714,-2.579276944757381,1.4437408472091942,3.4149600381293,,3.14376769209672,,,,,,,,,
LBP03_S03,LBP03,-1639,12,3,11,-1639,1715720052.44,2024-05-14 20:54:12.440000+00:00,2024-05-15 05:54:12.440000+09:00,2024,5,14,20,54,12,440,,,,,,,,,0.063477,-0.191406,0.774902,49.255371,172.668457,25.268555,,,,,,,,,,,0.0,1.0,1.0,3.0,0.0,0.0,0.0,4.0,0.0,,,,,,,-4.80302886685236,-10.180578486785125,4.03880691860358,-1.9023535571161658,-2.986500084228786,1.6052931239533375,3.8878140160227495,,3.428098493647519,,,,,,,,,
LBP03_S03,LBP03,-1638,13,3,12,-1638,1715720052.48,2024-05-14 20:54:12.480000+00:00,2024-05-15 05:54:12.480000+09:00,2024,5,14,20,54,12,480,,,,,,,,,-0.392822,-0.013672,-0.223633,35.949707,-7.93457,-67.993164,,,,,,,,,,,0.0,1.0,1.0,3.0,0.0,0.0,0.0,4.0,0.0,,,,,,,-3.2171543563394476,-8.625952222131641,2.889617378232346,-2.0310397313697437,-3.3315381731140516,1.7208778190826313,4.264468250266284,,3.690296167678253,,,,,,,,,
LBP03_S03,LBP03,-1637,14,3,13,-1637,1715720052.52,2024-05-14 20:54:12.520000+00:00,2024-05-15 05:54:12.520000+09:00,2024,5,14,20,54,12,520,,,,,,,,,0.186035,-0.039551,0.250732,64.941406,-105.407715,-60.791016,,,,,,,,,,,0.0,1.0,1.0,3.0,0.0,0.0,0.0,4.0,0.0,,,,,,,-0.9996038896149997,-6.360192995010443,2.0519900144031724,-2.0710238869543436,-3.585945892914469,1.802957419658758,4.516503442304478,,3.8976389228859474,,,,,,,,,
LBP03_S03,LBP03,-1636,15,3,14,-1636,1715720052.56,2024-05-14 20:54:12.560000+00:00,2024-05-15 05:54:12.560000+09:00,2024,5,14,20,54,12,560,,,,,,,,,0.520264,-0.126465,0.776611,-32.592773,-99.67041,-20.629883,,,,,,,,,,,0.0,1.0,1.0,3.0,0.0,0.0,0.0,4.0,0.0,,,,,,,1.7238380469514396,-3.474109255257822,1.6587616178200995,-2.002070365076286,-3.724910263124782,1.869307884371562,4.623586722623759,,4.0272789834570935,,,,,,,,,
LBP03_S03,LBP03,-1635,16,3,15,-1635,1715720052.6,2024-05-14 20:54:12.600000+00:00,2024-05-15 05:54:12.600000+09:00,2024,5,14,20,54,12,600,,,,,,,,,0.267334,0.215576,1.185791,-23.071289,60.424805,46.203613,,,,,,,,,,,0.0,1.0,1.0,3.0,0.0,0.0,0.0,4.0,0.0,,,,,,,4.890669618939402,-0.16113264687225368,1.5469578637980141,-1.8064435803187098,-3.731355568999672,1.9311861989234826,4.573372161336979,,4.072918067705587,,,,,,,,,
LBP03_S03,LBP03,-1634,17,3,16,-1634,1715720052.64,2024-05-14 20:54:12.640000+00:00,2024-05-15 05:54:12.640000+09:00,2024,5,14,20,54,12,640,,,,,,,,,-0.102783,-0.816895,1.973633,-92.468262,-14.099121,43.945312,,,,,,,,,,,0.0,1.0,1.0,3.0,0.0,0.0,0.0,4.0,0.0,,,,,,,8.326629701522865,3.209751059186827,1.4258342921243696,-1.4733783922577952,-3.602965526632199,1.9882195706084573,4.370952016874892,,4.044828561852137,,,,,,,,,
LBP03_S03,LBP03,-1633,18,3,17,-1633,1715720052.68,2024-05-14 20:54:12.680000+00:00,2024-05-15 05:54:12.680000+09:00,2024,5,14,20,54,12,680,,,,,,,,,0.14209,-0.249512,1.646729,9.58252,-13.671875,53.955078,,,,,,,,,,,0.0,1.0,1.0,3.0,0.0,0.0,0.0,4.0,0.0,,,,,,,11.623502292387846,6.194004006480243,1.1185554797765351,-1.0084383005622815,-3.355205366372989,2.032961789799519,4.05059063537207,,3.9642775357468745,,,,,,,,,
LBP03_S03,LBP03,-1632,19,3,18,-1632,1715720052.72,2024-05-14 20:54:12.720000+00:00,2024-05-15 05:54:12.720000+09:00,2024,5,14,20,54,12,720,,,,,,,,,0.222412,-0.542236,1.197754,21.54541,128.601074,36.560059,,,,,,,,,,,0.0,1.0,1.0,3.0,0.0,0.0,0.0,4.0,0.0,,,,,,,14.20388770052755,8.471640489995108,0.7044906669684616,-0.4402827925411794,-3.016339746773185,2.0611414164782573,3.6797361785994354,,3.856649835627659,,,,,,,,,
LBP03_S03,LBP03,-1631,20,3,19,-1631,1715720052.76,2024-05-14 20:54:12.760000+00:00,2024-05-15 05:54:12.760000+09:00,2024,5,14,20,54,12,760,,,,,,,,,-0.564453,0.108154,-0.178955,130.065918,101.989746,-70.43457,,,,,,,,,,,0.0,1.0,1.0,3.0,0.0,0.0,0.0,4.0,0.0,,,,,,,15.571190283100647,9.995211028126322,0.4580206213739519,0.18256481878284647,-2.616531305648132,2.0794622413332156,3.347197215525923,,3.7470915746636657,,,,,,,,,
LBP03_S03,LBP03,-1630,21,3,20,-1630,1715720052.8,2024-05-14 20:54:12.800000+00:00,2024-05-15 05:54:12.800000+09:00,2024,5,14,20,54,12,800,,,,,,,,,0.210693,0.024658,0.159912,69.030762,-129.943848,-75.256348,,,,,,,,,,,0.0,1.0,1.0,3.0,0.0,0.0,0.0,4.0,0.0,,,,,,,15.592823740809068,10.96257172098119,0.623278984312829,0.8062777684152093,-2.1780284368088845,2.1043934007057286,3.134064979594805,,3.658444681486827,,,,,,,,,
LBP03_S03,LBP03,-1629,22,3,21,-1629,1715720052.84,2024-05-14 20:54:12.840000+00:00,2024-05-15 05:54:12.840000+09:00,2024,5,14,20,54,12,840,,,,,,,,,0.493896,-0.101318,0.688965,1.525879,-99.304199,-43.395996,,,,,,,,,,,0.0,1.0,1.0,3.0,0.0,0.0,0.0,4.0,0.0,,,,,,,14.612741862421991,11.61473133804733,1.1862666749850237,1.3907874429120888,-1.7134391832869913,2.1518440677051296,3.082303754970119,,3.609587580027059,,,,,,,,,
LBP03_S03,LBP03,-1628,23,3,22,-1628,1715720052.88,2024-05-14 20:54:12.880000+00:00,2024-05-15 05:54:12.880000+09:00,2024,5,14,20,54,12,880,,,,,,,,,0.313721,0.208984,1.0896,-0.793457,75.98877,43.884277,,,,,,,,,,,0.0,1.0,1.0,3.0,0.0,0.0,0.0,4.0,0.0,,,,,,,13.285889000884683,12.002297769370212,1.8168277449091574,1.9222230029474763,-1.2333472725121828,2.224517177501496,3.188191249074132,,3.6135162841505193,,,,,,,,,
LBP03_S03,LBP03,-1627,24,3,23,-1627,1715720052.92,2024-05-14 20:54:12.920000+00:00,2024-05-15 05:54:12.920000+09:00,2024,5,14,20,54,12,920,,,,,,,,,-0.153809,-0.596436,1.865479,-157.165527,18.615723,69.946289,,,,,,,,,,,0.0,1.0,1.0,3.0,0.0,0.0,0.0,4.0,0.0,,,,,,,12.213740141714174,11.90285604757328,2.0361865046174166,2.4107726086160435,-0.7572330306092516,2.3059646376861926,3.4209208326645455,,3.675396516623599,,,,,,,,,
LBP03_S03,LBP03,-1626,25,3,24,-1626,1715720052.96,2024-05-14 20:54:12.960000+00:00,2024-05-15 05:54:12.960000+09:00,2024,5,14,20,54,12,960,,,,,,,,,0.099854,-0.480957,1.795166,6.04248,-26.977539,30.944824,,,,,,,,,,,0.0,1.0,1.0,3.0,0.0,0.0,0.0,4.0,0.0,,,,,,,11.60653578921574,10.959637967130167,1.5041009750538945,2.8750340401846732,-0.3188475119240449,2.3661286766883483,3.737117790855369,,3.7911400971834803,,,,,,,,,
LBP03_S03,LBP03,-1625,26,3,25,-1625,1715720053.0,2024-05-14 20:54:13+00:00,2024-05-15 05:54:13+09:00,2024,5,14,20,54,13,0,20.0,54.0,12.0,40.538975,141.532425,23.349001,3.0,15.0,0.281494,-0.445801,1.354736,38.085938,94.665527,41.687012,-301.0,11.0,372.0,2370.0,0.0,1015.0,18.860001,0.01982,-14.55122,4.014844,0.0,1.0,1.0,3.0,0.0,0.0,0.0,4.0,0.0,,,,,,,11.19385631587413,8.949702597222423,0.23505203994798762,3.3227882928196384,0.03914059196485198,2.375530758286268,4.084801146739304,,3.9475125052203843,,,,,,,,,
LBP03_S03,LBP03,-1624,27,3,26,-1624,1715720053.04,2024-05-14 20:54:13.040000+00:00,2024-05-15 05:54:13.040000+09:00,2024,5,14,20,54,13,40,,,,,,,,,-0.461426,0.140381,-0.199951,129.333496,160.095215,-48.583984,,,,,,,,,,,0.0,1.0,1.0,3.0,0.0,0.0,0.0,4.0,0.0,,,,,,,10.442638996208833,6.001677304178402,-1.3960423393317076,3.7404938526679916,0.27920768413198804,2.3196890647129997,4.410239058109487,,4.124924669534007,,,,,,,,,
LBP03_S03,LBP03,-1623,28,3,27,-1623,1715720053.08,2024-05-14 20:54:13.080000+00:00,2024-05-15 05:54:13.080000+09:00,2024,5,14,20,54,13,80,,,,,,,,,-0.116943,0.02832,0.237793,26.916504,-115.356445,-62.805176,,,,,,,,,,,0.0,1.0,1.0,3.0,0.0,0.0,0.0,4.0,0.0,,,,,,,8.932867817200998,2.6077096266581514,-2.855402476536839,4.097808565356032,0.3835160691983141,2.205472965651526,4.669392960102879,,4.302700470521049,,,,,,,,,
LBP03_S03,LBP03,-1622,29,3,28,-1622,1715720053.12,2024-05-14 20:54:13.120000+00:00,2024-05-15 05:54:13.120000+09:00,2024,5,14,20,54,13,120,,,,,,,,,0.382568,0.01709,0.650879,24.719238,-116.882324,-61.218262,,,,,,,,,,,0.0,1.0,1.0,3.0,0.0,0.0,0.0,4.0,0.0,,,,,,,6.6406224322978815,-0.6022271101736695,-3.7224933061486185,4.363433462647947,0.3594269847913673,2.0565732334055813,4.837171984198242,,4.464176190156376,,,,,,,,,
LBP03_S03,LBP03,-1621,30,3,29,-1621,1715720053.16,2024-05-14 20:54:13.160000+00:00,2024-05-15 05:54:13.160000+09:00,2024,5,14,20,54,13,160,,,,,,,,,0.544922,0.123291,1.382324,22.155762,-27.282715,13.061523,,,,,,,,,,,0.0,1.0,1.0,3.0,0.0,0.0,0.0,4.0,0.0,,,,,,,3.954227551612813,-3.1886346478913983,-3.8585139895420624,4.52160256471246,0.2318815988757114,1.9022326738238988,4.910921295894964,,4.599329502743174,,,,,,,,,
LBP03_S03,LBP03,-1620,31,3,30,-1620,1715720053.2,2024-05-14 20:54:13.200000+00:00,2024-05-15 05:54:13.200000+09:00,2024,5,14,20,54,13,200,,,,,,,,,0.027344,-0.192627,1.655273,-166.503906,52.734375,70.19043,,,,,,,,,,,0.0,1.0,1.0,3.0,0.0,0.0,0.0,4.0,0.0,,,,,,,1.4342331553999075,-5.110619445003607,-3.378910628807113,4.578971890928456,0.0274568210755671,1.7670762486716143,4.908186622731031,,4.705652843462721,,,,,,,,,
LBP03_S03,LBP03,-1619,32,3,31,-1619,1715720053.24,2024-05-14 20:54:13.240000+00:00,2024-05-15 05:54:13.240000+09:00,2024,5,14,20,54,13,240,,,,,,,,,-0.100098,-0.63623,1.946289,4.394531,-46.203613,17.76123,,,,,,,,,,,0.0,1.0,1.0,3.0,0.0,0.0,0.0,4.0,0.0,,,,,,,-0.5088716168713505,-6.672063773991412,-2.4794356258988004,4.558617026253602,-0.23942572988408936,1.6678988236356622,4.860061764840545,,4.788309687436349,,,,,,,,,
LBP03_S03,LBP03,-1618,33,3,32,-1618,1715720053.28,2024-05-14 20:54:13.280000+00:00,2024-05-15 05:54:13.280000+09:00,2024,5,14,20,54,13,280,,,,,,,,,0.281738,-0.421631,1.605469,-6.530762,27.709961,25.20752,,,,,,,,,,,0.0,1.0,1.0,3.0,0.0,0.0,0.0,4.0,0.0,,,,,,,-1.8044619721565587,-8.249015919215372,-1.262475725676661,4.48643854736734,-0.5693863666527043,1.6173997946085958,4.802948445427399,,4.8590579759607575,,,,,,,,,
LBP03_S03,LBP03,-1617,34,3,33,-1617,1715720053.32,2024-05-14 20:54:13.320000+00:00,2024-05-15 05:54:13.320000+09:00,2024,5,14,20,54,13,320,,,,,,,,,-0.293457,-0.136963,0.441406,81.420898,201.782227,-2.319336,,,,,,,,,,,0.0,1.0,1.0,3.0,0.0,0.0,0.0,4.0,0.0,,,,,,,-2.6673397968034127,-9.984093724126348,0.3056031653246006,4.3797449554952035,-0.9687501156177583,1.62962392122158,4.772453958532518,,4.9336498170239045,-1.0605588951166698,,,,,,,,
LBP03_S03,LBP03,-1616,35,3,34,-1616,1715720053.36,2024-05-14 20:54:13.360000+00:00,2024-05-15 05:54:13.360000+09:00,2024,5,14,20,54,13,360,,,,,,,,,-0.179199,-0.098389,0.048828,-5.065918,-114.746094,-68.115234,,,,,,,,,,,0.0,1.0,1.0,3.0,0.0,0.0,0.0,4.0,0.0,,,,,,,-3.3601936958104885,-11.651855118736458,2.283833891515799,4.245337207662784,-1.4348243203672166,1.7209772768822118,4.800351198050847,,5.028653645539633,-1.0806991560147305,,,,,,,,
LBP03_S03,LBP03,-1615,36,3,35,-1615,1715720053.4,2024-05-14 20:54:13.400000+00:00,2024-05-15 05:54:13.400000+09:00,2024,5,14,20,54,13,400,,,,,,,,,0.331543,0.09375,0.394775,67.504883,-117.431641,-54.992676,,,,,,,,,,,0.0,1.0,1.0,3.0,0.0,0.0,0.0,4.0,0.0,,,,,,,-3.951979385572904,-12.790241108424027,4.589036589319611,4.087258032239868,-1.9464339647041777,1.9045387404549963,4.9113695864755735,,5.15891427957301,-1.0856571259401029,,,,,,,,
LBP03_S03,LBP03,-1614,37,3,36,-1614,1715720053.44,2024-05-14 20:54:13.440000+00:00,2024-05-15 05:54:13.440000+09:00,2024,5,14,20,54,13,440,,,,,,,,,0.586914,-0.142334,1.050293,3.479004,-77.819824,5.004883,,,,,,,,,,,0.0,1.0,1.0,3.0,0.0,0.0,0.0,4.0,0.0,,,,,,,-4.239047062111295,-13.010286067426053,6.915242410360414,3.9176961497554164,-2.4668454074012196,2.181148436869413,5.117721943353584,,5.336112157881787,-1.0870125303669473,,,,,,,,
LBP03_S03,LBP03,-1613,38,3,37,-1613,1715720053.48,2024-05-14 20:54:13.480000+00:00,2024-05-15 05:54:13.480000+09:00,2024,5,14,20,54,13,480,,,,,,,,,0.157959,0.214111,1.259521,-109.191895,58.837891,85.327148,,,,,,,,,,,0.0,1.0,1.0,3.0,0.0,0.0,0.0,4.0,0.0,0.10275390666666667,-0.18576828,0.9980956933333333,0.10009764000000056,-2.4763996933333328,4.639485639999999,-3.876943153128843,-12.263729414407637,8.82602999608772,3.7626184236302627,-2.957394583977525,2.534189636712922,5.415311370734342,-1.0605588951166698,5.568103994221967,-1.086713733279986,0.055205093333333316,0.39987928,0.26142530666666663,0.7165096799999999,0.4809305894503085,0.4809305894503085,0.4809305894503085,0.4809305894503085
LBP03_S03,LBP03,-1612,39,3,38,-1612,1715720053.52,2024-05-14 20:54:13.520000+00:00,2024-05-15 05:54:13.520000+09:00,2024,5,14,20,54,13,520,,,,,,,,,0.012695,-0.87793,2.073975,-54.56543,-55.297852,43.518066,,,,,,,,,,,0.0,1.0,1.0,3.0,0.0,0.0,0.0,4.0,0.0,0.09453125333333334,-0.18855473333333334,1.0003678266666667,0.7340494666666671,-2.220865839999999,5.121256466666666,-2.6262935145647783,-10.881393572651167,9.976410461938519,3.6575666830476714,-3.3926503268835715,2.933246055190463,5.787210269355517,-1.100839416912791,5.858532078212446,-1.0814717916264922,-0.08183625333333334,-0.6893752666666666,1.0736071733333332,1.844818693333333,1.2785021678840303,0.8797163786671693,0.8797163786671693,0.8797163786671693
LBP03_S03,LBP03,-1611,40,3,39,-1611,1715720053.56,2024-05-14 20:54:13.560000+00:00,2024-05-15 05:54:13.560000+09:00,2024,5,14,20,54,13,560,,,,,,,,,0.179932,-0.404297,1.621094,-19.958496,-6.286621,39.916992,,,,,,,,,,,0.0,1.0,1.0,3.0,0.0,0.0,0.0,4.0,0.0,0.09759441333333332,-0.19224614666666667,0.99634764,2.8238932266666668,-1.4762369333333325,4.75423172,-0.5354040170546336,-9.363503848357547,10.314720253701338,3.636150522365486,-3.7671904808178733,3.3458348653385164,6.213527636228747,-1.0955730657908473,6.206496105905781,-1.0711729916856902,0.08233758666666668,-0.21205085333333334,0.6247463600000001,0.9191348000000001,0.6648707069128067,0.8081011547490484,0.8081011547490484,0.8081011547490484
LBP03_S03,LBP03,-1610,41,3,40,-1610,1715720053.6,2024-05-14 20:54:13.600000+00:00,2024-05-15 05:54:13.600000+09:00,2024,5,14,20,54,13,600,,,,,,,,,0.020508,-0.288086,0.762695,62.561035,169.921875,27.893066,,,,,,,,,,,0.0,1.0,1.0,3.0,0.0,0.0,0.0,4.0,0.0,0.09287761333333333,-0.18077478666666666,0.9692447733333334,4.399414066666666,0.9415690533333338,3.9746093200000003,2.0746325232608545,-8.065792707958247,10.115771104333593,3.7191358232959204,-4.089822189136203,3.75046570951186,6.680165405818794,-1.091078743647481,6.606502079648969,-1.0645145868428731,-0.07236961333333333,-0.10731121333333335,-0.20654977333333335,0.38623060000000003,0.24375370008502384,0.6670142910830423,0.6670142910830423,0.6670142910830423
LBP03_S03,LBP03,-1609,42,3,41,-1609,1715720053.64,2024-05-14 20:54:13.640000+00:00,2024-05-15 05:54:13.640000+09:00,2024,5,14,20,54,13,640,,,,,,,,,-0.336914,0.165283,-0.209473,78.796387,1.159668,-69.335938,,,,,,,,,,,0.0,1.0,1.0,3.0,0.0,0.0,0.0,4.0,0.0,0.09144532,-0.17552738666666665,0.95132484,4.69970704,-1.2727864133333329,2.9012043733333335,4.809909016181187,-6.984995811453305,9.805755432268546,3.911532183943168,-4.369222021594336,4.142695926802602,7.179980128242346,-1.0855185449321405,7.0490740178137985,-1.0649055984738847,-0.42835932,0.34081038666666663,-1.1607978399999999,1.9299675466666666,1.2833920102756642,0.7902898349215667,0.7902898349215667,0.7902898349215667
LBP03_S03,LBP03,-1608,43,3,42,-1608,1715720053.68,2024-05-14 20:54:13.680000+00:00,2024-05-15 05:54:13.680000+09:00,2024,5,14,20,54,13,680,,,,,,,,,0.164551,-0.073486,0.227539,38.879395,-114.440918,-53.466797,,,,,,,,,,,0.0,1.0,1.0,3.0,0.0,0.0,0.0,4.0,0.0,0.09736654666666668,-0.17376632,0.95084632,3.9111328133333334,-5.777994746666667,2.138671813333333,7.434346540023453,-5.786339147752982,9.68088353600786,4.208906045544106,-4.600675587504455,4.529931268242916,7.707229285332184,-1.0552620833590234,7.522096485707223,-1.0672144379706316,0.06718445333333332,0.10028032,-0.72330732,0.8907720933333333,0.7333098748241317,0.7807931749053275,0.7807931749053275,0.7807931749053275
LBP03_S03,LBP03,-1607,44,3,43,-1607,1715720053.72,2024-05-14 20:54:13.720000+00:00,2024-05-15 05:54:13.720000+09:00,2024,5,14,20,54,13,720,,,,,,,,,0.490967,-0.15625,0.718262,19.714355,-105.957031,-29.174805,,,,,,,,,,,0.0,1.0,1.0,3.0,0.0,0.0,0.0,4.0,0.0,0.10920900000000001,-0.17537113333333332,0.96435544,3.7980143200000005,-5.59244788,2.85319004,9.950841226901709,-4.058474113974645,9.702059636412685,4.606939694620174,-4.76301455206344,4.918013653699424,8.252094235465872,-1.0093801920408791,8.012311062982393,-1.0670966348124753,0.381758,0.019121133333333318,-0.24609344,0.6469725733333334,0.45460616968424955,0.7341950313023163,0.7341950313023163,0.7341950313023163
LBP03_S03,LBP03,-1606,45,3,44,-1606,1715720053.76,2024-05-14 20:54:13.760000+00:00,2024-05-15 05:54:13.760000+09:00,2024,5,14,20,54,13,760,,,,,,,,,0.334229,0.254639,1.1604,-40.710449,55.480957,68.664551,,,,,,,,,,,0.0,1.0,1.0,3.0,0.0,0.0,0.0,4.0,0.0,0.10631837333333333,-0.17397790666666668,0.97565752,2.0052083333333335,-3.2609049066666658,4.582519466666667,12.464296625809927,-1.6198788199492,9.510119270446374,5.105511559652571,-4.827809704861409,5.298418424517279,8.80041093548274,-1.0179057529431526,8.506189352622625,-1.065522660537807,0.22791062666666667,0.4286169066666667,0.18474248000000015,0.8412700133333335,0.5194087892447,0.7073467510451144,0.7073467510451144,0.7073467510451144
LBP03_S03,LBP03,-1605,46,3,45,-1605,1715720053.8,2024-05-14 20:54:13.800000+00:00,2024-05-15 05:54:13.800000+09:00,2024,5,14,20,54,13,800,,,,,,,,,-0.197998,-0.895996,1.917969,-149.536133,-23.681641,67.321777,,,,,,,,,,,0.0,1.0,1.0,3.0,0.0,0.0,0.0,4.0,0.0,0.09965821333333333,-0.18339196,0.9890299066666667,1.2451171866666668,-2.983398386666666,4.8583983733333325,14.926889375306486,1.3338828087673402,8.665182928670966,5.702587134664831,-4.774454392510715,5.645025741664117,9.337088968123856,-1.0680336915219786,8.990141982127508,-1.0628011337191023,-0.29765621333333336,-0.71260404,0.9289390933333334,1.9391993466666668,1.208027970819888,0.7629779976867559,0.7629779976867559,0.7629779976867559
LBP03_S03,LBP03,-1604,47,3,46,-1604,1715720053.84,2024-05-14 20:54:13.840000+00:00,2024-05-15 05:54:13.840000+09:00,2024,5,14,20,54,13,840,,,,,,,,,0.08252,-0.240234,1.654541,50.78125,-10.253906,52.124023,,,,,,,,,,,0.0,1.0,1.0,3.0,0.0,0.0,0.0,4.0,0.0,0.09795899999999999,-0.18933922666666667,0.9909049066666665,1.7830403600000004,-3.5603840666666664,4.282226493333334,16.97181065346702,4.329732746549609,6.960872953944377,6.381459560803512,-4.60126508264873,5.923460659821893,9.847946622287846,-1.0879939934413536,9.450931147303486,-1.056382745447857,-0.015438999999999994,-0.05089477333333334,0.6636360933333335,0.7299698666666669,0.6657638508122684,0.7532565829993071,0.7532565829993071,0.7532565829993071
LBP03_S03,LBP03,-1603,48,3,47,-1603,1715720053.88,2024-05-14 20:54:13.880000+00:00,2024-05-15 05:54:13.880000+09:00,2024,5,14,20,54,13,880,,,,,,,,,0.366699,-0.371094,1.152832,65.490723,131.713867,40.710449,,,,,,,,,,,0.0,1.0,1.0,3.0,0.0,0.0,0.0,4.0,0.0,0.10173829333333334,-0.18345706666666667,0.9770637733333333,3.771158853333334,-0.36051427999999947,4.252115813333333,17.998581169105154,6.8801049897428275,4.608435345547586,7.101402807567718,-4.326060883059017,6.107798073643796,10.31745714348603,-1.0593808635351059,9.877056823441977,-1.0488246921353344,0.26496070666666666,-0.1876369333333333,0.1757682266666668,0.6283658666666667,0.3691967826695973,0.7183420556966063,0.7183420556966063,0.7183420556966063
LBP03_S03,LBP03,-1602,49,3,48,-1602,1715720053.92,2024-05-14 20:54:13.920000+00:00,2024-05-15 05:54:13.920000+09:00,2024,5,14,20,54,13,920,,,,,,,,,-0.492188,0.193115,-0.177246,112.548828,111.328125,-69.335938,,,,,,,,,,,0.0,1.0,1.0,3.0,0.0,0.0,0.0,4.0,0.0,0.09178386666666667,-0.17600916,0.9511653333333334,4.48486328,0.032552120000000524,2.610677013333333,17.494913115710425,8.727526298832068,2.167908605248986,7.801199332196135,-3.9769598311057344,6.194514417853755,10.725993165757846,-1.0850996741661083,10.26073392504522,-1.0501779353858953,-0.5839718666666667,0.36912416000000003,-1.1284113333333334,2.0815073600000003,1.3230978511617981,0.7687383719853722,0.7687383719853722,0.7687383719853722
LBP03_S03,LBP03,-1601,50,3,49,-1601,1715720053.96,2024-05-14 20:54:13.960000+00:00,2024-05-15 05:54:13.960000+09:00,2024,5,14,20,54,13,960,,,,,,,,,0.166748,-0.114014,0.266602,59.082031,-132.019043,-63.110352,,,,,,,,,,,0.0,1.0,1.0,3.0,0.0,0.0,0.0,4.0,0.0,0.09445313333333334,-0.17392257333333333,0.9439550533333333,4.4816080666666664,-4.156087199999999,1.3859048799999998,15.393787435213458,9.909436022335246,0.26686286339318577,8.416950829604673,-3.5805823902123244,6.205188932389483,11.05305393127756,-1.0683577976038003,10.599079886417563,-1.0591045680769142,0.07229486666666667,0.059908573333333326,-0.6773530533333333,0.8095564933333332,0.6838294697987035,0.7622069179710131,0.7622069179710131,0.7622069179710131
LBP03_S03,LBP03,-1600,51,3,50,-1600,1715720054.0,2024-05-14 20:54:14+00:00,2024-05-15 05:54:14+09:00,2024,5,14,20,54,14,0,20.0,54.0,13.0,40.538933,141.532532,23.298,3.0,15.0,0.346191,0.053467,0.625732,27.893066,-96.618652,-51.635742,-303.0,5.0,370.0,2365.0,0.0,1015.799988,18.889999,0.027747,-21.196339,4.014844,0.0,1.0,1.0,3.0,0.0,0.0,0.0,5.0,0.0,0.10550781333333333,-0.17633468,0.95708656,3.8484700400000005,-5.419921839999999,1.8123371733333333,12.2165098403542,10.611762699482021,-0.7169674756261288,8.905611223218841,-3.1561118822330436,6.1765102333644375,11.28805705757858,-1.0268948609350264,10.893465980695515,-1.0639791036616824,0.24068318666666672,0.22980168,-0.3313545600000001,0.8018394266666669,0.4696094685029653,0.7413071001518668,0.7413071001518668,0.7413071001518668
LBP03_S03,LBP03,-1599,52,3,51,-1599,1715720054.04,2024-05-14 20:54:14.040000+00:00,2024-05-15 05:54:14.040000+09:00,2024,5,14,20,54,14,40,,,,,,,,,0.429199,0.177979,1.095215,-21.728516,52.79541,29.174805,,,,,,,,,,,0.0,1.0,1.0,3.0,0.0,0.0,0.0,5.0,0.0,0.1074056,-0.17262700000000003,0.9678840933333334,2.819010413333334,-2.9435220933333324,3.419596293333333,8.881665477640325,10.940917739515383,-0.8143836711391513,9.260877842324454,-2.718475172652428,6.143934886518871,11.441236889627246,-1.009938011806917,11.14743755771075,-1.0660922962068704,0.3217934,0.35060600000000003,0.1273309066666667,0.7997303066666667,0.4926344682542173,0.7247289246920234,0.7247289246920234,0.7247289246920234
LBP03_S03,LBP03,-1598,53,3,52,-1598,1715720054.08,2024-05-14 20:54:14.080000+00:00,2024-05-15 05:54:14.080000+09:00,2024,5,14,20,54,14,80,,,,,,,,,-0.065186,-0.318604,1.640869,-178.527832,60.791016,63.110352,,,,,,,,,,,0.0,1.0,1.0,3.0,0.0,0.0,0.0,5.0,0.0,0.09703776,-0.17882492,0.9809798000000001,1.2841796800000005,-1.5535481333333325,4.488932226666667,6.27420472044002,10.801581246533296,-0.3806990695256433,9.511846031142055,-2.286411922791096,6.1287069237378455,11.544000301364616,-1.0687945158646328,11.36475716806984,-1.0650013384762098,-0.16222376,-0.13977908,0.6598891999999998,0.9618920399999998,0.6937640058339894,0.7227936172633964,0.7227936172633964,0.7227936172633964
LBP03_S03,LBP03,-1597,54,3,53,-1597,1715720054.12,2024-05-14 20:54:14.120000+00:00,2024-05-15 05:54:14.120000+09:00,2024,5,14,20,54,14,120,,,,,,,,,-0.186523,-0.591797,1.895752,22.338867,-31.311035,26.062012,,,,,,,,,,,0.0,1.0,1.0,3.0,0.0,0.0,0.0,5.0,0.0,0.09447916,-0.18745448,0.9879784933333332,1.8945312400000005,-2.5366210533333327,4.366861920000001,4.82710927570805,9.967362791172357,0.15475402856904497,9.704930402170376,-1.8877174111442019,6.134897084880607,11.63555384918932,-1.0986465189510675,11.54893583308986,-1.0613840201532496,-0.28100216,-0.40434252000000004,0.9077735066666669,1.593118186666667,1.0327186581109653,0.7410245020191357,0.7410245020191357,0.7410245020191357
LBP03_S03,LBP03,-1596,55,3,54,-1596,1715720054.16,2024-05-14 20:54:14.160000+00:00,2024-05-15 05:54:14.160000+09:00,2024,5,14,20,54,14,160,,,,,,,,,0.378174,-0.567383,1.625488,8.422852,16.906738,28.442383,,,,,,,,,,,0.0,1.0,1.0,3.0,0.0,0.0,0.0,5.0,0.0,0.09854165333333333,-0.18073246666666667,0.9761816133333334,3.7923177066666667,-0.9318033466666656,4.240722600000001,4.3657208468798565,8.277011366350196,0.533210846711166,9.879559236045571,-1.556636956490194,6.1562255187490535,11.744271878262246,-1.0666511087908335,11.704336418545195,-1.0537199251552356,0.2796323466666667,-0.3866505333333333,0.6493063866666666,1.3155892666666666,0.805786366225801,0.7446223833639505,0.7446223833639505,0.7446223833639505
LBP03_S03,LBP03,-1595,56,3,55,-1595,1715720054.2,2024-05-14 20:54:14.200000+00:00,2024-05-15 05:54:14.200000+09:00,2024,5,14,20,54,14,200,,,,,,,,,-0.156738,-0.02417,0.296143,125.610352,189.51416,-13.61084,,,,,,,,,,,0.0,1.0,1.0,3.0,0.0,0.0,0.0,5.0,0.0,0.09021157333333334,-0.17469730666666666,0.9507486666666665,5.57942708,0.9008789466666677,2.70996088,4.295991583608251,5.809388193948012,0.7597319126240543,10.051398899389902,-1.3242614287322736,6.186614795254016,11.876804738276219,-1.0891656169738595,11.837606598540706,-1.0521925254468256,-0.24694957333333334,0.15052730666666667,-0.6546056666666664,1.0520825466666666,0.7156473577495741,0.7430973820158254,0.7430973820158254,0.7430973820158254
LBP03_S03,LBP03,-1594,57,3,56,-1594,1715720054.24,2024-05-14 20:54:14.240000+00:00,2024-05-15 05:54:14.240000+09:00,2024,5,14,20,54,14,240,,,,,,,,,-0.184082,-0.045654,0.137939,6.347656,-99.365234,-57.739258,,,,,,,,,,,0.0,1.0,1.0,3.0,0.0,0.0,0.0,5.0,0.0,0.08911457333333334,-0.16745773333333333,0.9369465866666666,5.620930986666667,-2.6180012533333326,1.3330077466666663,3.996940175318803,2.9112909804508504,1.0163969903877228,10.211276506402655,-1.2078097895142397,6.227270674869525,12.021142725878732,-1.0770844161347461,11.957916110500392,-1.0584404403681422,-0.27319657333333336,0.12180373333333333,-0.7990075866666666,1.1940078933333333,0.8531621420843191,0.7486006200192501,0.7486006200192501,0.7486006200192501
LBP03_S03,LBP03,-1593,58,3,57,-1593,1715720054.28,2024-05-14 20:54:14.280000+00:00,2024-05-15 05:54:14.280000+09:00,2024,5,14,20,54,14,280,,,,,,,,,0.306641,0.00708,0.517822,57.800293,-93.75,-58.59375,,,,,,,,,,,0.0,1.0,1.0,3.0,0.0,0.0,0.0,5.0,0.0,0.10202146666666667,-0.16896814666666665,0.94748044,3.61002604,-5.585937453333333,1.6918944666666664,3.162127531441475,0.04282183743018937,1.4869816254099715,10.337761607660314,-1.206096916017032,6.286749939885923,12.159243793686228,-1.0232076803055041,12.07556962542991,-1.0628829978786658,0.20461953333333333,0.17604814666666666,-0.42965844,0.8103261199999999,0.5074135181777806,0.7371155199315611,0.7371155199315611,0.7371155199315611
LBP03_S03,LBP03,-1592,59,3,58,-1592,1715720054.32,2024-05-14 20:54:14.320000+00:00,2024-05-15 05:54:14.320000+09:00,2024,5,14,20,54,14,320,,,,,,,,,0.536621,0.18457,1.423584,17.028809,-22.338867,26.367188,,,,,,,,,,,0.0,1.0,1.0,3.0,0.0,0.0,0.0,5.0,0.0,0.10434244000000001,-0.16707036,0.9605794000000001,3.061523426666667,-3.267415319999999,3.05664056,1.8948889299453642,-2.470856814618366,2.2312156380623938,10.413557164858128,-1.3049311886017667,6.375998565408419,12.279999020311195,-1.008458724185968,12.200105028646657,-1.0628748304899953,0.43227856,0.35164036,0.4630045999999999,1.2469235199999997,0.7244922055051821,0.7365417329121802,0.7365417329121802,0.7365417329121802
LBP03_S03,LBP03,-1591,60,3,59,-1591,1715720054.36,2024-05-14 20:54:14.360000+00:00,2024-05-15 05:54:14.360000+09:00,2024,5,14,20,54,14,360,,,,,,,,,-0.121826,-0.246094,1.697021,-186.157227,45.288086,65.673828,,,,,,,,,,,0.0,1.0,1.0,3.0,0.0,0.0,0.0,5.0,0.0,0.09697590666666667,-0.17205734666666667,0.9746353866666667,0.8789062400000004,-1.9669595999999987,4.469400973333333,0.5376431924545063,-4.61385247348624,3.1920118359985925,10.435062892556308,-1.4894852875412163,6.503679038848363,12.38575573123267,-1.0530838005197012,12.339462960965644,-1.0600387104299291,-0.21880190666666666,-0.07403665333333334,0.7223856133333332,1.0152241733333331,0.7584172168066499,0.7374928409075919,0.7374928409075919,0.7374928409075919
LBP03_S03,LBP03,-1590,61,3,60,-1590,1715720054.4,2024-05-14 20:54:14.400000+00:00,2024-05-15 05:54:14.400000+09:00,2024,5,14,20,54,14,400,,,,,,,,,-0.142334,-0.777832,2.049072,19.65332,-46.142578,19.958496,,,,,,,,,,,0.0,1.0,1.0,3.0,0.0,0.0,0.0,5.0,0.0,0.09395506666666667,-0.18206385333333336,0.9854459333333333,0.9016926933333336,-3.8940429333333317,4.477538999999999,-0.6137115479066364,-6.656996975087132,4.304999515801282,10.410514430640044,-1.7557651665447016,6.675879019480414,12.491152177175454,-1.0893740101481928,12.500684748252018,-1.056112872725675,-0.23628906666666666,-0.5957681466666667,1.0636260666666666,1.8956832799999999,1.2418021651219826,0.7585057294165248,0.7585057294165248,0.7585057294165248
LBP03_S03,LBP03,-1589,62,3,61,-1589,1715720054.44,2024-05-14 20:54:14.440000+00:00,2024-05-15 05:54:14.440000+09:00,2024,5,14,20,54,14,440,,,,,,,,,0.351318,-0.483887,1.577637,-16.906738,-14.038086,27.587891,,,,,,,,,,,0.0,1.0,1.0,3.0,0.0,0.0,0.0,5.0,0.0,0.10129557333333333,-0.18042648,0.9798957999999999,3.03629556,-3.2698567333333326,3.9786783199999998,-1.4994359501125365,-8.950654930844069,5.596577401046006,10.350536992635542,-2.113791363778464,6.899742115522254,12.617772038922432,-1.054363586912152,12.690973988176323,-1.0462266582219937,0.2500224266666667,-0.30346052,0.5977412000000001,1.1512241466666668,0.7154677094128004,0.7567842086163759,0.7567842086163759,0.7567842086163759
LBP03_S03,LBP03,-1588,63,3,62,-1588,1715720054.48,2024-05-14 20:54:14.480000+00:00,2024-05-15 05:54:14.480000+09:00,2024,5,14,20,54,14,480,,,,,,,,,-0.136719,-0.011719,0.475342,95.76416,187.072754,5.493164,,,,,,,,,,,0.0,1.0,1.0,3.0,0.0,0.0,0.0,5.0,0.0,0.09407225333333334,-0.1733073333333333,0.9552766533333332,4.398600253333333,-0.49641923999999904,3.0973306666666667,-2.2685161830673226,-11.661871315113556,7.170003297410951,10.259796345312848,-2.5802662163830066,7.186542247418692,12.78935433353209,-1.0687128419779268,12.917524841929652,-1.0406836806788515,-0.23079125333333333,0.1615883333333333,-0.47993465333333324,0.8723142399999999,0.5565183407173586,0.7598077186670578,0.7490816752356444,0.7490816752356444
LBP03_S03,LBP03,-1587,64,3,63,-1587,1715720054.52,2024-05-14 20:54:14.520000+00:00,2024-05-15 05:54:14.520000+09:00,2024,5,14,20,54,14,520,,,,,,,,,-0.225586,-0.048096,0.012207,-12.512207,-79.528809,-52.734375,,,,,,,,,,,0.0,1.0,1.0,3.0,0.0,0.0,0.0,5.0,0.0,0.08990233333333333,-0.16615564000000002,0.9398958,4.252929679999999,-3.1575520533333323,1.5917968133333333,-3.084414048429741,-14.61711897052213,9.073017051110979,10.136419783375658,-3.164950975203892,7.5494629294631315,13.02913317237918,-1.0702853183504077,13.185678917621548,-1.047003646699973,-0.31548833333333337,0.11805964000000002,-0.9276888,1.3612367733333333,0.9869536345299175,0.7481457773328934,0.757891747802099,0.757891747802099
LBP03_S03,LBP03,-1586,65,3,64,-1586,1715720054.56,2024-05-14 20:54:14.560000+00:00,2024-05-15 05:54:14.560000+09:00,2024,5,14,20,54,14,560,,,,,,,,,0.23291,-0.0271,0.356934,62.316895,-111.38916,-49.865723,,,,,,,,,,,0.0,1.0,1.0,3.0,0.0,0.0,0.0,5.0,0.0,0.10143553333333333,-0.16960616,0.9517935866666666,2.4072265600000007,-6.929524706666666,1.694335866666667,-3.933246764485463,-17.349806612035845,11.141733579639345,9.979089912796239,-3.858943239685326,7.995132272648705,13.35648975112599,-1.0273927317482912,13.496446070851642,-1.05435326231879,0.13147446666666668,0.14250616,-0.5948595866666666,0.8688402133333333,0.6256608257454412,0.7465773820861987,0.7531692148715041,0.7531692148715041
LBP03_S03,LBP03,-1585,66,3,65,-1585,1715720054.6,2024-05-14 20:54:14.600000+00:00,2024-05-15 05:54:14.600000+09:00,2024,5,14,20,54,14,600,,,,,,,,,0.513184,-0.054443,0.900146,4.455566,-81.237793,4.760742,,,,,,,,,,,0.0,1.0,1.0,3.0,0.0,0.0,0.0,5.0,0.0,0.11040688,-0.16981124,0.96603512,2.0678710933333337,-5.127766893333333,2.7962238933333334,-4.589107134887405,-19.31808822051255,12.952896591275403,9.795525627400743,-4.631666768505828,8.51324813629972,13.779697137519264,-0.9903034719370473,13.844852782740588,-1.0550516056440014,0.40277712,0.11536824000000001,-0.06588912000000002,0.58403448,0.4241233491928573,0.7537921680505122,0.7418228057101715,0.7418228057101715
LBP03_S03,LBP03,-1584,67,3,66,-1584,1715720054.64,2024-05-14 20:54:14.640000+00:00,2024-05-15 05:54:14.640000+09:00,2024,5,14,20,54,14,640,,,,,,,,,0.182129,0.233398,1.273438,-93.505859,65.185547,91.430664,,,,,,,,,,,0.0,1.0,1.0,3.0,0.0,0.0,0.0,5.0,0.0,0.10471352,-0.17278325333333336,0.9782226133333332,-0.44108071999999915,-3.139648413333332,4.470214786666666,-4.770371274793261,-20.14099626492804,13.95839064631258,9.604710776409012,-5.43730661910295,9.071583762152224,14.286651263412015,-1.0216546407033251,14.219922320725818,-1.0545387013994523,0.07741548000000001,0.4061812533333333,0.2952153866666669,0.7788121200000002,0.5080634720463749,0.7227790265213404,0.7340308279213782,0.7340308279213782
LBP03_S03,LBP03,-1583,68,3,67,-1583,1715720054.68,2024-05-14 20:54:14.680000+00:00,2024-05-15 05:54:14.680000+09:00,2024,5,14,20,54,14,680,,,,,,,,,-0.106689,-0.970215,2.056152,-108.520508,-57.495117,46.569824,,,,,,,,,,,0.0,1.0,1.0,3.0,0.0,0.0,0.0,5.0,0.0,0.09609046666666668,-0.18491541333333333,0.9867480133333334,-0.8520507733333327,-3.1909179466666657,4.6150715600000005,-4.378749055657388,-19.704287740212003,13.751061291147382,9.429560814182716,-6.22547812871143,9.62162621379812,14.840784550605191,-1.0864073405167172,14.60619818088585,-1.0543354911104401,-0.20277946666666669,-0.7852995866666668,1.0694039866666665,2.05748304,1.3421772757795503,0.7471337225595573,0.7536484552716418,0.7536484552716418
LBP03_S03,LBP03,-1582,69,3,68,-1582,1715720054.72,2024-05-14 20:54:14.720000+00:00,2024-05-15 05:54:14.720000+09:00,2024,5,14,20,54,14,720,,,,,,,,,0.220703,-0.270752,1.615723,9.58252,-53.283691,47.241211,,,,,,,,,,,0.0,1.0,1.0,3.0,0.0,0.0,0.0,5.0,0.0,0.09853186666666668,-0.18763677333333334,0.9855598666666666,1.4290364666666675,-3.570963519999999,4.05680332,-3.6381620567059207,-18.103535477877422,12.305517876072926,9.28403433191448,-6.949619547826527,10.113846928841037,15.387670552612132,-1.0819548803741372,14.986203609158508,-1.0491092646951716,0.12217113333333333,-0.08311522666666665,0.6301631333333334,0.8354494933333334,0.6472553602221359,0.7548396901810728,0.7503236710513448,0.7503236710513448
LBP03_S03,LBP03,-1581,70,3,69,-1581,1715720054.76,2024-05-14 20:54:14.760000+00:00,2024-05-15 05:54:14.760000+09:00,2024,5,14,20,54,14,760,,,,,,,,,0.043701,-0.308105,0.877441,65.734863,148.620605,29.418945,,,,,,,,,,,0.0,1.0,1.0,3.0,0.0,0.0,0.0,5.0,0.0,0.10130530666666668,-0.18298834666666666,0.9712629866666667,2.365722666666667,-0.8886718533333324,3.9518228533333337,-3.0046013404446934,-15.509674242431236,10.034653742290905,9.163850278296692,-7.570006517523776,10.515233078532672,15.869822850122132,-1.060067233771815,15.34311601937684,-1.043702760426895,-0.05760430666666668,-0.12511665333333336,-0.09382198666666663,0.2765429466666667,0.1666583279346132,0.7407296717286692,0.7326368424720499,0.7326368424720499
LBP03_S03,LBP03,-1580,71,3,70,-1580,1715720054.8,2024-05-14 20:54:14.800000+00:00,2024-05-15 05:54:14.800000+09:00,2024,5,14,20,54,14,800,,,,,,,,,-0.376465,0.209717,-0.250488,70.617676,7.995605,-61.645508,,,,,,,,,,,0.0,1.0,1.0,3.0,0.0,0.0,0.0,5.0,0.0,0.09188148,-0.17583990666666668,0.94775712,3.365071626666668,-0.880533839999999,2.679036386666667,-2.8817892061388686,-12.084075093786046,7.609554967738568,9.048578710051137,-8.053369521275219,10.819615277242216,16.241847557027754,-1.0842449677027022,15.663085361211026,-1.0494568658274754,-0.46834648,0.38555690666666664,-1.19824512,2.0521485066666667,1.3430539532016477,0.7461307110239396,0.7505902869052733,0.7505902869052733
LBP03_S03,LBP03,-1579,72,3,71,-1579,1715720054.84,2024-05-14 20:54:14.840000+00:00,2024-05-15 05:54:14.840000+09:00,2024,5,14,20,54,14,840,,,,,,,,,0.131836,-0.020752,0.123291,33.996582,-115.29541,-59.753418,,,,,,,,,,,0.0,1.0,1.0,3.0,0.0,0.0,0.0,5.0,0.0,0.09864254666666668,-0.17487961333333332,0.9458821199999999,2.5724284,-5.137532546666666,1.8180337866666665,-3.3322485130109647,-8.027519618982309,5.636585516026308,8.915288769530699,-8.37447030603451,11.045078697883268,16.480530640522733,-1.0523314840220324,15.936959307131673,-1.060642418002028,0.03319345333333333,0.15412761333333333,-0.8225911199999999,1.0099121866666665,0.8375638944217186,0.7530027127683177,0.7530752471200289,0.7530752471200289
LBP03_S03,LBP03,-1578,73,3,72,-1578,1715720054.88,2024-05-14 20:54:14.880000+00:00,2024-05-15 05:54:14.880000+09:00,2024,5,14,20,54,14,880,,,,,,,,,0.449707,-0.197998,0.613037,-16.296387,-121.032715,-36.92627,,,,,,,,,,,0.0,1.0,1.0,3.0,0.0,0.0,0.0,5.0,0.0,0.10763668,-0.17565434666666668,0.9576073866666667,2.550455746666667,-4.882812493333333,2.51139316,-3.9933801646193317,-3.7341420229328985,4.378135125857434,8.755553562945925,-8.523835986951827,11.220204102917565,16.589408616258698,-1.016450577825241,16.161461523608104,-1.0660339301098312,0.34207032000000004,-0.022343653333333324,-0.3445703866666666,0.70898436,0.48604536211839194,0.7576766559462694,0.7456577503144279,0.7456577503144279
LBP03_S03,LBP03,-1577,74,3,73,-1577,1715720054.92,2024-05-14 20:54:14.920000+00:00,2024-05-15 05:54:14.920000+09:00,2024,5,14,20,54,14,920,,,,,,,,,0.329346,0.198486,1.057861,-9.033203,61.706543,42.84668,,,,,,,,,,,0.0,1.0,1.0,3.0,0.0,0.0,0.0,5.0,0.0,0.10672522666666669,-0.17400070666666667,0.9695116933333334,0.7283528800000006,-2.561848946666666,4.21549472,-4.276064691987429,0.09806943058707525,3.6816700419131245,8.584510975266427,-8.519913209728344,11.36747090459409,16.59825727456248,-1.016220275667639,16.339755117582435,-1.0670557144049826,0.22262077333333335,0.37248670666666667,0.08834930666666652,0.6834567866666665,0.44284529505391773,0.7224665537019542,0.7374736299019817,0.7374736299019817
LBP03_S03,LBP03,-1576,75,3,74,-1576,1715720054.96,2024-05-14 20:54:14.960000+00:00,2024-05-15 05:54:14.960000+09:00,2024,5,14,20,54,14,960,,,,,,,,,-0.117188,-0.653076,1.691895,-190.612793,-4.333496,70.922852,,,,,,,,,,,0.0,1.0,1.0,3.0,0.0,0.0,0.0,5.0,0.0,0.09599606666666666,-0.18407232,0.9814843466666667,-1.2109374799999992,-2.1378580666666656,4.82421868,-3.7351169878170967,2.559753088731099,3.1517559689727577,8.435106295753744,-8.4175230861791,11.493541143353,16.556183169467857,-1.0849337857540977,16.48093358134369,-1.066816259331501,-0.21318406666666667,-0.46900368,0.7104106533333332,1.3925983999999998,0.8775506791653537,0.7302154020766203,0.7411598680404915,0.7411598680404915
LBP03_S03,LBP03,-1575,76,3,75,-1575,1715720055.0,2024-05-14 20:54:15+00:00,2024-05-15 05:54:15+09:00,2024,5,14,20,54,15,0,20.0,54.0,14.0,40.538887,141.532639,23.221001,3.0,15.0,0.026367,-0.415283,1.611084,30.029297,-6.408691,39.489746,-297.0,8.0,370.0,2450.0,0.0,1015.200012,18.940001,0.021802,-16.213024,4.014844,0.0,1.0,1.0,3.0,0.0,0.0,0.0,3.0,0.0,0.09518877333333334,-0.19061853333333334,0.9865527066666666,0.6453450800000007,-3.2592773466666656,4.2016600933333335,-2.3806010517184517,2.8526655803991696,2.444134196954914,8.339882253685007,-8.303416462963133,11.591306511231195,16.51843659672573,-1.1021589936825722,16.598001449084556,-1.0651449972502172,-0.06882177333333334,-0.22466446666666667,0.6245312933333333,0.9180175333333334,0.6672704814540866,0.7381218425946651,0.7392652683844297,0.7392652683844297
LBP03_S03,LBP03,-1574,77,3,76,-1574,1715720055.04,2024-05-14 20:54:15.040000+00:00,2024-05-15 05:54:15.040000+09:00,2024,5,14,20,54,15,40,,,,,,,,,0.195801,-0.270264,1.17334,16.296387,106.201172,27.46582,,,,,,,,,,,0.0,1.0,1.0,3.0,0.0,0.0,0.0,3.0,0.0,0.09829750666666667,-0.18428389333333337,0.9741340799999999,2.103678413333334,-0.7609049466666662,3.870442653333334,-0.7249315568309119,0.6975405042815302,1.4874771689432307,8.31088499141177,-8.275514842791871,11.650805597988924,16.53167342817635,-1.0755697617813569,16.704647333380567,-1.0589149521100714,0.09750349333333333,-0.08598010666666664,0.19920592000000015,0.3826895200000001,0.23787078113476065,0.7279312951098867,0.7267304062031881,0.7267304062031881
LBP03_S03,LBP03,-1573,78,3,77,-1573,1715720055.08,2024-05-14 20:54:15.080000+00:00,2024-05-15 05:54:15.080000+09:00,2024,5,14,20,54,15,80,,,,,,,,,-0.395752,0.09375,-0.060791,87.463379,149.780273,-35.03418,,,,,,,,,,,0.0,1.0,1.0,3.0,0.0,0.0,0.0,3.0,0.0,0.08890297333333334,-0.17538741333333333,0.9495474933333332,3.618164093333334,0.7023112000000005,2.3616535866666672,0.47585012607597793,-3.4038900591106014,0.49638997597883633,8.32991899645481,-8.411670445156295,11.670661197028078,16.623720490348465,-1.0966251834682312,16.811901454420504,-1.060783213067475,-0.48465497333333335,0.2691374133333333,-1.0103384933333333,1.76413088,1.1524362288402605,0.7462781840301376,0.7371134750479947,0.7371134750479947
LBP03_S03,LBP03,-1572,79,3,78,-1572,1715720055.12,2024-05-14 20:54:15.120000+00:00,2024-05-15 05:54:15.120000+09:00,2024,5,14,20,54,15,120,,,,,,,,,0.069336,-0.076904,0.269775,20.935059,-126.464844,-61.035156,,,,,,,,,,,0.0,1.0,1.0,3.0,0.0,0.0,0.0,3.0,0.0,0.09130857333333334,-0.17271162666666667,0.9423600000000001,2.9329427466666673,-3.5017903599999993,1.031087186666667,0.633463784977057,-8.23881563870209,-0.21637855206648288,8.355257547853892,-8.741223070704379,11.662006054945419,16.7994551902247,-1.0795603296393215,16.92580753014048,-1.0699878192397632,-0.021972573333333342,0.09580762666666667,-0.6725850000000001,0.7903652000000001,0.6797297091722476,0.7321586260725889,0.7357471949080959,0.7357471949080959
LBP03_S03,LBP03,-1571,80,3,79,-1571,1715720055.16,2024-05-14 20:54:15.160000+00:00,2024-05-15 05:54:15.160000+09:00,2024,5,14,20,54,15,160,,,,,,,,,0.282227,-0.002441,0.427734,36.132812,-130.554199,-57.678223,,,,,,,,,,,0.0,1.0,1.0,3.0,0.0,0.0,0.0,3.0,0.0,0.10133786666666666,-0.17592125333333333,0.9532975066666668,1.8253581066666675,-4.967447906666666,1.2931314666666671,-0.35243539843435334,-12.305513919180186,-0.488239207801063,8.341160131916517,-9.233443627471587,11.642476486633376,17.04050152753082,-1.0433546129589772,17.04664367529272,-1.0744819869735343,0.18088913333333334,0.17348025333333333,-0.5255635066666668,0.8799328933333335,0.5822656407469409,0.7232177970534346,0.7321778564392319,0.7321778564392319
LBP03_S03,LBP03,-1570,81,3,80,-1570,1715720055.2,2024-05-14 20:54:15.200000+00:00,2024-05-15 05:54:15.200000+09:00,2024,5,14,20,54,15,200,,,,,,,,,0.657471,-0.076172,1.00708,20.507812,-85.388184,-3.173828,,,,,,,,,,,0.0,1.0,1.0,3.0,0.0,0.0,0.0,3.0,0.0,0.10446937333333334,-0.17253584000000002,0.9646744666666666,1.4127604400000007,-2.7628580666666656,2.310384066666667,-2.0434895708422225,-14.394638840884584,-0.4392342162207414,8.259420549082828,-9.80922918110697,11.624907117984545,17.30830639998784,-1.021944516301244,17.16964071257842,-1.0741152697887215,0.5530016266666666,0.09636384000000002,0.04240553333333341,0.691771,0.5629342928022856,0.7171092744555431,0.7283314118111194,0.7283314118111194
LBP03_S03,LBP03,-1569,82,3,81,-1569,1715720055.24,2024-05-14 20:54:15.240000+00:00,2024-05-15 05:54:15.240000+09:00,2024,5,14,20,54,15,240,,,,,,,,,0.13916,0.154053,1.328613,-119.20166,65.063477,76.477051,,,,,,,,,,,0.0,1.0,1.0,3.0,0.0,0.0,0.0,3.0,0.0,0.09566729333333333,-0.17721357333333335,0.9785416533333333,-0.4516601333333326,-0.9838867199999991,3.4879556800000002,-3.6956541846121587,-14.023979446560556,-0.3947918519720278,8.11159438169834,-10.370188358969392,11.609115443905663,17.553071850922088,-1.0710140935960704,17.286803252117902,-1.0733416841823271,0.04349270666666667,0.3312665733333333,0.3500713466666667,0.7248306266666666,0.483920557424682,0.7023396110691575,0.7229000594914208,0.7229000594914208
LBP03_S03,LBP03,-1568,83,3,82,-1568,1715720055.28,2024-05-14 20:54:15.280000+00:00,2024-05-15 05:54:15.280000+09:00,2024,5,14,20,54,15,280,,,,,,,,,-0.03418,-0.816406,1.983154,-62.561035,-40.771484,32.836914,,,,,,,,,,,0.0,1.0,1.0,3.0,0.0,0.0,0.0,3.0,0.0,0.09207353333333333,-0.18725264,0.98689452,0.6022135600000007,-1.9620768266666657,2.9956054133333336,-4.629188586287272,-11.512277441015337,-0.6519392247373935,7.92642683824685,-10.830679456610005,11.583037874916167,17.728469373458513,-1.1084966395481208,17.38925477730995,-1.0706556431496075,-0.12625353333333333,-0.62915336,0.9962594800000001,1.7516663733333333,1.1850345381330922,0.72944445186737,0.7329464612010225,0.7329464612010225
LBP03_S03,LBP03,-1567,84,3,83,-1567,1715720055.32,2024-05-14 20:54:15.320000+00:00,2024-05-15 05:54:15.320000+09:00,2024,5,14,20,54,15,320,,,,,,,,,0.137207,-0.429443,1.711914,-27.709961,-17.578125,29.663086,,,,,,,,,,,0.0,1.0,1.0,3.0,0.0,0.0,0.0,3.0,0.0,0.09913408,-0.17941409333333333,0.9796777200000001,2.7832031466666676,-0.642903639999999,2.513020786666667,-4.516339310053769,-7.700170176022464,-1.2528476311039245,7.745773265844699,-11.138686263650904,11.53292396967201,17.80661872608483,-1.061161953005352,17.469569343096417,-1.063534179028313,0.038072919999999996,-0.25002890666666666,0.7322362799999999,1.0203381066666666,0.7746831424230769,0.7314520893440857,0.7338344756951087,0.7338344756951087
LBP03_S03,LBP03,-1566,85,3,84,-1566,1715720055.36,2024-05-14 20:54:15.360000+00:00,2024-05-15 05:54:15.360000+09:00,2024,5,14,20,54,15,360,,,,,,,,,0.092773,-0.147705,0.813477,76.538086,186.706543,21.240234,,,,,,,,,,,0.0,1.0,1.0,3.0,0.0,0.0,0.0,3.0,0.0,0.09229162666666667,-0.17529625333333332,0.9564615733333333,3.4073893466666676,1.8522135466666676,1.2980142800000003,-3.42962771900663,-3.512365431677848,-1.926605348976208,7.608588157084434,-11.279180880918018,11.455859755712963,17.786153542324882,-1.0812666139059695,17.523821345603906,-1.0603519195842737,0.00048137333333332644,0.027591253333333315,-0.14298457333333325,0.1710571999999999,0.1456231341240312,0.7069403260367811,0.7215800727457112,0.7215800727457112
LBP03_S03,LBP03,-1565,86,3,85,-1565,1715720055.4,2024-05-14 20:54:15.400000+00:00,2024-05-15 05:54:15.400000+09:00,2024,5,14,20,54,15,400,,,,,,,,,-0.459961,0.205566,-0.312744,48.522949,30.090332,-85.144043,,,,,,,,,,,0.0,1.0,1.0,3.0,0.0,0.0,0.0,3.0,0.0,0.08725908,-0.17112633333333332,0.9448860533333332,2.089843773333334,-1.8725585866666659,0.046386680000000145,-1.6590164352144774,0.3899449907551001,-2.247772050801502,7.542227499675855,-11.263583081287814,11.365948873680903,17.690061992120548,-1.094423137618627,17.553219382342245,-1.0659793079096351,-0.54722008,0.3766923333333333,-1.257630053333333,2.1815424666666665,1.4223151131147134,0.7141608439564904,0.7358807878552828,0.7358807878552828
LBP03_S03,LBP03,-1564,87,3,86,-1564,1715720055.44,2024-05-14 20:54:15.440000+00:00,2024-05-15 05:54:15.440000+09:00,2024,5,14,20,54,15,440,,,,,,,,,0.263672,-0.034912,0.234131,49.01123,-141.479492,-66.589355,,,,,,,,,,,0.0,1.0,1.0,3.0,0.0,0.0,0.0,3.0,0.0,0.09930661333333334,-0.17451825333333335,0.9563443866666668,0.7259114800000008,-4.914550773333332,0.2962239200000001,0.539088529570283,3.696641214113907,-1.9147187333010671,7.563791040858666,-11.115717432723258,11.28936012434886,17.556188680096817,-1.048709351454161,17.564928138326543,-1.0725674392564755,0.16436538666666667,0.13960625333333335,-0.7222133866666668,1.0261850266666668,0.7537228019533374,0.7156910476581118,0.7362376281372438,0.7362376281372438
LBP03_S03,LBP03,-1563,88,3,87,-1563,1715720055.48,2024-05-14 20:54:15.480000+00:00,2024-05-15 05:54:15.480000+09:00,2024,5,14,20,54,15,480,,,,,,,,,0.436279,-0.19458,0.76123,-11.535645,-102.722168,-36.010742,,,,,,,,,,,0.0,1.0,1.0,3.0,0.0,0.0,0.0,3.0,0.0,0.10349281333333334,-0.17225588000000003,0.9692057066666666,0.3304036666666675,-3.4635416533333316,1.3785806933333333,3.0672841656079437,6.284171276119173,-0.9650722063126608,7.686482407482984,-10.864350581678492,11.250757236096353,17.426866148213154,-1.0254105422552866,17.571426621722985,-1.0725616124455426,0.33278618666666665,-0.022324119999999975,-0.20797570666666665,0.5630860133333333,0.3930634896978035,0.7091528536173296,0.7344802861421936,0.7295087234619606
LBP03_S03,LBP03,-1562,89,3,88,-1562,1715720055.52,2024-05-14 20:54:15.520000+00:00,2024-05-15 05:54:15.520000+09:00,2024,5,14,20,54,15,520,,,,,,,,,0.328369,0.238525,1.060547,-12.268066,80.322266,59.753418,,,,,,,,,,,0.0,1.0,1.0,3.0,0.0,0.0,0.0,3.0,0.0,0.09961586666666666,-0.17456708,0.9821679466666666,-2.0613606533333324,-1.665852853333332,3.0517577733333328,5.903041782686011,7.982669646241014,0.22096714329525746,7.922604078790425,-10.545043795828851,11.259595921828163,17.341975215299573,-1.0477377351989274,17.588116043088988,-1.0691958682340794,0.22875313333333336,0.41309208,0.07837905333333328,0.7202242666666666,0.4786609850091959,0.6888211476365007,0.7184834624846971,0.7246847284917153
LBP03_S03,LBP03,-1561,90,3,89,-1561,1715720055.56,2024-05-14 20:54:15.560000+00:00,2024-05-15 05:54:15.560000+09:00,2024,5,14,20,54,15,560,,,,,,,,,-0.257324,-0.591309,1.758789,-147.705078,4.577637,59.570312,,,,,,,,,,,0.0,1.0,1.0,3.0,0.0,0.0,0.0,3.0,0.0,0.09445636,-0.18785158666666668,0.9935481466666668,-2.0499674133333325,-3.264973946666666,3.0973306800000002,8.886548389758097,8.490347115053282,1.1395921372282871,8.278066014380748,-10.20542991122672,11.305179607317294,17.334481894914234,-1.0996284962125924,17.629770877416238,-1.0681148520594332,-0.35178036,-0.4034574133333333,0.7652408533333331,1.5204786266666663,0.9338741187471049,0.7011496793565672,0.7238635307213829,0.7286316981191753
LBP03_S03,LBP03,-1560,91,3,90,-1560,1715720055.6,2024-05-14 20:54:15.600000+00:00,2024-05-15 05:54:15.600000+09:00,2024,5,14,20,54,15,600,,,,,,,,,0.075439,-0.431641,1.710693,22.705078,-13.305664,37.04834,,,,,,,,,,,0.0,1.0,1.0,3.0,0.0,0.0,0.0,3.0,0.0,0.09764646666666667,-0.18863934666666668,0.9908918933333333,0.6583659200000005,-3.637695306666666,2.7539062000000003,11.568412016502785,7.510804037657202,1.4630849312687182,8.74080249504086,-9.904997749720431,11.363703004568043,17.42539395983081,-1.0878258297696493,17.7070692987458,-1.0611666449381765,-0.02220746666666666,-0.24300165333333332,0.7198011066666667,0.9850102266666667,0.7600372413619235,0.7145862350433299,0.734189201546921,0.7292132822533004
LBP03_S03,LBP03,-1559,92,3,91,-1559,1715720055.64,2024-05-14 20:54:15.640000+00:00,2024-05-15 05:54:15.640000+09:00,2024,5,14,20,54,15,640,,,,,,,,,0.201904,-0.312744,1.088867,49.865723,106.262207,34.484863,,,,,,,,,,,0.0,1.0,1.0,3.0,0.0,0.0,0.0,3.0,0.0,0.0982324,-0.18208986666666668,0.9704849866666668,1.8554687866666673,-0.8211262933333319,2.3909504666666668,13.275611836585602,5.008722066446989,1.2240652007865807,9.271826968504284,-9.704648867062552,11.412665612599506,17.618056684886476,-1.0709558254867393,17.824333107010965,-1.0537314842164593,0.1036716,-0.13065413333333334,0.1183820133333332,0.35270774666666654,0.20453020384407267,0.7024449043152379,0.7126119654182892,0.7196735899185871
LBP03_S03,LBP03,-1558,93,3,92,-1558,1715720055.68,2024-05-14 20:54:15.680000+00:00,2024-05-15 05:54:15.680000+09:00,2024,5,14,20,54,15,680,,,,,,,,,-0.482666,0.203125,-0.260742,143.615723,123.779297,-60.852051,,,,,,,,,,,0.0,1.0,1.0,3.0,0.0,0.0,0.0,3.0,0.0,0.09210284,-0.17219402666666664,0.9493977466666667,2.6831054933333336,-1.9352213466666657,1.2044270266666666,13.397583985508456,1.3935042304932284,0.7679458113989246,9.807730327924622,-9.648908697842822,11.443383445055463,17.895363587118556,-1.0748391974334897,17.97889889807445,-1.05791872444351,-0.57476884,0.3753190266666666,-1.2101397466666666,2.1602276133333334,1.391280632250526,0.7044090385740768,0.725771380566817,0.7316665728173718
LBP03_S03,LBP03,-1557,94,3,93,-1557,1715720055.72,2024-05-14 20:54:15.720000+00:00,2024-05-15 05:54:15.720000+09:00,2024,5,14,20,54,15,720,,,,,,,,,0.140137,0.000732,0.162598,24.658203,-135.314941,-66.711426,,,,,,,,,,,0.0,1.0,1.0,3.0,0.0,0.0,0.0,3.0,0.0,0.09723956,-0.17150066666666666,0.9508170133333335,1.066894546666667,-6.146647119999998,0.6339517733333334,11.719682070440365,-2.51973522051871,0.5122459639374177,10.276517610742237,-9.74969810666357,11.46387328361296,18.223167069357334,-1.0503517912588909,18.1617889771345,-1.0636066806796258,0.04289744000000001,0.17223266666666667,-0.7882190133333334,1.0033491200000002,0.8079563693701773,0.7108370789399985,0.7328383845605356,0.7330049903007543
LBP03_S03,LBP03,-1556,95,3,94,-1556,1715720055.76,2024-05-14 20:54:15.760000+00:00,2024-05-15 05:54:15.760000+09:00,2024,5,14,20,54,15,760,,,,,,,,,0.403564,-0.005127,0.611084,-20.751953,-120.605469,-43.518066,,,,,,,,,,,0.0,1.0,1.0,3.0,0.0,0.0,0.0,3.0,0.0,0.10791338666666668,-0.17420574666666666,0.9649315999999999,0.7893880400000003,-5.624999986666666,1.4648437066666666,8.578416534790229,-5.785462304764259,0.6768275233432454,10.619654272133847,-9.981116598854141,11.49094638454669,18.55913775562052,-1.0117845426934002,18.359073071275766,-1.063763523727908,0.2956506133333333,0.16907874666666667,-0.35384759999999993,0.8185769599999999,0.4911262890179134,0.7238157973833305,0.7322727345559998,0.7288346678648432
LBP03_S03,LBP03,-1555,96,3,95,-1555,1715720055.8,2024-05-14 20:54:15.800000+00:00,2024-05-15 05:54:15.800000+09:00,2024,5,14,20,54,15,800,,,,,,,,,0.384766,0.166992,1.142334,27.893066,43.945312,27.099609,,,,,,,,,,,0.0,1.0,1.0,3.0,0.0,0.0,0.0,3.0,0.0,0.10507158666666667,-0.17275717333333335,0.9765787333333334,-1.2540689866666666,-3.6238606666666655,3.270670533333333,4.7277767541325595,-7.691429708945407,1.1630533771383484,10.808765342299148,-10.288773787211957,11.537468519632224,18.862700074772214,-1.0200715304014563,18.55357055176245,-1.0618808657465064,0.27969441333333334,0.3397491733333333,0.1657552666666665,0.7851988533333332,0.47024809841008247,0.6889035631916678,0.7175171371078037,0.7244518446537456
LBP03_S03,LBP03,-1554,97,3,96,-1554,1715720055.84,2024-05-14 20:54:15.840000+00:00,2024-05-15 05:54:15.840000+09:00,2024,5,14,20,54,15,840,,,,,,,,,-0.058594,-0.475342,1.743164,-162.17041,-1.77002,62.561035,,,,,,,,,,,0.0,1.0,1.0,3.0,0.0,0.0,0.0,3.0,0.0,0.0964876,-0.18767253333333334,0.9849576399999999,-2.0206705599999997,-3.8297525999999986,3.369954386666666,0.9972812240701278,-7.997521076884645,1.652945487193584,10.848656591261953,-10.608674630287343,11.603586339119968,19.10184659073162,-1.0905817537246698,18.72691747662885,-1.0596379011104708,-0.15508160000000001,-0.28766946666666665,0.7582063600000001,1.2009574266666667,0.8256396968746683,0.6884265952897859,0.7207146540290518,0.7261383088574276
LBP03_S03,LBP03,-1553,98,3,97,-1553,1715720055.88,2024-05-14 20:54:15.880000+00:00,2024-05-15 05:54:15.880000+09:00,2024,5,14,20,54,15,880,,,,,,,,,0.087158,-0.541504,1.900391,0.915527,-68.54248,44.494629,,,,,,,,,,,0.0,1.0,1.0,3.0,0.0,0.0,0.0,3.0,0.0,0.09868811999999999,-0.18810546666666667,0.9844010000000001,0.8536784000000004,-4.8225911466666656,2.9516601199999997,-2.0480567868742168,-6.926610764241413,1.8464192727256339,10.766734319786984,-10.885739060856999,11.677443110028992,19.25576693881369,-1.0822901046164433,18.86208128637267,-1.0562560470879927,-0.011530119999999991,-0.3533985333333333,0.9159899999999999,1.2809186533333332,0.9818661554047808,0.7082594270212413,0.7329680414837554,0.7303305686368924
LBP03_S03,LBP03,-1552,99,3,98,-1552,1715720055.92,2024-05-14 20:54:15.920000+00:00,2024-05-15 05:54:15.920000+09:00,2024,5,14,20,54,15,920,,,,,,,,,0.396729,-0.473633,1.449219,2.929688,65.429688,32.531738,,,,,,,,,,,0.0,1.0,1.0,3.0,0.0,0.0,0.0,3.0,0.0,0.10416012,-0.18344401333333335,0.97166012,1.3484700666666671,-2.447102866666665,3.0249023066666667,-4.247354939226688,-4.9470200980768375,1.6649198684887505,10.596840122217916,-11.083619864780072,11.744039904768542,19.314816156712205,-1.0493061656817488,18.94608600683823,-1.0505549146814135,0.29256888000000003,-0.2901889866666667,0.47755888,1.0603167466666668,0.6307683262450134,0.7157763482688851,0.7191214509854197,0.7287247260176686
LBP03_S03,LBP03,-1551,100,3,99,-1551,1715720055.96,2024-05-14 20:54:15.960000+00:00,2024-05-15 05:54:15.960000+09:00,2024,5,14,20,54,15,960,,,,,,,,,-0.441895,0.052979,-0.05127,108.215332,181.030273,-35.15625,,,,,,,,,,,0.0,1.0,1.0,3.0,0.0,0.0,0.0,3.0,0.0,0.09269202666666666,-0.17590494666666665,0.9490364133333332,2.675781266666667,-0.7674153599999984,1.6861978799999997,-5.725548540730614,-2.5010469885851814,1.2840507487306918,10.367818180588692,-11.18366174432348,11.79540193471777,19.279456699781083,-1.0808019163985783,18.97230811714072,-1.0532281794441554,-0.5345870266666667,0.22888394666666664,-1.0003064133333333,1.7637773866666666,1.1570583696070886,0.7269566558865546,0.7285860289815873,0.7355236727413101
LBP03_S03,LBP03,-1550,101,3,100,-1550,1715720056.0,2024-05-14 20:54:16+00:00,2024-05-15 05:54:16+09:00,2024,5,14,20,54,16,0,20.0,54.0,15.0,40.538849,141.532761,23.000999,3.0,16.0,-0.03125,0.090576,0.201172,27.160645,-104.919434,-71.228027,-296.0,11.0,372.0,2553.0,0.0,1015.099976,18.99,0.020811,-15.381901,4.014844,0.0,1.0,1.0,3.0,0.0,0.0,0.0,4.0,0.0,0.09612953333333334,-0.17579751999999998,0.9457584133333334,1.5950521066666672,-4.772949213333331,0.6339517866666665,-6.6371440164773015,0.14812255467720128,0.9856140495657568,10.102332419929601,-11.177736842136392,11.8348264967004,19.1588632084948,-1.0653961834092913,18.941615051863828,-1.0620570400238105,-0.12737953333333335,0.26637352,-0.7445864133333334,1.1383394666666669,0.8009927119456243,0.7323055451062161,0.7352136938504406,0.7365466264788776
LBP03_S03,LBP03,-1549,102,3,101,-1549,1715720056.04,2024-05-14 20:54:16.040000+00:00,2024-05-15 05:54:16.040000+09:00,2024,5,14,20,54,16,40,,,,,,,,,0.403564,-0.118408,0.692383,-9.094238,-122.802734,-40.893555,,,,,,,,,,,0.0,1.0,1.0,3.0,0.0,0.0,0.0,4.0,0.0,0.10467770666666666,-0.17918618666666666,0.9547558133333333,1.5388997600000005,-5.146484359999998,0.6787109066666666,-6.979728916353394,2.8646338005915055,0.9477328919572094,9.823143263275465,-11.063151490112732,11.872735812378687,18.969694782324705,-1.037137285261959,18.86198233734509,-1.0658933449635726,0.29888629333333333,0.060778186666666664,-0.2623728133333333,0.6220372933333334,0.40232635694604413,0.7388837681386675,0.7334075316242771,0.7314047761783724
LBP03_S03,LBP03,-1548,103,3,102,-1548,1715720056.08,2024-05-14 20:54:16.080000+00:00,2024-05-15 05:54:16.080000+09:00,2024,5,14,20,54,16,80,,,,,,,,,0.555908,0.012939,1.305908,1.464844,19.775391,19.836426,,,,,,,,,,,0.0,1.0,1.0,3.0,0.0,0.0,0.0,4.0,0.0,0.10710609333333333,-0.17529621333333334,0.9660090666666667,0.8805338666666671,-2.9093424399999988,1.687011693333333,-6.617428013391698,5.453465667685337,1.1302379159614628,9.558446142739797,-10.84501286340532,11.917945329017146,18.735410791774108,-1.0178278733676958,18.746793958765895,-1.0651136644204877,0.44880190666666664,0.18823521333333335,0.3398989333333333,0.9769360533333333,0.5936218761530092,0.7165311940311774,0.7314046890306577,0.7293171564810185
LBP03_S03,LBP03,-1547,104,3,103,-1547,1715720056.12,2024-05-14 20:54:16.120000+00:00,2024-05-15 05:54:16.120000+09:00,2024,5,14,20,54,16,120,,,,,,,,,-0.044434,-0.205811,1.564941,-163.452148,32.226562,64.331055,,,,,,,,,,,0.0,1.0,1.0,3.0,0.0,0.0,0.0,4.0,0.0,0.09712888,-0.18270506666666667,0.9779784799999999,-1.7097981599999996,-1.5152994666666655,2.3470051866666664,-5.486044162699946,7.520827991395153,1.3347261055274875,9.339004376231799,-10.544179743749513,11.971334373238244,18.485388172382255,-1.0770844388863106,18.61243622016155,-1.0649541277018364,-0.14156288,-0.02310593333333333,0.58696252,0.7516313333333333,0.6042341706936553,0.7135113724920338,0.7228349992823113,0.7274502462453861
LBP03_S03,LBP03,-1546,105,3,104,-1546,1715720056.16,2024-05-14 20:54:16.160000+00:00,2024-05-15 05:54:16.160000+09:00,2024,5,14,20,54,16,160,,,,,,,,,-0.101807,-0.786621,2.021729,-8.666992,-31.12793,23.925781,,,,,,,,,,,0.0,1.0,1.0,3.0,0.0,0.0,0.0,4.0,0.0,0.09580076,-0.19086586666666666,0.9840136266666667,0.22867840000000048,-2.5195312399999987,1.5332031066666667,-3.8071851407138073,8.523940728772166,1.3841833008331261,9.186716970603246,-10.203222114598626,12.02670170527157,18.252207102851596,-1.1000731484899517,18.47582282161083,-1.0647079226196288,-0.19760776,-0.5957551333333333,1.0377153733333335,1.8310782666666667,1.2127762372991875,0.7387317963541236,0.7309747967037791,0.734587393172648
LBP03_S03,LBP03,-1545,106,3,105,-1545,1715720056.2,2024-05-14 20:54:16.200000+00:00,2024-05-15 05:54:16.200000+09:00,2024,5,14,20,54,16,200,,,,,,,,,0.210449,-0.396729,1.566162,4.577637,24.230957,28.320312,,,,,,,,,,,0.0,1.0,1.0,3.0,0.0,0.0,0.0,4.0,0.0,0.10173499999999999,-0.18303709333333334,0.9756347200000001,1.818033866666667,-0.9114583199999985,1.3297525866666668,-2.1199271261973687,8.004465551506696,1.2785789614956236,9.101919885555352,-9.883043492538357,12.077844863731395,18.06637292958483,-1.0584345797990775,18.35219512215878,-1.0587648137767058,0.108714,-0.21369190666666665,0.59052728,0.9129331866666667,0.6373424771620309,0.7417081237285132,0.7294086990920282,0.7331780465637984
LBP03_S03,LBP03,-1544,107,3,106,-1544,1715720056.24,2024-05-14 20:54:16.240000+00:00,2024-05-15 05:54:16.240000+09:00,2024,5,14,20,54,16,240,,,,,,,,,0.10791,-0.287598,0.874023,74.645996,154.968262,9.887695,,,,,,,,,,,0.0,1.0,1.0,3.0,0.0,0.0,0.0,4.0,0.0,0.09298174666666666,-0.17732745333333333,0.9525194799999999,3.3463541733333337,2.415364586666668,0.21321613333333336,-1.0620977980525763,5.869803841873894,1.2030069726723376,9.05943597363325,-9.648251338863401,12.125965142638288,17.949962804939695,-1.08278494829382,18.253264677585253,-1.0577593001175027,0.01492825333333335,-0.11027054666666669,-0.07849647999999987,0.20369527999999992,0.13617688343525883,0.7277983767689364,0.715068993919047,0.724649458519105
LBP03_S03,LBP03,-1543,108,3,107,-1543,1715720056.28,2024-05-14 20:54:16.280000+00:00,2024-05-15 05:54:16.280000+09:00,2024,5,14,20,54,16,280,,,,,,,,,-0.425049,0.114502,-0.157471,68.42041,28.320312,-70.251465,,,,,,,,,,,0.0,1.0,1.0,3.0,0.0,0.0,0.0,4.0,0.0,0.09273761333333334,-0.17596026666666667,0.9460546399999998,2.4015299600000004,-1.3720703066666655,-0.9440104266666667,-1.0162689083832224,2.5450766876051567,1.372394873767304,9.01878521729792,-9.546448271359194,12.18086093758898,17.91218955277019,-1.0806947374299298,18.18581302565784,-1.0636895163155011,-0.5177866133333333,0.2904622666666667,-1.1035256399999998,1.9117745199999998,1.2530922326156801,0.7305206845482399,0.7299825682078049,0.7320923144922962
LBP03_S03,LBP03,-1542,109,3,108,-1542,1715720056.32,2024-05-14 20:54:16.320000+00:00,2024-05-15 05:54:16.320000+09:00,2024,5,14,20,54,16,320,,,,,,,,,0.213623,-0.064941,0.300781,21.972656,-117.492676,-66.894531,,,,,,,,,,,0.0,1.0,1.0,3.0,0.0,0.0,0.0,4.0,0.0,0.1020996,-0.17873045333333334,0.9588703866666667,2.2737630266666673,-2.7189127466666654,-0.98307292,-1.8463958200105035,-1.1233801030786268,1.8165180025801262,8.944929384497499,-9.59138347548234,12.253521657692184,17.948682171205046,-1.0468441148596734,18.1510818855893,-1.0682972270598459,0.11152340000000001,0.11378945333333335,-0.6580893866666666,0.8834022399999999,0.6771020228006768,0.726617439763344,0.7290347645537149,0.7313285604410237
LBP03_S03,LBP03,-1541,110,3,109,-1541,1715720056.36,2024-05-14 20:54:16.360000+00:00,2024-05-15 05:54:16.360000+09:00,2024,5,14,20,54,16,360,,,,,,,,,0.495361,-0.156494,0.928223,-6.713867,-95.64209,-16.113281,,,,,,,,,,,0.0,1.0,1.0,3.0,0.0,0.0,0.0,4.0,0.0,0.10672850666666667,-0.17606769333333336,0.97584956,2.1834310000000006,-1.180826813333332,0.08544921333333358,-2.909360999158073,-4.187782815215123,2.2645792354574863,8.828554944531176,-9.758894788090945,12.344104827110483,18.043179705260567,-1.0213708279693479,18.14520279395772,-1.0675225305405749,0.38863249333333333,0.019573693333333364,-0.047626559999999984,0.4558327466666667,0.39202886827710065,0.7364736691294667,0.7217069975831238,0.7266806194524769
LBP03_S03,LBP03,-1540,111,3,110,-1540,1715720056.4,2024-05-14 20:54:16.400000+00:00,2024-05-15 05:54:16.400000+09:00,2024,5,14,20,54,16,400,,,,,,,,,0.263184,0.217773,1.287598,-69.152832,56.640625,72.814941,,,,,,,,,,,0.0,1.0,1.0,3.0,0.0,0.0,0.0,4.0,0.0,0.09861326666666667,-0.17592121333333333,0.9890364133333333,0.2962239733333335,1.1905924533333343,1.4143880266666669,-3.360564463289206,-5.966299462287988,2.2369547926958013,8.694132365999607,-9.997546766582465,12.433583018818315,18.169558762759557,-1.0553410468172597,18.160450563261733,-1.0647519449369027,0.1645707333333333,0.3936942133333333,0.29856158666666677,0.8568265333333334,0.5207856381611736,0.7004124901313251,0.7072866670439076,0.7238982548404321
LBP03_S03,LBP03,-1539,112,3,111,-1539,1715720056.44,2024-05-14 20:54:16.440000+00:00,2024-05-15 05:54:16.440000+09:00,2024,5,14,20,54,16,440,,,,,,,,,-0.217773,-0.897705,1.948242,-141.967773,-46.020508,50.65918,,,,,,,,,,,0.0,1.0,1.0,3.0,0.0,0.0,0.0,4.0,0.0,0.09562823999999999,-0.18865884,1.00189124,0.5468750133333337,-0.42399087999999885,1.197916666666667,-2.590393974106497,-6.250358122582692,1.3142966196080152,8.590516607035347,-10.247561091485773,12.486154883602635,18.295178263050545,-1.0964394472419448,18.18679277687208,-1.062579656927938,-0.31340123999999997,-0.70904616,0.9463507600000001,1.96879816,1.2233341960383763,0.7191969458947267,0.7174439967764192,0.7305574007230714
LBP03_S03,LBP03,-1538,113,3,112,-1538,1715720056.48,2024-05-14 20:54:16.480000+00:00,2024-05-15 05:54:16.480000+09:00,2024,5,14,20,54,16,480,,,,,,,,,0.097412,-0.276855,1.639648,30.029297,-25.268555,38.635254,,,,,,,,,,,0.0,1.0,1.0,3.0,0.0,0.0,0.0,4.0,0.0,0.10190429333333333,-0.1856900933333333,1.00060868,2.9500325600000004,-0.20263671999999883,0.6892903600000002,-0.541816120904391,-5.260185973768379,-0.5772296483155128,8.568843962199171,-10.457968530436508,12.463065697670014,18.388099391088698,-1.0639049808111447,18.213416616165915,-1.055715155451721,-0.004492293333333328,-0.09116490666666671,0.63903932,0.73469652,0.6455249595584954,0.7292954046891544,0.7192241291532419,0.7327519923245139
LBP03_S03,LBP03,-1537,114,3,113,-1537,1715720056.52,2024-05-14 20:54:16.520000+00:00,2024-05-15 05:54:16.520000+09:00,2024,5,14,20,54,16,520,,,,,,,,,0.24585,-0.402832,1.142578,54.80957,132.080078,18.676758,,,,,,,,,,,0.0,1.0,1.0,3.0,0.0,0.0,0.0,4.0,0.0,0.09777018666666666,-0.18043944,0.9825845866666666,4.176432293333334,2.8906250000000013,0.026855466666666956,2.2714356847823187,-3.419707680767476,-3.0517388368049203,8.659701389590463,-10.594756837667207,12.340996144197817,18.426597256066472,-1.0693374736936005,18.230262743786888,-1.0494317343215442,0.14807981333333337,-0.22239256000000002,0.1599934133333335,0.5304657866666669,0.31142250106605873,0.722605865331429,0.7057135064839648,0.719857596766941
LBP03_S03,LBP03,-1536,115,3,114,-1536,1715720056.56,2024-05-14 20:54:16.560000+00:00,2024-05-15 05:54:16.560000+09:00,2024,5,14,20,54,16,560,,,,,,,,,-0.524658,0.262939,-0.2229,93.62793,103.45459,-73.242188,,,,,,,,,,,0.0,1.0,1.0,3.0,0.0,0.0,0.0,4.0,0.0,0.09391926666666667,-0.17452797333333334,0.9671614133333335,4.11051432,-0.23763021333333217,-1.13932292,5.038471079379696,-1.120916033569693,-5.405811317409926,8.86124023276565,-10.639593479009994,12.12476369150142,18.40468479589172,-1.0723672924532273,18.2295896792455,-1.0533640940802462,-0.6185772666666667,0.4374669733333333,-1.1900614133333334,2.2461056533333332,1.4107662297840713,0.7416815497729076,0.7214156145647376,0.7298028704052245
LBP03_S03,LBP03,-1535,116,3,115,-1535,1715720056.6,2024-05-14 20:54:16.600000+00:00,2024-05-15 05:54:16.600000+09:00,2024,5,14,20,54,16,600,,,,,,,,,0.200928,-0.087402,0.223633,11.169434,-145.385742,-71.899414,,,,,,,,,,,0.0,1.0,1.0,3.0,0.0,0.0,0.0,4.0,0.0,0.10335612,-0.17661781333333332,0.97416988,2.8125000000000004,-3.828938799999999,-1.2597656266666666,7.031666825813347,1.3638740279679844,-6.942504123563053,9.142506905798184,-10.585038517891274,11.847063526558898,18.32979506568831,-1.0367116997094323,18.20740162739019,-1.0600636537139605,0.09757188,0.08921581333333332,-0.7505368800000001,0.9373245733333334,0.7620927380283827,0.7417637696395658,0.7281750023414478,0.7367140575778026
LBP03_S03,LBP03,-1534,117,3,116,-1534,1715720056.64,2024-05-14 20:54:16.640000+00:00,2024-05-15 05:54:16.640000+09:00,2024,5,14,20,54,16,640,,,,,,,,,0.415283,-0.075439,0.61084,-4.272461,-108.764648,-49.682617,,,,,,,,,,,0.0,1.0,1.0,3.0,0.0,0.0,0.0,4.0,0.0,0.10895182666666668,-0.17679685333333334,0.9854687200000001,2.8312174400000005,-2.8597005199999987,-0.40039062666666636,7.8698180345639255,3.7863732633905323,-7.288846808265594,9.457299627180742,-10.433583587355653,11.555509654228274,18.216201197878032,-1.01413993353165,18.16456560166115,-1.061240879383297,0.3063311733333333,0.10135785333333333,-0.37462872,0.7823177466666666,0.49442783096924936,0.753359674724573,0.7279022895199054,0.7261945351870505
LBP03_S03,LBP03,-1533,118,3,117,-1533,1715720056.68,2024-05-14 20:54:16.680000+00:00,2024-05-15 05:54:16.680000+09:00,2024,5,14,20,54,16,680,,,,,,,,,0.399414,0.18042,1.080811,7.93457,50.90332,22.827148,,,,,,,,,,,0.0,1.0,1.0,3.0,0.0,0.0,0.0,4.0,0.0,0.10775065333333332,-0.17626625333333332,0.9995214533333334,0.6339518266666672,-0.6388346399999985,1.3850911466666669,7.552064330407379,5.7692832435549155,-6.523818928062478,9.759382200397036,-10.202812257613456,11.294556897105775,18.080650828979955,-1.0178605261281612,18.10745982667671,-1.0596357513840158,0.29166334666666666,0.3566862533333333,0.08128954666666655,0.7296391466666665,0.46786812405104405,0.7164231743965938,0.7104161064853354,0.7226553118434093
LBP03_S03,LBP03,-1532,119,3,118,-1532,1715720056.72,2024-05-14 20:54:16.720000+00:00,2024-05-15 05:54:16.720000+09:00,2024,5,14,20,54,16,720,,,,,,,,,-0.169189,-0.50708,1.758301,-120.117188,27.46582,59.143066,,,,,,,,,,,0.0,1.0,1.0,3.0,0.0,0.0,0.0,4.0,0.0,0.09767252,-0.18779945333333334,1.0131249733333334,-0.15950519999999954,-0.22054035999999844,1.8847656266666668,6.312822783329119,6.780536043471987,-5.056461416869571,10.011895111730201,-9.931590815874577,11.092298440430993,17.941951525791143,-1.086167712446694,18.04779639887159,-1.0600632298017987,-0.26686152,-0.3192805466666666,0.7451760266666665,1.331318093333333,0.8534884000706725,0.7182444556246135,0.7145407672823061,0.727973741581895
LBP03_S03,LBP03,-1531,120,3,119,-1531,1715720056.76,2024-05-14 20:54:16.760000+00:00,2024-05-15 05:54:16.760000+09:00,2024,5,14,20,54,16,760,,,,,,,,,0.064697,-0.498291,1.786865,38.330078,-17.883301,31.738281,,,,,,,,,,,0.0,1.0,1.0,3.0,0.0,0.0,0.0,4.0,0.0,0.09997396,-0.19338865333333333,1.0165917733333334,1.5421549600000006,-1.1710611999999985,1.4811197866666668,4.4457974703998655,6.311432329828409,-3.3520102496268884,10.189727010546196,-9.67913352268144,10.958218030445916,17.82129918670747,-1.0883664243064912,18.001220346665132,-1.0558920211310392,-0.035276959999999996,-0.30490234666666666,0.7702732266666665,1.110452533333333,0.8291747395025728,0.7317663936439999,0.7277910955136652,0.7321039542519998
LBP03_S03,LBP03,-1530,121,3,120,-1530,1715720056.8,2024-05-14 20:54:16.800000+00:00,2024-05-15 05:54:16.800000+09:00,2024,5,14,20,54,16,800,,,,,,,,,0.331543,-0.308105,1.376709,14.038086,75.256348,31.12793,,,,,,,,,,,0.0,1.0,1.0,3.0,0.0,0.0,0.0,4.0,0.0,0.10084636,-0.18515297333333333,1.0025781066666668,3.2641601600000003,1.7179361866666683,1.3492838533333333,2.22771014097115,4.163045469074477,-1.689627681117304,10.278835416185043,-9.512611703918461,10.890632923201224,17.741198505469153,-1.0671133035106226,17.984858149674594,-1.0513602854342252,0.23069663999999998,-0.12295202666666669,0.37413089333333316,0.7277795599999999,0.4564121667036586,0.731212956375743,0.7100582597837054,0.7220824101971168
LBP03_S03,LBP03,-1529,122,3,121,-1529,1715720056.84,2024-05-14 20:54:16.840000+00:00,2024-05-15 05:54:16.840000+09:00,2024,5,14,20,54,16,840,,,,,,,,,-0.430664,0.068604,-0.08667,97.595215,176.879883,-39.001465,,,,,,,,,,,0.0,1.0,1.0,3.0,0.0,0.0,0.0,4.0,0.0,0.09435547999999999,-0.17882485333333334,0.9778515466666668,4.4506836000000005,1.8440755066666683,-0.03580729333333314,-0.03554985210283068,0.6497942190140165,-0.09484795164448646,10.27741342210093,-9.4866199351579,10.886839005135444,17.724120513206127,-1.0803881672491338,18.014743288074268,-1.0555574104682308,-0.52501948,0.24742885333333334,-1.0645215466666669,1.8369698800000003,1.2124655109152223,0.7466859889373652,0.7175562921135754,0.7293717656651563
LBP03_S03,LBP03,-1528,123,3,122,-1528,1715720056.88,2024-05-14 20:54:16.880000+00:00,2024-05-15 05:54:16.880000+09:00,2024,5,14,20,54,16,880,,,,,,,,,-0.010742,-0.05835,0.284668,-33.325195,-147.644043,-53.161621,,,,,,,,,,,0.0,1.0,1.0,3.0,0.0,0.0,0.0,4.0,0.0,0.09624025333333333,-0.1770996,0.9702896933333333,3.8590494800000004,-2.089843759999999,-1.0579427066666665,-1.932287228037146,-3.439636651921372,1.5401109364036023,10.200121932979444,-9.624205401234756,10.948443442591588,17.791465113037525,-1.0681797649889746,18.10404796467897,-1.064746738518941,-0.10698225333333333,0.1187496,-0.6856216933333332,0.9113535466666666,0.7040055229880692,0.7355715636406965,0.721915495330969,0.7338358822027359
LBP03_S03,LBP03,-1527,124,3,123,-1527,1715720056.92,2024-05-14 20:54:16.920000+00:00,2024-05-15 05:54:16.920000+09:00,2024,5,14,20,54,16,920,,,,,,,,,0.411377,-0.061279,0.682129,10.253906,-116.821289,-50.598145,,,,,,,,,,,0.0,1.0,1.0,3.0,0.0,0.0,0.0,4.0,0.0,0.10949221333333331,-0.18332681333333334,0.9881445066666666,2.912597653333334,-3.469238293333332,-0.03417967999999985,-2.960654632931789,-7.145334817859657,3.262056293608749,10.081695747662172,-9.910018793949142,11.078925694335938,17.960836734001894,-1.0276253869860035,18.262209276603482,-1.0707085482479954,0.3018847866666667,0.12204781333333334,-0.30601550666666666,0.7299481066666667,0.4468507395995711,0.728214860174879,0.7219956042218821,0.7221525873819061
LBP03_S03,LBP03,-1526,125,3,124,-1526,1715720056.96,2024-05-14 20:54:16.960000+00:00,2024-05-15 05:54:16.960000+09:00,2024,5,14,20,54,16,960,,,,,,,,,0.480713,0.055664,1.231201,29.418945,-23.193359,18.066406,,,,,,,,,,,0.0,1.0,1.0,3.0,0.0,0.0,0.0,4.0,0.0,0.10889,-0.18199544,1.0026497066666666,1.1474609466666672,-0.9497070399999988,1.8147786533333337,-2.685694897200957,-9.747119994652278,4.942556263938196,9.974267951774134,-10.299903593735234,11.276627944893466,18.24106282598634,-1.0270499354850884,18.49432881837548,-1.071708421324774,0.371823,0.23765944,0.22855129333333335,0.8380337333333334,0.4969608097571206,0.7018109577808802,0.7143838068337175,0.7196610052480183
LBP03_S03,LBP03,-1525,126,3,125,-1525,1715720057.0,2024-05-14 20:54:17+00:00,2024-05-15 05:54:17+09:00,2024,5,14,20,54,17,0,20.0,54.0,16.0,40.538807,141.532867,22.843,3.0,16.0,0.05542,-0.119873,1.5979,-151.489258,38.208008,73.852539,-297.0,11.0,371.0,2350.0,0.0,1014.799988,19.049999,0.017838,-12.889151,4.014844,0.0,1.0,1.0,3.0,0.0,0.0,0.0,4.0,0.0,0.10054690666666667,-0.18986978666666668,1.0160188533333334,-0.23274738666666603,0.5704752533333345,3.09326172,-0.9706816062814251,-11.039640194309,6.326708721263267,9.935440687522878,-10.741489201507594,11.529696293743998,18.62864644968505,-1.0786829500494897,18.800354866757793,-1.0720792217511923,-0.045126906666666675,0.06999678666666669,0.5818811466666667,0.6970048400000001,0.5878109021573823,0.6932836853893505,0.7127946152477833,0.7212370243634105
LBP03_S03,LBP03,-1524,127,3,126,-1524,1715720057.04,2024-05-14 20:54:17.040000+00:00,2024-05-15 05:54:17.040000+09:00,2024,5,14,20,54,17,40,,,,,,,,,0.042236,-0.818359,1.94873,-20.874023,-67.138672,32.592773,,,,,,,,,,,0.0,1.0,1.0,3.0,0.0,0.0,0.0,4.0,0.0,0.0973568,-0.19683266666666666,1.0251952800000002,0.2303060000000006,-1.0953776133333322,2.82796224,1.8628506154729718,-11.314472671851052,7.199003506923657,10.009954712141797,-11.194068108381636,11.817656434020943,19.109247963925036,-1.1060332140387512,19.174139478355784,-1.070609392838867,-0.05512079999999999,-0.6215263333333333,0.9235347199999999,1.6001818533333332,1.114562544079468,0.7217731328746875,0.7303284505066775,0.7295293987077472
LBP03_S03,LBP03,-1523,128,3,127,-1523,1715720057.08,2024-05-14 20:54:17.080000+00:00,2024-05-15 05:54:17.080000+09:00,2024,5,14,20,54,17,80,,,,,,,,,0.174072,-0.377686,1.44165,24.597168,32.836914,37.353516,,,,,,,,,,,0.0,1.0,1.0,3.0,0.0,0.0,0.0,4.0,0.0,0.10371096,-0.19540688,1.0174543999999999,2.395833346666667,0.3474934800000013,2.43652344,5.081606799021525,-11.081924314224493,7.530309178045879,10.213218984102658,-11.637345080950615,12.118868801142778,19.662263948225092,-1.077478623418705,19.60279698109448,-1.065760855762162,0.07036104,-0.18227912000000002,0.42419560000000023,0.6768357600000002,0.46703132721180085,0.7167095109170392,0.7166203524741083,0.7265062963261181
LBP03_S03,LBP03,-1522,129,3,128,-1522,1715720057.12,2024-05-14 20:54:17.120000+00:00,2024-05-15 05:54:17.120000+09:00,2024,5,14,20,54,17,120,,,,,,,,,-0.142578,-0.100586,0.365234,112.121582,179.931641,-1.159668,,,,,,,,,,,0.0,1.0,1.0,3.0,0.0,0.0,0.0,4.0,0.0,0.09614912,-0.18962888,0.9925357866666666,3.891601573333334,2.466634106666668,1.2443033866666666,7.817272505223402,-10.714494223678924,7.485405310718182,10.525909884311595,-12.065924849897772,12.418285013571506,20.263146943511114,-1.096166443214481,20.0667983635265,-1.066582983852355,-0.23872712000000001,0.08904288,-0.6273017866666666,0.9550717866666666,0.6770722294241441,0.7196230332662588,0.7165672028791462,0.7217643439436272
LBP03_S03,LBP03,-1521,130,3,129,-1521,1715720057.16,2024-05-14 20:54:17.160000+00:00,2024-05-15 05:54:17.160000+09:00,2024,5,14,20,54,17,160,,,,,,,,,-0.081543,0.174805,0.043945,70.495605,-66.650391,-60.546875,,,,,,,,,,,0.0,1.0,1.0,3.0,0.0,0.0,0.0,4.0,0.0,0.09445966666666666,-0.18434242666666667,0.98061196,3.564453133333334,-0.620930999999999,-0.00895181333333331,9.439433173475122,-10.227612117442629,7.276198386174035,10.9034872112506,-12.475029334595478,12.709332949018467,20.881559670530585,-1.0920744285706732,20.541169761180846,-1.0752039087171525,-0.17600266666666667,0.35914742666666666,-0.9366669599999999,1.4718170533333332,1.0184835819544211,0.7118513270524681,0.7252915617032959,0.7246003068200088
LBP03_S03,LBP03,-1520,131,3,130,-1520,1715720057.2,2024-05-14 20:54:17.200000+00:00,2024-05-15 05:54:17.200000+09:00,2024,5,14,20,54,17,200,,,,,,,,,0.228516,0.027832,0.402588,4.394531,-126.342773,-56.396484,,,,,,,,,,,0.0,1.0,1.0,3.0,0.0,0.0,0.0,4.0,0.0,0.10679690666666666,-0.18951169333333334,0.99331704,1.542154946666667,-3.6840820399999985,0.3361002666666667,9.804655371496013,-9.324850707922263,6.964050154164053,11.29567342611044,-12.848023362912368,12.987894955185029,21.479044621449074,-1.0524150143873676,20.997915013383746,-1.0812934835958923,0.12171909333333333,0.21734369333333334,-0.59072904,0.9297918266666667,0.6411042172790509,0.712001796657149,0.7268549601928312,0.7236063982804017
LBP03_S03,LBP03,-1519,132,3,131,-1519,1715720057.24,2024-05-14 20:54:17.240000+00:00,2024-05-15 05:54:17.240000+09:00,2024,5,14,20,54,17,240,,,,,,,,,0.616455,-0.248535,1.196533,-14.465332,-60.241699,4.577637,,,,,,,,,,,0.0,1.0,1.0,3.0,0.0,0.0,0.0,4.0,0.0,0.11020510666666666,-0.18632484,1.0078320133333334,1.629231773333334,-1.195475279999999,1.5470377733333334,9.230311891998024,-7.660717123177773,6.36299297209166,11.664885901790361,-13.154452047839479,13.242414674068694,22.010695540593115,-1.0319027964820848,21.409203534778285,-1.0829459440431557,0.5062498933333333,-0.062210160000000014,0.18870098666666668,0.75716104,0.5438447580663166,0.7283085116423912,0.7280534442056639,0.719482166493495
LBP03_S03,LBP03,-1518,133,3,132,-1518,1715720057.28,2024-05-14 20:54:17.280000+00:00,2024-05-15 05:54:17.280000+09:00,2024,5,14,20,54,17,280,,,,,,,,,0.093506,0.115723,1.391357,-95.458984,56.335449,76.843262,,,,,,,,,,,0.0,1.0,1.0,3.0,0.0,0.0,0.0,4.0,0.0,0.10266930666666665,-0.19285478666666667,1.0220800666666665,-0.6437174533333329,0.7926432133333342,2.8377278666666665,8.222293494811566,-5.126301784509506,5.135441876189895,11.993777641582824,-13.35950411921986,13.44783234911629,22.43147893735772,-1.0764010458909061,21.750420237821917,-1.0833043900277533,-0.009163306666666649,0.3085777866666667,0.36927693333333345,0.6870180266666668,0.48132075594683993,0.6974376525756376,0.7139791685619388,0.7191342629970825
LBP03_S03,LBP03,-1517,134,3,133,-1517,1715720057.32,2024-05-14 20:54:17.320000+00:00,2024-05-15 05:54:17.320000+09:00,2024,5,14,20,54,17,320,,,,,,,,,-0.107178,-0.934082,2.052002,-40.466309,-37.780762,33.813477,,,,,,,,,,,0.0,1.0,1.0,3.0,0.0,0.0,0.0,4.0,0.0,0.09803714666666667,-0.20227861333333336,1.0321744666666666,-0.8146158799999994,-0.3173828266666658,2.9109700533333336,7.146017978838503,-1.9632600402457172,3.0375402549310784,12.279618360736364,-13.438034520829689,13.569333959313532,22.704550710545305,-1.113834635633979,22.002455628127752,-1.0816770486554337,-0.20521514666666668,-0.7318033866666667,1.0198275333333333,1.9568460666666667,1.2718874364121124,0.721229069120095,0.7239232544417195,0.7264328660758417
LBP03_S03,LBP03,-1516,135,3,134,-1516,1715720057.36,2024-05-14 20:54:17.360000+00:00,2024-05-15 05:54:17.360000+09:00,2024,5,14,20,54,17,360,,,,,,,,,0.043213,-0.278564,1.655273,29.418945,-29.174805,34.301758,,,,,,,,,,,0.0,1.0,1.0,3.0,0.0,0.0,0.0,4.0,0.0,0.10358077333333333,-0.20027990666666665,1.0287304533333335,1.551920573333334,0.5078124933333343,2.6188151066666667,6.058606168801322,1.3513144851043246,0.15751365649221505,12.521962607488417,-13.383981941425516,13.575634505573221,22.80851534801537,-1.0879456842724868,22.153351026083183,-1.075923352500624,-0.06036777333333333,-0.07828409333333333,0.6265425466666665,0.7651944133333333,0.6342934889385188,0.7309196539465518,0.7336966615380092,0.7247778830375998
LBP03_S03,LBP03,-1515,136,3,135,-1515,1715720057.4,2024-05-14 20:54:17.400000+00:00,2024-05-15 05:54:17.400000+09:00,2024,5,14,20,54,17,400,,,,,,,,,0.268066,-0.428223,1.093506,56.762695,132.019043,25.45166,,,,,,,,,,,0.0,1.0,1.0,3.0,0.0,0.0,0.0,4.0,0.0,0.09804366666666665,-0.19292638666666667,1.0056966,3.1827799466666673,4.087727853333334,1.8196614533333335,4.801131065214897,4.356940721531663,-3.017763638571559,12.714007850097014,-13.209704312564249,13.454923960030358,22.741531663630443,-1.0952075545221232,22.199700875958825,-1.073282023377174,0.1700223333333334,-0.23529661333333335,0.08780940000000004,0.4931283466666668,0.30328630171276666,0.7222196804886154,0.7113160853099703,0.7122643381921436
LBP03_S03,LBP03,-1514,137,3,136,-1514,1715720057.44,2024-05-14 20:54:17.440000+00:00,2024-05-15 05:54:17.440000+09:00,2024,5,14,20,54,17,440,,,,,,,,,-0.508789,0.081543,-0.119141,82.641602,111.938477,-72.814941,,,,,,,,,,,0.0,1.0,1.0,3.0,0.0,0.0,0.0,4.0,0.0,0.09161788,-0.18683264000000002,0.9891666533333333,3.4659830666666678,1.516113266666668,0.4752604133333335,3.26738554818636,6.832624526579874,-5.770142705534666,12.844703272024468,-12.936399331501054,13.22411825180897,22.521414994361347,-1.109617673884725,22.147725921192382,-1.0798448721646219,-0.6004068800000001,0.26837564,-1.1083076533333334,1.9770901733333335,1.288743481121819,0.7248360518919532,0.72201649889334,0.7199080151482639
LBP03_S03,LBP03,-1513,138,3,137,-1513,1715720057.48,2024-05-14 20:54:17.480000+00:00,2024-05-15 05:54:17.480000+09:00,2024,5,14,20,54,17,480,,,,,,,,,0.121094,-0.003662,0.229492,14.709473,-113.342285,-73.425293,,,,,,,,,,,0.0,1.0,1.0,3.0,0.0,0.0,0.0,4.0,0.0,0.10375981333333333,-0.18791988,0.9993749866666667,2.039388013333334,-2.6831054799999987,0.24007161333333338,1.6452348044918057,8.844354397606004,-7.469139512952613,12.91051266420414,-12.582625155596814,12.925352671290867,22.18261785128345,-1.0612052096955096,22.013328632278697,-1.0873816034303068,0.017334186666666668,0.18425788,-0.7698829866666667,0.9714750533333334,0.7918151637397935,0.730687660059205,0.7299915323741797,0.7230453061218963
LBP03_S03,LBP03,-1512,139,3,138,-1512,1715720057.52,2024-05-14 20:54:17.520000+00:00,2024-05-15 05:54:17.520000+09:00,2024,5,14,20,54,17,520,,,,,,,,,0.415527,-0.302246,0.687012,-16.723633,-107.543945,-49.377441,,,,,,,,,,,0.0,1.0,1.0,3.0,0.0,0.0,0.0,4.0,0.0,0.10987959999999998,-0.18870438666666664,1.0142382666666667,1.7089843600000005,-0.9423828133333323,1.3647460933333333,0.44721720324770237,10.58504030232489,-7.8620095505833145,12.928401352334047,-12.159223543503819,12.610872289267535,21.772100923065423,-1.0386294816663846,21.820464128389176,-1.0892617452925353,0.3056474,-0.11354161333333337,-0.32722626666666677,0.7464152800000001,0.46194053803677015,0.7367083815380334,0.7296571234347311,0.7160451315019877
LBP03_S03,LBP03,-1511,140,3,139,-1511,1715720057.56,2024-05-14 20:54:17.560000+00:00,2024-05-15 05:54:17.560000+09:00,2024,5,14,20,54,17,560,,,,,,,,,0.415039,0.264648,1.200928,12.939453,56.396484,25.756836,,,,,,,,,,,0.0,1.0,1.0,3.0,0.0,0.0,0.0,4.0,0.0,0.10380213333333334,-0.1899316,1.0257812266666668,-0.14322918666666623,1.6479492133333344,2.8483072933333333,0.287677711602613,12.13010398160674,-7.165140745864705,12.939908460798152,-11.67401938423955,12.324266659432947,21.34505816928703,-1.0656611373361724,21.597820170210145,-1.0884449654390242,0.31123686666666667,0.4545796,0.17514677333333317,0.9409632399999999,0.5780894326293488,0.7034013096518447,0.7225414297123761,0.7154108462604398
LBP03_S03,LBP03,-1510,141,3,140,-1510,1715720057.6,2024-05-14 20:54:17.600000+00:00,2024-05-15 05:54:17.600000+09:00,2024,5,14,20,54,17,600,,,,,,,,,-0.235107,-0.610107,1.797852,-189.819336,23.31543,54.260254,,,,,,,,,,,0.0,1.0,1.0,3.0,0.0,0.0,0.0,4.0,0.0,0.09586267999999999,-0.19984370666666665,1.0358854,0.0659179466666673,0.909016920000001,2.9484049466666664,1.5298549195108244,13.30069317760529,-5.907020567141828,13.001102657578585,-11.141991657135339,12.087985836747274,20.95929507378464,-1.118043502261847,21.374608948486475,-1.0880658848748088,-0.33096968,-0.41026329333333333,0.7619666,1.5031995733333334,0.9265257678292468,0.7099786308438794,0.7258712002417225,0.7221095451755917
LBP03_S03,LBP03,-1509,142,3,141,-1509,1715720057.64,2024-05-14 20:54:17.640000+00:00,2024-05-15 05:54:17.640000+09:00,2024,5,14,20,54,17,640,,,,,,,,,0.08252,-0.378662,1.726074,51.879883,-10.131836,30.395508,,,,,,,,,,,0.0,1.0,1.0,3.0,0.0,0.0,0.0,4.0,0.0,0.10041021333333333,-0.20377273333333332,1.0364973866666667,2.491861946666667,1.013997400000001,2.5642903599999998,4.018199144260518,13.737870405615615,-4.627097863949404,13.161830623349006,-10.592476840910715,11.902901922189297,20.666722651456258,-1.1072701091389356,21.17672826094004,-1.0824327890158503,-0.017890213333333335,-0.17488926666666668,0.6895766133333334,0.8823560933333334,0.7116334878184037,0.7186668571178454,0.7360132659212091,0.7248238120525521
LBP03_S03,LBP03,-1508,143,3,142,-1508,1715720057.68,2024-05-14 20:54:17.680000+00:00,2024-05-15 05:54:17.680000+09:00,2024,5,14,20,54,17,680,,,,,,,,,0.338379,-0.383057,1.427734,10.681152,63.110352,31.311035,,,,,,,,,,,0.0,1.0,1.0,3.0,0.0,0.0,0.0,4.0,0.0,0.09920253333333333,-0.19520828,1.0168033733333333,3.7109374666666666,3.7117513066666676,2.2574869733333327,7.072072046632385,13.129463135224938,-3.6174268442958657,13.444713505214303,-10.067298315501716,11.758204848417463,20.502833898462512,-1.0952024645131915,21.024330940707067,-1.0763688479935527,0.23917646666666664,-0.18784871999999997,0.4109306266666668,0.8379558133333334,0.5112303822597488,0.7204013474461936,0.7184122609213937,0.7137445201389547
LBP03_S03,LBP03,-1507,144,3,143,-1507,1715720057.72,2024-05-14 20:54:17.720000+00:00,2024-05-15 05:54:17.720000+09:00,2024,5,14,20,54,17,720,,,,,,,,,-0.435791,0.157471,-0.11792,124.206543,196.228027,-36.499023,,,,,,,,,,,0.0,1.0,1.0,3.0,0.0,0.0,0.0,4.0,0.0,0.09340826666666666,-0.18860345333333334,0.99662108,4.10644528,1.9742838533333342,0.9326171866666664,9.761057954787542,11.427529983308867,-2.8520358050161376,13.835155823405804,-9.610197116169362,11.644123416216818,20.478111128754975,-1.1056668370988674,20.931032712109843,-1.080402373778681,-0.5291992666666666,0.3460744533333333,-1.11454108,1.9898148,1.2814137544517266,0.7375183616214358,0.7278814086230248,0.7221999653953493
LBP03_S03,LBP03,-1506,145,3,144,-1506,1715720057.76,2024-05-14 20:54:17.760000+00:00,2024-05-15 05:54:17.760000+09:00,2024,5,14,20,54,17,760,,,,,,,,,0.025391,-0.205566,0.392578,-5.126953,-135.437012,-57.373047,,,,,,,,,,,0.0,1.0,1.0,3.0,0.0,0.0,0.0,4.0,0.0,0.09704433333333334,-0.18571608,0.9929459599999999,3.3129882533333337,-2.0800781333333327,0.14078775999999985,11.306419939248725,8.901891553181027,-2.118394513175883,14.287412620975754,-9.25412145404212,11.559387635689783,20.576403130778658,-1.0841548786303332,20.904182031978856,-1.0883667370844547,-0.07165333333333335,-0.019849919999999993,-0.6003679599999999,0.6918712133333332,0.6049544667959281,0.7285495507131701,0.7301579721785849,0.7280439139135001
LBP03_S03,LBP03,-1505,146,3,145,-1505,1715720057.8,2024-05-14 20:54:17.800000+00:00,2024-05-15 05:54:17.800000+09:00,2024,5,14,20,54,17,800,,,,,,,,,0.325684,0.001953,0.710693,61.035156,-93.017578,-64.575195,,,,,,,,,,,0.0,1.0,1.0,3.0,0.0,0.0,0.0,4.0,0.0,0.10879889333333334,-0.18692050666666668,1.0132063866666665,2.7913411200000002,-2.6538085999999996,1.0945637999999998,11.381263266470905,5.9843774074440175,-1.2359159903160832,14.74266315163459,-9.014746357744361,11.509950996077139,20.762724788166093,-1.0388765959325355,20.94543956926119,-1.090779157306768,0.21688510666666663,0.1888735066666667,-0.3025133866666665,0.7082719999999998,0.4174047198186801,0.7269892528377707,0.7291011046067569,0.7157019241350606
LBP03_S03,LBP03,-1504,147,3,146,-1504,1715720057.84,2024-05-14 20:54:17.840000+00:00,2024-05-15 05:54:17.840000+09:00,2024,5,14,20,54,17,840,,,,,,,,,0.479004,0.178955,1.396729,27.22168,0.061035,20.385742,,,,,,,,,,,0.0,1.0,1.0,3.0,0.0,0.0,0.0,4.0,0.0,0.10634121333333332,-0.1869726,1.0310872533333333,0.41503904000000075,-0.21972655999999935,3.0468749999999996,10.15793852225562,3.0131416351060873,-0.2011874672390012,15.148980692524814,-8.894220692340117,11.501903497387579,20.99744179203165,-1.0489782636617504,21.05136936751249,-1.0886704585956244,0.37266278666666663,0.3659276,0.3656417466666668,1.1042321333333334,0.6375534863157571,0.7039927718537922,0.7253393803955787,0.7130351186936477
LBP03_S03,LBP03,-1503,148,3,147,-1503,1715720057.88,2024-05-14 20:54:17.880000+00:00,2024-05-15 05:54:17.880000+09:00,2024,5,14,20,54,17,880,,,,,,,,,-0.158936,-0.187012,1.602051,-157.836914,56.82373,62.744141,,,,,,,,,,,0.0,1.0,1.0,3.0,0.0,0.0,0.0,4.0,0.0,0.0982032,-0.19619786666666666,1.0460416799999999,0.3751627333333339,0.5102539066666673,3.716634106666666,8.111303107033278,0.06891997088857545,0.8334087674152276,15.473432816806145,-8.891463893504573,11.535239848084188,21.249635565311188,-1.1015404675467941,21.21423184072489,-1.0859957832926537,-0.2571392,0.009185866666666653,0.55600932,0.8223343866666667,0.6126592137966426,0.7003389194861352,0.717955241563416,0.7147233033826911
LBP03_S03,LBP03,-1502,149,3,148,-1502,1715720057.92,2024-05-14 20:54:17.920000+00:00,2024-05-15 05:54:17.920000+09:00,2024,5,14,20,54,17,920,,,,,,,,,0.105469,-0.756836,2.021973,9.765625,-59.387207,26.611328,,,,,,,,,,,0.0,1.0,1.0,3.0,0.0,0.0,0.0,4.0,0.0,0.09780605333333332,-0.20405268000000001,1.0507259199999999,1.3606770533333339,-0.2978515599999994,3.225097653333333,5.727851285840652,-2.976018948437457,1.7110020612403751,15.702546868239772,-9.010504651442071,11.603679930533804,21.503594121755526,-1.11827311472412,21.423226129360124,-1.080605838806152,0.00766294666666667,-0.55278332,0.9712470800000002,1.5316933466666667,1.1175638729085533,0.7271674448184945,0.7276911524966867,0.7237195510874196
LBP03_S03,LBP03,-1501,150,3,149,-1501,1715720057.96,2024-05-14 20:54:17.960000+00:00,2024-05-15 05:54:17.960000+09:00,2024,5,14,20,54,17,960,,,,,,,,,0.353516,-0.43042,1.595703,-10.375977,12.268066,32.775879,,,,,,,,,,,0.0,1.0,1.0,3.0,0.0,0.0,0.0,4.0,0.0,0.09962570666666667,-0.19330724000000002,1.0332422,4.788411426666667,2.565104173333334,2.634277333333333,3.311601601705808,-6.235482949685318,2.4195978816172032,15.835010932308004,-9.259923969429483,11.700463845798492,21.757633542110373,-1.0897853395593047,21.666140845289213,-1.0721938455620117,0.25389029333333335,-0.23711276,0.5624608,1.0534638533333334,0.6610937101049621,0.7337327608324081,0.7177718593066441,0.7208334581666143
LBP03_S03,LBP03,-1500,151,3,150,-1500,1715720058.0,2024-05-14 20:54:18+00:00,2024-05-15 05:54:18+09:00,2024,5,14,20,54,18,0,20.0,54.0,17.0,40.538765,141.53299,22.48,3.0,16.0,-0.283691,-0.021484,0.259277,122.009277,225.585938,-10.192871,-296.0,10.0,374.0,2503.0,0.0,1014.599976,19.110001,0.015856,-11.226815,4.014844,0.0,1.0,1.0,3.0,0.0,0.0,0.0,3.0,0.0,0.09487310666666667,-0.1873372,1.0103288000000001,5.342610640000001,2.1940104266666673,1.3037109199999997,0.9882103989112337,-9.57142951628397,3.1171959563926435,15.874539348264452,-9.642781150080841,11.825151684054198,22.018593056297686,-1.0969565151504104,21.931052867305862,-1.0710504434460368,-0.3785641066666667,0.1658532,-0.7510518000000002,1.2954691066666668,0.8572612630288456,0.7445107752672666,0.7188972303283085,0.723366668587611
LBP03_S03,LBP03,-1499,152,3,151,-1499,1715720058.04,2024-05-14 20:54:18.040000+00:00,2024-05-15 05:54:18.040000+09:00,2024,5,14,20,54,18,40,,,,,,,,,-0.093018,0.173096,0.016602,11.352539,-128.417969,-59.997559,,,,,,,,,,,0.0,1.0,1.0,3.0,0.0,0.0,0.0,3.0,0.0,0.09580409333333333,-0.18160152,0.9997558800000002,4.432779920000001,-1.4550781066666658,0.467936173333333,-1.1510815106470813,-12.51370508367166,4.010674778935943,15.82849608783857,-10.143329353427708,11.985578675211636,22.29534738358021,-1.0805233561092287,22.207571471260433,-1.0778531477309572,-0.18882209333333333,0.35469752,-0.9831538800000001,1.5266734933333335,1.0620996494604389,0.7424122594825054,0.7320926961785966,0.7343563868319535
LBP03_S03,LBP03,-1498,153,3,152,-1498,1715720058.08,2024-05-14 20:54:18.080000+00:00,2024-05-15 05:54:18.080000+09:00,2024,5,14,20,54,18,80,,,,,,,,,0.312012,-0.062988,0.464844,-9.887695,-119.567871,-44.067383,,,,,,,,,,,0.0,1.0,1.0,3.0,0.0,0.0,0.0,3.0,0.0,0.10976568,-0.18969721333333334,1.0154948133333332,3.0159504933333334,-3.8810221199999995,1.2825520666666663,-2.9267469206835073,-14.420018346296116,5.179598484949661,15.71142621101123,-10.720130087279554,12.192762614609622,22.592776784814856,-1.0413030196481747,22.48727040278774,-1.081457140516584,0.20224632,0.12670921333333335,-0.5506508133333332,0.8796063466666666,0.600145913025954,0.7477368429150717,0.7322231769160554,0.7269925159544295
LBP03_S03,LBP03,-1497,154,3,153,-1497,1715720058.12,2024-05-14 20:54:18.120000+00:00,2024-05-15 05:54:18.120000+09:00,2024,5,14,20,54,18,120,,,,,,,,,0.489014,-0.090332,1.117188,22.338867,-53.771973,3.417969,,,,,,,,,,,0.0,1.0,1.0,3.0,0.0,0.0,0.0,3.0,0.0,0.11167322666666667,-0.18427078666666666,1.0291341333333333,2.1533202800000004,-1.3387044133333326,3.1811523199999994,-4.094600820359322,-14.795414610148935,6.48180143300781,15.547642178196856,-11.311946671685511,12.452034671929935,22.90725828804591,-1.0215469046574661,22.763350417290965,-1.0812538563166758,0.3773407733333333,0.09393878666666666,0.08805386666666681,0.5593334266666667,0.3987029449291223,0.7366020715352708,0.7281125524007648,0.7232454924311877
LBP03_S03,LBP03,-1496,155,3,154,-1496,1715720058.16,2024-05-14 20:54:18.160000+00:00,2024-05-15 05:54:18.160000+09:00,2024,5,14,20,54,18,160,,,,,,,,,0.192139,0.037354,1.481689,-128.662109,36.010742,76.23291,,,,,,,,,,,0.0,1.0,1.0,3.0,0.0,0.0,0.0,3.0,0.0,0.10451177333333332,-0.19450517333333334,1.04748048,0.727539026666667,-0.45247394666666596,4.490559866666666,-4.506743344486817,-13.564506526959832,7.622115950167247,15.367372444417384,-11.854526932763905,12.756919309936626,23.22552335094513,-1.0727208574705838,23.02996836024453,-1.0789621403003138,0.08762722666666668,0.23185917333333333,0.4342085200000001,0.75369492,0.49997424528939344,0.7158616980686696,0.7138565125605689,0.7221482738250871
LBP03_S03,LBP03,-1495,156,3,155,-1495,1715720058.2,2024-05-14 20:54:18.200000+00:00,2024-05-15 05:54:18.200000+09:00,2024,5,14,20,54,18,200,,,,,,,,,-0.098389,-0.941162,2.027344,-39.001465,-54.016113,34.301758,,,,,,,,,,,0.0,1.0,1.0,3.0,0.0,0.0,0.0,3.0,0.0,0.09983729333333333,-0.20227861333333336,1.0559407600000001,0.8154296533333337,-1.267903626666666,4.72574868,-4.278828812274588,-11.117043466954133,8.345039296174763,15.1962192919264,-12.29920867144207,13.090720881783616,23.52791082771179,-1.1069036387817384,23.281750776173332,-1.0748689325337693,-0.19822629333333333,-0.7388833866666666,0.9714032399999997,1.9085129199999997,1.2364734437678686,0.7396764671282223,0.7258391318926856,0.7311287958379615
LBP03_S03,LBP03,-1494,157,3,156,-1494,1715720058.24,2024-05-14 20:54:18.240000+00:00,2024-05-15 05:54:18.240000+09:00,2024,5,14,20,54,18,240,,,,,,,,,0.311768,-0.265137,1.588623,8.422852,-6.225586,46.203613,,,,,,,,,,,0.0,1.0,1.0,3.0,0.0,0.0,0.0,3.0,0.0,0.10453454666666667,-0.20058916000000002,1.0480175733333332,2.9500325200000006,0.41097008000000074,4.286295559999999,-3.809357383371681,-8.10437140564904,8.61501912468946,15.043844996591533,-12.623383527668032,13.435321646771195,23.79443110730474,-1.0850181915180181,23.513734735109466,-1.0681380028585061,0.20723345333333332,-0.06454784,0.5406054266666667,0.81238672,0.5825515901365073,0.7412247404110299,0.7347666260267105,0.7324438762741192
LBP03_S03,LBP03,-1493,158,3,157,-1493,1715720058.28,2024-05-14 20:54:18.280000+00:00,2024-05-15 05:54:18.280000+09:00,2024,5,14,20,54,18,280,,,,,,,,,0.03125,-0.19873,0.932129,66.589355,175.90332,22.949219,,,,,,,,,,,0.0,1.0,1.0,3.0,0.0,0.0,0.0,3.0,0.0,0.09649093333333333,-0.19180986666666666,1.0207259066666667,3.768717413333334,1.9864909200000007,2.897135413333333,-3.590967145936646,-5.119042953500139,8.648855440048093,14.900206310754067,-12.828145245808038,13.781275864373118,24.010435710343444,-1.0995076255477125,23.721632129605748,-1.069532239292566,-0.06524093333333333,-0.006920133333333328,-0.08859690666666675,0.16075797333333341,0.11024372770574123,0.7263816592813859,0.7119096559285119,0.7181133321350879
LBP03_S03,LBP03,-1492,159,3,158,-1492,1715720058.32,2024-05-14 20:54:18.320000+00:00,2024-05-15 05:54:18.320000+09:00,2024,5,14,20,54,18,320,,,,,,,,,-0.349609,0.045166,-0.142578,61.279297,-8.117676,-74.21875,,,,,,,,,,,0.0,1.0,1.0,3.0,0.0,0.0,0.0,3.0,0.0,0.09577153333333334,-0.18840818666666667,1.0060416666666667,3.864746053333333,-1.039225226666666,1.7919921866666664,-3.907820859983851,-2.451331644707194,8.764146672192114,14.743893476354712,-12.926198511596326,14.131841731260803,24.169773551291176,-1.0953559545605012,23.902210192099055,-1.0776032781059783,-0.44538053333333333,0.23357418666666668,-1.1486196666666668,1.827574386666667,1.2538930810889437,0.7256618850684592,0.7234454770942772,0.724502797983966
LBP03_S03,LBP03,-1491,160,3,159,-1491,1715720058.36,2024-05-14 20:54:18.360000+00:00,2024-05-15 05:54:18.360000+09:00,2024,5,14,20,54,18,360,,,,,,,,,0.234131,-0.018311,0.246338,32.165527,-108.337402,-55.419922,,,,,,,,,,,0.0,1.0,1.0,3.0,0.0,0.0,0.0,3.0,0.0,0.10856123999999999,-0.1909505066666667,1.0211100266666666,2.677408813333334,-3.846842413333332,2.287597653333333,-4.616646163023602,-0.06455742067749831,9.137885389286568,14.559227629833767,-12.928780808423426,14.497357146832265,24.27545770139837,-1.0488532618938582,24.053685395475153,-1.0874746581061134,0.12556976000000003,0.1726395066666667,-0.7747720266666667,1.0729812933333334,0.8036441110303377,0.7324359099521321,0.7316777819493419,0.7332764110093835
LBP03_S03,LBP03,-1490,161,3,160,-1490,1715720058.4,2024-05-14 20:54:18.400000+00:00,2024-05-15 05:54:18.400000+09:00,2024,5,14,20,54,18,400,,,,,,,,,0.533936,-0.261475,1.026367,-22.460938,-73.364258,-8.361816,,,,,,,,,,,0.0,1.0,1.0,3.0,0.0,0.0,0.0,3.0,0.0,0.11126957333333332,-0.18706378666666668,1.0352539066666668,2.1044921466666673,-0.8194986666666657,3.8826497333333325,-5.177403681358346,2.2150034965312386,9.642496570631927,14.352131482579434,-12.840180668562176,14.883057009657541,24.338432645659047,-1.0296472183977792,24.176050442574038,-1.0935531502089184,0.42266642666666665,-0.07441121333333334,-0.008886906666666805,0.5059645466666668,0.42925856311902455,0.7374748004083824,0.729847240448499,0.7200356570094409
LBP03_S03,LBP03,-1489,162,3,161,-1489,1715720058.44,2024-05-14 20:54:18.440000+00:00,2024-05-15 05:54:18.440000+09:00,2024,5,14,20,54,18,440,,,,,,,,,0.218506,0.064941,1.322021,-83.374023,47.485352,72.08252,,,,,,,,,,,0.0,1.0,1.0,3.0,0.0,0.0,0.0,3.0,0.0,0.10266930666666667,-0.20164386666666664,1.05382812,0.36702470666666726,-0.3735351199999991,4.774576826666666,-4.9461498780347934,4.449377763323267,9.885854451216025,14.154285487458042,-12.662205558029246,15.278491187706182,24.37432132854303,-1.0944657204498272,24.271147844639792,-1.0939028302968214,0.11583669333333334,0.26658486666666664,0.26819287999999997,0.65061444,0.3954908994411623,0.7017446971411561,0.7132903745165546,0.715259231642612
LBP03_S03,LBP03,-1488,163,3,162,-1488,1715720058.48,2024-05-14 20:54:18.480000+00:00,2024-05-15 05:54:18.480000+09:00,2024,5,14,20,54,18,480,,,,,,,,,-0.189453,-0.785156,1.763916,-115.05127,11.291504,59.875488,,,,,,,,,,,0.0,1.0,1.0,3.0,0.0,0.0,0.0,3.0,0.0,0.09765302666666666,-0.20570310666666666,1.0592350266666666,0.36214189333333385,-0.6966145466666657,4.80957032,-3.5675627189056667,6.4686033655585184,9.444869917708598,14.011582978701815,-12.403461423406906,15.656285984414525,24.398557409747905,-1.1220134077822976,24.342349811442922,-1.093581796183423,-0.2871060266666667,-0.5794528933333333,0.7046809733333335,1.5712398933333334,0.9564365113893898,0.7083295510471399,0.7195086055531725,0.7227708719318331
LBP03_S03,LBP03,-1487,164,3,163,-1487,1715720058.52,2024-05-14 20:54:18.520000+00:00,2024-05-15 05:54:18.520000+09:00,2024,5,14,20,54,18,520,,,,,,,,,0.089111,-0.283691,1.748779,22.460938,-44.616699,39.855957,,,,,,,,,,,0.0,1.0,1.0,3.0,0.0,0.0,0.0,3.0,0.0,0.09998375999999999,-0.20982094666666667,1.05269532,2.9093424133333343,0.6127930000000011,4.0592448,-1.2248679436839853,7.954787813870445,8.144918644946518,13.962588260954456,-12.085269910852087,15.982082730212387,24.422010321806905,-1.1202607046588169,24.393976642882144,-1.0903236416614,-0.010872759999999995,-0.07387005333333335,0.6960836800000001,0.7808264933333334,0.7000767752552784,0.7178550005358802,0.727281691036957,0.7257230824684475
LBP03_S03,LBP03,-1486,165,3,164,-1486,1715720058.56,2024-05-14 20:54:18.560000+00:00,2024-05-15 05:54:18.560000+09:00,2024,5,14,20,54,18,560,,,,,,,,,0.219238,-0.484375,1.178223,14.709473,112.792969,30.212402,,,,,,,,,,,0.0,1.0,1.0,3.0,0.0,0.0,0.0,3.0,0.0,0.0911654,-0.19784178666666666,1.0237955866666666,4.997558560000001,2.290039093333334,2.5862630399999995,1.418378759903555,8.658457097594429,6.201979722751155,14.019323411350598,-11.738931626948311,16.230161919122434,24.44917382193399,-1.1335057784986342,24.430732325794015,-1.09242398980206,0.12807259999999998,-0.28653321333333337,0.15442741333333343,0.5690332266666668,0.3497880775594127,0.7087229463330827,0.7060621279924636,0.717935268585945
LBP03_S03,LBP03,-1485,166,3,165,-1485,1715720058.6,2024-05-14 20:54:18.600000+00:00,2024-05-15 05:54:18.600000+09:00,2024,5,14,20,54,18,600,,,,,,,,,-0.491699,0.001709,-0.158203,134.887695,145.629883,-52.368164,,,,,,,,,,,0.0,1.0,1.0,3.0,0.0,0.0,0.0,3.0,0.0,0.09323897333333332,-0.19052406666666669,1.0070312666666665,4.532063773333334,-0.4549153333333326,1.2776692799999996,3.5579545084333377,8.593020611180036,4.133803768350716,14.161641591687932,-11.39521080250111,16.395514069856464,24.478884848369315,-1.1104004396607707,24.45724397847199,-1.1016347266958704,-0.5849379733333333,0.19223306666666667,-1.1652342666666666,1.9424053066666667,1.3179062488589934,0.7243781655742727,0.717178398209076,0.7253735220192393
LBP03_S03,LBP03,-1484,167,3,166,-1484,1715720058.64,2024-05-14 20:54:18.640000+00:00,2024-05-15 05:54:18.640000+09:00,2024,5,14,20,54,18,640,,,,,,,,,0.075195,0.08374,0.19458,25.32959,-125.305176,-59.509277,,,,,,,,,,,0.0,1.0,1.0,3.0,0.0,0.0,0.0,3.0,0.0,0.10185876,-0.19391273333333334,1.0164713733333335,2.6660156000000006,-3.034667946666666,0.9741211066666663,4.662995510501824,8.066289498780602,2.4945754064579964,14.348161412108006,-11.072559222549886,16.495297086114785,24.506450775336006,-1.0818078503840345,24.477586762537253,-1.113764127072115,-0.02666376000000001,0.27765273333333335,-0.8218913733333335,1.1262078666666668,0.8679328464717542,0.7306301399204067,0.724648498519126,0.7342188905876084
LBP03_S03,LBP03,-1483,168,3,167,-1483,1715720058.68,2024-05-14 20:54:18.680000+00:00,2024-05-15 05:54:18.680000+09:00,2024,5,14,20,54,18,680,,,,,,,,,0.442627,-0.18457,0.692139,-8.056641,-105.957031,-34.973145,,,,,,,,,,,0.0,1.0,1.0,3.0,0.0,0.0,0.0,3.0,0.0,0.10482750666666667,-0.19241534666666668,1.0328873866666668,0.8870442533333338,-1.3932291333333326,2.5984700666666662,4.713705105504608,7.513193772805593,1.5972083830954134,14.53670961632819,-10.772031471637662,16.559185421438603,24.52670402473568,-1.0669260803274792,24.49480442813941,-1.1192024746288949,0.3377994933333333,0.00784534666666667,-0.34074838666666685,0.6863932266666668,0.4798744733537232,0.7293759035641656,0.7248886255051796,0.7220668084689843
LBP03_S03,LBP03,-1482,169,3,168,-1482,1715720058.72,2024-05-14 20:54:18.720000+00:00,2024-05-15 05:54:18.720000+09:00,2024,5,14,20,54,18,720,,,,,,,,,0.395752,0.239746,1.251221,31.188965,51.330566,24.108887,,,,,,,,,,,0.0,1.0,1.0,3.0,0.0,0.0,0.0,3.0,0.0,0.09950524000000001,-0.20663734666666667,1.0540755333333331,-0.6665039199999991,-0.07080075999999949,3.739420586666666,4.131968792919617,7.241639503447374,1.3907756183287314,14.701988368044976,-10.482365891499768,16.61481644617175,24.5373303804099,-1.1163594359671027,24.510691304154108,-1.1195917762355847,0.29624676,0.4463833466666667,0.19714546666666677,0.9397755733333335,0.5708647563294208,0.7009539436392734,0.7192361526303546,0.7189055869617743
LBP03_S03,LBP03,-1481,170,3,169,-1481,1715720058.76,2024-05-14 20:54:18.760000+00:00,2024-05-15 05:54:18.760000+09:00,2024,5,14,20,54,18,760,,,,,,,,,-0.161621,-0.494873,1.679688,-191.223145,28.503418,53.283691,,,,,,,,,,,0.0,1.0,1.0,3.0,0.0,0.0,0.0,3.0,0.0,0.09357425333333333,-0.20717770666666666,1.0602343866666666,-0.5777994933333325,0.30680340000000056,4.258626306666667,3.471507857319766,7.274495749348089,1.5563240025034608,14.840848682337766,-10.191386061525844,16.67706940627189,24.54057422817811,-1.1409606308319626,24.52608030148037,-1.118365984611752,-0.2551952533333333,-0.2876952933333333,0.6194536133333335,1.1623441600000002,0.7291200026070742,0.7059205650717192,0.7172350578924447,0.7220788364762964
LBP03_S03,LBP03,-1480,171,3,170,-1480,1715720058.8,2024-05-14 20:54:18.800000+00:00,2024-05-15 05:54:18.800000+09:00,2024,5,14,20,54,18,800,,,,,,,,,0.037354,-0.539795,1.899414,15.075684,-39.306641,32.592773,,,,,,,,,,,0.0,1.0,1.0,3.0,0.0,0.0,0.0,3.0,0.0,0.09318362666666666,-0.21209958666666665,1.05447268,1.8245442533333343,2.171223973333334,3.566080733333333,3.0805452330072827,7.392155622825456,1.7427609809214664,14.964070491658058,-9.895699836612826,16.746779845508748,24.54186048631172,-1.150941222160225,24.54160027868148,-1.1141424903506896,-0.05582962666666666,-0.3276954133333334,0.84494132,1.22846636,0.9079796613233063,0.7255435627319043,0.7262664077848376,0.7279152573151394
LBP03_S03,LBP03,-1479,172,3,171,-1479,1715720058.84,2024-05-14 20:54:18.840000+00:00,2024-05-15 05:54:18.840000+09:00,2024,5,14,20,54,18,840,,,,,,,,,0.357178,-0.325439,1.484863,15.319824,60.119629,40.649414,,,,,,,,,,,0.0,1.0,1.0,3.0,0.0,0.0,0.0,3.0,0.0,0.08778323999999998,-0.19846677333333332,1.02253908,2.948404933333334,2.3299153866666673,1.960449213333333,2.954541580453856,7.328043152317574,1.781695198983538,15.082252154876212,-9.602578110520122,16.81804765346809,24.546497984564557,-1.1488491960176255,24.55861088240082,-1.117055701192624,0.26939476,-0.12697222666666666,0.46232392,0.8586909066666667,0.5499444427070023,0.722039200987554,0.7130159864206732,0.7242393205929039
LBP03_S03,LBP03,-1478,173,3,172,-1478,1715720058.88,2024-05-14 20:54:18.880000+00:00,2024-05-15 05:54:18.880000+09:00,2024,5,14,20,54,18,880,,,,,,,,,-0.328125,0.01001,0.172852,123.22998,199.951172,-15.441895,,,,,,,,,,,0.0,1.0,1.0,3.0,0.0,0.0,0.0,3.0,0.0,0.09256513333333333,-0.19700193333333332,1.0068620000000001,3.043619786666668,0.7682291866666674,1.1678059866666664,2.8544082214935234,6.969230863932092,1.7471695325206038,15.196428483735954,-9.323808875962838,16.887934434768912,24.55742616989489,-1.1259064238491965,24.57990510798245,-1.124077614749045,-0.4206901333333333,0.20701193333333331,-0.8340100000000001,1.4617120666666668,0.9567689422877513,0.7358035901271984,0.7180712548066669,0.7239046910846768
LBP03_S03,LBP03,-1477,174,3,173,-1477,1715720058.92,2024-05-14 20:54:18.920000+00:00,2024-05-15 05:54:18.920000+09:00,2024,5,14,20,54,18,920,,,,,,,,,-0.085205,-0.016602,0.209473,24.169922,-127.441406,-68.29834,,,,,,,,,,,0.0,1.0,1.0,3.0,0.0,0.0,0.0,3.0,0.0,0.09326826666666667,-0.18939125333333331,1.0092903866666665,2.5968424533333345,-0.3515624799999994,0.769042973333333,2.573486121582806,6.416617092984006,1.8381296711059922,15.299367928599265,-9.067144192243477,16.96145962161315,24.57590029506955,-1.1080027884204884,24.609816936162723,-1.137599299603439,-0.17847326666666669,0.1727892533333333,-0.7998173866666665,1.1510799066666664,0.837506229825461,0.7246012844038748,0.7258843646111844,0.7266611964657494
LBP03_S03,LBP03,-1476,175,3,174,-1476,1715720058.96,2024-05-14 20:54:18.960000+00:00,2024-05-15 05:54:18.960000+09:00,2024,5,14,20,54,18,960,,,,,,,,,0.46875,-0.028564,0.714355,1.220703,-133.911133,-52.79541,,,,,,,,,,,0.0,1.0,1.0,3.0,0.0,0.0,0.0,3.0,0.0,0.09924157333333333,-0.19326821333333336,1.0329362266666668,-1.0986328133333325,-1.1442057199999993,2.7254231733333327,2.13926680547032,5.8585054622576616,2.1826712185668153,15.384938600818078,-8.83280397375317,17.048766470355826,24.60437359394506,-1.091270835888009,24.653679643477364,-1.1372454027601038,0.36950842666666667,0.16470421333333335,-0.3185812266666669,0.8527938666666669,0.5149349019554469,0.7187549320778942,0.726243846455151,0.7180995502303942
LBP03_S03,LBP03,-1475,176,3,175,-1475,1715720059.0,2024-05-14 20:54:19+00:00,2024-05-15 05:54:19+09:00,2024,5,14,20,54,19,0,20.0,54.0,18.0,40.538723,141.533096,22.566999,3.0,16.0,0.427734,0.031738,1.315918,2.380371,25.634766,13.122559,-300.0,6.0,371.0,2184.0,0.0,1015.200012,19.15,0.021802,-16.213024,4.014844,0.0,1.0,1.0,3.0,0.0,0.0,0.0,5.0,0.0,0.09203128,-0.20287433333333335,1.05901696,-1.1751302133333326,-0.22135415999999936,4.318033853333333,1.8043634906031016,5.360166592215563,2.713840618804071,15.457113140442202,-8.618397310064548,17.157320095107988,24.648990885562743,-1.1395325480801182,24.717024941847747,-1.1478090253154256,0.33570272,0.23461233333333337,0.25690104,0.8272160933333335,0.4834639671377704,0.7038030402422513,0.7241569077547589,0.7138658336329562
LBP03_S03,LBP03,-1474,177,3,176,-1474,1715720059.04,2024-05-14 20:54:19.040000+00:00,2024-05-15 05:54:19.040000+09:00,2024,5,14,20,54,19,40,,,,,,,,,-0.052246,-0.210449,1.558105,-148.010254,71.472168,70.373535,,,,,,,,,,,0.0,1.0,1.0,3.0,0.0,0.0,0.0,5.0,0.0,0.09067386666666666,-0.20675129333333334,1.0687142266666667,-0.9073893199999991,1.9034830800000004,5.492350253333332,1.850518780318281,4.751113787112194,3.2092930854132997,15.531133891654934,-8.42835275858006,17.28569181852452,24.719393031152325,-1.152026985948243,24.80507790580014,-1.157347184825118,-0.14291986666666667,-0.0036977066666666614,0.48939077333333336,0.6360083466666667,0.5098461437987039,0.6817129000157819,0.7120625797491437,0.7152994307909917
LBP03_S03,LBP03,-1473,178,3,177,-1473,1715720059.08,2024-05-14 20:54:19.080000+00:00,2024-05-15 05:54:19.080000+09:00,2024,5,14,20,54,19,80,,,,,,,,,-0.039551,-0.730469,2.063721,17.150879,-35.644531,27.34375,,,,,,,,,,,0.0,1.0,1.0,3.0,0.0,0.0,0.0,5.0,0.0,0.07873050666666667,-0.2071354,1.0515364933333333,0.9895833333333343,3.465983080000001,4.586588533333333,2.366951046886267,3.7124549517744976,3.4603496380256464,15.625811933530384,-8.27985456050908,17.424105804045546,24.825822306538353,-1.2021429288714192,24.92278142003782,-1.170474180293461,-0.11828150666666667,-0.5233336000000001,1.0121845066666668,1.6537996133333337,1.1455941895995896,0.7035308310787272,0.7256338369968993,0.7226590616369459
LBP03_S03,LBP03,-1472,179,3,178,-1472,1715720059.12,2024-05-14 20:54:19.120000+00:00,2024-05-15 05:54:19.120000+09:00,2024,5,14,20,54,19,120,,,,,,,,,0.296631,-0.500488,1.61084,18.493652,40.100098,35.522461,,,,,,,,,,,0.0,1.0,1.0,3.0,0.0,0.0,0.0,5.0,0.0,0.090918,-0.18668293333333333,1.03928388,1.280110680000001,0.9822591200000007,3.4562174399999996,3.1756037223786873,2.000966172589098,3.4372342557019215,15.752836082425532,-8.199815913605516,17.561595174273624,24.975957453556344,-1.1128204675337496,25.075075730703258,-1.2023903456458707,0.20571299999999998,-0.31380506666666674,0.5715561200000001,1.091074186666667,0.6837162105319178,0.7149313617028389,0.7257667166190548,0.7237188221681228
LBP03_S03,LBP03,-1471,180,3,179,-1471,1715720059.16,2024-05-14 20:54:19.160000+00:00,2024-05-15 05:54:19.160000+09:00,2024,5,14,20,54,19,160,,,,,,,,,-0.192383,-0.144287,0.544678,82.763672,171.203613,0.915527,,,,,,,,,,,0.0,1.0,1.0,3.0,0.0,0.0,0.0,5.0,0.0,0.08573896,-0.2620996,1.0491601866666664,6.254882813333334,2.6082356800000004,4.259440093333333,3.958610299827585,-0.3563753682869012,3.3224015586809603,15.911180494418636,-8.214070928336993,17.694491236620863,25.174027211881924,-1.2465968563851808,25.26690840659115,-1.1964735146005951,-0.27812196,0.11781259999999999,-0.5044821866666664,0.9004167466666664,0.5879914200198697,0.718452048692058,0.7171568733803637,0.7153883579377319
LBP03_S03,LBP03,-1470,181,3,180,-1470,1715720059.2,2024-05-14 20:54:19.200000+00:00,2024-05-15 05:54:19.200000+09:00,2024,5,14,20,54,19,200,,,,,,,,,-0.224121,0.098633,0.05249,34.240723,-106.079102,-71.044922,,,,,,,,,,,0.0,1.0,1.0,3.0,0.0,0.0,0.0,5.0,0.0,0.07477866666666667,-0.22752928000000003,0.9836979466666665,26.106770840000003,1.9498697866666672,5.9440104133333325,4.4870225009678375,-3.0420044291037187,3.3841359981778907,16.09066139445735,-8.335751105501142,17.82985667654798,25.42239012583566,-1.2463228172571508,25.502619945463127,-1.2045154335962276,-0.2988996666666667,0.32616228,-0.9312079466666665,1.5562698933333332,1.030956392658483,0.7102313666476826,0.7249539168879525,0.7206365434776847
LBP03_S03,LBP03,-1469,182,3,181,-1469,1715720059.24,2024-05-14 20:54:19.240000+00:00,2024-05-15 05:54:19.240000+09:00,2024,5,14,20,54,19,240,,,,,,,,,0.380615,-0.071045,0.598389,15.136719,-149.108887,-49.499512,,,,,,,,,,,0.0,1.0,1.0,3.0,0.0,0.0,0.0,5.0,0.0,0.07236981333333334,-0.25061522666666664,0.8839030266666669,-2.176920559999999,4.9690755200000005,3.061523426666666,4.774031559909181,-5.6277744477656,3.781502534497338,16.281622656853717,-8.560862083411767,17.981116777927873,25.723533126941344,-1.2801191507010534,25.784784020699306,-1.2139872729043382,0.30824518666666667,0.17957022666666664,-0.2855140266666669,0.7733294400000003,0.45692321108880035,0.7052062314857743,0.7232154859484022,0.7249131611797318
LBP03_S03,LBP03,-1468,183,3,182,-1468,1715720059.28,2024-05-14 20:54:19.280000+00:00,2024-05-15 05:54:19.280000+09:00,2024,5,14,20,54,19,280,,,,,,,,,0.456543,0.02417,1.362061,29.296875,-14.709473,1.281738,,,,,,,,,,,0.0,1.0,1.0,3.0,0.0,0.0,0.0,5.0,0.0,0.040380879999999994,-0.3467317733333333,0.8155534133333334,24.557291680000002,19.097493493333335,-1.1783854266666678,5.033728515592492,-7.831996498140412,4.44544643784305,16.482971797477415,-8.874141943337383,18.158934635441597,26.080369276549288,-1.4450680773732936,26.11295901342287,-1.2214825837975638,0.41616211999999997,0.37090177333333335,0.5465075866666665,1.3335714799999998,0.7806597068306586,0.7320228706507712,0.7292022649660785,0.7186140608359315
