file_name,test_id,_program_index,program_index,session_id,index,_index,unixtime,datetime_utc,datetime_jst,rtc_year,rtc_month,rtc_day,rtc_hour,rtc_min,rtc_sec,rtc_msec,gps_hour,gps_min,gps_sec,latitude,longitude,altitude,fix_type,SIV,acc_x,acc_y,acc_z,gyro_x,gyro_y,gyro_z,mag_x,mag_y,mag_z,illuminance,atmopress,water_pressure,water_temp,depth,alt_wps,battery_level,behavior_class,camera_command,camera_recording,camera_count,play_audio,speaker_on,audio_file,prev_sd_write_time_ms,delay_occurred_counter,acc_x_ma,acc_y_ma,acc_z_ma,gyro_x_ma,gyro_y_ma,gyro_z_ma,gyro_x_lowpass,gyro_y_lowpass,gyro_z_lowpass,angle_x,angle_y,angle_z,combined_angle_change,gravity_adjusted_angle,smoothed_angle_change,smoothed_gravity_angle,acc_x_dy,acc_y_dy,acc_z_dy,ODBA,VeDBA,smoothed_VeDBA_1s,smoothed_VeDBA_2s,smoothed_VeDBA_3s
LBP03_S01,LBP03,-1650,1,1,0,-1650,1715717311.0,2024-05-14 20:08:31+00:00,2024-05-15 05:08:31+09:00,2024,5,14,20,8,31,0,20.0,8.0,30.0,40.604877,141.563278,0.431,3.0,13.0,-0.192627,0.531006,-0.123535,1243.95752,285.705566,-67.504883,-317.0,22.0,366.0,565.0,0.0,1014.799988,16.43,0.017838,-12.889151,4.05,0.0,1.0,1.0,1.0,0.0,0.0,0.0,5.0,0.0,,,,,,,1245.935161383107,282.78729877753744,-66.75785802544738,49.837406455324285,11.311491951101498,-2.6703143210178952,51.174676461371654,,95.44610565820307,,,,,,,,,
LBP03_S01,LBP03,-1649,2,1,1,-1649,1715717311.04,2024-05-14 20:08:31.040000+00:00,2024-05-15 05:08:31.040000+09:00,2024,5,14,20,8,31,40,,,,,,,,,-0.524902,0.852295,-5.06665,-1994.140625,324.34082,-503.356934,,,,,,,,,,,0.0,1.0,1.0,1.0,0.0,0.0,0.0,5.0,0.0,,,,,,,876.6865220691344,95.34947251428645,-62.42827168467079,84.90486733808966,15.125470851672956,-5.167445188404727,86.39628959601552,,97.94443888223505,,,,,,,,,
LBP03_S01,LBP03,-1648,3,1,2,-1648,1715717311.08,2024-05-14 20:08:31.080000+00:00,2024-05-15 05:08:31.080000+09:00,2024,5,14,20,8,31,80,,,,,,,,,1.229248,-7.835938,0.86084,1421.569824,583.80127,-187.683105,,,,,,,,,,,0.0,1.0,1.0,1.0,0.0,0.0,0.0,5.0,0.0,,,,,,,533.5830949943329,-66.94057701509352,-50.127791514085544,106.24819113786297,12.447847771069215,-7.172556848968149,107.21507639297404,,98.40115529205822,,,,,,,,,
LBP03_S01,LBP03,-1647,4,1,3,-1647,1715717311.12,2024-05-14 20:08:31.120000+00:00,2024-05-15 05:08:31.120000+09:00,2024,5,14,20,8,31,120,,,,,,,,,7.999756,7.999756,-3.448242,1252.685547,-1009.033203,479.553223,,,,,,,,,,,0.0,1.0,1.0,1.0,0.0,0.0,0.0,5.0,0.0,,,,,,,238.13782482440283,-183.59651903969853,-24.511223887258684,115.77370413083909,5.103987009481274,-8.153005804458497,116.17259898623064,,97.39187798687601,,,,,,,,,
LBP03_S01,LBP03,-1646,5,1,4,-1646,1715717311.16,2024-05-14 20:08:31.160000+00:00,2024-05-15 05:08:31.160000+09:00,2024,5,14,20,8,31,160,,,,,,,,,-4.208496,-7.74707,-7.56543,-1779.11377,-468.017578,-226.623535,,,,,,,,,,,0.0,1.0,1.0,1.0,0.0,0.0,0.0,5.0,0.0,,,,,,,4.055850895880539,-242.57355763028372,15.312008485666215,115.93593816667432,-4.598955295730076,-7.540525465031848,116.27188685442346,,95.40681328979804,,,,,,,,,
LBP03_S01,LBP03,-1645,6,1,5,-1645,1715717311.2,2024-05-14 20:08:31.200000+00:00,2024-05-15 05:08:31.200000+09:00,2024,5,14,20,8,31,200,,,,,,,,,-6.202148,-6.656982,-7.254639,1999.938965,-767.028809,-633.666992,,,,,,,,,,,0.0,1.0,1.0,1.0,0.0,0.0,0.0,5.0,0.0,,,,,,,-163.53982569879872,-242.70658442927598,65.23998054575115,109.39434513872237,-14.307218672901115,-4.930926243201802,110.43610500239502,,92.86846939369522,,,,,,,,,
LBP03_S01,LBP03,-1644,7,1,6,-1644,1715717311.24,2024-05-14 20:08:31.240000+00:00,2024-05-15 05:08:31.240000+09:00,2024,5,14,20,8,31,240,,,,,,,,,0.751709,3.334961,-7.284424,-1999.755859,252.380371,-20.996094,,,,,,,,,,,0.0,1.0,1.0,1.0,0.0,0.0,0.0,5.0,0.0,,,,,,,-267.16875613572773,-193.64973755287173,117.12974314242737,98.70759489329326,-22.053208175015985,-0.24573651750470749,101.14145375099727,,94.03178536035455,,,,,,,,,
LBP03_S01,LBP03,-1643,8,1,7,-1643,1715717311.28,2024-05-14 20:08:31.280000+00:00,2024-05-15 05:08:31.280000+09:00,2024,5,14,20,8,31,280,,,,,,,,,4.481445,-6.88501,7.999756,-411.437988,146.54541,1300.048828,,,,,,,,,,,0.0,1.0,1.0,1.0,0.0,0.0,0.0,5.0,0.0,,,,,,,-315.0473799002708,-113.09375426960413,161.12180969700333,86.10569969728243,-26.57695834580015,6.199135870375426,90.32693685060042,,91.22101534766146,,,,,,,,,
LBP03_S01,LBP03,-1642,9,1,8,-1642,1715717311.32,2024-05-14 20:08:31.320000+00:00,2024-05-15 05:08:31.320000+09:00,2024,5,14,20,8,31,320,,,,,,,,,-0.977783,1.842285,-6.858887,1753.479004,-138.85498,164.978027,,,,,,,,,,,0.0,1.0,1.0,1.0,0.0,0.0,0.0,5.0,0.0,,,,,,,-318.6972125100975,-22.111488338760903,188.65455996738518,73.35781119687853,-27.461417879350588,13.745318269070832,79.52629571317429,,86.10787466121153,,,,,,,,,
LBP03_S01,LBP03,-1641,10,1,9,-1641,1715717311.36,2024-05-14 20:08:31.360000+00:00,2024-05-15 05:08:31.360000+09:00,2024,5,14,20,8,31,360,,,,,,,,,-0.380371,-0.074707,-2.876953,-1577.636719,456.787109,-21.118164,,,,,,,,,,,0.0,1.0,1.0,1.0,0.0,0.0,0.0,5.0,0.0,,,,,,,-290.6707233410614,59.851426176755474,194.99156584631524,61.73098226323607,-25.067360832280368,21.54498090292344,70.02337432877,,80.0180198763056,,,,,,,,,
LBP03_S01,LBP03,-1640,11,1,10,-1640,1715717311.4,2024-05-14 20:08:31.400000+00:00,2024-05-15 05:08:31.400000+09:00,2024,5,14,20,8,31,400,,,,,,,,,2.144043,-5.556641,6.978271,-633.544922,75.378418,126.342773,,,,,,,,,,,0.0,1.0,1.0,1.0,0.0,0.0,0.0,5.0,0.0,,,,,,,-242.9420066400072,118.89929077901198,180.26705613534824,52.013301997635786,-20.311389201119887,28.75566314833737,62.807836127964805,,73.88541863585304,,,,,,,,,
LBP03_S01,LBP03,-1639,12,1,11,-1639,1715717311.44,2024-05-14 20:08:31.440000+00:00,2024-05-15 05:08:31.440000+09:00,2024,5,14,20,8,31,440,,,,,,,,,-0.111328,2.443359,-0.391113,333.190918,332.885742,273.986816,,,,,,,,,,,0.0,1.0,1.0,1.0,0.0,0.0,0.0,5.0,0.0,,,,,,,-186.1135528077757,148.65240012517003,148.8726663379452,44.56875988532476,-14.365293196113086,34.71056980185518,58.28858946908466,,68.29496891522402,,,,,,,,,
LBP03_S01,LBP03,-1638,13,1,12,-1638,1715717311.48,2024-05-14 20:08:31.480000+00:00,2024-05-15 05:08:31.480000+09:00,2024,5,14,20,8,31,480,,,,,,,,,-0.46167,-0.889404,-0.059814,-340.087891,-34.362793,-177.001953,,,,,,,,,,,0.0,1.0,1.0,1.0,0.0,0.0,0.0,5.0,0.0,,,,,,,-129.0690788114281,150.08024328859022,107.75515807945322,39.405996732867635,-8.362083464569476,39.02077612503331,56.08366952847478,,63.563221483474045,,,,,,,,,
LBP03_S01,LBP03,-1637,14,1,13,-1637,1715717311.52,2024-05-14 20:08:31.520000+00:00,2024-05-15 05:08:31.520000+09:00,2024,5,14,20,8,31,520,,,,,,,,,0.517822,-0.315186,0.920654,40.710449,-161.743164,12.512207,,,,,,,,,,,0.0,1.0,1.0,1.0,0.0,0.0,0.0,5.0,0.0,,,,,,,-78.65221066413588,129.63979198602675,64.41739743952918,36.2599083063022,-3.1764917851284062,41.597472022614475,55.27405113717128,,59.81393908025932,,,,,,,,,
LBP03_S01,LBP03,-1636,15,1,14,-1636,1715717311.56,2024-05-14 20:08:31.560000+00:00,2024-05-15 05:08:31.560000+09:00,2024,5,14,20,8,31,560,,,,,,,,,0.55249,-0.133301,1.396729,20.019531,152.526855,166.137695,,,,,,,,,,,0.0,1.0,1.0,1.0,0.0,0.0,0.0,5.0,0.0,,,,,,,-39.32304751441659,96.55937956534355,25.248528707790403,34.686986405725534,0.6858833974853358,42.607413170926094,54.94587444989788,,57.02633222126699,,,,,,,,,
LBP03_S01,LBP03,-1635,16,1,15,-1635,1715717311.6,2024-05-14 20:08:31.600000+00:00,2024-05-15 05:08:31.600000+09:00,2024,5,14,20,8,31,600,,,,,,,,,-1.046875,-0.439697,1.164551,-157.653809,227.294922,-98.266602,,,,,,,,,,,0.0,1.0,1.0,1.0,0.0,0.0,0.0,5.0,0.0,,,,,,,-12.99435137657296,60.16583488694333,-5.487793151947949,34.167212350662616,3.092516792963069,42.387901444848175,54.53160779610475,,55.059676748022184,,,,,,,,,
LBP03_S01,LBP03,-1634,17,1,16,-1634,1715717311.64,2024-05-14 20:08:31.640000+00:00,2024-05-15 05:08:31.640000+09:00,2024,5,14,20,8,31,640,,,,,,,,,0.263916,-0.380859,2.280273,272.094727,-198.364258,113.708496,,,,,,,,,,,0.0,1.0,1.0,1.0,0.0,0.0,0.0,5.0,0.0,,,,,,,0.8001745679579104,27.88068371366274,-25.975786723530028,34.19921933338093,4.207744141509578,41.34886997590697,53.823979433497534,,53.67987065552096,,,,,,,,,
LBP03_S01,LBP03,-1633,18,1,17,-1633,1715717311.68,2024-05-14 20:08:31.680000+00:00,2024-05-15 05:08:31.680000+09:00,2024,5,14,20,8,31,680,,,,,,,,,0.901855,0.191406,0.616699,-309.143066,-20.874023,-75.439453,,,,,,,,,,,0.0,1.0,1.0,1.0,0.0,0.0,0.0,5.0,0.0,,,,,,,4.400312848830932,4.142182039206895,-36.644768184997424,34.37523184733417,4.373431423077854,39.88307924850707,52.83411281845317,,52.61499596945746,,,,,,,,,
LBP03_S01,LBP03,-1632,19,1,18,-1632,1715717311.72,2024-05-14 20:08:31.720000+00:00,2024-05-15 05:08:31.720000+09:00,2024,5,14,20,8,31,720,,,,,,,,,-0.654541,-0.880127,-0.348145,-14.099121,-14.526367,-131.347656,,,,,,,,,,,0.0,1.0,1.0,1.0,0.0,0.0,0.0,5.0,0.0,,,,,,,1.2782575914233052,-9.741525761017236,-39.63862667262819,34.4263621509911,3.9837703926371644,38.29753418160195,51.650227123251014,,51.633075297695676,,,,,,,,,
LBP03_S01,LBP03,-1631,20,1,19,-1631,1715717311.76,2024-05-14 20:08:31.760000+00:00,2024-05-15 05:08:31.760000+09:00,2024,5,14,20,8,31,760,,,,,,,,,0.220459,0.447998,-0.263184,532.226562,53.100586,-61.157227,,,,,,,,,,,0.0,1.0,1.0,1.0,0.0,0.0,0.0,5.0,0.0,,,,,,,-4.794659801491794,-14.95312130345381,-38.083789255047925,34.234575758931435,3.385645540499012,36.77418261140003,50.356819596321934,,50.595903644957254,,,,,,,,,
LBP03_S01,LBP03,-1630,21,1,20,-1630,1715717311.8,2024-05-14 20:08:31.800000+00:00,2024-05-15 05:08:31.800000+09:00,2024,5,14,20,8,31,800,,,,,,,,,0.624512,0.356689,0.553467,-524.536133,109.008789,-114.868164,,,,,,,,,,,0.0,1.0,1.0,1.0,0.0,0.0,0.0,5.0,0.0,,,,,,,-10.54736300066385,-14.042342664072912,-35.22860249753898,33.81268123890488,2.8239518339360954,35.36503851149847,49.00977520295263,,49.46011769058522,,,,,,,,,
LBP03_S01,LBP03,-1629,22,1,21,-1629,1715717311.84,2024-05-14 20:08:31.840000+00:00,2024-05-15 05:08:31.840000+09:00,2024,5,14,20,8,31,840,,,,,,,,,0.239502,-1.529053,3.843018,-173.217773,67.382812,316.40625,,,,,,,,,,,0.0,1.0,1.0,1.0,0.0,0.0,0.0,5.0,0.0,,,,,,,-13.854270880839808,-9.749428354611675,-33.57398882889237,33.25851040367129,2.4339746997516283,34.022078958342775,47.63984260844963,,48.2449775080146,,,,,,,,,
LBP03_S01,LBP03,-1628,23,1,22,-1628,1715717311.88,2024-05-14 20:08:31.880000+00:00,2024-05-15 05:08:31.880000+09:00,2024,5,14,20,8,31,880,,,,,,,,,-1.789551,1.241455,0.742676,401.611328,45.837402,-9.399414,,,,,,,,,,,0.0,1.0,1.0,1.0,0.0,0.0,0.0,5.0,0.0,,,,,,,-14.055389007690719,-4.1839421695375165,-34.22817560650235,32.69629484336366,2.2666170129701277,32.65295193408268,46.264462810856976,,46.998464547238086,,,,,,,,,
LBP03_S01,LBP03,-1627,24,1,23,-1627,1715717311.92,2024-05-14 20:08:31.920000+00:00,2024-05-15 05:08:31.920000+09:00,2024,5,14,20,8,31,920,,,,,,,,,-0.135498,-3.58374,2.290527,-593.017578,-362.854004,-235.595703,,,,,,,,,,,0.0,1.0,1.0,1.0,0.0,0.0,0.0,5.0,0.0,,,,,,,-11.790164485725967,1.4451272857996025,-36.746115571962,32.224688263934624,2.324422104402112,31.1831073112042,44.902334609787005,,45.77619456128866,,,,,,,,,
LBP03_S01,LBP03,-1626,25,1,24,-1626,1715717311.96,2024-05-14 20:08:31.960000+00:00,2024-05-15 05:08:31.960000+09:00,2024,5,14,20,8,31,960,,,,,,,,,0.530273,0.657959,-0.272949,572.631836,329.223633,30.944824,,,,,,,,,,,0.0,1.0,1.0,1.0,0.0,0.0,0.0,5.0,0.0,,,,,,,-8.371532008493146,6.635265069288878,-39.541051521898446,31.889826983594897,2.589832707173667,29.60146525032826,43.58801490617754,,44.632340371193216,,,,,,,,,
LBP03_S01,LBP03,-1625,26,1,25,-1625,1715717312.0,2024-05-14 20:08:32+00:00,2024-05-15 05:08:32+09:00,2024,5,14,20,8,32,0,20.0,8.0,31.0,40.604797,141.563278,0.355,3.0,14.0,-0.810547,-0.065674,0.02124,-11.474609,-50.292969,-151.062012,-313.0,31.0,368.0,405.0,0.0,1015.099976,16.440001,0.020811,-15.381901,4.05,0.0,1.0,1.0,1.0,0.0,0.0,0.0,4.0,0.0,,,,,,,-4.985226780739014,11.19435123998135,-40.674325375084436,31.690417912365337,3.037606756772921,27.974492235324885,42.38020597039862,,43.61626993627236,,,,,,,,,
LBP03_S01,LBP03,-1624,27,1,26,-1624,1715717312.04,2024-05-14 20:08:32.040000+00:00,2024-05-15 05:08:32.040000+09:00,2024,5,14,20,8,32,40,,,,,,,,,0.91626,-0.595703,0.722412,-82.336426,-335.144043,-59.326172,,,,,,,,,,,0.0,1.0,1.0,1.0,0.0,0.0,0.0,4.0,0.0,,,,,,,-2.1193998201753996,14.896994911350783,-38.663985340919524,31.60564191955832,3.6334865532269522,26.427932821688103,41.35884982573237,,42.76986356628642,,,,,,,,,
LBP03_S01,LBP03,-1623,28,1,27,-1623,1715717312.08,2024-05-14 20:08:32.080000+00:00,2024-05-15 05:08:32.080000+09:00,2024,5,14,20,8,32,80,,,,,,,,,0.445312,1.264404,0.936279,189.453125,301.635742,-28.198242,,,,,,,,,,,0.0,1.0,1.0,1.0,0.0,0.0,0.0,4.0,0.0,,,,,,,0.4923663540115144,17.340762981426536,-33.00362616288237,31.62533657371878,4.327117072484014,25.10778777517281,40.611412958958894,,42.12412945642177,,,,,,,,,
LBP03_S01,LBP03,-1622,29,1,28,-1622,1715717312.12,2024-05-14 20:08:32.120000+00:00,2024-05-15 05:08:32.120000+09:00,2024,5,14,20,8,32,120,,,,,,,,,-0.902588,-1.754883,1.819092,-487.609863,166.687012,-23.254395,,,,,,,,,,,0.0,1.0,1.0,1.0,0.0,0.0,0.0,4.0,0.0,,,,,,,3.440963277211845,18.027012853807086,-24.2624581077468,31.762975104807254,5.048197586636297,24.137289450862937,40.21168522229658,,41.6961303320155,,,,,,,,,
LBP03_S01,LBP03,-1621,30,1,29,-1621,1715717312.16,2024-05-14 20:08:32.160000+00:00,2024-05-15 05:08:32.160000+09:00,2024,5,14,20,8,32,160,,,,,,,,,-0.679443,0.142578,1.517578,165.466309,-111.999512,50.415039,,,,,,,,,,,0.0,1.0,1.0,1.0,0.0,0.0,0.0,4.0,0.0,,,,,,,7.053144867236682,16.567448296555263,-13.821738953063788,32.045100899496724,5.710895518498507,23.584419892740385,40.196115247113376,,41.48731446718626,,,,,,,,,
LBP03_S01,LBP03,-1620,31,1,30,-1620,1715717312.2,2024-05-14 20:08:32.200000+00:00,2024-05-15 05:08:32.200000+09:00,2024,5,14,20,8,32,200,,,,,,,,,1.238281,-0.813965,2.01416,-47.058105,-194.274902,78.369141,,,,,,,,,,,0.0,1.0,1.0,1.0,0.0,0.0,0.0,4.0,0.0,,,,,,,11.050339787075135,12.86216395941046,-3.42221094044769,32.48711449097973,6.225382076874926,23.447531455122476,40.54571150309313,,41.48351861797771,,,,,,,,,
LBP03_S01,LBP03,-1619,32,1,31,-1619,1715717312.24,2024-05-14 20:08:32.240000+00:00,2024-05-15 05:08:32.240000+09:00,2024,5,14,20,8,32,240,,,,,,,,,-0.681641,0.266357,-0.180908,142.822266,310.302734,-97.290039,,,,,,,,,,,0.0,1.0,1.0,1.0,0.0,0.0,0.0,4.0,0.0,,,,,,,14.657228186764371,7.1735951136909994,5.281289820797527,33.0734036184503,6.512325881422566,23.658783047954376,41.182501509803174,,41.656468293470915,,,,,,,,,
LBP03_S01,LBP03,-1618,33,1,32,-1618,1715717312.28,2024-05-14 20:08:32.280000+00:00,2024-05-15 05:08:32.280000+09:00,2024,5,14,20,8,32,280,,,,,,,,,-0.007324,-0.253174,0.459473,113.769531,-174.865723,-23.254395,,,,,,,,,,,0.0,1.0,1.0,1.0,0.0,0.0,0.0,4.0,0.0,,,,,,,17.038646037068226,0.12668479498604437,11.037075539569848,33.75494945993303,6.517393273222008,24.10026606953717,41.98447156679428,,41.96656434284327,,,,,,,,,
LBP03_S01,LBP03,-1617,34,1,33,-1617,1715717312.32,2024-05-14 20:08:32.320000+00:00,2024-05-15 05:08:32.320000+09:00,2024,5,14,20,8,32,320,,,,,,,,,0.723145,0.500977,0.986084,49.377441,33.203125,32.531738,,,,,,,,,,,0.0,1.0,1.0,1.0,0.0,0.0,0.0,4.0,0.0,,,,,,,17.742660880974338,-7.33532122801539,13.175502953427493,34.464655895172,6.223980424101392,24.62728618767427,42.81417596149461,,42.366845709418406,-1.3812317197989616,,,,,,,,
LBP03_S01,LBP03,-1616,35,1,34,-1616,1715717312.36,2024-05-14 20:08:32.360000+00:00,2024-05-15 05:08:32.360000+09:00,2024,5,14,20,8,32,360,,,,,,,,,0.158691,-0.191895,1.629639,-69.641113,140.808105,61.157227,,,,,,,,,,,0.0,1.0,1.0,1.0,0.0,0.0,0.0,4.0,0.0,,,,,,,16.875596138339827,-14.06779702031164,11.69351021714102,35.139679740705596,5.6612685432889265,25.095026596359908,43.55005641409204,,42.80815860936819,-1.3715706209203393,,,,,,,,
LBP03_S01,LBP03,-1615,36,1,35,-1615,1715717312.4,2024-05-14 20:08:32.400000+00:00,2024-05-15 05:08:32.400000+09:00,2024,5,14,20,8,32,400,,,,,,,,,-0.904785,-0.709473,1.922607,-80.932617,-117.492676,13.549805,,,,,,,,,,,0.0,1.0,1.0,1.0,0.0,0.0,0.0,4.0,0.0,,,,,,,14.960073992873774,-18.943307004719877,7.255454094104889,35.73808270042055,4.903536263100131,25.385244760124102,44.10970272533068,,43.24541761795307,-1.3717225994576916,,,,,,,,
LBP03_S01,LBP03,-1614,37,1,36,-1614,1715717312.44,2024-05-14 20:08:32.440000+00:00,2024-05-15 05:08:32.440000+09:00,2024,5,14,20,8,32,440,,,,,,,,,0.56958,-0.528076,2.27124,-58.349609,-277.22168,45.898438,,,,,,,,,,,0.0,1.0,1.0,1.0,0.0,0.0,0.0,4.0,0.0,,,,,,,12.646401231609357,-21.132604909912455,1.0684907005802309,36.24393874968492,4.058232066703633,25.427984388147312,44.4598103194559,,43.64410761077298,-1.385366096038536,,,,,,,,
LBP03_S01,LBP03,-1613,38,1,37,-1613,1715717312.48,2024-05-14 20:08:32.480000+00:00,2024-05-15 05:08:32.480000+09:00,2024,5,14,20,8,32,480,,,,,,,,,0.016113,-0.095947,0.583984,117.004395,263.183594,-7.568359,,,,,,,,,,,0.0,1.0,1.0,1.0,0.0,0.0,0.0,4.0,0.0,0.06184562666666666,-0.41069661333333335,0.5104882266666667,-8.595377573333334,0.3987629999999992,2.68717445333333,10.502813590266793,-20.33539755625555,-5.398229339446278,36.66405129329559,3.244816164453411,25.21205521456946,44.61422662471028,-1.3812317197989616,43.985249341107036,-1.4499439485106589,-0.045732626666666665,0.31474961333333334,0.07349577333333324,0.43397801333333325,0.3264359369511578,0.3264359369511578,0.3264359369511578,0.3264359369511578
LBP03_S01,LBP03,-1612,39,1,38,-1612,1715717312.52,2024-05-14 20:08:32.520000+00:00,2024-05-15 05:08:32.520000+09:00,2024,5,14,20,8,32,520,,,,,,,,,-0.609131,0.013916,-0.340576,95.397949,-59.509277,-137.207031,,,,,,,,,,,0.0,1.0,1.0,1.0,0.0,0.0,0.0,4.0,0.0,0.07028638666666666,-0.4191503866666667,0.5296972133333333,-26.092936173333335,-2.7815755333333336,3.9916991999999967,8.977346886600104,-16.84885569702942,-10.799849370515625,37.0231451687596,2.5708619365722343,24.780061239748836,44.62481422179442,-1.3619095220417172,44.266905795901955,-1.4677303762858314,-0.6794173866666666,0.4330663866666667,-0.8702732133333333,1.9827569866666666,1.185972152460171,0.7562040447056644,0.7562040447056644,0.7562040447056644
LBP03_S01,LBP03,-1611,40,1,39,-1611,1715717312.56,2024-05-14 20:08:32.560000+00:00,2024-05-15 05:08:32.560000+09:00,2024,5,14,20,8,32,560,,,,,,,,,0.623779,0.193115,0.632568,90.942383,-112.915039,-50.109863,,,,,,,,,,,0.0,1.0,1.0,1.0,0.0,0.0,0.0,4.0,0.0,0.07160148,-0.43056640000000007,0.6170279333333333,-1.3631184666666671,-5.429687506666666,11.47705077333333,8.435428649789094,-11.456901347094064,-14.266628522850912,37.360562314751164,2.112585882688472,24.209396098834798,44.568705332962246,-1.3720265565323961,44.50147944547858,-1.4353331497421167,0.55217752,0.6236814,0.01554006666666674,1.1913989866666668,0.8331386415065112,0.7818489103059466,0.7818489103059466,0.7818489103059466
LBP03_S01,LBP03,-1610,41,1,40,-1610,1715717312.6,2024-05-14 20:08:32.600000+00:00,2024-05-15 05:08:32.600000+09:00,2024,5,14,20,8,32,600,,,,,,,,,0.496094,-0.009521,1.254395,-80.26123,55.847168,10.803223,,,,,,,,,,,0.0,1.0,1.0,1.0,0.0,0.0,0.0,4.0,0.0,0.04351879999999999,-0.33838865333333334,0.6324315733333333,-22.56673174666667,-15.391438813333334,14.827473946666666,9.111975055892417,-5.2182509865328015,-15.558046339956599,37.72504131698686,1.9038558432271597,23.587074245236533,44.532611431292196,-1.4262965857810694,44.70996741115511,-1.4188753151341889,0.4525752,0.32886765333333334,0.6219634266666666,1.40340628,0.836550506051461,0.7955243092423252,0.7955243092423252,0.7955243092423252
LBP03_S01,LBP03,-1609,42,1,41,-1609,1715717312.64,2024-05-14 20:08:32.640000+00:00,2024-05-15 05:08:32.640000+09:00,2024,5,14,20,8,32,640,,,,,,,,,-0.341064,-0.181885,1.705078,-149.902344,141.296387,43.640137,,,,,,,,,,,0.0,1.0,1.0,1.0,0.0,0.0,0.0,4.0,0.0,-0.051881586666666674,-0.4441373466666667,0.6934764933333334,-39.72412106666667,-3.945312506666669,9.223632799999995,10.937803259072085,0.7579411509502553,-14.9507896409428,38.162553447349744,1.9341734892651699,22.98904265959882,44.59391881314375,-1.7082553583991502,44.91568999021748,-1.4220069410208833,-0.2891824133333333,0.26225234666666675,1.0116015066666666,1.5630362666666666,1.084315622779518,0.8532825719497638,0.8532825719497638,0.8532825719497638
LBP03_S01,LBP03,-1608,43,1,42,-1608,1715717312.68,2024-05-14 20:08:32.680000+00:00,2024-05-15 05:08:32.680000+09:00,2024,5,14,20,8,32,680,,,,,,,,,-0.518555,-0.60083,2.231934,-7.873535,-191.894531,48.88916,,,,,,,,,,,0.0,1.0,1.0,1.0,0.0,0.0,0.0,4.0,0.0,0.004466066666666664,-0.34403318666666666,0.7985546266666668,-14.563802053333335,5.9497070266666645,12.052408839999996,13.388701028944293,5.498561670817831,-12.94899627695095,38.69810148850752,2.154115956097883,22.47108280852078,44.80103611474339,-1.5566625151616929,45.13976900694128,-1.4211705970682942,-0.5230210666666667,-0.2567968133333333,1.433379373333333,2.213197253333333,1.5472789235987,0.9689486305579198,0.9689486305579198,0.9689486305579198
LBP03_S01,LBP03,-1607,44,1,43,-1607,1715717312.72,2024-05-14 20:08:32.720000+00:00,2024-05-15 05:08:32.720000+09:00,2024,5,14,20,8,32,720,,,,,,,,,1.007568,-0.701416,1.689697,5.737305,-63.964844,54.931641,,,,,,,,,,,0.0,1.0,1.0,1.0,0.0,0.0,0.0,4.0,0.0,0.08325837333333333,-0.2515397066666667,0.8944953866666666,-38.6035156,15.76741536,19.823404933333332,15.566782468126503,8.30270198166574,-10.01103589215482,39.32077278723258,2.4862240353645126,22.070641372834586,45.159912457260944,-1.240949790479829,45.39895816495205,-1.4270491676745585,0.9243096266666667,-0.44987629333333334,0.7952016133333334,2.1693875333333335,1.2996470948299574,1.016191268311068,1.016191268311068,1.016191268311068
LBP03_S01,LBP03,-1606,45,1,44,-1606,1715717312.76,2024-05-14 20:08:32.760000+00:00,2024-05-15 05:08:32.760000+09:00,2024,5,14,20,8,32,760,,,,,,,,,-0.924561,-0.077393,-0.502686,188.049316,302.490234,-116.333008,,,,,,,,,,,0.0,1.0,1.0,1.0,0.0,0.0,0.0,4.0,0.0,0.07662752,-0.29080728000000006,0.9973111466666668,-11.777343733333334,11.26627604,18.94775389333333,16.573708637825767,8.84281934898108,-6.454086046580388,39.98372113274561,2.839936809323756,21.812477930971372,45.6349360708573,-1.3036704728786945,45.70466429809731,-1.440463138074918,-1.00118852,0.21341428000000007,-1.4999971466666668,2.7145999466666666,1.8160163951616326,1.1161694091673886,1.1161694091673886,1.1161694091673886
LBP03_S01,LBP03,-1605,46,1,45,-1605,1715717312.8,2024-05-14 20:08:32.800000+00:00,2024-05-15 05:08:32.800000+09:00,2024,5,14,20,8,32,800,,,,,,,,,0.145996,0.102539,0.203369,127.502441,-175.048828,-70.373535,,,,,,,,,,,0.0,1.0,1.0,1.0,0.0,0.0,0.0,4.0,0.0,0.024417240000000003,-0.2009928266666667,0.9091308,-7.455240866666668,9.433593746666666,1.0864257733333331,15.987206164807072,7.235783855811587,-2.5486462628111535,40.623209379337894,3.129368163556219,21.710532080458925,46.166928515954375,-1.44705994811444,46.06160050361799,-1.4549958221955805,0.12157875999999998,0.3035318266666667,-0.7057618,1.1308723866666668,0.7778256122177908,1.0785756539507667,1.0785756539507667,1.0785756539507667
LBP03_S01,LBP03,-1604,47,1,46,-1604,1715717312.84,2024-05-14 20:08:32.840000+00:00,2024-05-15 05:08:32.840000+09:00,2024,5,14,20,8,32,840,,,,,,,,,0.511475,0.356201,0.786865,26.000977,1.77002,-19.897461,,,,,,,,,,,0.0,1.0,1.0,1.0,0.0,0.0,0.0,4.0,0.0,0.035250573333333333,-0.22775389333333332,1.0245018933333334,-32.10530597333333,12.579752599999999,-0.38411458666666687,14.118283097694452,4.043800028865312,1.3346639521205825,41.18794070324567,3.2911201647108315,21.76391863854375,46.70060048669396,-1.4136435014949904,46.46572474903544,-1.462076586365892,0.4762244266666667,0.5839548933333333,-0.23763689333333338,1.2978162133333333,0.7901039900386898,1.049728487559559,1.049728487559559,1.049728487559559
LBP03_S01,LBP03,-1603,48,1,47,-1603,1715717312.88,2024-05-14 20:08:32.880000+00:00,2024-05-15 05:08:32.880000+09:00,2024,5,14,20,8,32,880,,,,,,,,,0.328857,0.155762,1.172607,-57.067871,94.482422,47.668457,,,,,,,,,,,0.0,1.0,1.0,1.0,0.0,0.0,0.0,4.0,0.0,0.030810466666666668,-0.2397591066666667,1.08924148,-11.769205706666668,4.880371093333333,0.36621093333333316,11.83488762324764,0.15812465000277612,4.6947526439520715,41.66133620817558,3.2974451507109426,21.951708744301833,47.20611820481797,-1.440017425861604,46.902762711337424,-1.4409133179777702,0.29804653333333336,0.39552110666666673,0.08336551999999986,0.77693316,0.502213591787113,0.9999544061257002,0.9999544061257002,0.9999544061257002
LBP03_S01,LBP03,-1602,49,1,48,-1602,1715717312.92,2024-05-14 20:08:32.920000+00:00,2024-05-15 05:08:32.920000+09:00,2024,5,14,20,8,32,920,,,,,,,,,-0.702637,-0.40332,1.747559,-197.021484,50.354004,46.020508,,,,,,,,,,,0.0,1.0,1.0,1.0,0.0,0.0,0.0,4.0,0.0,0.01252921333333334,-0.16959634666666668,1.0193065866666666,-2.8727213333333346,2.4112955733333328,-0.5387369733333336,10.02674409414269,-3.4304363579194312,7.044612044303468,42.06240597194128,3.1602276963941653,22.23349322607397,47.68187555324702,-1.4960492260453133,47.34916438312298,-1.434965594239603,-0.7151662133333333,-0.23372365333333334,0.7282524133333335,1.67714228,1.047110804235561,1.0038841059681887,1.0038841059681887,1.0038841059681887
LBP03_S01,LBP03,-1601,50,1,49,-1601,1715717312.96,2024-05-14 20:08:32.960000+00:00,2024-05-15 05:08:32.960000+09:00,2024,5,14,20,8,32,960,,,,,,,,,-0.172119,-0.747314,2.026855,-32.836914,-222.961426,56.335449,,,,,,,,,,,0.0,1.0,1.0,1.0,0.0,0.0,0.0,4.0,0.0,0.010510986666666671,-0.20018878666666667,1.0253742933333334,-4.590657533333335,1.3932291733333326,-4.5345052,9.047508876359831,-5.914566452619548,8.13522199988161,42.424306326995676,2.9236450382893833,22.558902106069237,48.13806738816895,-1.5173533977390221,47.776222537359935,-1.4531640925333205,-0.18262998666666666,-0.5471252133333333,1.0014807066666664,1.7312359066666665,1.155709010486843,1.015562944777316,1.015562944777316,1.015562944777316
LBP03_S01,LBP03,-1600,51,1,50,-1600,1715717313.0,2024-05-14 20:08:33+00:00,2024-05-15 05:08:33+09:00,2024,5,14,20,8,33,0,20.0,8.0,32.0,40.604725,141.563263,0.357,3.0,13.0,0.894043,-0.351807,1.487549,16.784668,-56.091309,68.603516,-306.0,35.0,369.0,358.0,0.0,1015.299988,16.5,0.022792,-17.043573,4.05,0.0,1.0,1.0,1.0,0.0,0.0,0.0,4.0,0.0,0.013668533333333338,-0.18822916,1.0243033199999998,1.3793945599999988,0.3426106799999993,-3.1958007733333336,8.504298027123633,-6.908002444962729,8.090791806054206,42.76447824808062,2.6473249404908743,22.882533778311405,48.5738538854667,-1.4971042274841824,48.156069926610556,-1.4694635304145698,0.8803744666666667,-0.16357783999999997,0.4632456800000002,1.507197986666667,1.0081733339740475,1.0150351154342252,1.0150351154342252,1.0150351154342252
LBP03_S01,LBP03,-1599,52,1,51,-1599,1715717313.04,2024-05-14 20:08:33.040000+00:00,2024-05-15 05:08:33.040000+09:00,2024,5,14,20,8,33,40,,,,,,,,,-0.754395,-0.015137,-0.442139,185.72998,277.282715,-89.599609,,,,,,,,,,,0.0,1.0,1.0,1.0,0.0,0.0,0.0,4.0,0.0,0.013408120000000006,-0.18330402666666668,1.0210025466666666,1.680501333333332,0.8553059866666659,-3.7076822799999998,7.534282110595016,-6.529675096351626,7.344473456726607,43.06584953250442,2.386137936636809,23.17631271658047,48.96429843616365,-1.4966226745179338,48.466882794733024,-1.4735718365164234,-0.7678031200000001,0.16816702666666666,-1.4631415466666666,2.3991116933333334,1.6608988426517033,1.058092697248724,1.058092697248724,1.058092697248724
LBP03_S01,LBP03,-1598,53,1,52,-1598,1715717313.08,2024-05-14 20:08:33.080000+00:00,2024-05-15 05:08:33.080000+09:00,2024,5,14,20,8,33,80,,,,,,,,,0.035889,0.123047,0.128174,89.111328,-166.19873,-67.199707,,,,,,,,,,,0.0,1.0,1.0,1.0,0.0,0.0,0.0,4.0,0.0,0.012955653333333338,-0.17834308000000001,1.0183007199999998,0.9057617466666655,-1.0644531200000005,-5.845540346666667,5.376382724749791,-5.294535710091377,6.404054871545079,43.28090484149441,2.174356508233154,23.432474911442274,49.26505283259891,-1.4971852777800205,48.69500530138813,-1.4780481297272936,0.02293334666666666,0.30139008,-0.8901267199999998,1.2144501466666666,0.9400465394700934,1.0507148123875594,1.0507148123875594,1.0507148123875594
LBP03_S01,LBP03,-1597,54,1,53,-1597,1715717313.12,2024-05-14 20:08:33.120000+00:00,2024-05-15 05:08:33.120000+09:00,2024,5,14,20,8,33,120,,,,,,,,,0.505859,0.18042,0.769775,14.526367,-56.945801,-15.930176,,,,,,,,,,,0.0,1.0,1.0,1.0,0.0,0.0,0.0,4.0,0.0,0.02573234666666667,-0.17521157333333334,1.02477532,1.041666693333332,-3.2332356800000004,-3.594563773333333,1.8550871831913378,-3.8823970592120616,5.601536467937574,43.35510832882206,2.0190606258646717,23.656536370159778,49.430493999630485,-1.4229347734170041,48.83373642377541,-1.4824837095955432,0.48012665333333326,0.35563157333333334,-0.25500032000000006,1.0907585466666667,0.6496311125498156,1.0271216535735745,1.0271216535735745,1.0271216535735745
LBP03_S01,LBP03,-1596,55,1,54,-1596,1715717313.16,2024-05-14 20:08:33.160000+00:00,2024-05-15 05:08:33.160000+09:00,2024,5,14,20,8,33,160,,,,,,,,,0.378906,0.256348,1.128662,-18.371582,97.717285,44.006348,,,,,,,,,,,0.0,1.0,1.0,1.0,0.0,0.0,0.0,4.0,0.0,0.01832024,-0.17791665333333334,1.0197590533333334,-3.1575520666666677,-2.347005213333334,-4.632975226666667,-2.5252646509967187,-2.899083411950243,4.994206061941413,43.25409774278219,1.903097289386662,23.856304612637434,49.433409963363566,-1.4666648516911869,48.88068325799098,-1.4832778743479598,0.36058576000000003,0.43426465333333336,0.10890294666666667,0.9037533600000001,0.5748632282918962,1.00199618550237,1.00199618550237,1.00199618550237
LBP03_S01,LBP03,-1595,56,1,55,-1595,1715717313.2,2024-05-14 20:08:33.200000+00:00,2024-05-15 05:08:33.200000+09:00,2024,5,14,20,8,33,200,,,,,,,,,-0.653809,-0.083984,1.547119,-189.27002,105.34668,57.128906,,,,,,,,,,,0.0,1.0,1.0,1.0,0.0,0.0,0.0,4.0,0.0,0.015318946666666671,-0.1879296666666667,1.0334146533333335,1.2377929733333322,-2.795410173333334,-2.96386716,-6.898323557629635,-2.7068543606724456,4.470503645340211,42.97816480047701,1.7948231149597642,24.035124758451044,49.275057197178995,-1.4881430091329777,48.83618407039333,-1.4779924574536203,-0.6691279466666666,0.10394566666666669,0.5137043466666664,1.2867779599999998,0.8499582733366114,0.9939941901252249,0.9939941901252249,0.9939941901252249
LBP03_S01,LBP03,-1594,57,1,56,-1594,1715717313.24,2024-05-14 20:08:33.240000+00:00,2024-05-15 05:08:33.240000+09:00,2024,5,14,20,8,33,240,,,,,,,,,-0.476074,-0.745117,2.047852,-59.814453,-183.227539,39.123535,,,,,,,,,,,0.0,1.0,1.0,1.0,0.0,0.0,0.0,4.0,0.0,0.019615826666666673,-0.17624672,1.0396125733333332,2.609863279999999,0.17822263999999904,-1.644693986666667,-10.518449319278416,-3.361389737939217,3.960617817713675,42.557426827705875,1.6603675254421955,24.193549471159592,48.981825553245045,-1.4584064336036904,48.703943302252426,-1.4628349689773485,-0.49568982666666667,-0.5688702800000001,1.0082394266666665,2.0727995333333333,1.259312725741004,1.0072601169060138,1.0072601169060138,1.0072601169060138
LBP03_S01,LBP03,-1593,58,1,57,-1593,1715717313.28,2024-05-14 20:08:33.280000+00:00,2024-05-15 05:08:33.280000+09:00,2024,5,14,20,8,33,280,,,,,,,,,0.769775,-0.4104,1.491699,8.056641,-52.001953,59.143066,,,,,,,,,,,0.0,1.0,1.0,1.0,0.0,0.0,0.0,4.0,0.0,0.015413346666666671,-0.18053708000000002,1.0413931733333335,-3.1925455733333337,-2.2998047066666674,-1.695149706666667,-13.081289240698753,-4.658910904599662,3.5796972176547164,42.03417525807792,1.474011089258209,24.33673735986578,48.593429428690804,-1.4843732245441017,48.492906523711454,-1.4440997385424965,0.7543616533333333,-0.22986291999999997,0.45030582666666663,1.4345303999999999,0.9081155232351644,1.0025389457788305,1.0025389457788305,1.0025389457788305
LBP03_S01,LBP03,-1592,59,1,58,-1592,1715717313.32,2024-05-14 20:08:33.320000+00:00,2024-05-15 05:08:33.320000+09:00,2024,5,14,20,8,33,320,,,,,,,,,-0.735107,-0.053467,-0.120361,92.712402,210.81543,-81.542969,,,,,,,,,,,0.0,1.0,1.0,1.0,0.0,0.0,0.0,4.0,0.0,0.012021413333333338,-0.18241533333333335,1.03889968,4.291992186666666,-4.886881533333335,-0.9008788800000002,-14.705125519348332,-6.247138826165176,3.5890142287868625,41.44597023730399,1.224125536211602,24.480297929017254,48.15134389540275,-1.5039908735694778,48.21822366528433,-1.4282934970201808,-0.7471284133333332,0.12894833333333333,-1.15926068,2.0353374266666666,1.385176473548945,1.0199315606774721,1.0199315606774721,1.0199315606774721
LBP03_S01,LBP03,-1591,60,1,59,-1591,1715717313.36,2024-05-14 20:08:33.360000+00:00,2024-05-15 05:08:33.360000+09:00,2024,5,14,20,8,33,360,,,,,,,,,0.053223,0.0,0.136963,53.649902,-134.033203,-61.157227,,,,,,,,,,,0.0,1.0,1.0,1.0,0.0,0.0,0.0,4.0,0.0,0.017265546666666676,-0.16393877333333334,1.0028124400000002,5.676269519999999,-6.1938476666666675,-5.005696586666667,-15.654478720699919,-7.736391102859093,4.199439867636414,40.819791088475995,0.9146698920972383,24.64827552372271,47.69307551219235,-1.4644992287956282,47.899714108618696,-1.414833732202749,0.03595745333333332,0.16393877333333334,-0.8658494400000003,1.065745666666667,0.881966049573662,1.0139330601946979,1.0139330601946979,1.0139330601946979
LBP03_S01,LBP03,-1590,61,1,60,-1590,1715717313.4,2024-05-14 20:08:33.400000+00:00,2024-05-15 05:08:33.400000+09:00,2024,5,14,20,8,33,400,,,,,,,,,0.404541,0.140137,0.696289,28.198242,-67.810059,-20.751953,,,,,,,,,,,0.0,1.0,1.0,1.0,0.0,0.0,0.0,4.0,0.0,0.04067049333333334,-0.18012041333333334,1.0125097066666668,-1.1686198000000014,-5.176595053333334,-4.048665333333334,-16.059933715654658,-8.783962513215503,5.363140606518466,40.17739373984981,0.5633113915686181,24.862801147983447,47.25144620405772,-1.3455293427214652,47.55802302763273,-1.40549060574013,0.36387050666666665,0.32025741333333335,-0.3162207066666668,1.0003486266666668,0.5787590964655159,0.9958008117059819,0.9958008117059819,0.9958008117059819
LBP03_S01,LBP03,-1589,62,1,61,-1589,1715717313.44,2024-05-14 20:08:33.440000+00:00,2024-05-15 05:08:33.440000+09:00,2024,5,14,20,8,33,440,,,,,,,,,0.505371,-0.009277,1.365479,-71.350098,43.762207,29.602051,,,,,,,,,,,0.0,1.0,1.0,1.0,0.0,0.0,0.0,4.0,0.0,0.03767244,-0.14203773333333336,1.0091666133333335,5.686848946666665,-1.8351236933333344,-0.49072262666666705,-15.855044133023542,-9.151550597684647,6.715276007880998,39.543191974528874,0.1972493676612322,25.131412188298686,46.853930650753895,-1.309270370169411,47.21028553298011,-1.3966269440261134,0.46769856,0.13276073333333335,0.35631238666666665,0.95677168,0.6027651883058396,0.9800793867699763,0.9800793867699763,0.9800793867699763
LBP03_S01,LBP03,-1588,63,1,62,-1588,1715717313.48,2024-05-14 20:08:33.480000+00:00,2024-05-15 05:08:33.480000+09:00,2024,5,14,20,8,33,480,,,,,,,,,-0.436768,0.044678,1.616699,-150.146484,110.717773,62.316895,,,,,,,,,,,0.0,1.0,1.0,1.0,0.0,0.0,0.0,4.0,0.0,0.036897706666666676,-0.15811194666666664,1.0375845733333333,-2.0442708400000025,-7.453613280000001,-0.14729814666666707,-14.95495196266199,-8.730022438213155,7.722531520322993,38.944993896022396,-0.151951529867294,25.440313449111606,46.51822424832766,-1.3391228625568654,46.86742743121832,-1.3750277964937232,-0.4736657066666667,0.20278994666666664,0.5791144266666668,1.25557008,0.7751493296872316,0.9980279224794192,0.972197461497563,0.972197461497563
LBP03_S01,LBP03,-1587,64,1,63,-1587,1715717313.52,2024-05-14 20:08:33.520000+00:00,2024-05-15 05:08:33.520000+09:00,2024,5,14,20,8,33,520,,,,,,,,,-0.461182,-0.979004,2.144043,-55.419922,-183.349609,45.471191,,,,,,,,,,,0.0,1.0,1.0,1.0,0.0,0.0,0.0,4.0,0.0,0.04551750666666667,-0.1584928,1.0415494266666667,-0.7421875066666689,-3.5815429600000015,1.7610677466666664,-13.4995868724751,-7.533106718424315,7.948000683957959,38.40501042112339,-0.4532757986042666,25.758233476469925,46.245398432974206,-1.2883371252426863,46.53409312499189,-1.3437737280734938,-0.5066995066666666,-0.8205112,1.1024935733333332,2.4297042799999997,1.4647440386029857,1.0091787979251317,0.9904399273162823,0.9904399273162823
LBP03_S01,LBP03,-1586,65,1,64,-1586,1715717313.56,2024-05-14 20:08:33.560000+00:00,2024-05-15 05:08:33.560000+09:00,2024,5,14,20,8,33,560,,,,,,,,,0.725586,-0.464844,1.44165,-3.967285,-15.869141,68.115234,,,,,,,,,,,0.0,1.0,1.0,1.0,0.0,0.0,0.0,4.0,0.0,0.029550706666666676,-0.14910478666666668,1.029248,1.5364583333333313,-0.2864583200000014,1.6438802533333334,-11.92979862829387,-5.676597752424071,7.26221310942867,37.927818475991636,-0.6803397087012294,26.04872200084707,46.016499153503865,-1.3732335870649959,46.21051531042706,-1.3262658510223173,0.6960352933333332,-0.3157392133333333,0.41240200000000016,1.4241765066666667,0.868465192167177,1.0105918599515584,0.9860836867752428,0.9860836867752428
LBP03_S01,LBP03,-1585,66,1,65,-1585,1715717313.6,2024-05-14 20:08:33.600000+00:00,2024-05-15 05:08:33.600000+09:00,2024,5,14,20,8,33,600,,,,,,,,,-0.560547,0.051758,-0.073975,115.844727,206.90918,-75.256348,,,,,,,,,,,0.0,1.0,1.0,1.0,0.0,0.0,0.0,4.0,0.0,0.027897066666666675,-0.16325192000000002,1.0221125866666667,-0.23681640000000206,-6.008300760000002,1.0400391066666665,-10.799618912552665,-3.3512290940780716,5.871614701492237,37.49583371948953,-0.8143888724643522,26.28358658890676,45.797682250652834,-1.3995063919928123,45.89463292341161,-1.30577055879534,-0.5884440666666667,0.21500992000000002,-1.0960875866666666,1.8995415733333334,1.2624989833415186,1.0276297990431607,0.9956152487258041,0.9956152487258041
LBP03_S01,LBP03,-1584,67,1,66,-1584,1715717313.64,2024-05-14 20:08:33.640000+00:00,2024-05-15 05:08:33.640000+09:00,2024,5,14,20,8,33,640,,,,,,,,,0.000488,0.071533,0.092773,73.791504,-144.65332,-63.110352,,,,,,,,,,,0.0,1.0,1.0,1.0,0.0,0.0,0.0,4.0,0.0,0.04760736,-0.14092444,1.0097948799999998,5.409342453333331,-8.841145813333334,1.394043013333333,-10.448778060464475,-0.7919805044899008,4.165240090459164,37.07788259707095,-0.8460680926439482,26.450196192525127,45.55324453562707,-1.2424149582797883,45.58306156296879,-1.2950521831277666,-0.04711936,0.21245744,-0.9170218799999998,1.17659868,0.9424900669486641,1.0219567768099265,0.9938444093332327,0.9938444093332327
LBP03_S01,LBP03,-1583,68,1,67,-1583,1715717313.68,2024-05-14 20:08:33.680000+00:00,2024-05-15 05:08:33.680000+09:00,2024,5,14,20,8,33,680,,,,,,,,,0.474121,0.313965,0.583008,25.085449,-42.358398,-26.611328,,,,,,,,,,,0.0,1.0,1.0,1.0,0.0,0.0,0.0,4.0,0.0,0.06049146666666667,-0.14470048000000002,1.0081054266666667,2.0581054666666643,-6.183268200000001,1.7260742666666666,-10.790564828606852,1.7418309519566897,2.5053383520900807,36.64626000392668,-0.7763948545656807,26.55040972660873,45.26008636642656,-1.1718325403418066,45.27080560303031,-1.299312639819304,0.41362953333333335,0.45866548,-0.4250974266666667,1.29739244,0.7497807916636726,0.9900568515325254,0.9859713894084082,0.9859713894084082
LBP03_S01,LBP03,-1582,69,1,68,-1582,1715717313.72,2024-05-14 20:08:33.720000+00:00,2024-05-15 05:08:33.720000+09:00,2024,5,14,20,8,33,720,,,,,,,,,0.510742,-0.263428,1.359375,-99.487305,51.879883,43.029785,,,,,,,,,,,0.0,1.0,1.0,1.0,0.0,0.0,0.0,4.0,0.0,0.03459629333333334,-0.14152990666666668,1.0041731333333332,1.417643226666665,-4.191894506666668,1.1743164533333335,-11.400715866633917,3.972490910306845,1.1146979493730516,36.19023136926132,-0.6174952181534069,26.594997644583653,44.915565749754485,-1.3289121030577122,44.95086218759955,-1.2988283097258038,0.47614570666666667,-0.12189809333333332,0.35520186666666675,0.9532456666666668,0.6064175502233472,0.962327669748261,0.9741103319338751,0.9741103319338751
LBP03_S01,LBP03,-1581,70,1,69,-1581,1715717313.76,2024-05-14 20:08:33.760000+00:00,2024-05-15 05:08:33.760000+09:00,2024,5,14,20,8,33,760,,,,,,,,,-0.475586,0.091309,1.697266,-135.253906,109.558105,48.217773,,,,,,,,,,,0.0,1.0,1.0,1.0,0.0,0.0,0.0,4.0,0.0,0.04795241333333334,-0.15046870666666667,1.0325325066666668,-0.4077148533333353,-10.624999973333335,2.975260466666666,-11.868373958943742,5.6196684389262765,0.11973249582256401,35.71549641090357,-0.3927084805963559,26.599786944416557,44.53425164203786,-1.2595463065258583,44.615121635493786,-1.289961853107894,-0.5235384133333334,0.24177770666666668,0.6647334933333331,1.4300496133333331,0.8800111060865728,0.9248874581852585,0.9712588402415325,0.9712588402415325
LBP03_S01,LBP03,-1580,71,1,70,-1580,1715717313.8,2024-05-14 20:08:33.800000+00:00,2024-05-15 05:08:33.800000+09:00,2024,5,14,20,8,33,800,,,,,,,,,-0.39502,-0.932373,2.101562,-89.904785,-167.358398,36.071777,,,,,,,,,,,0.0,1.0,1.0,1.0,0.0,0.0,0.0,4.0,0.0,0.05183588000000001,-0.15153966666666666,1.0366698666666667,-1.367187506666669,-5.9667968400000015,3.2918294799999996,-12.15825567500918,6.443450266544111,-0.3281571032787507,35.2291661839032,-0.13497046993459144,26.586660660285407,44.13573259962942,-1.2383455860457302,44.25696389024332,-1.273419487215048,-0.44685588,-0.7808333333333334,1.0648921333333332,2.2925813466666667,1.394050260058882,0.9495364440989023,0.9836938820008664,0.9836938820008664
LBP03_S01,LBP03,-1579,72,1,71,-1579,1715717313.84,2024-05-14 20:08:33.840000+00:00,2024-05-15 05:08:33.840000+09:00,2024,5,14,20,8,33,840,,,,,,,,,0.822021,-0.31958,1.457031,6.774902,-10.742188,46.142578,,,,,,,,,,,0.0,1.0,1.0,1.0,0.0,0.0,0.0,4.0,0.0,0.03443678666666667,-0.15651037333333334,1.01791336,-0.472005213333335,-5.288085906666668,1.6210937999999997,-12.699050004828923,6.306964792608036,0.0030597063992362124,34.72120418371004,0.11730812176972999,26.586783048541378,43.73137105136911,-1.3518749370847838,43.87440198330147,-1.2618157382704183,0.7875842133333333,-0.16306962666666663,0.43911763999999986,1.3897714799999998,0.9163541335053065,0.954586449837567,0.9817698891867076,0.9817698891867076
LBP03_S01,LBP03,-1578,73,1,72,-1578,1715717313.88,2024-05-14 20:08:33.880000+00:00,2024-05-15 05:08:33.880000+09:00,2024,5,14,20,8,33,880,,,,,,,,,-0.617432,-0.003906,-0.240723,122.131348,243.408203,-74.890137,,,,,,,,,,,0.0,1.0,1.0,1.0,0.0,0.0,0.0,4.0,0.0,0.03664382666666667,-0.1537174,0.9989647866666667,1.0611979066666648,-8.912760373333334,0.07731123999999985,-14.093851819131412,5.243066567179074,1.325557024175915,34.15745011094479,0.32703078445689293,26.639805329508413,43.318790094020045,-1.3342795616218623,43.471794285457804,-1.2596043012854707,-0.6540758266666666,0.1498114,-1.2396877866666667,2.0435750133333332,1.4096398302439324,0.9908834993758397,0.993655165327186,0.993655165327186
LBP03_S01,LBP03,-1577,74,1,73,-1577,1715717313.92,2024-05-14 20:08:33.920000+00:00,2024-05-15 05:08:33.920000+09:00,2024,5,14,20,8,33,920,,,,,,,,,0.00415,0.018555,0.096191,64.697266,-131.408691,-65.368652,,,,,,,,,,,0.0,1.0,1.0,1.0,0.0,0.0,0.0,4.0,0.0,0.05561192000000001,-0.14419590666666668,0.9855045066666668,1.7822265466666647,-7.753906200000001,-0.046386680000000145,-16.620451731609567,3.497146815241309,3.6155389855976887,33.4926320416804,0.4669166570665453,26.78442688893232,42.88799291191654,-1.1996725590635888,43.058913907919326,-1.269928611419307,-0.05146192000000001,0.16275090666666667,-0.8893135066666668,1.1035263333333334,0.9055466304783382,0.9852209324255509,0.9912738535745144,0.9912738535745144
LBP03_S01,LBP03,-1576,75,1,74,-1576,1715717313.96,2024-05-14 20:08:33.960000+00:00,2024-05-15 05:08:33.960000+09:00,2024,5,14,20,8,33,960,,,,,,,,,0.421631,0.281494,0.630615,45.349121,-56.45752,-30.944824,,,,,,,,,,,0.0,1.0,1.0,1.0,0.0,0.0,0.0,4.0,0.0,0.05070306666666667,-0.13458002666666669,0.9738736533333332,1.2923176933333316,-2.8914387466666676,0.44026696,-19.85601128216463,1.500680573137048,6.434859397224763,32.69839159039382,0.5269438799920272,27.04182126482131,42.43492170099929,-1.207809928136537,42.64812421992751,-1.2724183379766727,0.3709279333333333,0.4160740266666667,-0.34325865333333316,1.1302606133333333,0.6546232737092115,0.9651775029544456,0.9824146277885853,0.9824146277885853
LBP03_S01,LBP03,-1575,76,1,75,-1575,1715717314.0,2024-05-14 20:08:34+00:00,2024-05-15 05:08:34+09:00,2024,5,14,20,8,34,0,20.0,8.0,33.0,40.604645,141.563248,0.212,3.0,12.0,0.44043,-0.103027,1.317139,-68.359375,47.180176,30.334473,-307.0,31.0,368.0,623.0,0.0,1015.0,16.58,0.01982,-14.55122,4.05,0.0,1.0,1.0,1.0,0.0,0.0,0.0,5.0,0.0,0.04233718666666668,-0.14465816,0.9906737866666666,-2.817382840000002,-6.923828066666668,0.9635416933333333,-22.698942907308172,-0.2421764027461641,8.95211762910493,31.790433874101492,0.5172568238821806,27.399905969985507,41.97206318123425,-1.2834689025465151,42.25193207191081,-1.2756668656564565,0.3980928133333333,0.041631160000000014,0.32646521333333345,0.7661891866666668,0.5165177412513269,0.9455112792455367,0.9704685537748095,0.9704685537748095
LBP03_S01,LBP03,-1574,77,1,76,-1574,1715717314.04,2024-05-14 20:08:34.040000+00:00,2024-05-15 05:08:34.040000+09:00,2024,5,14,20,8,34,40,,,,,,,,,-0.42627,-0.003906,1.483154,-139.404297,125.732422,58.044434,,,,,,,,,,,0.0,1.0,1.0,1.0,0.0,0.0,0.0,5.0,0.0,0.05410802666666666,-0.14936844000000002,1.0206835466666666,-3.6295573200000013,-7.893880160000002,3.3504232000000003,-23.81012522162314,-1.3148583750602065,10.211721102757146,30.838028865236566,0.46466248887977235,27.808374814095792,41.52716755719047,-1.2203005884303133,41.882843067216314,-1.2709068363923453,-0.4803780266666666,0.14546244000000003,0.4624704533333335,1.08831092,0.682496366408828,0.9063751801958218,0.9632692490906599,0.9632692490906599
LBP03_S01,LBP03,-1573,78,1,77,-1573,1715717314.08,2024-05-14 20:08:34.080000+00:00,2024-05-15 05:08:34.080000+09:00,2024,5,14,20,8,34,80,,,,,,,,,-0.876953,-0.922607,2.016113,-168.701172,-163.330078,63.598633,,,,,,,,,,,0.0,1.0,1.0,1.0,0.0,0.0,0.0,5.0,0.0,0.047138626666666676,-0.15636062666666667,1.022679,-4.383951853333334,-3.569335893333335,4.120279973333334,-22.22318163689857,-1.5352976697097884,9.538416944324743,29.949101599760624,0.4032505820913808,28.18991149186878,41.13128259104178,-1.2750756416801683,41.55549490523249,-1.2582563362187056,-0.9240916266666667,-0.7662463733333333,0.9934339999999999,2.6837720000000003,1.5582008700671206,0.9311013534197028,0.9777797764315493,0.9777797764315493
LBP03_S01,LBP03,-1572,79,1,78,-1572,1715717314.12,2024-05-14 20:08:34.120000+00:00,2024-05-15 05:08:34.120000+09:00,2024,5,14,20,8,34,120,,,,,,,,,0.844727,0.068604,1.130127,-34.118652,-150.57373,59.265137,,,,,,,,,,,0.0,1.0,1.0,1.0,0.0,0.0,0.0,5.0,0.0,0.03382156000000001,-0.15516272,0.9998404533333333,-1.782226600000002,-3.518066360000002,2.484537786666667,-17.75968456384227,-1.0383866129636634,6.866834394873474,29.238714217206933,0.36171511757283425,28.46458486766372,40.80766886983634,-1.3538093686313697,41.2891244756742,-1.244807445004637,0.81090544,0.22376672,0.13028654666666684,1.164958706666667,0.8512424812258124,0.9391658081667427,0.9747669836885555,0.9747669836885555
LBP03_S01,LBP03,-1571,80,1,79,-1571,1715717314.16,2024-05-14 20:08:34.160000+00:00,2024-05-15 05:08:34.160000+09:00,2024,5,14,20,8,34,160,,,,,,,,,0.017578,-0.239258,0.31543,107.910156,274.108887,-14.465332,,,,,,,,,,,0.0,1.0,1.0,1.0,0.0,0.0,0.0,5.0,0.0,0.04263014666666667,-0.1505468266666667,0.9803808133333333,1.2410481466666647,-7.231445266666668,0.8447265866666667,-11.012545577265396,-0.2457944220374185,2.8139593181544664,28.798212394116316,0.35188334069133753,28.577143240389898,40.572330161870816,-1.2920315833236944,41.10789964459501,-1.2468600137879697,-0.025052146666666667,-0.08871117333333331,-0.6649508133333333,0.7787141333333333,0.6713098140794951,0.9430236715982465,0.967709840209275,0.967709840209275
LBP03_S01,LBP03,-1570,81,1,80,-1570,1715717314.2,2024-05-14 20:08:34.200000+00:00,2024-05-15 05:08:34.200000+09:00,2024,5,14,20,8,34,200,,,,,,,,,-0.292725,0.280029,-0.059082,196.960449,-30.700684,-50.842285,,,,,,,,,,,0.0,1.0,1.0,1.0,0.0,0.0,0.0,5.0,0.0,0.05703118666666667,-0.14410477333333335,0.9625650533333334,-0.04720056000000189,-5.651041626666668,0.3336588799999999,-2.954465972029988,0.28731179307651583,-1.5519652264802626,28.680033755235115,0.36337581241439815,28.515064631330688,40.44484255268451,-1.1907452934046199,41.037779449999036,-1.251734733409,-0.3497561866666667,0.42413377333333335,-1.0216470533333335,1.7955370133333335,1.1601644492821968,0.95543191863607,0.972083808597296,0.972083808597296
LBP03_S01,LBP03,-1569,82,1,81,-1569,1715717314.24,2024-05-14 20:08:34.240000+00:00,2024-05-15 05:08:34.240000+09:00,2024,5,14,20,8,34,240,,,,,,,,,0.254395,0.389893,0.426758,12.207031,-85.205078,-86.669922,,,,,,,,,,,0.0,1.0,1.0,1.0,0.0,0.0,0.0,5.0,0.0,0.04701817333333334,-0.13172846666666668,0.9586262533333333,-0.9790039466666686,-3.5807291200000018,0.41259767999999997,5.518918203684473,0.07396842177770174,-5.128900453322383,28.900790483382494,0.36633454928550624,28.30990861319779,40.45788943153094,-1.2253699353483882,41.10069056535335,-1.2562023395196624,0.20737682666666665,0.5216214666666666,-0.5318682533333332,1.2608665466666666,0.7732903346283799,0.935991022991565,0.9676661758424312,0.9676661758424312
LBP03_S01,LBP03,-1568,83,1,82,-1568,1715717314.28,2024-05-14 20:08:34.280000+00:00,2024-05-15 05:08:34.280000+09:00,2024,5,14,20,8,34,280,,,,,,,,,0.565674,-0.148926,1.38623,-87.280273,9.094238,-39.550781,,,,,,,,,,,0.0,1.0,1.0,1.0,0.0,0.0,0.0,5.0,0.0,0.053538360000000014,-0.13876296000000002,0.9913313333333333,-5.813802120000002,-8.153483026666668,2.44547528,13.78881579021355,-1.1636039182678135,-7.170622668140599,29.452343114991034,0.3197903925547937,28.023083706472168,40.65508579843703,-1.1997906494811743,41.308636967964844,-1.258034543637043,0.51213564,-0.010163039999999984,0.39489866666666673,0.9171973466666667,0.6467852488077959,0.9255378120144704,0.9606905035155913,0.9606905035155913
LBP03_S01,LBP03,-1567,84,1,83,-1567,1715717314.32,2024-05-14 20:08:34.320000+00:00,2024-05-15 05:08:34.320000+09:00,2024,5,14,20,8,34,320,,,,,,,,,-0.165283,-0.164795,1.793945,-95.275879,97.106934,54.6875,,,,,,,,,,,0.0,1.0,1.0,1.0,0.0,0.0,0.0,5.0,0.0,0.05505202666666667,-0.15198561333333335,1.0169075066666666,-7.6497396133333355,-7.697753866666669,4.14713544,21.3752477673255,-3.458215514331219,-7.464449066491425,30.307353025684055,0.18146177198154492,27.72450574381251,41.07574460112469,-1.2201982468969177,41.66054213660682,-1.2468528246182864,-0.22033502666666668,-0.012809386666666644,0.7770374933333333,1.0101819066666666,0.8077740218704281,0.9024417139473296,0.9574369613529282,0.9574369613529282
LBP03_S01,LBP03,-1566,85,1,84,-1566,1715717314.36,2024-05-14 20:08:34.360000+00:00,2024-05-15 05:08:34.360000+09:00,2024,5,14,20,8,34,360,,,,,,,,,-0.713379,-0.975098,1.978516,-52.429199,-120.666504,35.15625,,,,,,,,,,,0.0,1.0,1.0,1.0,0.0,0.0,0.0,5.0,0.0,0.05182285333333334,-0.16122064000000003,1.02054032,-7.611490920000002,-5.1293944933333355,4.937337266666667,27.67207606140111,-6.635242163663494,-6.252901000898148,31.4142360681401,-0.08394791456499487,27.474389703776584,41.73371975503955,-1.2565571243468403,42.14285754221597,-1.2326305376323043,-0.7652018533333333,-0.81387736,0.9579756799999999,2.537054893333333,1.4716139564902204,0.9260276302239919,0.9681489820849553,0.9681489820849553
LBP03_S01,LBP03,-1565,86,1,85,-1565,1715717314.4,2024-05-14 20:08:34.400000+00:00,2024-05-15 05:08:34.400000+09:00,2024,5,14,20,8,34,400,,,,,,,,,0.772949,-0.294434,1.733154,33.691406,-109.802246,58.47168,,,,,,,,,,,0.0,1.0,1.0,1.0,0.0,0.0,0.0,5.0,0.0,0.03997064000000001,-0.16349929333333332,0.9982714400000001,-4.952799520000003,-5.066731733333335,2.8499349200000004,31.863252640127087,-10.372761345776564,-4.009209411737826,32.68876617374518,-0.49885836839605746,27.31402132730707,42.60117433477733,-1.328144963653138,42.73263059273491,-1.2254322438065477,0.7329783599999999,-0.13093470666666665,0.73488256,1.5987956266666665,1.0461613406307506,0.9447237199906015,0.9697410710348693,0.9697410710348693
LBP03_S01,LBP03,-1564,87,1,86,-1564,1715717314.44,2024-05-14 20:08:34.440000+00:00,2024-05-15 05:08:34.440000+09:00,2024,5,14,20,8,34,440,,,,,,,,,-0.262695,0.148926,0.063965,204.345703,256.530762,-25.695801,,,,,,,,,,,0.0,1.0,1.0,1.0,0.0,0.0,0.0,5.0,0.0,0.05328444,-0.15619786666666668,0.9767903199999999,-0.7902018666666694,-7.145182253333336,1.1588541866666668,33.163048731882114,-14.251813775685005,-1.236695185154876,34.01528812302046,-1.0689309194234577,27.264553519900876,43.606631583305486,-1.2386226296041214,43.4007213683064,-1.2274821711385118,-0.31597944,0.3051238666666667,-0.9128253199999998,1.5339286266666665,1.0130121644607402,0.9611335990367974,0.9706064929033867,0.9706064929033867
LBP03_S01,LBP03,-1563,88,1,87,-1563,1715717314.48,2024-05-14 20:08:34.480000+00:00,2024-05-15 05:08:34.480000+09:00,2024,5,14,20,8,34,480,,,,,,,,,-0.224854,0.007568,-0.140137,107.666016,-113.15918,-76.599121,,,,,,,,,,,0.0,1.0,1.0,1.0,0.0,0.0,0.0,5.0,0.0,0.06190748000000001,-0.14472001333333334,0.9604589466666666,-1.1499023866666696,-4.953613240000002,0.3198242400000001,31.241442140500727,-17.79918459855435,1.6066376890308165,35.26494580864049,-1.7808983033656318,27.328819027462107,44.65033427746153,-1.1632584514926003,44.11376451548328,-1.2297695303832499,-0.28676148,0.15228801333333333,-1.1005959466666666,1.53964544,1.147490837974709,0.9760272593682964,0.987027590923858,0.9740748133949814
LBP03_S01,LBP03,-1562,89,1,88,-1562,1715717314.52,2024-05-14 20:08:34.520000+00:00,2024-05-15 05:08:34.520000+09:00,2024,5,14,20,8,34,520,,,,,,,,,0.498291,0.054199,0.673096,63.293457,-123.291016,-25.878906,,,,,,,,,,,0.0,1.0,1.0,1.0,0.0,0.0,0.0,5.0,0.0,0.052451093333333344,-0.14097001333333334,0.9602506133333333,-2.3453776533333364,-3.1046549066666684,0.12613933333333344,26.52259866875519,-20.555852566727634,4.087834918490733,36.3258497553907,-2.603132406034737,27.492332424201734,45.63082292592783,-1.2115864987715483,44.835203528391304,-1.2416581739580206,0.4458399066666666,0.19516901333333334,-0.28715461333333325,0.9281635333333332,0.5650857794181915,0.9400409290009047,0.9746098634630183,0.9662096396646584
LBP03_S01,LBP03,-1561,90,1,89,-1561,1715717314.56,2024-05-14 20:08:34.560000+00:00,2024-05-15 05:08:34.560000+09:00,2024,5,14,20,8,34,560,,,,,,,,,0.518555,0.23877,1.194092,-38.085938,8.544922,5.79834,,,,,,,,,,,0.0,1.0,1.0,1.0,0.0,0.0,0.0,5.0,0.0,0.05403638666666667,-0.14913406666666668,0.9902441066666665,-6.704101600000003,-7.359212200000002,1.5445963600000001,20.111174597700604,-22.182169054004532,5.7936734502331415,37.13029673929872,-3.490419168194918,27.72407936221106,46.47006066706022,-1.2200486450661294,45.52682731346788,-1.2431387630534174,0.46451861333333333,0.38790406666666666,0.20384789333333342,1.0562705733333333,0.6385930399605829,0.930846042912641,0.9707189514320997,0.9600281943872231
LBP03_S01,LBP03,-1560,91,1,90,-1560,1715717314.6,2024-05-14 20:08:34.600000+00:00,2024-05-15 05:08:34.600000+09:00,2024,5,14,20,8,34,600,,,,,,,,,-0.088623,-0.204834,1.650146,-147.460938,64.63623,70.556641,,,,,,,,,,,0.0,1.0,1.0,1.0,0.0,0.0,0.0,5.0,0.0,0.05894198666666667,-0.15844070666666668,1.0141536133333333,-7.977701853333336,-7.6668294,3.150227866666667,13.355975902434476,-22.5518079906579,6.4179877302555735,37.664535775396104,-4.392491487821234,27.980798871421285,47.1257503083994,-1.2112445667242586,46.15203391389768,-1.2320658385871264,-0.14756498666666668,-0.04639329333333331,0.6359923866666666,0.8299506666666665,0.6545334818435257,0.9065274228527213,0.967078610947941,0.9543708848956731
LBP03_S01,LBP03,-1559,92,1,91,-1559,1715717314.64,2024-05-14 20:08:34.640000+00:00,2024-05-15 05:08:34.640000+09:00,2024,5,14,20,8,34,640,,,,,,,,,-0.291992,-0.58374,1.904053,-42.84668,-131.896973,35.827637,,,,,,,,,,,0.0,1.0,1.0,1.0,0.0,0.0,0.0,5.0,0.0,0.05389316000000001,-0.16309565333333334,1.0125618266666667,-6.954752626666668,-4.463704400000001,3.548990893333334,7.3121382934000625,-21.77543177930352,5.909106608142632,37.95702130713211,-5.263508758993375,28.21716313574699,47.58832090329979,-1.2482435277957706,46.68079602751044,-1.2154670278399224,-0.34588515999999997,-0.4206443466666667,0.8914911733333333,1.65802068,1.0446696714378645,0.9106146070322894,0.9662856919211079,0.956012681014622
LBP03_S01,LBP03,-1558,93,1,92,-1558,1715717314.68,2024-05-14 20:08:34.680000+00:00,2024-05-15 05:08:34.680000+09:00,2024,5,14,20,8,34,680,,,,,,,,,0.676758,-0.55957,1.640869,20.507812,-54.504395,49.743652,,,,,,,,,,,0.0,1.0,1.0,1.0,0.0,0.0,0.0,5.0,0.0,0.041835866666666666,-0.16448237333333335,0.9907291466666667,-5.134277373333337,-5.2758788800000005,1.6357421866666668,2.4278940431095473,-20.144361799735478,4.55911630657183,38.05413706885649,-6.069283230982794,28.399527788009863,47.86947592751722,-1.3186770852288803,47.094828248516386,-1.206258807946162,0.6349221333333332,-0.39508762666666664,0.6501398533333332,1.6801496133333331,0.9909097723980416,0.920259766261664,0.9551583088970946,0.9566358433607546
LBP03_S01,LBP03,-1557,94,1,93,-1557,1715717314.72,2024-05-14 20:08:34.720000+00:00,2024-05-15 05:08:34.720000+09:00,2024,5,14,20,8,34,720,,,,,,,,,-0.332275,-0.003906,0.116699,88.806152,208.496094,-32.409668,,,,,,,,,,,0.0,1.0,1.0,1.0,0.0,0.0,0.0,5.0,0.0,0.05573561333333333,-0.1616243066666667,0.9718489466666667,-1.6487630400000028,-8.484700493333333,0.05940756000000012,-1.3819278277432712,-18.03090564879253,2.9309220440257615,37.99885995574676,-6.790519456934495,28.516764669770893,47.99198245189038,-1.2350041378508876,47.39071172151025,-1.2064773022751285,-0.3880106133333333,0.1577183066666667,-0.8551499466666667,1.4008788666666665,0.9522125453915806,0.9340915660683933,0.9482096179083271,0.9565582416419971
LBP03_S01,LBP03,-1556,95,1,94,-1556,1715717314.76,2024-05-14 20:08:34.760000+00:00,2024-05-15 05:08:34.760000+09:00,2024,5,14,20,8,34,760,,,,,,,,,-0.094727,0.126221,-0.129639,97.045898,-132.751465,-64.941406,,,,,,,,,,,0.0,1.0,1.0,1.0,0.0,0.0,0.0,5.0,0.0,0.06816074666666667,-0.15212886666666667,0.9548828000000001,-1.3053385600000027,-6.675618466666667,-0.7307942666666665,-4.381414679871359,-15.800473049011085,1.6247006548747547,37.82360336855191,-7.422538378894939,28.581752695965882,47.98578575933765,-1.1458278796839287,47.57936111663529,-1.2039242787718292,-0.16288774666666667,0.27834986666666667,-1.0845218,1.5257594133333334,1.1314586165488933,0.9441494664868862,0.9345184623360723,0.9595737653472883
LBP03_S01,LBP03,-1555,96,1,95,-1555,1715717314.8,2024-05-14 20:08:34.800000+00:00,2024-05-15 05:08:34.800000+09:00,2024,5,14,20,8,34,800,,,,,,,,,0.370117,0.21582,0.366455,36.804199,-85.021973,-55.297852,,,,,,,,,,,0.0,1.0,1.0,1.0,0.0,0.0,0.0,5.0,0.0,0.06306309333333333,-0.14704098666666668,0.9523502533333332,-1.6503906533333361,-4.846191386666668,-1.2622070266666665,-6.661065982795903,-13.780623167165803,1.00470836568235,37.557160729240074,-7.973763305581571,28.621941030593177,47.88879547090494,-1.162156856181099,47.681988423020826,-1.207923614253595,0.30705390666666665,0.36286098666666666,-0.5858952533333333,1.2558101466666667,0.7544689822136491,0.9185662153730769,0.9340513297359895,0.9560974130907861
LBP03_S01,LBP03,-1554,97,1,96,-1554,1715717314.84,2024-05-14 20:08:34.840000+00:00,2024-05-15 05:08:34.840000+09:00,2024,5,14,20,8,34,840,,,,,,,,,0.632812,-0.143311,1.136475,-69.396973,-30.639648,8.544922,,,,,,,,,,,0.0,1.0,1.0,1.0,0.0,0.0,0.0,5.0,0.0,0.06756178666666666,-0.15098954666666667,0.9777441333333333,-4.624023466666669,-7.049967426666667,0.5110677200000002,-8.038096994317085,-12.278641926653432,1.051197265661007,37.23563684946739,-8.464908982647708,28.663988921219616,47.746953793364916,-1.1465404306665183,47.724433385754885,-1.2081950642402774,0.5652502133333334,0.007678546666666675,0.15873086666666658,0.7316596266666666,0.5871645866237525,0.9053986334978147,0.9299925416676907,0.9499485326496688
LBP03_S01,LBP03,-1553,98,1,97,-1553,1715717314.88,2024-05-14 20:08:34.880000+00:00,2024-05-15 05:08:34.880000+09:00,2024,5,14,20,8,34,880,,,,,,,,,-0.03418,0.027832,1.469971,-111.755371,122.131348,62.37793,,,,,,,,,,,0.0,1.0,1.0,1.0,0.0,0.0,0.0,5.0,0.0,0.06671868000000002,-0.15703446666666668,1.0002050666666669,-5.535481800000002,-6.837565080000001,2.0019531466666667,-8.254900010999853,-11.582201316758571,1.430876514485737,36.90544084902739,-8.928197035318052,28.721223981799046,47.60916900740015,-1.1654433947822656,47.732160812298645,-1.1952207038311424,-0.10089868000000002,0.18486646666666667,0.46976593333333305,0.7555310799999997,0.5148166530368823,0.8696057064095326,0.9302446028926862,0.9428152231478198
LBP03_S01,LBP03,-1552,99,1,98,-1552,1715717314.92,2024-05-14 20:08:34.920000+00:00,2024-05-15 05:08:34.920000+09:00,2024,5,14,20,8,34,920,,,,,,,,,-0.360352,-0.727539,2.039795,-78.857422,-112.243652,31.25,,,,,,,,,,,0.0,1.0,1.0,1.0,0.0,0.0,0.0,5.0,0.0,0.06565422666666668,-0.16393225333333336,1.0057519466666667,-5.399576853333336,-3.8720702800000013,2.74169924,-7.296045602555584,-11.89259612109414,1.7377737374719682,36.61359902492517,-9.403900880161817,28.790734931297923,47.517316877178246,-1.1860562637385546,47.72721709949359,-1.175569620348024,-0.42600622666666665,-0.5636067466666667,1.0340430533333331,2.0236560266666666,1.2523493546905662,0.8834778153780217,0.9343493739017863,0.9478077091404449
LBP03_S01,LBP03,-1551,100,1,99,-1551,1715717314.96,2024-05-14 20:08:34.960000+00:00,2024-05-15 05:08:34.960000+09:00,2024,5,14,20,8,34,960,,,,,,,,,0.472168,-0.547607,1.858398,-7.202148,-92.163086,56.70166,,,,,,,,,,,0.0,1.0,1.0,1.0,0.0,0.0,0.0,5.0,0.0,0.05146802666666667,-0.16219722666666667,0.9841341066666667,-2.1948242400000026,-1.8367512666666672,1.2727864800000002,-5.560459956508126,-13.210774940846433,1.745865118848519,36.39118062666485,-9.932331877795674,28.860569536051862,47.496333730915566,-1.260041999883786,47.72695567892446,-1.1662961223500854,0.4206999733333333,-0.38540977333333326,0.8742638933333333,1.68037364,1.0439667217540398,0.8990515532998148,0.9321145281271304,0.949334042673994
LBP03_S01,LBP03,-1550,101,1,100,-1550,1715717315.0,2024-05-14 20:08:35+00:00,2024-05-15 05:08:35+09:00,2024,5,14,20,8,35,0,20.0,8.0,34.0,40.604557,141.563232,-0.124,3.0,12.0,-0.164062,-0.094238,0.318604,86.181641,240.112305,-7.93457,-308.0,32.0,369.0,347.0,0.0,1015.5,16.66,0.024774,-18.704979,4.05,0.0,1.0,1.0,1.0,0.0,0.0,0.0,4.0,0.0,0.05962558666666666,-0.16186194666666665,0.9663020800000001,0.40852861333333046,-5.101725213333334,-0.3670247199999999,-3.738822732259441,-15.243028177409062,1.5137057190034133,36.24162771737447,-10.542053004892036,28.921117764812,47.55019993573995,-1.2139590665910833,47.74348793417174,-1.1688645614308957,-0.22368758666666666,0.06762394666666664,-0.6476980800000001,0.9390096133333334,0.6885651294011483,0.9059334488258078,0.9257223640356723,0.9452595284041058
LBP03_S01,LBP03,-1549,102,1,101,-1549,1715717315.04,2024-05-14 20:08:35.040000+00:00,2024-05-15 05:08:35.040000+09:00,2024,5,14,20,8,35,40,,,,,,,,,-0.28125,0.108398,-0.200195,88.562012,-88.012695,-68.115234,,,,,,,,,,,0.0,1.0,1.0,1.0,0.0,0.0,0.0,4.0,0.0,0.07212233333333334,-0.14984046666666667,0.9488639333333333,0.7934569999999972,-3.160807253333334,-1.060384093333333,-2.4692038477206215,-17.397543549128017,1.2868348575430644,36.14285956346565,-11.237954746857158,28.972591159113723,47.66559516873742,-1.1184999237044206,47.78299396709727,-1.171131122500983,-0.35337233333333334,0.25823846666666667,-1.1490589333333334,1.7606697333333334,1.229591616718711,0.9278172588382031,0.9170962195170124,0.9496338682243304
LBP03_S01,LBP03,-1548,103,1,102,-1548,1715717315.08,2024-05-14 20:08:35.080000+00:00,2024-05-15 05:08:35.080000+09:00,2024,5,14,20,8,35,80,,,,,,,,,0.321289,0.203369,0.401123,56.45752,-127.502441,-73.486328,,,,,,,,,,,0.0,1.0,1.0,1.0,0.0,0.0,0.0,4.0,0.0,0.06842766666666668,-0.1433984,0.94743816,0.5704752266666637,-2.023111933333334,-1.1848958133333334,-2.0113304687811504,-18.918155534474767,1.2826420662913414,36.062406344714404,-11.994680968236148,29.023896841765378,47.820038799466715,-1.1221662503976964,47.84486504393571,-1.1824938175558206,0.2528613333333333,0.3467674,-0.54631516,1.1459438933333335,0.694727815510288,0.8932783366559299,0.9121898450378163,0.9457716553044208
LBP03_S01,LBP03,-1547,104,1,103,-1547,1715717315.12,2024-05-14 20:08:35.120000+00:00,2024-05-15 05:08:35.120000+09:00,2024,5,14,20,8,35,120,,,,,,,,,0.575684,-0.080322,0.895264,-64.147949,-45.776367,3.295898,,,,,,,,,,,0.0,1.0,1.0,1.0,0.0,0.0,0.0,4.0,0.0,0.06855462666666666,-0.15149410666666668,0.9733886800000001,-2.8955078533333367,-4.506835893333333,0.26285809333333343,-2.170008397480682,-19.129713432895784,1.5205917162989389,35.97560600881518,-12.759869505551979,29.084720510417334,47.98936824619912,-1.1422691578715019,47.921402042907204,-1.1867228507968097,0.5071293733333333,0.07117210666666668,-0.07812468000000017,0.6564261600000001,0.5180242616807954,0.8799496078741291,0.9095577080204359,0.9393873658473516
LBP03_S01,LBP03,-1546,105,1,104,-1546,1715717315.16,2024-05-14 20:08:35.160000+00:00,2024-05-15 05:08:35.160000+09:00,2024,5,14,20,8,35,160,,,,,,,,,0.286865,-0.140625,1.390869,-85.876465,87.341309,75.317383,,,,,,,,,,,0.0,1.0,1.0,1.0,0.0,0.0,0.0,4.0,0.0,0.06641596,-0.15903968000000002,0.9971517066666666,-3.999023480000003,-4.619954386666667,1.3444010666666668,-2.519451722076049,-17.682760325410218,1.8200062854512669,35.87482793993213,-13.467179918568387,29.157520761835386,48.15110831181031,-1.1715122704920307,47.99885936913919,-1.179753673222174,0.22044903999999999,0.018414680000000017,0.3937172933333333,0.6325810133333333,0.4516084440598404,0.8711615530733431,0.9070926123357949,0.9322141464093
LBP03_S01,LBP03,-1545,106,1,105,-1545,1715717315.2,2024-05-14 20:08:35.200000+00:00,2024-05-15 05:08:35.200000+09:00,2024,5,14,20,8,35,200,,,,,,,,,-0.703857,-0.576172,1.719238,-95.092773,-44.921875,36.987305,,,,,,,,,,,0.0,1.0,1.0,1.0,0.0,0.0,0.0,4.0,0.0,0.06725579999999999,-0.16741858666666667,1.0042545733333332,-3.341471400000003,-2.0841471066666664,2.14680992,-2.763723096816179,-14.676523297397981,1.9541547344132522,35.76427901605948,-14.054240850464307,29.235686951211918,48.28385580016032,-1.1848224668819733,48.0599712536269,-1.1675164819460475,-0.7711127999999999,-0.40875341333333337,0.7149834266666668,1.8948496400000001,1.128226751873709,0.8698840451770035,0.9126579819065367,0.9350549088073349
LBP03_S01,LBP03,-1544,107,1,106,-1544,1715717315.24,2024-05-14 20:08:35.240000+00:00,2024-05-15 05:08:35.240000+09:00,2024,5,14,20,8,35,240,,,,,,,,,0.320068,-0.404053,1.946045,5.92041,-172.180176,37.780762,,,,,,,,,,,0.0,1.0,1.0,1.0,0.0,0.0,0.0,4.0,0.0,0.05179681333333334,-0.16333981333333333,0.98202476,-0.22379561333333603,-0.9122721066666668,0.22379560000000026,-2.9723668524501656,-10.616510276974148,1.827717221706998,35.645384341961474,-14.478901261543273,29.3087956400802,48.365664561749334,-1.2601673812148921,48.08724908066473,-1.1611222760747375,0.26827118666666666,-0.24071318666666666,0.96402024,1.4730046133333334,1.0291974013572034,0.8801203278461562,0.9080556754188608,0.9363998015580474
LBP03_S01,LBP03,-1543,108,1,107,-1543,1715717315.28,2024-05-14 20:08:35.280000+00:00,2024-05-15 05:08:35.280000+09:00,2024,5,14,20,8,35,280,,,,,,,,,0.283936,-0.333496,0.769775,41.809082,174.499512,0.488281,,,,,,,,,,,0.0,1.0,1.0,1.0,0.0,0.0,0.0,4.0,0.0,0.061503840000000004,-0.16388994666666667,0.9623372533333334,2.2892252133333306,-4.21793616,-1.3826497066666665,-3.5235133716899707,-6.239249513224733,1.5325468573149903,35.50444380709388,-14.728471242072262,29.370097514372798,48.37453899711504,-1.2077337271921573,48.06590079311573,-1.1652601261344115,0.22243216000000002,-0.16960605333333334,-0.19256225333333343,0.5846004666666668,0.3395916673571158,0.8678325845881291,0.8966851983012997,0.9279940531890202
LBP03_S01,LBP03,-1542,109,1,108,-1542,1715717315.32,2024-05-14 20:08:35.320000+00:00,2024-05-15 05:08:35.320000+09:00,2024,5,14,20,8,35,320,,,,,,,,,-0.581787,0.128174,-0.420654,116.516113,84.106445,-92.773438,,,,,,,,,,,0.0,1.0,1.0,1.0,0.0,0.0,0.0,4.0,0.0,0.07350905333333334,-0.15194333333333332,0.9447623866666667,2.970377559999997,-2.6155598666666666,-1.9978840799999997,-4.799931208718988,-2.2778004517482415,1.2396267124357092,35.312446558745116,-14.819583260142192,29.419682582870227,48.2918901394981,-1.1163644879921977,47.98547789342323,-1.1700447923624302,-0.6552960533333334,0.28011733333333333,-1.3654163866666666,2.3008297733333336,1.5402079557403527,0.8971299419429262,0.8997858279451278,0.9364970240577887
LBP03_S01,LBP03,-1541,110,1,109,-1541,1715717315.36,2024-05-14 20:08:35.360000+00:00,2024-05-15 05:08:35.360000+09:00,2024,5,14,20,8,35,360,,,,,,,,,0.324219,0.017578,0.208496,45.349121,-131.04248,-54.626465,,,,,,,,,,,0.0,1.0,1.0,1.0,0.0,0.0,0.0,4.0,0.0,0.06723953333333334,-0.14679033333333336,0.9427083599999999,2.224934853333331,-1.1678059600000001,-1.8546549066666667,-6.863264696279657,0.7328599842169359,1.0197245288785992,35.03791597089393,-14.790268860773514,29.460471564025372,48.107452575792635,-1.137670087122522,47.84013145460864,-1.1797133252575371,0.25697946666666666,0.16436833333333337,-0.7342123599999999,1.1555601599999998,0.7950617490911204,0.8700678536469623,0.8980477419354771,0.9345595545376973
LBP03_S01,LBP03,-1540,111,1,110,-1540,1715717315.4,2024-05-14 20:08:35.400000+00:00,2024-05-15 05:08:35.400000+09:00,2024,5,14,20,8,35,400,,,,,,,,,0.517822,0.004639,0.913086,-26.855469,-30.578613,4.272461,,,,,,,,,,,0.0,1.0,1.0,1.0,0.0,0.0,0.0,4.0,0.0,0.06904292000000001,-0.15586910666666667,0.96968428,-1.376139373333336,-5.053710906666667,-0.1513671466666666,-9.350272607094741,2.5316534623482183,0.7483960870536229,34.663905066610134,-14.689002722279586,29.49040740750752,47.82297820611836,-1.1500170078779837,47.62811527719677,-1.1809786889153029,0.44877908,0.16050810666666668,-0.05659828,0.6658854666666667,0.4799675824994047,0.8474201033217084,0.8960719116561549,0.928416419780423
LBP03_S01,LBP03,-1539,112,1,111,-1539,1715717315.44,2024-05-14 20:08:35.440000+00:00,2024-05-15 05:08:35.440000+09:00,2024,5,14,20,8,35,440,,,,,,,,,0.201416,0.193115,1.398926,-95.092773,87.463379,82.397461,,,,,,,,,,,0.0,1.0,1.0,1.0,0.0,0.0,0.0,4.0,0.0,0.06909174666666668,-0.16023109333333332,0.9931999066666667,-1.5755208933333362,-4.71354164,1.37695316,-11.676430069123265,3.0952091793042347,0.19052107423329542,34.19684786384521,-14.565194355107417,29.49802825047685,47.45211229324737,-1.1598784243011602,47.35136840016936,-1.1691234106795585,0.13232425333333334,0.35334609333333333,0.4057260933333332,0.8913964399999998,0.5540549002632154,0.8290618127538073,0.8950977058953024,0.923424932853527
LBP03_S01,LBP03,-1538,113,1,112,-1538,1715717315.48,2024-05-14 20:08:35.480000+00:00,2024-05-15 05:08:35.480000+09:00,2024,5,14,20,8,35,480,,,,,,,,,-0.611328,-0.851807,1.843994,-191.223145,-39.245605,31.677246,,,,,,,,,,,0.0,1.0,1.0,1.0,0.0,0.0,0.0,4.0,0.0,0.07051752,-0.16835284,0.99923832,-1.0970052666666692,-1.7976887733333335,2.2989909200000005,-13.404732900688082,2.5688732905748752,-0.7841078954809526,33.66065854781768,-14.462439423484422,29.46666393465761,47.01580980254174,-1.1700129126778822,47.01556685626555,-1.1527621541784216,-0.68184552,-0.6834541599999999,0.8447556799999999,2.2100553599999997,1.2828230824465383,0.8344751025326805,0.9052511809504885,0.9361767614601322
LBP03_S01,LBP03,-1537,114,1,113,-1537,1715717315.52,2024-05-14 20:08:35.520000+00:00,2024-05-15 05:08:35.520000+09:00,2024,5,14,20,8,35,520,,,,,,,,,0.273682,-0.339355,1.910156,34.484863,-132.263184,41.809082,,,,,,,,,,,0.0,1.0,1.0,1.0,0.0,0.0,0.0,4.0,0.0,0.05649733333333335,-0.16602862666666668,0.9776269866666667,1.523437439999997,-0.2832030933333332,0.6559245066666667,-14.50519677603309,1.2326296992450965,-2.0171528754429375,33.08045067677636,-14.413134235514619,29.385977819639894,46.53590385805314,-1.2389544868225713,46.630386771375214,-1.1465562174275041,0.21718466666666664,-0.17332637333333334,0.9325290133333333,1.3230400533333333,0.9730475691539634,0.8507935741221115,0.8954172515615081,0.9333377670160494
LBP03_S01,LBP03,-1536,115,1,114,-1536,1715717315.56,2024-05-14 20:08:35.560000+00:00,2024-05-15 05:08:35.560000+09:00,2024,5,14,20,8,35,560,,,,,,,,,0.101074,-0.331299,0.782227,34.362793,211.425781,7.629395,,,,,,,,,,,0.0,1.0,1.0,1.0,0.0,0.0,0.0,4.0,0.0,0.06615554666666666,-0.1644693866666667,0.9609570666666666,3.836262959999998,-3.82405596,-1.0807291466666666,-15.301214468331489,-0.4926145115237622,-3.065518287627815,32.4684020980431,-14.43283881597557,29.263357088134782,46.03094653769167,-1.1841659070696884,46.20936424120251,-1.1488390153800023,0.034918453333333335,-0.16682961333333332,-0.17873006666666658,0.38047813333333325,0.24697338925239043,0.8351287880937837,0.8829874155032122,0.9255222303193277
LBP03_S01,LBP03,-1535,116,1,115,-1535,1715717315.6,2024-05-14 20:08:35.600000+00:00,2024-05-15 05:08:35.600000+09:00,2024,5,14,20,8,35,600,,,,,,,,,-0.502686,0.080322,-0.458496,114.868164,59.692383,-111.877441,,,,,,,,,,,0.0,1.0,1.0,1.0,0.0,0.0,0.0,4.0,0.0,0.08460932,-0.15463541333333333,0.9475553733333334,5.814615826666664,-2.304687466666667,-2.16064452,-16.133125941156674,-2.051262943983002,-3.4221825116993645,31.823077060396834,-14.51488933373489,29.126469787666807,45.51638702988621,-1.0662696845245299,45.768888642417345,-1.1505550058716874,-0.58729532,0.23495741333333334,-1.4060513733333333,2.2283041066666667,1.541785083410378,0.8706188521564577,0.8885731375045895,0.9349253580174466
LBP03_S01,LBP03,-1534,117,1,116,-1534,1715717315.64,2024-05-14 20:08:35.640000+00:00,2024-05-15 05:08:35.640000+09:00,2024,5,14,20,8,35,640,,,,,,,,,0.31958,0.164307,0.245605,76.843262,-137.207031,-79.345703,,,,,,,,,,,0.0,1.0,1.0,1.0,0.0,0.0,0.0,4.0,0.0,0.07821934666666666,-0.15384765333333333,0.9494336266666666,5.5249022799999965,0.7421875333333332,-2.102864573333333,-16.992110003650026,-2.8488382181632765,-2.827972527115407,31.143392660250832,-14.628842862461422,29.01335088658219,45.007649122711285,-1.0965548162035248,45.326416845683504,-1.1576613509463904,0.2413606533333333,0.31815465333333337,-0.7038286266666667,1.2633439333333334,0.809229314922929,0.8612012378958603,0.8859079224640749,0.9312575405793586
LBP03_S01,LBP03,-1533,118,1,117,-1533,1715717315.68,2024-05-14 20:08:35.680000+00:00,2024-05-15 05:08:35.680000+09:00,2024,5,14,20,8,35,680,,,,,,,,,0.561523,-0.117676,0.895752,-104.492188,-73.364258,10.559082,,,,,,,,,,,0.0,1.0,1.0,1.0,0.0,0.0,0.0,4.0,0.0,0.07000320000000002,-0.15621418666666667,0.9688997733333334,2.083333266666664,-3.467610653333333,-1.42740884,-17.412243564626262,-2.4628610555935926,-1.470326065865878,30.44690291766578,-14.727357304685166,28.954537843947556,44.52273814821164,-1.1456743596829808,44.89855551150423,-1.1596593643222572,0.49151979999999995,0.03853818666666667,-0.07314777333333344,0.60320576,0.49842502181092346,0.8415018478723756,0.8808808070670199,0.917272821888855
LBP03_S01,LBP03,-1532,119,1,118,-1532,1715717315.72,2024-05-14 20:08:35.720000+00:00,2024-05-15 05:08:35.720000+09:00,2024,5,14,20,8,35,720,,,,,,,,,0.256592,0.226807,1.394287,-64.147949,91.308594,60.852051,,,,,,,,,,,0.0,1.0,1.0,1.0,0.0,0.0,0.0,4.0,0.0,0.07701492,-0.1691080666666667,0.9957650133333334,-0.4370117866666693,-5.3059895599999995,-0.3531900933333334,-16.723940451525,-0.8800255640477398,0.07285127057608556,29.77794529960478,-14.762558327247076,28.9574518947706,44.081664837771044,-1.139192467517179,44.49978106148381,-1.1507145995713737,0.17957708,0.3959150666666667,0.3985219866666666,0.9740141333333333,0.5897596472561888,0.82700373194696,0.8805476490076767,0.9078076559212047
LBP03_S01,LBP03,-1531,120,1,119,-1531,1715717315.76,2024-05-14 20:08:35.760000+00:00,2024-05-15 05:08:35.760000+09:00,2024,5,14,20,8,35,760,,,,,,,,,-0.435547,-0.60498,1.950195,-174.560547,-40.466309,36.132812,,,,,,,,,,,0.0,1.0,1.0,1.0,0.0,0.0,0.0,4.0,0.0,0.07728834666666666,-0.17714844000000002,1.0021973066666665,0.23274733333333075,-1.4746093466666665,1.1653646,-14.505781848693665,1.393090317687154,1.1189580306226408,29.197714025657035,-14.706834714539589,29.002210215995504,43.702696587941006,-1.1548299920393712,44.14215733294162,-1.1348953634851657,-0.5128353466666666,-0.42783155999999994,0.9479976933333334,1.8886646,1.1596290627127601,0.8281305497935146,0.8861400081402004,0.8990558248218864
LBP03_S01,LBP03,-1530,121,1,120,-1530,1715717315.8,2024-05-14 20:08:35.800000+00:00,2024-05-15 05:08:35.800000+09:00,2024,5,14,20,8,35,800,,,,,,,,,0.259521,-0.88916,2.121582,-10.192871,-140.869141,57.250977,,,,,,,,,,,0.0,1.0,1.0,1.0,0.0,0.0,0.0,4.0,0.0,0.062288346666666675,-0.17308918666666667,0.9789941866666667,2.5333658133333308,-0.9643554400000002,0.5289713733333333,-10.920176445228718,3.442031774600321,1.219051455741404,28.760906967847887,-14.569153443555576,29.05097227422516,43.39826023877993,-1.2210804586250168,43.835782332085294,-1.1278973382500657,0.19723265333333334,-0.7160708133333333,1.1425878133333334,2.05589128,1.362778426754187,0.8524629275751362,0.8855145714741064,0.9068551956823718
LBP03_S01,LBP03,-1529,122,1,121,-1529,1715717315.84,2024-05-14 20:08:35.840000+00:00,2024-05-15 05:08:35.840000+09:00,2024,5,14,20,8,35,840,,,,,,,,,0.269287,-0.336426,1.059326,28.869629,194.396973,39.367676,,,,,,,,,,,0.0,1.0,1.0,1.0,0.0,0.0,0.0,4.0,0.0,0.06893222666666667,-0.16941080000000003,0.9570768666666667,4.32861321333333,-3.9615885200000003,-1.1035156,-6.690482720136481,4.2589031139113525,0.3438037502353112,28.49328765904243,-14.398797318999122,29.064724424234573,43.173498951454626,-1.1798585580598278,43.58923199972791,-1.1338334925858755,0.20035477333333335,-0.16701519999999997,0.1022491333333333,0.4696191066666666,0.28016244840433047,0.8401828420463592,0.8727907377720869,0.9000559751272469
LBP03_S01,LBP03,-1528,123,1,122,-1528,1715717315.88,2024-05-14 20:08:35.880000+00:00,2024-05-15 05:08:35.880000+09:00,2024,5,14,20,8,35,880,,,,,,,,,-0.560059,-0.015137,-0.497559,142.333984,99.182129,-108.886719,,,,,,,,,,,0.0,1.0,1.0,1.0,0.0,0.0,0.0,4.0,0.0,0.08328769333333334,-0.15761717333333333,0.9416927466666668,4.152018159999998,-3.1567382533333332,-1.87093096,-2.7224632542383174,3.1380650229381293,-1.180963834554337,28.384389128872897,-14.273274718081597,29.0174858708524,43.02806530233754,-1.0805652651690472,43.409244276785174,-1.1378182259997727,-0.6433466933333333,0.14248017333333332,-1.4392517466666668,2.2250786133333333,1.5829217156571835,0.8829070445511714,0.876256375480352,0.9144654167788477
LBP03_S01,LBP03,-1527,124,1,123,-1527,1715717315.92,2024-05-14 20:08:35.920000+00:00,2024-05-15 05:08:35.920000+09:00,2024,5,14,20,8,35,920,,,,,,,,,0.295898,0.144287,0.136475,115.17334,-105.529785,-80.810547,,,,,,,,,,,0.0,1.0,1.0,1.0,0.0,0.0,0.0,4.0,0.0,0.08048170666666667,-0.15230141333333336,0.9347200933333335,3.3732095733333307,-1.04003904,-2.0524088266666665,0.3795510080895826,-0.022105028197333967,-2.921707236215087,28.39957116919648,-14.27415891920949,28.900617581403797,42.95966657263124,-1.0807621259604918,43.299410821648294,-1.1449233709727582,0.21541629333333334,0.29658841333333336,-0.7982450933333335,1.3102498000000002,0.8783872126732033,0.8679485588704768,0.8757131871242494,0.9122157688913497
LBP03_S01,LBP03,-1526,125,1,124,-1526,1715717315.96,2024-05-14 20:08:35.960000+00:00,2024-05-15 05:08:35.960000+09:00,2024,5,14,20,8,35,960,,,,,,,,,0.474609,0.113525,0.802002,-59.814453,-58.59375,-6.591797,,,,,,,,,,,0.0,1.0,1.0,1.0,0.0,0.0,0.0,4.0,0.0,0.07785149333333334,-0.16015297333333334,0.9579101999999998,-1.3517253200000023,-3.6580403466666667,-0.9806314799999999,2.5771074098822404,-4.651215890097175,-4.583946261609622,28.502655465591772,-14.460207554813378,28.71725973093941,42.967196529128415,-1.114185654718687,43.25845337227935,-1.1500282366481303,0.39675750666666665,0.2736779733333333,-0.15590819999999983,0.8263436799999998,0.5065802197198689,0.8464530987891101,0.8727523260444624,0.9035607183477902
LBP03_S01,LBP03,-1525,126,1,125,-1525,1715717316.0,2024-05-14 20:08:36+00:00,2024-05-15 05:08:36+09:00,2024,5,14,20,8,36,0,20.0,8.0,35.0,40.604469,141.563232,-0.264,3.0,12.0,0.184814,-0.070557,1.471924,-72.875977,82.580566,54.077148,-309.0,37.0,367.0,432.0,0.0,1015.5,16.74,0.024774,-18.704979,4.05,0.0,1.0,1.0,1.0,0.0,0.0,0.0,4.0,0.0,0.07878249333333334,-0.16695636000000003,0.98269536,-3.0037435600000024,-4.080403626666667,0.5859375333333333,4.27558733490684,-9.683875840689218,-6.090303104619485,28.673678958988045,-14.847562588440947,28.473647606754632,43.050883706312334,-1.1256312278826288,43.2791587069273,-1.147006151857642,0.10603150666666666,0.09639936000000003,0.48922864,0.6916595066666666,0.5097844438688401,0.8393018713678176,0.8726176600968129,0.8969155331463874
LBP03_S01,LBP03,-1524,127,1,126,-1524,1715717316.04,2024-05-14 20:08:36.040000+00:00,2024-05-15 05:08:36.040000+09:00,2024,5,14,20,8,36,40,,,,,,,,,-0.635498,-0.627441,1.807373,-141.174316,-41.809082,16.784668,,,,,,,,,,,0.0,1.0,1.0,1.0,0.0,0.0,0.0,4.0,0.0,0.07938145333333334,-0.17313800000000001,0.9905501733333334,-3.398437573333336,-1.2296549199999995,1.4070638266666666,5.927251135061723,-13.872484410328216,-7.460632081629201,28.910769004390513,-15.402461964854076,28.175222323489464,43.207771893284004,-1.1364021503424981,43.34884999677361,-1.1366404803239152,-0.7148794533333334,-0.454303,0.8168228266666665,1.9860052799999997,1.1767087059977455,0.837186554938979,0.8825019068885911,0.8904596646576679
LBP03_S01,LBP03,-1523,128,1,127,-1523,1715717316.08,2024-05-14 20:08:36.080000+00:00,2024-05-15 05:08:36.080000+09:00,2024,5,14,20,8,36,80,,,,,,,,,0.403809,-0.574951,1.921387,-6.408691,-189.27002,53.222656,,,,,,,,,,,0.0,1.0,1.0,1.0,0.0,0.0,0.0,4.0,0.0,0.06388990666666668,-0.17525389333333335,0.9709017333333334,-1.2394206400000023,0.6722005466666671,0.2343750266666666,7.6627549771008265,-16.102274857089828,-8.61768459094904,29.217279203474547,-16.04655295913767,27.830514939851504,43.4244035968428,-1.216725809412834,43.451557368522145,-1.131953373492455,0.3399190933333333,-0.39969710666666664,0.9504852666666666,1.6901014666666665,1.0856910284425603,0.85282508345627,0.8730517100560998,0.892401591177301
LBP03_S01,LBP03,-1522,129,1,128,-1522,1715717316.12,2024-05-14 20:08:36.120000+00:00,2024-05-15 05:08:36.120000+09:00,2024,5,14,20,8,36,120,,,,,,,,,0.127197,-0.168701,0.650391,91.247559,183.288574,13.977051,,,,,,,,,,,0.0,1.0,1.0,1.0,0.0,0.0,0.0,4.0,0.0,0.06759108000000001,-0.17124348000000003,0.9500683999999999,1.7447915999999979,-2.1305338266666665,-1.5893554533333334,9.215576014630281,-15.620790792492338,-9.290551015732717,29.58590224405976,-16.671384590837363,27.458892899222196,43.672090344081596,-1.190241124270899,43.57120963154982,-1.1393206718567803,0.05960591999999999,0.0025424800000000414,-0.29967739999999987,0.3618257999999999,0.3055582988144107,0.8443264449416145,0.8621380264078717,0.8878139536608287
LBP03_S01,LBP03,-1521,130,1,129,-1521,1715717316.16,2024-05-14 20:08:36.160000+00:00,2024-05-15 05:08:36.160000+09:00,2024,5,14,20,8,36,160,,,,,,,,,-0.525391,0.152344,-0.508789,118.164062,36.804199,-99.487305,,,,,,,,,,,0.0,1.0,1.0,1.0,0.0,0.0,0.0,4.0,0.0,0.07688794666666666,-0.16259765333333334,0.9344433999999999,1.7862955066666644,-0.8813476266666666,-2.635091133333334,10.170491415228055,-12.156892246306104,-9.107268583783405,29.992721900668883,-17.15766028068961,27.09460215587086,43.90974993442047,-1.1246091441344903,43.69454249720121,-1.1481825250943014,-0.6022789466666667,0.31494165333333335,-1.4432323999999999,2.3604529999999997,1.5952579524992196,0.8900724252791896,0.8806169891762664,0.9014192166502598
LBP03_S01,LBP03,-1520,131,1,130,-1520,1715717316.2,2024-05-14 20:08:36.200000+00:00,2024-05-15 05:08:36.200000+09:00,2024,5,14,20,8,36,200,,,,,,,,,0.388672,0.130371,0.131104,72.143555,-135.314941,-61.096191,,,,,,,,,,,0.0,1.0,1.0,1.0,0.0,0.0,0.0,4.0,0.0,0.07539054666666667,-0.15639648,0.9296973066666667,0.5737304133333309,0.3719075866666669,-2.6904296666666667,10.324243589565427,-5.9594006018105015,-7.8241055030518245,30.4056916442515,-17.396036304762028,26.781637935748787,44.095173137243066,-1.1174237432877465,43.81242574963353,-1.1609067070065424,0.31328145333333335,0.28676747999999996,-0.7985933066666667,1.39864224,0.9045065649518508,0.8811236178023154,0.8755038314896594,0.9021465272051296
LBP03_S01,LBP03,-1519,132,1,131,-1519,1715717316.24,2024-05-14 20:08:36.240000+00:00,2024-05-15 05:08:36.240000+09:00,2024,5,14,20,8,36,240,,,,,,,,,0.455811,-0.032959,0.775391,-34.057617,-47.546387,-20.141602,,,,,,,,,,,0.0,1.0,1.0,1.0,0.0,0.0,0.0,4.0,0.0,0.07427074666666668,-0.16041341333333337,0.9514225733333335,-2.303873746666669,-1.3891601199999997,-1.5820312266666667,9.87665911776709,2.21045492814072,-5.533095571268028,30.800758008962184,-17.307618107636397,26.560314112898066,44.20057266893998,-1.132987489745227,43.919218215075404,-1.1710099351907346,0.38154025333333336,0.12745441333333335,-0.1760315733333334,0.6850262400000001,0.43909532814870295,0.8575195348739755,0.8688199313600659,0.8912102952372323
LBP03_S01,LBP03,-1518,133,1,132,-1518,1715717316.28,2024-05-14 20:08:36.280000+00:00,2024-05-15 05:08:36.280000+09:00,2024,5,14,20,8,36,280,,,,,,,,,0.387451,-0.028809,1.301758,-17.822266,85.205078,19.287109,,,,,,,,,,,0.0,1.0,1.0,1.0,0.0,0.0,0.0,4.0,0.0,0.07322257333333335,-0.16744141333333334,0.97575852,-3.8004557733333355,-0.926920533333333,-0.08219398666666658,9.313196727420326,11.15385442471937,-2.6969106922521267,31.173285878058998,-16.861463930647623,26.452437685207983,44.224587932614305,-1.1542382488123013,44.01108216139819,-1.172324413787727,0.3142284266666666,0.13863241333333334,0.32599948,0.7788603199999999,0.4735336430627746,0.8628772139022017,0.8653548992451655,0.8854158701682671
LBP03_S01,LBP03,-1517,134,1,133,-1517,1715717316.32,2024-05-14 20:08:36.320000+00:00,2024-05-15 05:08:36.320000+09:00,2024,5,14,20,8,36,320,,,,,,,,,-0.397705,-0.349609,1.78418,-130.310059,45.532227,51.452637,,,,,,,,,,,0.0,1.0,1.0,1.0,0.0,0.0,0.0,4.0,0.0,0.07437492,-0.17751953333333334,0.9891537066666666,-3.676757853333335,1.647949266666667,1.2792969066666668,9.073736258450978,19.427142519559727,0.022684714944695605,31.536235328397037,-16.084378229865234,26.45334507380577,44.19299522914513,-1.1693806583357025,44.084854205680884,-1.1643927322286527,-0.47207992,-0.17208946666666666,0.7950262933333335,1.43919568,0.9405004213163138,0.8388889125252402,0.8680094272340831,0.8794868561384985
LBP03_S01,LBP03,-1516,135,1,134,-1516,1715717316.36,2024-05-14 20:08:36.360000+00:00,2024-05-15 05:08:36.360000+09:00,2024,5,14,20,8,36,360,,,,,,,,,-0.01001,-0.453369,1.821533,-14.709473,-118.103027,50.65918,,,,,,,,,,,0.0,1.0,1.0,1.0,0.0,0.0,0.0,4.0,0.0,0.05896802666666667,-0.17495768,0.9730046133333332,-0.7926432666666687,4.650065146666668,0.09033206666666672,9.254521181864813,25.65022228945243,2.0374989607524543,31.90641617567163,-15.058369338287136,26.534845032235868,44.14602905345167,-1.2414274738410949,44.1384560363466,-1.1602387520219246,-0.06897802666666668,-0.27841132,0.8485283866666669,1.1959177333333335,0.8956959608294023,0.8429142809947714,0.8564910673208668,0.8796699216219084
LBP03_S01,LBP03,-1515,136,1,135,-1515,1715717316.4,2024-05-14 20:08:36.400000+00:00,2024-05-15 05:08:36.400000+09:00,2024,5,14,20,8,36,400,,,,,,,,,0.324707,-0.377197,1.112305,38.391113,154.602051,34.729004,,,,,,,,,,,0.0,1.0,1.0,1.0,0.0,0.0,0.0,4.0,0.0,0.061386653333333346,-0.17373046666666667,0.9559570799999998,2.034505173333331,1.1214193066666671,-1.8554687200000002,9.561218163670194,28.851146255771482,3.0410227725388728,32.288864902218435,-13.904323488056276,26.656485943137422,44.11880836073102,-1.2266635097245515,44.17244406982717,-1.1640350014271044,0.2633203466666667,-0.20346653333333334,0.1563479200000003,0.6231348000000003,0.3676695625744188,0.8384223601977719,0.8429212317597403,0.8768553945033605
LBP03_S01,LBP03,-1514,137,1,136,-1514,1715717316.44,2024-05-14 20:08:36.440000+00:00,2024-05-15 05:08:36.440000+09:00,2024,5,14,20,8,36,440,,,,,,,,,-0.558594,0.12085,-0.255859,169.006348,196.411133,-80.566406,,,,,,,,,,,0.0,1.0,1.0,1.0,0.0,0.0,0.0,4.0,0.0,0.07149082666666667,-0.16142904,0.9381185333333332,3.0932616799999977,1.7797851866666672,-2.834472626666667,9.546542189537211,28.72924127843943,3.041851846151745,32.670726589799926,-12.755153836918698,26.77816001698349,44.12641135651182,-1.149546936312422,44.1912871056856,-1.1681248825796697,-0.6300848266666668,0.28227904,-1.1939775333333331,2.1063414,1.3792282970283185,0.8714292960683762,0.8502455544110917,0.8872082359529935
LBP03_S01,LBP03,-1513,138,1,137,-1513,1715717316.48,2024-05-14 20:08:36.480000+00:00,2024-05-15 05:08:36.480000+09:00,2024,5,14,20,8,36,480,,,,,,,,,0.175049,0.069824,0.279297,45.10498,-134.155273,-60.668945,,,,,,,,,,,0.0,1.0,1.0,1.0,0.0,0.0,0.0,4.0,0.0,0.07155918666666668,-0.15635092,0.9310319466666668,2.652994746666664,3.5514323200000004,-3.2527668933333334,8.955737208435137,25.723780043670654,2.2404203513992793,33.028956078137334,-11.726202635171871,26.867776831039464,44.16212403966976,-1.1374089938220913,44.20308733325512,-1.177062238580299,0.10348981333333333,0.22617492,-0.6517349466666668,0.9813996800000001,0.6975841717007185,0.8480197396385434,0.8412474210856118,0.8861740338465068
LBP03_S01,LBP03,-1512,139,1,138,-1512,1715717316.52,2024-05-14 20:08:36.520000+00:00,2024-05-15 05:08:36.520000+09:00,2024,5,14,20,8,36,520,,,,,,,,,0.476074,-0.077393,0.836182,-26.550293,-37.780762,-6.530762,,,,,,,,,,,0.0,1.0,1.0,1.0,0.0,0.0,0.0,4.0,0.0,0.06960279999999999,-0.15666668,0.9482519866666667,-0.15462244000000244,1.6650390800000006,-2.5651041333333335,7.923906763145799,20.83838366527747,0.8737911231452921,33.34591234866316,-10.892667288560773,26.902728475965276,44.20810865073874,-1.1487013222036189,44.21759064847263,-1.1857121178535908,0.40647120000000003,0.07927368,-0.11206998666666668,0.5978148666666667,0.4290254475921554,0.826258854776071,0.8385262144490911,0.8723644526330291
LBP03_S01,LBP03,-1511,140,1,139,-1511,1715717316.56,2024-05-14 20:08:36.560000+00:00,2024-05-15 05:08:36.560000+09:00,2024,5,14,20,8,36,560,,,,,,,,,0.448486,0.018311,1.334717,-20.690918,69.458008,58.776855,,,,,,,,,,,0.0,1.0,1.0,1.0,0.0,0.0,0.0,4.0,0.0,0.0710058,-0.16607748,0.9786230800000001,-1.6992188000000024,0.9676106933333339,-1.1409504933333334,6.885362969792625,15.29457495293684,-0.8448793239294584,33.62132686745487,-10.2808842904433,26.8689333030081,44.24963026922625,-1.1625716381862883,44.24361650359687,-1.182560924246388,0.3774802,0.18438848,0.35609391999999984,0.9179625999999999,0.5507207030879778,0.8384087473294944,0.836768767711639,0.8681278594453063
LBP03_S01,LBP03,-1510,141,1,140,-1510,1715717316.6,2024-05-14 20:08:36.600000+00:00,2024-05-15 05:08:36.600000+09:00,2024,5,14,20,8,36,600,,,,,,,,,-0.551025,-0.55542,1.872314,-144.104004,20.629883,33.325195,,,,,,,,,,,0.0,1.0,1.0,1.0,0.0,0.0,0.0,4.0,0.0,0.07542312000000001,-0.1744987066666667,0.9943587600000001,-2.452799533333336,2.922363293333334,0.31738283999999994,6.275228495044068,10.180199903960974,-2.669472438164753,33.87233600725663,-9.873676294284861,26.76215440548151,44.28360349582733,-1.1583225548133997,44.28749745169982,-1.1694905097585466,-0.62644812,-0.38092129333333336,0.8779552399999999,1.8853246533333334,1.1438285195822542,0.8224904847763694,0.8465546684664137,0.8665455865951829
LBP03_S01,LBP03,-1509,142,1,141,-1509,1715717316.64,2024-05-14 20:08:36.640000+00:00,2024-05-15 05:08:36.640000+09:00,2024,5,14,20,8,36,640,,,,,,,,,-0.159912,-0.494385,1.875,-8.972168,-153.137207,18.005371,,,,,,,,,,,0.0,1.0,1.0,1.0,0.0,0.0,0.0,4.0,0.0,0.06220045333333335,-0.17353190666666668,0.9827604533333334,0.42317702666666435,6.45100912,-0.3434244400000001,6.254915101747927,6.2348992560902,-4.2408781843719545,34.12253261132655,-9.624280324041253,26.592519278106632,44.318574944635166,-1.22236104975152,44.35335612007817,-1.1609557684803566,-0.22211245333333335,-0.32085309333333334,0.8922395466666666,1.4352050933333333,0.9738439598124844,0.8290750705719517,0.8451381542339061,0.8669636385000339
LBP03_S01,LBP03,-1508,143,1,142,-1508,1715717316.68,2024-05-14 20:08:36.680000+00:00,2024-05-15 05:08:36.680000+09:00,2024,5,14,20,8,36,680,,,,,,,,,0.537109,-0.314453,1.115723,74.401855,147.827148,33.569336,,,,,,,,,,,0.0,1.0,1.0,1.0,0.0,0.0,0.0,4.0,0.0,0.05739252,-0.16980144,0.9643652666666666,3.1168619199999976,3.215332026666667,-2.4210611600000003,6.664275491790478,3.814625411734998,-5.106695666498867,34.389103630998164,-9.471695307571853,26.388251451446678,44.369621084789394,-1.240737041545217,44.44459419204355,-1.160758370349782,0.47971647999999995,-0.14465155999999998,0.15135773333333347,0.7757257733333334,0.5234129712128163,0.8300745885480275,0.8357882182102016,0.8639454008940226
LBP03_S01,LBP03,-1507,144,1,143,-1507,1715717316.72,2024-05-14 20:08:36.720000+00:00,2024-05-15 05:08:36.720000+09:00,2024,5,14,20,8,36,720,,,,,,,,,-0.648682,0.04248,-0.307861,134.338379,139.770508,-101.196289,,,,,,,,,,,0.0,1.0,1.0,1.0,0.0,0.0,0.0,4.0,0.0,0.07214837333333333,-0.15779622666666668,0.9489616266666667,4.7379556666666645,2.946777333333334,-3.8305663733333337,7.2195881250767995,2.9810828737664097,-4.884003246283859,34.67788715600123,-9.352451992621196,26.192891321595322,44.453253780387584,-1.1378687222636747,44.56496859886518,-1.1616599666944676,-0.7208303733333333,0.20027622666666667,-1.2568226266666667,2.1779292266666666,1.4626380649323367,0.8649897252550734,0.8459967286010166,0.8753616744234756
LBP03_S01,LBP03,-1506,145,1,144,-1506,1715717316.76,2024-05-14 20:08:36.760000+00:00,2024-05-15 05:08:36.760000+09:00,2024,5,14,20,8,36,760,,,,,,,,,0.252441,0.050049,0.220703,53.222656,-138.366699,-72.265625,,,,,,,,,,,0.0,1.0,1.0,1.0,0.0,0.0,0.0,4.0,0.0,0.07600580000000001,-0.15493814666666667,0.9417025066666666,3.8940429066666646,4.761555986666667,-4.2301432000000005,7.778574877039578,3.6066645311676764,-3.4847564541447706,34.989030151082815,-9.208185411374489,26.053501063429533,44.58483853448116,-1.110723328962684,44.71796054706785,-1.167814246196359,0.17643520000000001,0.20498714666666668,-0.7209995066666666,1.1024218533333332,0.7700580489230393,0.8494068847034845,0.8387687172484997,0.8738956336612951
LBP03_S01,LBP03,-1505,146,1,145,-1505,1715717316.8,2024-05-14 20:08:36.800000+00:00,2024-05-15 05:08:36.800000+09:00,2024,5,14,20,8,36,800,,,,,,,,,0.505371,-0.036377,0.783447,-38.818359,-47.180176,-10.070801,,,,,,,,,,,0.0,1.0,1.0,1.0,0.0,0.0,0.0,4.0,0.0,0.06857089333333334,-0.15119792,0.9544661866666666,1.7586262399999975,4.33105468,-3.7776692400000003,8.440200581393889,5.404783725457873,-1.2472515784780085,35.32663817433857,-8.991994062356174,26.003611000290412,44.77739504451446,-1.1413160969426492,44.90456551501192,-1.1770221366531877,0.4368001066666667,0.11482092000000002,-0.1710191866666666,0.7226402133333333,0.48293450804615934,0.8142131279551634,0.8333380277651499,0.8617474236344587
LBP03_S01,LBP03,-1504,147,1,146,-1504,1715717316.84,2024-05-14 20:08:36.840000+00:00,2024-05-15 05:08:36.840000+09:00,2024,5,14,20,8,36,840,,,,,,,,,0.351807,0.066895,1.302979,-49.133301,97.839355,56.884766,,,,,,,,,,,0.0,1.0,1.0,1.0,0.0,0.0,0.0,4.0,0.0,0.07221346666666668,-0.1620247466666667,0.9881608399999999,-0.49967453333333584,1.386718746666667,-2.0507812133333334,9.3863484535923,7.893291700592235,1.1469519963733723,35.70209211248226,-8.676262394332484,26.049489080145346,45.03879207616571,-1.1475729550066762,45.12093654335333,-1.1769945604907728,0.2795935333333333,0.2289197466666667,0.3148181600000002,0.8233314400000002,0.4792569959442787,0.8221769098567614,0.8311798759515604,0.8559194618003116
LBP03_S01,LBP03,-1503,148,1,147,-1503,1715717316.88,2024-05-14 20:08:36.880000+00:00,2024-05-15 05:08:36.880000+09:00,2024,5,14,20,8,36,880,,,,,,,,,-0.482178,-0.684814,1.782471,-147.949219,-48.034668,52.856445,,,,,,,,,,,0.0,1.0,1.0,1.0,0.0,0.0,0.0,4.0,0.0,0.07560538666666669,-0.16920573333333336,1.00613284,-1.0945638533333357,2.6155598800000006,-0.4484049066666667,10.592116691252704,10.384674546860904,2.9551083582605933,36.12577678013237,-8.260875412458049,26.16769341447577,45.36586810788595,-1.1464249572689487,45.35745946813803,-1.1674016632566704,-0.5577833866666667,-0.5156082666666667,0.7763381599999999,1.8497298133333333,1.0861285051818343,0.8023051814377473,0.8426061129944594,0.8516059774661504
LBP03_S01,LBP03,-1502,149,1,148,-1502,1715717316.92,2024-05-14 20:08:36.920000+00:00,2024-05-15 05:08:36.920000+09:00,2024,5,14,20,8,36,920,,,,,,,,,0.007812,-0.308594,1.859863,49.743652,-105.895996,49.255371,,,,,,,,,,,0.0,1.0,1.0,1.0,0.0,0.0,0.0,4.0,0.0,0.06309888000000001,-0.16942384000000002,0.9951985999999999,1.5568033333333309,6.696777320000001,-1.1946614133333333,11.652528787318479,12.086870065055066,3.699053216279128,36.591877931625106,-7.777400609855846,26.315655543126937,45.73802813276548,-1.2102441172225318,45.599830922892046,-1.1553696999269571,-0.05528688000000001,-0.13917015999999996,0.8646644000000001,1.0591214400000002,0.8775360375288984,0.8022711344319751,0.8351098466512259,0.8512325028934913
LBP03_S01,LBP03,-1501,150,1,149,-1501,1715717316.96,2024-05-14 20:08:36.960000+00:00,2024-05-15 05:08:36.960000+09:00,2024,5,14,20,8,36,960,,,,,,,,,0.528564,-0.327637,1.083496,81.237793,162.231445,38.208008,,,,,,,,,,,0.0,1.0,1.0,1.0,0.0,0.0,0.0,4.0,0.0,0.055143146666666684,-0.17087892000000002,0.9729427333333335,4.757486919999997,4.845377573333335,-3.5880533466666673,11.897534144317184,12.31919311357245,3.3431569943029102,37.06777929739779,-7.284632885312948,26.449381822899053,46.115679948666894,-1.254650542754576,45.83141899436457,-1.1558747742759914,0.47342085333333334,-0.15675808,0.11055326666666654,0.7407321999999998,0.5108056624459237,0.8024401521410174,0.8244466254650636,0.8493149347433141
LBP03_S01,LBP03,-1500,151,1,150,-1500,1715717317.0,2024-05-14 20:08:37+00:00,2024-05-15 05:08:37+09:00,2024,5,14,20,8,37,0,20.0,8.0,36.0,40.604382,141.563217,0.419,3.0,12.0,-0.611084,0.071289,-0.303711,128.173828,160.766602,-92.895508,-314.0,37.0,363.0,655.0,0.0,1015.599976,16.809999,0.025765,-19.53533,4.05,0.0,1.0,1.0,1.0,0.0,0.0,0.0,4.0,0.0,0.06786124,-0.1566504,0.9532454666666667,8.494466093333331,3.9819335600000008,-4.619140586666666,10.749492939826272,10.760765693547937,2.2274623701910197,37.49775901499084,-6.85420225757103,26.538480317706693,46.447313779241576,-1.1580467931892497,46.03557786982624,-1.1606799513268695,-0.67894524,0.22793940000000001,-1.2569564666666666,2.1638411066666667,1.4466729305845771,0.8399156916096469,0.8396087814887322,0.8617170039344241
LBP03_S01,LBP03,-1499,152,1,151,-1499,1715717317.04,2024-05-14 20:08:37.040000+00:00,2024-05-15 05:08:37.040000+09:00,2024,5,14,20,8,37,40,,,,,,,,,0.298096,0.113037,0.23291,34.057617,-139.831543,-72.20459,,,,,,,,,,,0.0,1.0,1.0,1.0,0.0,0.0,0.0,4.0,0.0,0.07222321333333333,-0.15322918666666668,0.9435579733333332,7.328287706666663,5.18147784,-5.307617146666667,8.085301428904206,7.594440774895724,0.8179263776451103,37.82117107214701,-6.550424626575201,26.5711973728125,46.683804192482114,-1.1264320774104948,46.19703467377741,-1.1658517297344404,0.22587278666666671,0.2662661866666667,-0.7106479733333333,1.2027869466666667,0.7917933694603332,0.8245190781481503,0.8308528165435648,0.8631742973084442
LBP03_S01,LBP03,-1498,153,1,152,-1498,1715717317.08,2024-05-14 20:08:37.080000+00:00,2024-05-15 05:08:37.080000+09:00,2024,5,14,20,8,37,80,,,,,,,,,0.50708,-0.185059,1.010986,-20.324707,-49.377441,-17.39502,,,,,,,,,,,0.0,1.0,1.0,1.0,0.0,0.0,0.0,4.0,0.0,0.07120758666666668,-0.14863608,0.95244468,5.743815053333329,3.6775715866666676,-4.66878252,4.349654968896867,3.4429901876099556,-0.5492387923855007,37.99515727090289,-6.412705019070803,26.54922782111708,46.7933356323295,-1.1204174082480856,46.30251261512084,-1.1750801800090631,0.43587241333333326,-0.03642292,0.0585413199999999,0.5308366533333332,0.4412918262937723,0.7987431100621989,0.8257840967592344,0.8482821767247996
LBP03_S01,LBP03,-1497,154,1,153,-1497,1715717317.12,2024-05-14 20:08:37.120000+00:00,2024-05-15 05:08:37.120000+09:00,2024,5,14,20,8,37,120,,,,,,,,,0.365479,0.127686,1.270996,-55.847168,77.941895,63.598633,,,,,,,,,,,0.0,1.0,1.0,1.0,0.0,0.0,0.0,4.0,0.0,0.07150706666666667,-0.15839844,0.98325848,3.3561197466666637,1.6813150800000012,-2.6180012799999997,0.33747582463430104,-0.8763572288779531,-1.7637461556269463,38.00865630388826,-6.447759308225921,26.478677974892,46.769134495112795,-1.1429194657540174,46.34146686985851,-1.1776531488999278,0.2939719333333333,0.28608444,0.28773751999999997,0.8677938933333332,0.5010555705843432,0.8065630009329962,0.8254447229373053,0.8436130179162465
LBP03_S01,LBP03,-1496,155,1,154,-1496,1715717317.16,2024-05-14 20:08:37.160000+00:00,2024-05-15 05:08:37.160000+09:00,2024,5,14,20,8,37,160,,,,,,,,,-0.598633,-0.416748,1.775391,-150.20752,-41.625977,36.193848,,,,,,,,,,,0.0,1.0,1.0,1.0,0.0,0.0,0.0,4.0,0.0,0.07178376,-0.16605794666666668,1.0042383066666667,2.2745767733333304,1.4794921600000013,-0.9309895599999999,-3.2096392851904487,-4.638232897159257,-2.8442876996395765,37.88027073248064,-6.633288624112291,26.36490646690642,46.62642728909787,-1.158775099471466,46.307564006067715,-1.1681298285555564,-0.67041676,-0.25069005333333333,0.7711526933333333,1.6922595066666666,1.0521314610657837,0.7848379412756588,0.8374551832774242,0.8486906398760639
LBP03_S01,LBP03,-1495,156,1,155,-1495,1715717317.2,2024-05-14 20:08:37.200000+00:00,2024-05-15 05:08:37.200000+09:00,2024,5,14,20,8,37,200,,,,,,,,,0.233154,-0.687012,1.955811,7.93457,-168.579102,29.724121,,,,,,,,,,,0.0,1.0,1.0,1.0,0.0,0.0,0.0,4.0,0.0,0.06487946666666668,-0.16537434666666667,0.9991601866666667,5.233561159999998,5.633138000000001,-1.0457356533333333,-5.927889057949465,-7.394229169612602,-3.762424019389742,37.64315517016266,-6.929057790896795,26.214409506130828,46.391963084026244,-1.1930338810183596,46.20057081394869,-1.1527509393924276,0.1682745333333333,-0.5216376533333333,0.9566508133333332,1.646563,1.1025438488309596,0.7927594326308232,0.8369415252165693,0.8479223652033806
LBP03_S01,LBP03,-1494,157,1,156,-1494,1715717317.24,2024-05-14 20:08:37.240000+00:00,2024-05-15 05:08:37.240000+09:00,2024,5,14,20,8,37,240,,,,,,,,,0.274902,-0.213135,0.90918,62.438965,202.148438,27.22168,,,,,,,,,,,0.0,1.0,1.0,1.0,0.0,0.0,0.0,4.0,0.0,0.05659821333333335,-0.16684245333333333,0.9761035466666665,7.530110639999998,3.985188773333334,-3.1030273199999994,-7.877189993972119,-8.997286128663474,-4.3495219385565065,37.328067570403775,-7.288949236043335,26.040428628588568,46.09357148959995,-1.2398574577529027,46.02748531549044,-1.147527146589874,0.21830378666666664,-0.046292546666666656,-0.06692354666666656,0.3315198799999999,0.23297704661261484,0.7845147013693796,0.8210171181216773,0.8407181880298371
LBP03_S01,LBP03,-1493,158,1,157,-1493,1715717317.28,2024-05-14 20:08:37.280000+00:00,2024-05-15 05:08:37.280000+09:00,2024,5,14,20,8,37,280,,,,,,,,,-0.559326,0.155518,-0.354004,85.266113,47.363281,-87.280273,,,,,,,,,,,0.0,1.0,1.0,1.0,0.0,0.0,0.0,4.0,0.0,0.06601878666666666,-0.15851889333333335,0.9522233466666667,11.012369759999997,2.9410807066666673,-4.36930336,-9.312414786417268,-9.501382078975425,-4.37048172821791,36.95557097894709,-7.6690045192023515,25.865609359459853,45.75541065526261,-1.1721546461775956,45.801779325904214,-1.149496809909804,-0.6253447866666666,0.31403689333333334,-1.3062273466666667,2.2456090266666666,1.4818586821169792,0.8248477029315479,0.8438624584168747,0.8518525004739596
LBP03_S01,LBP03,-1492,159,1,158,-1492,1715717317.32,2024-05-14 20:08:37.320000+00:00,2024-05-15 05:08:37.320000+09:00,2024,5,14,20,8,37,320,,,,,,,,,0.333008,0.111084,0.150146,39.367676,-127.685547,-67.749023,,,,,,,,,,,0.0,1.0,1.0,1.0,0.0,0.0,0.0,4.0,0.0,0.07020824,-0.14451824000000002,0.9336165733333334,10.983886679999998,3.7141926933333345,-4.97721352,-10.37741150493163,-9.03792737152218,-3.710611241550275,36.540474518749825,-8.030521614063238,25.717184909797844,45.39899949485755,-1.1150109137788153,45.54061754359042,-1.1542838926492223,0.26279976000000005,0.25560224000000004,-0.7834705733333334,1.3018725733333334,0.864998472963009,0.8218276249974156,0.8303582687613278,0.8526154931551939
LBP03_S01,LBP03,-1491,160,1,159,-1491,1715717317.36,2024-05-14 20:08:37.360000+00:00,2024-05-15 05:08:37.360000+09:00,2024,5,14,20,8,37,360,,,,,,,,,0.363281,-0.090576,0.824707,-65.673828,-60.302734,-22.399902,,,,,,,,,,,0.0,1.0,1.0,1.0,0.0,0.0,0.0,4.0,0.0,0.07120433333333334,-0.14138021333333337,0.9358789466666667,9.221191359999997,2.1321614400000013,-4.6923828,-10.95849638027823,-7.757090876131722,-2.5263045700465643,36.1021346635387,-8.340805249108506,25.616132726995982,45.04574802747661,-1.100861651123289,45.261209771060635,-1.1618045983548941,0.29207666666666665,0.05080421333333336,-0.11117194666666674,0.45405282666666674,0.31662130223531415,0.798664638653652,0.8207894598242117,0.8372155910984619
LBP03_S01,LBP03,-1490,161,1,160,-1490,1715717317.4,2024-05-14 20:08:37.400000+00:00,2024-05-15 05:08:37.400000+09:00,2024,5,14,20,8,37,400,,,,,,,,,0.5625,0.104248,1.210205,-24.719238,48.950195,44.86084,,,,,,,,,,,0.0,1.0,1.0,1.0,0.0,0.0,0.0,4.0,0.0,0.07409821333333333,-0.14901041333333334,0.9660449733333333,5.651855426666664,0.7145182133333345,-2.3714192533333334,-10.795367899725706,-5.831768785532355,-1.2265122797020662,35.67031994754967,-8.5740760005298,25.5670722358079,44.71645879465905,-1.1058088651637124,44.97805988952412,-1.159169831050085,0.48840178666666667,0.2532584133333333,0.2441600266666667,0.9858202266666667,0.6019055139846926,0.808034076710063,0.8232282184539175,0.8312921800765145
LBP03_S01,LBP03,-1489,162,1,161,-1489,1715717317.44,2024-05-14 20:08:37.440000+00:00,2024-05-15 05:08:37.440000+09:00,2024,5,14,20,8,37,440,,,,,,,,,-0.459961,-0.439941,1.803223,-150.024414,60.180664,54.6875,,,,,,,,,,,0.0,1.0,1.0,1.0,0.0,0.0,0.0,4.0,0.0,0.07139965333333334,-0.15952148000000002,0.99027348,3.8745116799999977,0.2913411333333344,-0.3271484133333335,-9.744989777047126,-3.4565407665977457,-0.2736123409012793,35.28052035646779,-8.71233763119371,25.55612774217185,44.42674429662,-1.1461287106097973,44.70230316195149,-1.1506949585495814,-0.5313606533333334,-0.28041952000000003,0.81294952,1.6247296933333333,1.0108739650303038,0.7932999034301425,0.8323645997492594,0.8312636707507753
LBP03_S01,LBP03,-1488,163,1,162,-1488,1715717317.48,2024-05-14 20:08:37.480000+00:00,2024-05-15 05:08:37.480000+09:00,2024,5,14,20,8,37,480,,,,,,,,,-0.155029,-0.502686,1.71875,-16.235352,-144.836426,40.893555,,,,,,,,,,,0.0,1.0,1.0,1.0,0.0,0.0,0.0,4.0,0.0,0.06902986666666668,-0.16394205333333337,0.9911035600000001,5.972493453333331,3.505045560000001,0.26123049333333315,-7.978270032954492,-0.8037795196955998,0.07027242513901355,34.96138955514961,-8.744488811981535,25.55893863917741,44.18171780919151,-1.168288235642268,44.442984471754826,-1.1362112274919824,-0.2240588666666667,-0.33874394666666663,0.7276464399999999,1.2904492533333332,0.8333181737967402,0.7987292635139832,0.8233745015762634,0.827074701895069
LBP03_S01,LBP03,-1487,164,1,163,-1487,1715717317.52,2024-05-14 20:08:37.520000+00:00,2024-05-15 05:08:37.520000+09:00,2024,5,14,20,8,37,520,,,,,,,,,0.543213,-0.409424,1.262207,33.691406,90.515137,35.705566,,,,,,,,,,,0.0,1.0,1.0,1.0,0.0,0.0,0.0,4.0,0.0,0.05857414666666668,-0.16104817333333335,0.9651725733333334,9.070637986666664,4.157714840000001,-1.5649413733333335,-5.937596768982858,2.036393254088284,-0.12232980354012701,34.7238856843903,-8.663033081818003,25.554045447035804,43.97505676981497,-1.2181265228107347,44.20896240911095,-1.1316662786874017,0.4846388533333333,-0.24837582666666666,0.2970344266666667,1.0300491066666666,0.6203183215557908,0.8063809784725287,0.8163199166242998,0.8278111357902369
LBP03_S01,LBP03,-1486,165,1,164,-1486,1715717317.56,2024-05-14 20:08:37.560000+00:00,2024-05-15 05:08:37.560000+09:00,2024,5,14,20,8,37,560,,,,,,,,,-0.643311,0.080078,-0.279541,123.840332,151.184082,-82.15332,,,,,,,,,,,0.0,1.0,1.0,1.0,0.0,0.0,0.0,4.0,0.0,0.07094393333333335,-0.15287760000000003,0.9431576000000002,12.342122359999998,3.2177734266666675,-2.3608398133333335,-4.0619807555239635,5.079562408106572,-0.5252632864126593,34.56140645416934,-8.45985058549374,25.533034915579297,43.79492847373275,-1.1324274264233762,44.00987893259299,-1.1340629013072623,-0.7142549333333333,0.23295560000000004,-1.2226986000000002,2.1699091333333334,1.4350680429179394,0.8417548720657271,0.8400818096976108,0.8384308024963351
LBP03_S01,LBP03,-1485,166,1,165,-1485,1715717317.6,2024-05-14 20:08:37.600000+00:00,2024-05-15 05:08:37.600000+09:00,2024,5,14,20,8,37,600,,,,,,,,,0.188965,0.095947,0.087646,76.35498,-145.568848,-66.223145,,,,,,,,,,,0.0,1.0,1.0,1.0,0.0,0.0,0.0,4.0,0.0,0.07131502666666668,-0.1443294266666667,0.9282975733333334,12.376302039999997,5.544433586666667,-2.9760741866666667,-2.473341281684227,8.392198178169002,-0.8031051759395454,34.46247280290197,-8.12416265836698,25.500910708541713,43.63439580829991,-1.1082851560133227,43.85541686432226,-1.1410082856518289,0.11764997333333331,0.2402764266666667,-0.8406515733333334,1.1985779733333335,0.8821957521915672,0.8312895613700998,0.8268900230732347,0.8414662994343091
LBP03_S01,LBP03,-1484,167,1,166,-1484,1715717317.64,2024-05-14 20:08:37.640000+00:00,2024-05-15 05:08:37.640000+09:00,2024,5,14,20,8,37,640,,,,,,,,,0.405273,0.064697,0.732178,-39.733887,-38.208008,-42.602539,,,,,,,,,,,0.0,1.0,1.0,1.0,0.0,0.0,0.0,4.0,0.0,0.07280917333333334,-0.14250325333333333,0.9367578533333333,10.123697866666664,4.228515626666667,-2.2379556933333338,-0.8707194680457809,11.959180609410451,-0.8504626784566794,34.42764402418014,-7.645795433990562,25.466892201403446,43.500384587633256,-1.0950201471769143,43.75331394037068,-1.1541002473878892,0.33246382666666663,0.20720025333333333,-0.20457985333333328,0.7442439333333333,0.44194689433587947,0.8100136787510354,0.8195443746614935,0.8334299957396158
LBP03_S01,LBP03,-1483,168,1,167,-1483,1715717317.68,2024-05-14 20:08:37.680000+00:00,2024-05-15 05:08:37.680000+09:00,2024,5,14,20,8,37,680,,,,,,,,,0.564453,-0.094482,1.284912,-70.43457,39.489746,45.593262,,,,,,,,,,,0.0,1.0,1.0,1.0,0.0,0.0,0.0,4.0,0.0,0.0720442,-0.15287434666666666,0.9680957466666666,7.156575479999998,3.164062506666667,-0.4931640266666669,1.2568764659634577,15.545851811230962,-0.8579710167590257,34.47791908281868,-7.023961361541324,25.432573360733084,43.41519002882388,-1.1267051581317857,43.70746023550258,-1.1571452111845173,0.4924088,0.058392346666666664,0.3168162533333334,0.8676174000000001,0.5884289513975762,0.8126143179584259,0.8213444532532266,0.828063584792943
LBP03_S01,LBP03,-1482,169,1,168,-1482,1715717317.72,2024-05-14 20:08:37.720000+00:00,2024-05-15 05:08:37.720000+09:00,2024,5,14,20,8,37,720,,,,,,,,,-0.41626,-0.305176,1.746094,-127.01416,76.416016,50.720215,,,,,,,,,,,0.0,1.0,1.0,1.0,0.0,0.0,0.0,4.0,0.0,0.07284497333333334,-0.15968098666666666,0.9917350666666666,5.890299439999997,2.113444013333334,0.9676107066666665,4.222991984580156,18.66334209205147,-1.159294482040533,34.64683876220189,-6.277427677859265,25.386201581451463,43.40816472967796,-1.1389771399774247,43.7173145340851,-1.1521432302699983,-0.48910497333333336,-0.14549501333333334,0.7543589333333335,1.3889589200000003,0.9107413870820148,0.7905384508444129,0.8277640880497432,0.8275106360154821
LBP03_S01,LBP03,-1481,170,1,169,-1481,1715717317.76,2024-05-14 20:08:37.760000+00:00,2024-05-15 05:08:37.760000+09:00,2024,5,14,20,8,37,760,,,,,,,,,-0.17334,-0.400879,1.695557,-15.197754,-98.083496,47.546387,,,,,,,,,,,0.0,1.0,1.0,1.0,0.0,0.0,0.0,4.0,0.0,0.06712230666666667,-0.16024413333333334,0.9894336266666667,7.517903599999997,5.487467453333334,1.6398112399999998,7.8228888034573,20.689210254477654,-1.9709297166194224,34.95975431434018,-5.449859267680159,25.307364392786685,43.50112734476928,-1.170315494568952,43.77893447392606,-1.1405535454193516,-0.24046230666666668,-0.24063486666666664,0.7061233733333333,1.1872205466666665,0.7837968348690778,0.7910880022822546,0.8202474434928695,0.8228751455930846
LBP03_S01,LBP03,-1480,171,1,170,-1480,1715717317.8,2024-05-14 20:08:37.800000+00:00,2024-05-15 05:08:37.800000+09:00,2024,5,14,20,8,37,800,,,,,,,,,0.456543,-0.540039,1.371094,46.081543,108.093262,46.813965,,,,,,,,,,,0.0,1.0,1.0,1.0,0.0,0.0,0.0,4.0,0.0,0.05475577333333334,-0.15964517333333336,0.9663607066666666,9.28548173333333,5.432942720000001,0.010579479999999725,11.338038310755293,21.093748263229077,-3.212995220648281,35.41327584677039,-4.606109337150996,25.178844583960753,43.6954295551433,-1.2367284825243172,43.886792118771176,-1.1416987300789017,0.40178722666666666,-0.38039382666666666,0.4047332933333334,1.1869143466666667,0.6855227768725468,0.7991915330353101,0.8067023304952369,0.8219558628552032
LBP03_S01,LBP03,-1479,172,1,171,-1479,1715717317.84,2024-05-14 20:08:37.840000+00:00,2024-05-15 05:08:37.840000+09:00,2024,5,14,20,8,37,840,,,,,,,,,-0.522705,0.048828,-0.074707,146.911621,194.519043,-80.627441,,,,,,,,,,,0.0,1.0,1.0,1.0,0.0,0.0,0.0,4.0,0.0,0.06409170666666666,-0.15578450666666668,0.9466146133333333,12.313639293333331,3.340657560000001,-1.2906900533333336,13.887287809636442,19.657941802925826,-4.541011059241249,35.96876735915585,-3.819791665033963,24.997204141591105,43.96820724793902,-1.1765783485760775,44.0350367001766,-1.147686354599608,-0.5867967066666666,0.2046125066666667,-1.0213216133333334,1.8127308266666666,1.1955310496599683,0.8278424951839376,0.8250097025203494,0.8300674156956861
LBP03_S01,LBP03,-1478,173,1,172,-1478,1715717317.88,2024-05-14 20:08:37.880000+00:00,2024-05-15 05:08:37.880000+09:00,2024,5,14,20,8,37,880,,,,,,,,,0.147217,0.119873,0.191406,100.280762,-142.51709,-83.557129,,,,,,,,,,,0.0,1.0,1.0,1.0,0.0,0.0,0.0,4.0,0.0,0.07137686666666668,-0.1482194,0.9333887066666665,12.390136693333329,4.593098960000001,-1.7024739066666668,14.906215818822968,16.56752569131427,-5.568597484193768,36.565015991908766,-3.1570906373813923,24.774460242223356,44.28026079501667,-1.118268426497079,44.21737837115528,-1.1506953386412069,0.07584013333333331,0.2680924,-0.7419827066666665,1.0859152399999998,0.7925677243959474,0.8161000639525022,0.8092026226951248,0.8337707633138071
LBP03_S01,LBP03,-1477,174,1,173,-1477,1715717317.92,2024-05-14 20:08:37.920000+00:00,2024-05-15 05:08:37.920000+09:00,2024,5,14,20,8,37,920,,,,,,,,,0.397461,0.195068,0.701904,0.549316,-62.866211,-42.175293,,,,,,,,,,,0.0,1.0,1.0,1.0,0.0,0.0,0.0,4.0,0.0,0.07093416000000001,-0.14132161333333337,0.9368587600000001,11.271972639999998,4.288736973333334,-1.2670898000000004,14.444386375869527,12.33283623101883,-6.123450076799228,37.14279144694355,-2.663777188140639,24.529522239151387,44.59125616822455,-1.1022296743042677,44.42599086599577,-1.1542903120871408,0.32652684,0.3363896133333334,-0.23495476000000015,0.8978712133333335,0.5243867737134421,0.801974093399884,0.8021226139159294,0.8240645955674453
LBP03_S01,LBP03,-1476,175,1,174,-1476,1715717317.96,2024-05-14 20:08:37.960000+00:00,2024-05-15 05:08:37.960000+09:00,2024,5,14,20,8,37,960,,,,,,,,,0.477295,-0.166748,1.326904,-40.222168,40.710449,25.32959,,,,,,,,,,,0.0,1.0,1.0,1.0,0.0,0.0,0.0,4.0,0.0,0.06846672000000002,-0.15199545333333334,0.9614258133333334,6.99625649333333,0.31819660000000055,-0.039876266666667014,13.09356949546067,7.596854116261726,-6.35333614665362,37.666534226761975,-2.35990302349017,24.27538879328524,44.87350492218396,-1.1438792730188765,44.65085820489698,-1.1565938486064358,0.40882828,-0.014752546666666672,0.36547818666666665,0.7890590133333333,0.5485731538182173,0.8034847930547757,0.8029624725978965,0.8174593479949676
LBP03_S01,LBP03,-1475,176,1,175,-1475,1715717318.0,2024-05-14 20:08:38+00:00,2024-05-15 05:08:38+09:00,2024,5,14,20,8,38,0,20.0,8.0,37.0,40.604301,141.563202,1.106,3.0,12.0,-0.310791,-0.11792,1.610107,-124.389648,98.632812,43.640137,-310.0,43.0,367.0,609.0,0.0,1015.200012,16.879999,0.021802,-16.213024,4.05,0.0,1.0,1.0,1.0,0.0,0.0,0.0,5.0,0.0,0.06326489333333334,-0.15005534666666667,0.949043,5.521647119999997,-2.1663411599999995,3.1038411733333326,11.611584206287366,2.9621817287054224,-6.607452749531402,38.13099759501347,-2.241415754341953,24.011090683303987,45.116841622354094,-1.168161401220388,44.88097397956135,-1.1476416376942677,-0.37405589333333333,0.032135346666666675,0.661064,1.06725524,0.7602342428086127,0.776027245543737,0.8079714685766919,0.8184149361737338
LBP03_S01,LBP03,-1474,177,1,176,-1474,1715717318.04,2024-05-14 20:08:38.040000+00:00,2024-05-15 05:08:38.040000+09:00,2024,5,14,20,8,38,40,,,,,,,,,-0.176025,-0.597412,2.077637,-27.282715,-140.319824,38.696289,,,,,,,,,,,0.0,1.0,1.0,1.0,0.0,0.0,0.0,5.0,0.0,0.07233065333333334,-0.15292969333333334,0.9426758133333332,3.639322906666664,-2.7522786533333328,4.25292972,10.508254557161811,-1.0787260430770338,-7.180071028392414,38.55132777729994,-2.2845647960650344,23.723887842168292,45.32380129742008,-1.1251099875928992,45.1076606419192,-1.129547747934092,-0.24835565333333331,-0.4444823066666667,1.1349611866666671,1.8277991466666672,1.243938079938932,0.794113033962881,0.8093160560555157,0.8186062223500036
LBP03_S01,LBP03,-1473,178,1,177,-1473,1715717318.08,2024-05-14 20:08:38.080000+00:00,2024-05-15 05:08:38.080000+09:00,2024,5,14,20,8,38,80,,,,,,,,,0.652588,-0.428223,1.581299,-0.061035,19.104004,35.888672,,,,,,,,,,,0.0,1.0,1.0,1.0,0.0,0.0,0.0,5.0,0.0,0.06542961333333334,-0.15298504000000002,0.9242610933333333,3.937988266666664,0.03417968000000049,3.319498733333333,9.87284918933836,-4.125046897589813,-8.09744085850963,38.946241744873475,-2.449566671968627,23.399990207827905,45.50131497722881,-1.162654892591126,45.32874146757199,-1.1095321704589343,0.5871583866666666,-0.27523796,0.6570379066666667,1.5194342533333334,0.9231520548939269,0.8133874431068872,0.8060652765845431,0.8216518788751187
LBP03_S01,LBP03,-1472,179,1,178,-1472,1715717318.12,2024-05-14 20:08:38.120000+00:00,2024-05-15 05:08:38.120000+09:00,2024,5,14,20,8,38,120,,,,,,,,,-0.416016,-0.007812,0.025391,151.550293,218.87207,-46.264648,,,,,,,,,,,0.0,1.0,1.0,1.0,0.0,0.0,0.0,5.0,0.0,0.0654068266666667,-0.15275066666666667,0.8989420933333332,7.765299466666664,0.33772785333333377,2.4007161866666666,9.540443660833414,-5.8322786613755975,-9.093616600602454,39.32785949130681,-2.682857818423651,23.03624554380381,45.656838118690054,-1.1620125051703747,45.55136160760156,-1.0999001439993423,-0.4814228266666667,0.14493866666666666,-0.8735510933333331,1.4999125866666665,1.0079021122086689,0.8336613047718602,0.8201121528524282,0.8281835835488237
LBP03_S01,LBP03,-1471,180,1,179,-1471,1715717318.16,2024-05-14 20:08:38.160000+00:00,2024-05-15 05:08:38.160000+09:00,2024,5,14,20,8,38,160,,,,,,,,,-0.07373,0.13916,0.01123,116.149902,-155.334473,-80.505371,,,,,,,,,,,0.0,1.0,1.0,1.0,0.0,0.0,0.0,5.0,0.0,0.07366204000000001,-0.13934897333333338,0.8748535466666666,10.939941399999999,-1.0530599066666662,1.5551758266666662,9.44475700234204,-5.934466601448166,-9.788375496982868,39.705649771400495,-2.9202364824815774,22.644710523924495,45.802285091412955,-1.080793385447274,45.791596746305615,-1.0948797407108755,-0.14739204,0.27850897333333335,-0.8636235466666666,1.28952456,0.9193134895342617,0.8283485859105995,0.806593263593129,0.8344196508218159
LBP03_S01,LBP03,-1470,181,1,180,-1470,1715717318.2,2024-05-14 20:08:38.200000+00:00,2024-05-15 05:08:38.200000+09:00,2024,5,14,20,8,38,200,,,,,,,,,0.402832,0.324219,0.563965,26.489258,-65.063477,-68.725586,,,,,,,,,,,0.0,1.0,1.0,1.0,0.0,0.0,0.0,5.0,0.0,0.07735670666666668,-0.13782878666666667,0.87636396,10.340983066666665,-3.2527669333333327,1.4990234799999995,9.863551599911885,-4.358383393724555,-9.94169495133862,40.10019183539697,-3.0945718182305595,22.24704272587095,45.962296178721886,-1.0557895849225594,46.07056092350297,-1.0879174399500369,0.32547529333333336,0.4620477866666667,-0.31239896,1.09992204,0.6457673218296714,0.8100775248305477,0.8014184787306856,0.8279868584212289
LBP03_S01,LBP03,-1469,182,1,181,-1469,1715717318.24,2024-05-14 20:08:38.240000+00:00,2024-05-15 05:08:38.240000+09:00,2024,5,14,20,8,38,240,,,,,,,,,0.609375,-0.189697,1.401611,-57.373047,-36.071777,7.8125,,,,,,,,,,,0.0,1.0,1.0,1.0,0.0,0.0,0.0,5.0,0.0,0.08895828,-0.13238606666666666,0.8987630399999998,8.573404946666665,-3.3211263066666667,3.64176436,11.337185843026587,-1.377628860272731,-9.607164858208053,40.553679269118035,-3.1496769726414686,21.86275613154263,46.17901550446682,-0.976422573824498,46.40863503196859,-1.0783035672125416,0.52041672,-0.05731093333333334,0.5028479600000001,1.0805756133333335,0.7259298701742875,0.8297956377730147,0.8071551695711972,0.8239432913387899
LBP03_S01,LBP03,-1468,183,1,182,-1468,1715717318.28,2024-05-14 20:08:38.280000+00:00,2024-05-15 05:08:38.280000+09:00,2024,5,14,20,8,38,280,,,,,,,,,-0.273682,-0.052979,1.727051,-118.347168,142.211914,34.423828,,,,,,,,,,,0.0,1.0,1.0,1.0,0.0,0.0,0.0,5.0,0.0,0.08485021333333333,-0.13974284,0.9238411599999998,7.264811199999998,-2.085774746666666,5.107421906666666,14.285378764206241,2.315758577425683,-9.079309900530438,41.125094419686285,-3.057046629544441,21.499583735521412,46.50646219531236,-1.0219481619011586,46.820445444142955,-1.0676639426382057,-0.3585322133333333,0.08676384000000001,0.8032098400000001,1.2485058933333333,0.8838661431472925,0.8058759362142273,0.8153618195728874,0.8312002843493256
