file_name,test_id,_program_index,program_index,session_id,index,_index,unixtime,datetime_utc,datetime_jst,rtc_year,rtc_month,rtc_day,rtc_hour,rtc_min,rtc_sec,rtc_msec,gps_hour,gps_min,gps_sec,latitude,longitude,altitude,fix_type,SIV,acc_x,acc_y,acc_z,gyro_x,gyro_y,gyro_z,mag_x,mag_y,mag_z,illuminance,atmopress,water_pressure,water_temp,depth,alt_wps,battery_level,behavior_class,camera_command,camera_recording,camera_count,play_audio,speaker_on,audio_file,prev_sd_write_time_ms,delay_occurred_counter,acc_x_ma,acc_y_ma,acc_z_ma,gyro_x_ma,gyro_y_ma,gyro_z_ma,gyro_x_lowpass,gyro_y_lowpass,gyro_z_lowpass,angle_x,angle_y,angle_z,combined_angle_change,gravity_adjusted_angle,smoothed_angle_change,smoothed_gravity_angle,acc_x_dy,acc_y_dy,acc_z_dy,ODBA,VeDBA,smoothed_VeDBA_1s,smoothed_VeDBA_2s,smoothed_VeDBA_3s
LBP03_S10,LBP03,-1650,1,10,0,-1650,1715756822.0,2024-05-15 07:07:02+00:00,2024-05-15 16:07:02+09:00,2024,5,15,7,7,2,0,7.0,7.0,2.0,40.530834,141.485931,71.218002,3.0,14.0,-0.050049,0.18335,1.325928,23.803711,51.086426,33.752441,-265.0,11.0,367.0,1634.0,0.0,1014.700012,28.51,0.016847,-12.05827,3.698437,0.0,1.0,1.0,10.0,0.0,0.0,0.0,4.0,0.0,,,,,,,23.293834486585403,51.271688574188765,34.492703219202305,0.9317533794634162,2.0508675429675507,1.3797081287680921,2.641555708200758,,5.794466875675932,,,,,,,,,
LBP03_S10,LBP03,-1649,2,10,1,-1649,1715756822.04,2024-05-15 07:07:02.040000+00:00,2024-05-15 16:07:02.040000+09:00,2024,5,15,7,7,2,40,,,,,,,,,0.119873,-1.054199,1.97168,-87.524414,-29.968262,11.352539,,,,,,,,,,,0.0,1.0,1.0,10.0,0.0,0.0,0.0,4.0,0.0,,,,,,,31.03523140560036,38.486728564082064,12.79812544165945,2.1731626356874307,3.590336685530833,1.89163314643447,4.603414962536622,,6.32856244691548,,,,,,,,,
LBP03_S10,LBP03,-1648,3,10,2,-1648,1715756822.08,2024-05-15 07:07:02.080000+00:00,2024-05-15 16:07:02.080000+09:00,2024,5,15,7,7,2,80,,,,,,,,,0.033936,-0.165283,1.570801,141.357422,42.114258,26.916504,,,,,,,,,,,0.0,1.0,1.0,10.0,0.0,0.0,0.0,4.0,0.0,,,,,,,36.218452840696465,25.940605101384048,-6.161325585125918,3.621900749315289,4.627960889586195,1.6451801230294332,6.102688315049462,,6.750599742252559,,,,,,,,,
LBP03_S10,LBP03,-1647,4,10,3,-1647,1715756822.12,2024-05-15 07:07:02.120000+00:00,2024-05-15 16:07:02.120000+09:00,2024,5,15,7,7,2,120,,,,,,,,,0.134521,-0.371582,1.015869,31.494141,98.693848,10.498047,,,,,,,,,,,0.0,1.0,1.0,10.0,0.0,0.0,0.0,4.0,0.0,,,,,,,36.96238971178431,13.824369556950726,-20.17029093538352,5.100396337786662,5.180935671864224,0.8383684856140924,7.318401393485714,,7.042328104936396,,,,,,,,,
LBP03_S10,LBP03,-1646,5,10,4,-1646,1715756822.16,2024-05-15 07:07:02.160000+00:00,2024-05-15 16:07:02.160000+09:00,2024,5,15,7,7,2,160,,,,,,,,,-0.256104,-0.151123,0.073242,63.903809,98.937988,-41.564941,,,,,,,,,,,0.0,1.0,1.0,10.0,0.0,0.0,0.0,4.0,0.0,,,,,,,32.476918743871835,2.683397385084724,-27.81102672223764,6.399473087541535,5.288271567267612,-0.2740725832754133,8.306273999107104,,7.195703848833402,,,,,,,,,
LBP03_S10,LBP03,-1645,6,10,5,-1645,1715756822.2,2024-05-15 07:07:02.200000+00:00,2024-05-15 16:07:02.200000+09:00,2024,5,15,7,7,2,200,,,,,,,,,0.030762,0.210693,0.24707,69.091797,-65.124512,-90.393066,,,,,,,,,,,0.0,1.0,1.0,10.0,0.0,0.0,0.0,4.0,0.0,,,,,,,23.255281385009134,-6.632861327485177,-28.753273178815263,7.329684342941901,5.0229571141682055,-1.4242035104280237,8.999040303113224,,7.217457986639255,,,,,,,,,
LBP03_S10,LBP03,-1644,7,10,6,-1644,1715756822.24,2024-05-15 07:07:02.240000+00:00,2024-05-15 16:07:02.240000+09:00,2024,5,15,7,7,2,240,,,,,,,,,0.026367,-0.095947,0.453125,-19.165039,-94.116211,-80.993652,,,,,,,,,,,0.0,1.0,1.0,10.0,0.0,0.0,0.0,4.0,0.0,,,,,,,10.934711374110014,-13.268763287215675,-23.8900410721059,7.767072797906302,4.492206582679579,-2.37980515331226,9.282823514275027,,7.576837456227547,,,,,,,,,
LBP03_S10,LBP03,-1643,8,10,7,-1643,1715756822.28,2024-05-15 07:07:02.280000+00:00,2024-05-15 16:07:02.280000+09:00,2024,5,15,7,7,2,280,,,,,,,,,0.352051,-0.101807,0.568359,-21.484375,-56.884766,-21.54541,,,,,,,,,,,0.0,1.0,1.0,10.0,0.0,0.0,0.0,4.0,0.0,,,,,,,-2.1508001488272566,-16.78076968371149,-15.20662720844008,7.681040791953212,3.820975795331119,-2.9880702416498632,9.084426643723257,,7.624683405112364,,,,,,,,,
LBP03_S10,LBP03,-1642,9,10,8,-1642,1715756822.32,2024-05-15 07:07:02.320000+00:00,2024-05-15 16:07:02.320000+09:00,2024,5,15,7,7,2,320,,,,,,,,,0.268066,0.125488,0.897217,8.789062,-22.949219,18.127441,,,,,,,,,,,0.0,1.0,1.0,10.0,0.0,0.0,0.0,4.0,0.0,,,,,,,-13.598185151885225,-17.44449862592144,-5.334566076448169,7.137113385877803,3.1231958502942616,-3.20145288470779,8.42270980000945,,7.4265144055574455,,,,,,,,,
LBP03_S10,LBP03,-1641,10,10,9,-1641,1715756822.36,2024-05-15 07:07:02.360000+00:00,2024-05-15 16:07:02.360000+09:00,2024,5,15,7,7,2,360,,,,,,,,,0.104736,-0.227783,1.280762,-129.272461,-45.410156,71.838379,,,,,,,,,,,0.0,1.0,1.0,10.0,0.0,0.0,0.0,4.0,0.0,,,,,,,-21.552124483573067,-16.256464813336233,3.1240156804497743,6.27502840653488,2.472937257760812,-3.076492257489799,7.4132452268919256,,7.043683439978194,,,,,,,,,
LBP03_S10,LBP03,-1640,11,10,10,-1640,1715756822.4,2024-05-15 07:07:02.400000+00:00,2024-05-15 16:07:02.400000+09:00,2024,5,15,7,7,2,400,,,,,,,,,0.196289,-0.517578,1.499023,-69.824219,-5.249023,46.75293,,,,,,,,,,,0.0,1.0,1.0,10.0,0.0,0.0,0.0,4.0,0.0,,,,,,,-25.11898377878142,-14.590718630992074,8.290279679761756,5.270269055383624,1.8893085125211293,-2.7448810702993285,6.235350404083686,,6.541172984046874,,,,,,,,,
LBP03_S10,LBP03,-1639,12,10,11,-1639,1715756822.44,2024-05-15 07:07:02.440000+00:00,2024-05-15 16:07:02.440000+09:00,2024,5,15,7,7,2,440,,,,,,,,,0.222412,-0.424805,1.241699,48.64502,54.199219,25.45166,,,,,,,,,,,0.0,1.0,1.0,10.0,0.0,0.0,0.0,4.0,0.0,,,,,,,-24.452998804295973,-13.642463453393724,9.473821733113619,4.292149103211785,1.3436099743853802,-2.3659282009747837,5.081874451384783,,5.987176559266802,,,,,,,,,
LBP03_S10,LBP03,-1638,13,10,12,-1638,1715756822.48,2024-05-15 07:07:02.480000+00:00,2024-05-15 16:07:02.480000+09:00,2024,5,15,7,7,2,480,,,,,,,,,-0.040283,0.050537,0.599365,33.569336,96.130371,13.122559,,,,,,,,,,,0.0,1.0,1.0,10.0,0.0,0.0,0.0,4.0,0.0,,,,,,,-20.514608878888556,-13.90376722868608,7.24220089509112,3.4715647480562426,0.787459285237937,-2.076240165171139,4.120998319500279,,5.444334839822309,,,,,,,,,
LBP03_S10,LBP03,-1637,14,10,13,-1637,1715756822.52,2024-05-15 07:07:02.520000+00:00,2024-05-15 16:07:02.520000+09:00,2024,5,15,7,7,2,520,,,,,,,,,-0.168213,0.054199,0.257568,-0.244141,50.964355,-6.04248,,,,,,,,,,,0.0,1.0,1.0,10.0,0.0,0.0,0.0,4.0,0.0,,,,,,,-14.633666166124321,-14.93175166528277,3.0803354848648374,2.88621810141127,0.1901892186266262,-1.9530267457765453,3.4900917376932092,,4.966844805144283,,,,,,,,,
LBP03_S10,LBP03,-1636,15,10,14,-1636,1715756822.56,2024-05-15 07:07:02.560000+00:00,2024-05-15 16:07:02.560000+09:00,2024,5,15,7,7,2,560,,,,,,,,,0.066895,-0.18457,0.178467,-94.421387,-134.521484,-48.64502,,,,,,,,,,,0.0,1.0,1.0,10.0,0.0,0.0,0.0,4.0,0.0,,,,,,,-8.068478685745612,-15.560968666816436,-1.223113125447839,2.5634789539814453,-0.43224952804603123,-2.001951270794459,3.281169439793893,,4.602683304014888,,,,,,,,,
LBP03_S10,LBP03,-1635,16,10,15,-1635,1715756822.6,2024-05-15 07:07:02.600000+00:00,2024-05-15 16:07:02.600000+09:00,2024,5,15,7,7,2,600,,,,,,,,,0.261963,-0.250977,0.387207,56.945801,-87.585449,-76.23291,,,,,,,,,,,0.0,1.0,1.0,10.0,0.0,0.0,0.0,4.0,0.0,,,,,,,-1.703361480693468,-14.49723041191501,-4.230807918476153,2.4953444947537067,-1.0121387445226318,-2.171183587533505,3.4590760553125084,,4.394255456703567,,,,,,,,,
LBP03_S10,LBP03,-1634,17,10,16,-1634,1715756822.64,2024-05-15 07:07:02.640000+00:00,2024-05-15 16:07:02.640000+09:00,2024,5,15,7,7,2,640,,,,,,,,,0.296143,0.044678,0.471436,59.936523,-47.302246,-21.179199,,,,,,,,,,,0.0,1.0,1.0,10.0,0.0,0.0,0.0,4.0,0.0,,,,,,,4.061423380890938,-11.017438442704787,-5.311760219422168,2.657801429989344,-1.4528362822308232,-2.3836539963103918,3.8544063198300957,,4.373594040016971,,,,,,,,,
LBP03_S10,LBP03,-1633,18,10,17,-1633,1715756822.68,2024-05-15 07:07:02.680000+00:00,2024-05-15 16:07:02.680000+09:00,2024,5,15,7,7,2,680,,,,,,,,,0.347412,-0.109619,0.906494,24.291992,-32.470703,3.112793,,,,,,,,,,,0.0,1.0,1.0,10.0,0.0,0.0,0.0,4.0,0.0,,,,,,,9.227962773666293,-5.430183537768173,-4.735582972291927,3.026919940935996,-1.6700436237415501,-2.573077315202069,4.309526296943003,,4.553584251977205,,,,,,,,,
LBP03_S10,LBP03,-1632,19,10,18,-1632,1715756822.72,2024-05-15 07:07:02.720000+00:00,2024-05-15 16:07:02.720000+09:00,2024,5,15,7,7,2,720,,,,,,,,,-0.023193,-0.073975,1.062744,-38.574219,-0.183105,29.541016,,,,,,,,,,,0.0,1.0,1.0,10.0,0.0,0.0,0.0,4.0,0.0,,,,,,,13.960569083306515,0.9285482398836794,-3.3940808863900176,3.585342704268257,-1.632901694146203,-2.7088405506576696,4.7810947887154995,,4.921950083907291,,,,,,,,,
LBP03_S10,LBP03,-1631,20,10,19,-1631,1715756822.76,2024-05-15 07:07:02.760000+00:00,2024-05-15 16:07:02.760000+09:00,2024,5,15,7,7,2,760,,,,,,,,,0.29541,-0.303711,1.311523,-71.777344,26.977539,43.09082,,,,,,,,,,,0.0,1.0,1.0,10.0,0.0,0.0,0.0,4.0,0.0,,,,,,,18.281376724680968,6.1680770044204305,-2.294070219878535,4.316597773255496,-1.3861786139693857,-2.800603359452811,5.328966753778706,,5.441518851957291,,,,,,,,,
LBP03_S10,LBP03,-1630,21,10,20,-1630,1715756822.8,2024-05-15 07:07:02.800000+00:00,2024-05-15 16:07:02.800000+09:00,2024,5,15,7,7,2,800,,,,,,,,,0.09375,-0.584229,1.355713,-15.563965,71.899414,34.362793,,,,,,,,,,,0.0,1.0,1.0,10.0,0.0,0.0,0.0,4.0,0.0,,,,,,,21.863067760275882,8.58664983783167,-2.0555373389706983,5.1911204836665314,-1.0427126204561188,-2.882824853011639,6.028736237217737,,6.05755757133394,,,,,,,,,
LBP03_S10,LBP03,-1629,22,10,21,-1629,1715756822.84,2024-05-15 07:07:02.840000+00:00,2024-05-15 16:07:02.840000+09:00,2024,5,15,7,7,2,840,,,,,,,,,-0.000244,-0.114014,0.833008,60.302734,92.102051,38.452148,,,,,,,,,,,0.0,1.0,1.0,10.0,0.0,0.0,0.0,4.0,0.0,,,,,,,24.069227515169192,7.37997754812536,-2.6359517505314205,6.1538895842732995,-0.7475135185311044,-2.9882629230328956,6.881776570987121,,6.7159964076676415,,,,,,,,,
LBP03_S10,LBP03,-1628,23,10,22,-1628,1715756822.88,2024-05-15 07:07:02.880000+00:00,2024-05-15 16:07:02.880000+09:00,2024,5,15,7,7,2,880,,,,,,,,,-0.08252,-0.215332,0.445801,53.894043,59.204102,-6.774902,,,,,,,,,,,0.0,1.0,1.0,10.0,0.0,0.0,0.0,4.0,0.0,,,,,,,24.267074650653765,3.0154896305124894,-3.3964635828824745,7.12457257029945,-0.6268939333106048,-3.1241214663481944,7.80465663880113,,7.382836919328223,,,,,,,,,
LBP03_S10,LBP03,-1627,24,10,23,-1627,1715756822.92,2024-05-15 07:07:02.920000+00:00,2024-05-15 16:07:02.920000+09:00,2024,5,15,7,7,2,920,,,,,,,,,-0.08374,0.16626,0.146729,109.069824,-34.057617,-72.570801,,,,,,,,,,,0.0,1.0,1.0,10.0,0.0,0.0,0.0,4.0,0.0,,,,,,,22.265885855493725,-2.9020454352543297,-3.4720506061929286,8.015208004519199,-0.742975750720778,-3.2630034905959118,8.685779418193214,,8.04810603850046,,,,,,,,,
LBP03_S10,LBP03,-1626,25,10,24,-1626,1715756822.96,2024-05-15 07:07:02.960000+00:00,2024-05-15 16:07:02.960000+09:00,2024,5,15,7,7,2,960,,,,,,,,,0.084473,-0.179688,0.379883,43.579102,-114.379883,-87.158203,,,,,,,,,,,0.0,1.0,1.0,10.0,0.0,0.0,0.0,4.0,0.0,,,,,,,18.632826253157095,-8.234917796331708,-2.2635964428421627,8.760521054645482,-1.0723724625740463,-3.3535473483095983,9.441556633560392,,8.717386979764239,,,,,,,,,
LBP03_S10,LBP03,-1625,26,10,25,-1625,1715756823.0,2024-05-15 07:07:03+00:00,2024-05-15 16:07:03+09:00,2024,5,15,7,7,3,0,7.0,7.0,3.0,40.530899,141.486008,71.088997,3.0,14.0,0.388672,0.210449,0.569092,74.035645,-71.716309,-27.893066,-265.0,7.0,364.0,1671.0,0.0,1014.200012,28.5,0.011892,-7.901858,3.698437,0.0,1.0,1.0,10.0,0.0,0.0,0.0,4.0,0.0,,,,,,,14.67306714853723,-11.133200593854403,0.19861302149736512,9.347443740586971,-1.5177004863282224,-3.345602827449704,10.043464418649519,,9.400607547969958,,,,,,,,,
LBP03_S10,LBP03,-1624,27,10,26,-1624,1715756823.04,2024-05-15 07:07:03.040000+00:00,2024-05-15 16:07:03.040000+09:00,2024,5,15,7,7,3,40,,,,,,,,,0.263184,0.011719,1.046631,-47.485352,-25.695801,24.230957,,,,,,,,,,,0.0,1.0,1.0,10.0,0.0,0.0,0.0,4.0,0.0,,,,,,,12.01702354037494,-10.71613093173743,3.2143903887169403,9.828124682201969,-1.9463457235977195,-3.2170272119010264,10.522811436435909,,10.104743032249724,,,,,,,,,
LBP03_S10,LBP03,-1623,28,10,27,-1623,1715756823.08,2024-05-15 07:07:03.080000+00:00,2024-05-15 16:07:03.080000+09:00,2024,5,15,7,7,3,80,,,,,,,,,0.065918,-0.263916,1.254395,-138.916016,-19.287109,76.660156,,,,,,,,,,,0.0,1.0,1.0,10.0,0.0,0.0,0.0,4.0,0.0,,,,,,,11.961388628183085,-7.332270609752678,5.723586872445882,10.306580227329292,-2.2396365479878266,-2.988083737003191,10.96221748866537,,10.832350457887086,,,,,,,,,
LBP03_S10,LBP03,-1622,29,10,28,-1622,1715756823.12,2024-05-15 07:07:03.120000+00:00,2024-05-15 16:07:03.120000+09:00,2024,5,15,7,7,3,120,,,,,,,,,0.197266,-0.486084,1.51001,-22.888184,12.756348,42.663574,,,,,,,,,,,0.0,1.0,1.0,10.0,0.0,0.0,0.0,4.0,0.0,,,,,,,14.863681029311028,-2.319667410212549,6.806496429077471,10.901127468501732,-2.3324232443963284,-2.715823879840092,11.473904201353303,,11.582225092175708,,,,,,,,,
LBP03_S10,LBP03,-1621,30,10,29,-1621,1715756823.16,2024-05-15 07:07:03.160000+00:00,2024-05-15 16:07:03.160000+09:00,2024,5,15,7,7,3,160,,,,,,,,,0.214844,-0.481934,1.398193,44.494629,60.424805,41.137695,,,,,,,,,,,0.0,1.0,1.0,10.0,0.0,0.0,0.0,4.0,0.0,,,,,,,19.897991100052657,2.5952142931195707,6.117362040471427,11.697047112503839,-2.2286146726715454,-2.471129398221235,12.161172435835887,,12.349273823179658,,,,,,,,,
LBP03_S10,LBP03,-1620,31,10,30,-1620,1715756823.2,2024-05-15 07:07:03.200000+00:00,2024-05-15 16:07:03.200000+09:00,2024,5,15,7,7,3,200,,,,,,,,,-0.077637,-0.204346,0.784424,51.208496,108.642578,29.785156,,,,,,,,,,,0.0,1.0,1.0,10.0,0.0,0.0,0.0,4.0,0.0,,,,,,,25.315258786450006,5.983366839850798,4.036065172914996,12.70965746396184,-1.9892799990775134,-2.3096867913046353,13.07009108001539,,13.124669303027389,,,,,,,,,
LBP03_S10,LBP03,-1619,32,10,31,-1619,1715756823.24,2024-05-15 07:07:03.240000+00:00,2024-05-15 16:07:03.240000+09:00,2024,5,15,7,7,3,240,,,,,,,,,-0.206543,-0.199463,0.217041,76.477051,42.236328,-36.193848,,,,,,,,,,,0.0,1.0,1.0,10.0,0.0,0.0,0.0,4.0,0.0,,,,,,,29.103691520019606,7.189876639272569,1.4697309415916886,13.873805124762624,-1.7016849335066107,-2.250897553640968,14.157850827360766,,13.897561590321052,,,,,,,,,
LBP03_S10,LBP03,-1618,33,10,32,-1618,1715756823.28,2024-05-15 07:07:03.280000+00:00,2024-05-15 16:07:03.280000+09:00,2024,5,15,7,7,3,280,,,,,,,,,0.047363,0.021729,0.371338,91.430664,-60.913086,-79.223633,,,,,,,,,,,0.0,1.0,1.0,10.0,0.0,0.0,0.0,4.0,0.0,,,,,,,29.761442404003727,6.414972894935491,-0.5928344124188311,15.064262820922773,-1.445086017709191,-2.274610930137721,15.303402981687332,,14.6576305677263,,,,,,,,,
LBP03_S10,LBP03,-1617,34,10,33,-1617,1715756823.32,2024-05-15 07:07:03.320000+00:00,2024-05-15 16:07:03.320000+09:00,2024,5,15,7,7,3,320,,,,,,,,,0.26709,-0.01709,0.605957,66.40625,-81.420898,-54.260254,,,,,,,,,,,0.0,1.0,1.0,10.0,0.0,0.0,0.0,4.0,0.0,,,,,,,26.86110367007558,4.4111292124082695,-1.5521315303616023,16.138706967725795,-1.2686408492128602,-2.336696191352185,16.35626672823271,,15.396905001212522,-1.0013037416519623,,,,,,,,
LBP03_S10,LBP03,-1616,35,10,34,-1616,1715756823.36,2024-05-15 07:07:03.360000+00:00,2024-05-15 16:07:03.360000+09:00,2024,5,15,7,7,3,360,,,,,,,,,0.379395,-0.046387,0.938721,40.405273,-16.418457,-3.662109,,,,,,,,,,,0.0,1.0,1.0,10.0,0.0,0.0,0.0,4.0,0.0,,,,,,,21.19099143324971,1.9987809253356201,-1.4609027899994877,16.986346625055784,-1.1886896121994355,-2.3951323029521645,17.195511432037716,,16.11028461412363,-0.9924954686701413,,,,,,,,
LBP03_S10,LBP03,-1615,36,10,35,-1615,1715756823.4,2024-05-15 07:07:03.400000+00:00,2024-05-15 16:07:03.400000+09:00,2024,5,15,7,7,3,400,,,,,,,,,-0.025635,-0.101318,1.362549,-62.072754,16.296387,46.325684,,,,,,,,,,,0.0,1.0,1.0,10.0,0.0,0.0,0.0,4.0,0.0,,,,,,,14.440269596614435,-0.32829997684220424,-0.9532991082933151,17.563957408920363,-1.2018216112731237,-2.433264267283897,17.77238729158613,,16.795884072023032,-0.9800328696650468,,,,,,,,
LBP03_S10,LBP03,-1614,37,10,36,-1614,1715756823.44,2024-05-15 07:07:03.440000+00:00,2024-05-15 16:07:03.440000+09:00,2024,5,15,7,7,3,440,,,,,,,,,0.133301,-0.683594,1.784668,-83.251953,-42.175293,30.578613,,,,,,,,,,,0.0,1.0,1.0,10.0,0.0,0.0,0.0,4.0,0.0,,,,,,,8.581989810756443,-2.5243242359330447,-0.8879474747156415,17.90723700135062,-1.3027945807104455,-2.468782166272523,18.1235012104884,,17.45665414947368,-0.9705896371096064,,,,,,,,
LBP03_S10,LBP03,-1613,38,10,37,-1613,1715756823.48,2024-05-15 07:07:03.480000+00:00,2024-05-15 16:07:03.480000+09:00,2024,5,15,7,7,3,480,,,,,,,,,0.227051,-0.361572,1.547852,36.010742,17.150879,25.45166,,,,,,,,,,,0.0,1.0,1.0,10.0,0.0,0.0,0.0,4.0,0.0,0.12127927999999999,-0.19182293333333333,0.9229525066666667,8.41715492,-0.5249023333333338,1.1881510399999997,5.221629194757879,-4.821668493420531,-1.8928608800749112,18.116102169140934,-1.4956613204472669,-2.5444966014755193,18.354961823527592,-1.0013037416519623,18.102898796762357,-0.969038869006229,0.10577172000000001,-0.16974906666666667,0.6248994933333333,0.90042028,0.6561263438959142,0.6561263438959142,0.6561263438959142,0.6561263438959142
LBP03_S10,LBP03,-1612,39,10,38,-1612,1715756823.52,2024-05-15 07:07:03.520000+00:00,2024-05-15 16:07:03.520000+09:00,2024,5,15,7,7,3,520,,,,,,,,,0.09375,-0.276123,1.181396,-13.427734,50.598145,33.569336,,,,,,,,,,,0.0,1.0,1.0,10.0,0.0,0.0,0.0,4.0,0.0,0.12722654666666666,-0.19358726666666667,0.9135742533333333,7.751464813333332,-2.5830078000000003,0.34342447999999975,5.161006179606031,-7.394566604339023,-4.034090047882243,18.322542416325174,-1.7914439846208277,-2.705860203390809,18.60770033046436,-0.9836871956883201,18.753498997623666,-0.9656378965226448,-0.03347654666666666,-0.08253573333333333,0.2678217466666666,0.38383402666666655,0.28224336031372066,0.4691848521048174,0.4691848521048174,0.4691848521048174
LBP03_S10,LBP03,-1611,40,10,39,-1611,1715756823.56,2024-05-15 07:07:03.560000+00:00,2024-05-15 16:07:03.560000+09:00,2024,5,15,7,7,3,560,,,,,,,,,-0.172363,-0.10376,0.481934,25.817871,91.491699,12.145996,,,,,,,,,,,0.0,1.0,1.0,10.0,0.0,0.0,0.0,4.0,0.0,0.12868813333333334,-0.18378258666666666,0.9034277599999999,8.888346319999998,-2.212727853333334,0.6420898399999997,8.294418177810785,-10.052994285384061,-6.7565216216245325,18.654319143437604,-2.1935637560361902,-2.9761210682557904,19.017167014829898,-0.9551076716548579,19.43416046223913,-0.96391490682357,-0.30105113333333333,0.08002258666666666,-0.42149375999999994,0.80256748,0.5241110464176901,0.48749358354244166,0.48749358354244166,0.48749358354244166
LBP03_S10,LBP03,-1610,41,10,40,-1610,1715756823.6,2024-05-15 07:07:03.600000+00:00,2024-05-15 16:07:03.600000+09:00,2024,5,15,7,7,3,600,,,,,,,,,-0.204834,-0.270264,0.280518,44.921875,-24.108887,-69.519043,,,,,,,,,,,0.0,1.0,1.0,10.0,0.0,0.0,0.0,4.0,0.0,0.13058917333333334,-0.18136072,0.9026041866666666,6.176757773333334,-3.0802408800000003,1.161295573333333,13.794774979323511,-12.153225439004562,-9.113708513769241,19.206110142610545,-2.679692773596373,-3.3406694088065603,19.677791854521896,-0.9422599394432855,20.17263820213148,-0.962339102075433,-0.3354231733333333,-0.08890328,-0.6220861866666667,1.04641264,0.7123227653565739,0.5437008789959747,0.5437008789959747,0.5437008789959747
LBP03_S10,LBP03,-1609,42,10,41,-1609,1715756823.64,2024-05-15 07:07:03.640000+00:00,2024-05-15 16:07:03.640000+09:00,2024,5,15,7,7,3,640,,,,,,,,,0.052979,0.062744,0.398438,57.861328,-81.665039,-75.256348,,,,,,,,,,,0.0,1.0,1.0,10.0,0.0,0.0,0.0,4.0,0.0,0.13186848,-0.19162113333333333,0.9164844000000001,4.719238239999999,-5.243326826666667,1.1189778666666663,20.449279318748758,-12.80810627668947,-10.171095968982911,20.024081315360494,-3.1920170246639517,-3.747513247565877,20.62029730024753,-0.9628357965927192,20.991890381055047,-0.9629713196749322,-0.07888948000000001,0.2543651333333333,-0.5180464,0.8513010133333334,0.5824922691875961,0.551459157034299,0.551459157034299,0.551459157034299
LBP03_S10,LBP03,-1608,43,10,42,-1608,1715756823.68,2024-05-15 07:07:03.680000+00:00,2024-05-15 16:07:03.680000+09:00,2024,5,15,7,7,3,680,,,,,,,,,0.3396,-0.219971,0.733154,-13.000488,-104.309082,-38.696289,,,,,,,,,,,0.0,1.0,1.0,10.0,0.0,0.0,0.0,4.0,0.0,0.13767904,-0.19395837333333332,0.9373763333333333,4.568684853333333,-6.022949213333334,2.1126301999999995,26.99232432686233,-11.310066274380743,-9.38696580781857,21.103774288434987,-3.6444196756391816,-4.12299187987862,21.809404990300415,-0.9486330341047238,21.90267932271552,-0.9669300011350224,0.20192096,-0.026012626666666677,-0.20422233333333328,0.43215591999999997,0.288366940313088,0.5076104542474306,0.5076104542474306,0.5076104542474306
LBP03_S10,LBP03,-1607,44,10,43,-1607,1715756823.72,2024-05-15 07:07:03.720000+00:00,2024-05-15 16:07:03.720000+09:00,2024,5,15,7,7,3,720,,,,,,,,,0.30957,-0.026855,1.113281,87.097168,10.314941,17.39502,,,,,,,,,,,0.0,1.0,1.0,10.0,0.0,0.0,0.0,4.0,0.0,0.13944336,-0.19858728,0.9519238666666666,5.650227826666666,-3.53352864,3.4920247199999994,32.33544535602089,-7.541125322948346,-6.792830609795216,22.397192102675824,-3.9460646885571156,-4.394705104270428,23.162881374387386,-0.9535769686291211,22.89765941163244,-0.9629760654048868,0.17012664000000002,0.17173228000000001,0.16135713333333335,0.5032160533333334,0.29063925080628583,0.47661456804155267,0.47661456804155267,0.47661456804155267
LBP03_S10,LBP03,-1606,45,10,44,-1606,1715756823.76,2024-05-15 07:07:03.760000+00:00,2024-05-15 16:07:03.760000+09:00,2024,5,15,7,7,3,760,,,,,,,,,0.176025,-0.439941,1.55249,-47.424316,-20.385742,46.630859,,,,,,,,,,,0.0,1.0,1.0,10.0,0.0,0.0,0.0,4.0,0.0,0.13961589333333332,-0.19782230666666667,0.9569759466666666,6.464843706666666,-0.5655924400000008,4.300130186666666,35.67206388738032,-2.1389780523027278,-2.910016301435098,23.824074658171035,-4.031623810649225,-4.511105756327832,24.580288830961187,-0.9513084688384743,23.949019578344117,-0.9611202989103104,0.03640910666666666,-0.24211869333333336,0.5955140533333333,0.8740418533333333,0.6438820330054268,0.49752300116203696,0.49752300116203696,0.49752300116203696
LBP03_S10,LBP03,-1605,46,10,45,-1605,1715756823.8,2024-05-15 07:07:03.800000+00:00,2024-05-15 16:07:03.800000+09:00,2024,5,15,7,7,3,800,,,,,,,,,0.345459,-0.501709,1.714355,39.001465,-2.01416,14.831543,,,,,,,,,,,0.0,1.0,1.0,10.0,0.0,0.0,0.0,4.0,0.0,0.13129557333333333,-0.19284182666666666,0.9488900133333334,5.3865559466666655,-0.48421222666666724,3.3536783599999995,36.498338867932546,3.6791752987690343,1.5166117445751377,25.284008212888338,-3.8844567986984635,-4.450441286544827,25.9649090808218,-0.968029060470925,25.010902836830784,-0.9639341660077843,0.21416342666666668,-0.3088671733333333,0.7654649866666666,1.2884955866666665,0.8527611329658101,0.5369939046957896,0.5369939046957896,0.5369939046957896
LBP03_S10,LBP03,-1604,47,10,46,-1604,1715756823.84,2024-05-15 07:07:03.840000+00:00,2024-05-15 16:07:03.840000+09:00,2024,5,15,7,7,3,840,,,,,,,,,0.310791,-0.358398,1.570801,69.091797,54.443359,24.658203,,,,,,,,,,,0.0,1.0,1.0,10.0,0.0,0.0,0.0,4.0,0.0,0.13118816,-0.20838543999999998,0.9482975600000001,3.2958983999999996,-2.004394520000001,2.310384093333333,34.61189950724624,8.55695670556492,5.805005836952464,26.668484193178188,-3.5421785304758666,-4.218241053066728,27.23139062709315,-1.0025581342758338,26.02636236401971,-0.9680602925930005,0.17960283999999999,-0.15001256000000002,0.6225034399999998,0.9521188399999998,0.6650349472814586,0.5497980089543565,0.5497980089543565,0.5497980089543565
LBP03_S10,LBP03,-1603,48,10,47,-1603,1715756823.88,2024-05-15 07:07:03.880000+00:00,2024-05-15 16:07:03.880000+09:00,2024,5,15,7,7,3,880,,,,,,,,,-0.013672,-0.277588,1.244385,14.587402,94.055176,31.921387,,,,,,,,,,,0.0,1.0,1.0,10.0,0.0,0.0,0.0,4.0,0.0,0.13727214666666668,-0.19903322666666665,0.9466471599999999,7.93863928,-0.8040364533333341,1.5372721066666661,30.123504156248774,11.500324985826246,9.500104347623441,27.87342435942814,-3.0821655310428167,-3.8382368791617902,28.304762712696746,-0.9617643843506084,26.937008812569225,-0.9704180587778269,-0.15094414666666667,-0.07855477333333336,0.29773784000000014,0.5272367600000002,0.3429326598535713,0.5309920681270124,0.5309920681270124,0.5309920681270124
LBP03_S10,LBP03,-1602,49,10,48,-1602,1715756823.92,2024-05-15 07:07:03.920000+00:00,2024-05-15 16:07:03.920000+09:00,2024,5,15,7,7,3,920,,,,,,,,,-0.176514,-0.219482,0.441895,52.79541,131.225586,-10.253906,,,,,,,,,,,0.0,1.0,1.0,10.0,0.0,0.0,0.0,4.0,0.0,0.13532553333333336,-0.19759442666666668,0.9527539333333334,5.0952148,-1.5006510400000008,1.6276041333333326,23.468907414554614,12.205222152279132,12.365159915209707,28.812180656010323,-2.5939566449516516,-3.343630482553402,29.12130199758116,-0.9651295307425543,27.692318738352952,-0.975160756794167,-0.31183953333333336,-0.021887573333333327,-0.5108589333333333,0.84458604,0.5989155284198635,0.53665235648475,0.53665235648475,0.53665235648475
LBP03_S10,LBP03,-1601,50,10,49,-1601,1715756823.96,2024-05-15 07:07:03.960000+00:00,2024-05-15 16:07:03.960000+09:00,2024,5,15,7,7,3,960,,,,,,,,,0.006348,0.125244,0.4104,-7.8125,-121.276855,-57.312012,,,,,,,,,,,0.0,1.0,1.0,10.0,0.0,0.0,0.0,4.0,0.0,0.13314454666666667,-0.20234052,0.96555992,4.056803333333333,-1.6178385466666672,1.9482421599999997,15.379507092835826,11.051236983080578,14.25374116701936,29.427360939723755,-2.1519071656284283,-2.7734808358726273,29.635999599696568,-0.9832463426295961,28.25573271945882,-0.979793791215247,-0.12679654666666668,0.32758452,-0.55515992,1.0095409866666667,0.6569562533111539,0.5459065023944734,0.5459065023944734,0.5459065023944734
LBP03_S10,LBP03,-1600,51,10,50,-1600,1715756824.0,2024-05-15 07:07:04+00:00,2024-05-15 16:07:04+09:00,2024,5,15,7,7,4,0,7.0,7.0,4.0,40.530949,141.486099,70.376999,3.0,14.0,0.380859,-0.396729,0.99585,56.82373,-98.754883,-30.395508,-268.0,-2.0,359.0,1710.0,0.0,1014.0,28.52,0.00991,-6.238727,3.698437,0.0,1.0,1.0,10.0,0.0,0.0,0.0,5.0,0.0,0.13704428,-0.20844077333333333,0.9853418266666667,3.7955728666666664,-2.3600260400000006,2.3103840799999995,6.778668166880724,8.775343266288964,14.984313485174072,29.698507666398985,-1.8008934349768697,-2.1741082964656644,29.83238712641117,-0.9835212052954492,28.606524864698788,-0.986662974460107,0.24381472,-0.18828822666666667,0.010508173333333315,0.44261112,0.30823448168035944,0.5289299294863223,0.5289299294863223,0.5289299294863223
LBP03_S10,LBP03,-1599,52,10,51,-1599,1715756824.04,2024-05-15 07:07:04.040000+00:00,2024-05-15 16:07:04.040000+09:00,2024,5,15,7,7,4,40,,,,,,,,,0.366699,0.26001,1.094482,24.719238,-3.112793,47.363281,,,,,,,,,,,0.0,1.0,1.0,10.0,0.0,0.0,0.0,5.0,0.0,0.14098308,-0.21589194666666667,1.00477868,4.087727813333332,-1.5901692666666671,2.871093706666666,-1.3968399281035067,6.031504786571626,14.335868400704463,29.642634069274845,-1.5596332435140048,-1.6006735604374858,29.72676178574268,-0.9864134584409838,28.738642506152093,-0.9896903118116572,0.22571592,0.4759019466666667,0.08970331999999992,0.7913211866666666,0.5343005006563176,0.529287967564322,0.529287967564322,0.529287967564322
LBP03_S10,LBP03,-1598,53,10,52,-1598,1715756824.08,2024-05-15 07:07:04.080000+00:00,2024-05-15 16:07:04.080000+09:00,2024,5,15,7,7,4,80,,,,,,,,,0.007568,-0.432373,1.517822,-169.555664,-2.075195,82.763672,,,,,,,,,,,0.0,1.0,1.0,10.0,0.0,0.0,0.0,5.0,0.0,0.13719076,-0.21457033333333334,1.0115364933333333,5.865071573333333,2.3160807333333326,3.505859333333333,-8.408633960067055,3.11136809832433,12.196429081318922,29.306288710872163,-1.4351785195810316,-1.112816397184729,29.36250424813768,-0.996060014268125,28.65851297532227,-0.9879646755049107,-0.12962276,-0.21780266666666667,0.5062855066666667,0.8537109333333334,0.5661846657918705,0.5315940112035438,0.5315940112035438,0.5315940112035438
LBP03_S10,LBP03,-1597,54,10,53,-1597,1715756824.12,2024-05-15 07:07:04.120000+00:00,2024-05-15 16:07:04.120000+09:00,2024,5,15,7,7,4,120,,,,,,,,,0.170654,-0.843262,1.973389,29.663086,15.563965,29.23584,,,,,,,,,,,0.0,1.0,1.0,10.0,0.0,0.0,0.0,5.0,0.0,0.13266276,-0.20916342666666665,1.0082096666666667,4.106445266666666,1.8880208399999996,3.5416666266666668,-13.879463189311934,-0.016376075233522462,8.773192886683491,28.751110183299687,-1.4358335625903724,-0.7618886817173893,28.797021185446056,-0.9999073128399197,28.38298657251978,-0.9936781676584582,0.03799124000000001,-0.6340985733333333,0.9651793333333334,1.6372691466666667,1.1554633185496994,0.5682922057533176,0.5682922057533176,0.5682922057533176
LBP03_S10,LBP03,-1596,55,10,54,-1596,1715756824.16,2024-05-15 07:07:04.160000+00:00,2024-05-15 16:07:04.160000+09:00,2024,5,15,7,7,4,160,,,,,,,,,0.123535,-0.339355,1.395264,-0.366211,48.156738,25.756836,,,,,,,,,,,0.0,1.0,1.0,10.0,0.0,0.0,0.0,5.0,0.0,0.13329752,-0.22018556,1.0145963733333332,2.786458293333333,0.5737304799999996,2.8198241733333327,-17.819881005979692,-3.405313562496631,4.704903781153934,28.0383149430605,-1.5720461050902377,-0.5736925304712319,28.08821028336084,-1.0200003012870755,27.937481727792907,-0.9970203409977294,-0.009762519999999997,-0.11916944000000002,0.38066762666666687,0.5095995866666669,0.39900439122733583,0.558887327168541,0.558887327168541,0.558887327168541
LBP03_S10,LBP03,-1595,56,10,55,-1595,1715756824.2,2024-05-15 07:07:04.200000+00:00,2024-05-15 16:07:04.200000+09:00,2024,5,15,7,7,4,200,,,,,,,,,-0.113525,-0.008545,0.688477,34.484863,114.440918,0.732422,,,,,,,,,,,0.0,1.0,1.0,10.0,0.0,0.0,0.0,5.0,0.0,0.13569986666666667,-0.21322266666666664,1.02055992,4.988606733333333,1.523437506666666,2.880045533333333,-20.496218873845574,-6.790087018488248,0.9605105203366352,27.218466188106675,-1.8436495858297677,-0.5352721096577665,27.286085495354843,-0.9983024339864272,27.3541468087434,-0.9988799342225508,-0.24922486666666666,0.20467766666666665,-0.33208291999999995,0.7859854533333333,0.4629093292998697,0.5538358535965056,0.5538358535965056,0.5538358535965056
LBP03_S10,LBP03,-1594,57,10,56,-1594,1715756824.24,2024-05-15 07:07:04.240000+00:00,2024-05-15 16:07:04.240000+09:00,2024,5,15,7,7,4,240,,,,,,,,,-0.349854,0.055176,0.048584,-19.897461,29.47998,-55.297852,,,,,,,,,,,0.0,1.0,1.0,10.0,0.0,0.0,0.0,5.0,0.0,0.13877929333333333,-0.21178059999999999,1.0276009333333334,3.4244791333333326,1.492513026666666,3.301595013333333,-22.215519321158293,-9.453754939551994,-1.4671174952142712,26.329845415260344,-2.2217997834118473,-0.5939568094663373,26.430095318794944,-0.9853017712083689,26.670147990176265,-1.000914270067354,-0.48863329333333333,0.2669566,-0.9790169333333334,1.7346068266666668,1.1262781527627819,0.5824579685548195,0.5824579685548195,0.5824579685548195
LBP03_S10,LBP03,-1593,58,10,57,-1593,1715756824.28,2024-05-15 07:07:04.280000+00:00,2024-05-15 16:07:04.280000+09:00,2024,5,15,7,7,4,280,,,,,,,,,0.172363,-0.188965,0.398682,-60.424805,-114.013672,-52.67334,,,,,,,,,,,0.0,1.0,1.0,10.0,0.0,0.0,0.0,5.0,0.0,0.1361914,-0.22436524000000002,1.0398340133333333,3.817545546666666,0.6722005333333329,3.0761718399999998,-23.14784180679578,-10.438742842150113,-1.9396411184598066,25.40393174298851,-2.639349497097852,-0.6715424542047296,25.549498684671864,-1.018899305886082,25.926109391629428,-1.0021736653166187,0.0361716,0.03540024000000003,-0.6411520133333333,0.7127238533333333,0.643146535277929,0.5853479003035389,0.5853479003035389,0.5853479003035389
LBP03_S10,LBP03,-1592,59,10,58,-1592,1715756824.32,2024-05-15 07:07:04.320000+00:00,2024-05-15 16:07:04.320000+09:00,2024,5,15,7,7,4,320,,,,,,,,,0.37085,-0.188477,0.65625,-10.864258,-121.032715,-37.353516,,,,,,,,,,,0.0,1.0,1.0,10.0,0.0,0.0,0.0,5.0,0.0,0.1380533733333333,-0.2170247333333333,1.0419694266666666,4.66552732,-0.04394529333333376,3.0957030933333334,-23.26357507720477,-9.026856674992084,-0.4372374264348945,24.473388739900322,-3.000423764097535,-0.6890319512621254,24.666253550312444,-0.9985512641352675,25.164259403374267,-1.0020394772576116,0.2327966266666667,0.028547733333333297,-0.3857194266666666,0.6470637866666666,0.45142963856387686,0.5792607065880997,0.5792607065880997,0.5792607065880997
LBP03_S10,LBP03,-1591,60,10,59,-1591,1715756824.36,2024-05-15 07:07:04.360000+00:00,2024-05-15 16:07:04.360000+09:00,2024,5,15,7,7,4,360,,,,,,,,,0.373779,-0.1604,0.93457,11.657715,-31.433105,19.65332,,,,,,,,,,,0.0,1.0,1.0,10.0,0.0,0.0,0.0,5.0,0.0,0.13906574666666666,-0.22029621333333332,1.04564456,4.562174466666666,0.37597657333333284,2.969563773333333,-22.3878119654525,-5.222742179950683,2.4335645706970404,23.57787626128222,-3.2093334512955622,-0.5916893684342437,23.802650409201462,-1.0018422748778102,24.42584408247047,-1.0020198627391,0.23471325333333332,0.05989621333333334,-0.11107455999999993,0.4056840266666666,0.266487195829712,0.5656618582942567,0.5656618582942567,0.5656618582942567
LBP03_S10,LBP03,-1590,61,10,60,-1590,1715756824.4,2024-05-15 07:07:04.400000+00:00,2024-05-15 16:07:04.400000+09:00,2024,5,15,7,7,4,400,,,,,,,,,0.079834,0.057129,1.221924,-40.222168,3.051758,64.453125,,,,,,,,,,,0.0,1.0,1.0,10.0,0.0,0.0,0.0,5.0,0.0,0.13548828000000002,-0.2155208266666667,1.0389355733333334,4.830729159999999,0.9423828133333328,2.5081379866666667,-20.32796078657304,0.06136239182419935,5.704558359781497,22.7647578298193,-3.206878955622594,-0.3635070340429838,22.992398940739804,-1.0038645637434787,23.748142567424484,-0.9999928331009096,-0.055654280000000014,0.2726498266666667,0.1829884266666666,0.5112925333333334,0.33304668014802946,0.5559695592048306,0.5559695592048306,0.5559695592048306
LBP03_S10,LBP03,-1589,62,10,61,-1589,1715756824.44,2024-05-15 07:07:04.440000+00:00,2024-05-15 16:07:04.440000+09:00,2024,5,15,7,7,4,440,,,,,,,,,0.517578,-0.543213,1.725342,-79.956055,-6.835938,38.391113,,,,,,,,,,,0.0,1.0,1.0,10.0,0.0,0.0,0.0,5.0,0.0,0.1390364533333333,-0.21883462666666664,1.04271812,2.8214518133333333,-0.2172851600000003,2.788085906666667,-17.018139232790638,5.266067369928775,8.458342262490067,22.084032260507673,-2.996236260825443,-0.025173343543381077,22.286375800274346,-0.9990074109336314,23.162050360239515,-0.9991402595246675,0.3785415466666667,-0.3243783733333333,0.68262388,1.3855438,0.8452753357252452,0.5675417902656472,0.5675417902656472,0.5675417902656472
LBP03_S10,LBP03,-1588,63,10,62,-1588,1715756824.48,2024-05-15 07:07:04.480000+00:00,2024-05-15 16:07:04.480000+09:00,2024,5,15,7,7,4,480,,,,,,,,,0.154053,-0.330322,1.617676,7.629395,94.238281,42.84668,,,,,,,,,,,0.0,1.0,1.0,10.0,0.0,0.0,0.0,5.0,0.0,0.13943358666666666,-0.21733397333333335,1.0421777466666666,2.701009093333333,0.40608723999999974,2.8670247066666663,-12.620706444366094,8.792845463799118,10.187756293455102,21.57920400273303,-2.6445224422734785,0.382336908194823,21.74400436558605,-0.9947181336780552,22.69088132144956,-1.0004047648176422,0.014619413333333331,-0.11298802666666666,0.5754982533333333,0.7031056933333333,0.5866670785087191,0.5647634196501594,0.5682773782749961,0.5682773782749961
LBP03_S10,LBP03,-1587,64,10,63,-1587,1715756824.52,2024-05-15 07:07:04.520000+00:00,2024-05-15 16:07:04.520000+09:00,2024,5,15,7,7,4,520,,,,,,,,,0.132812,-0.3396,1.23291,9.277344,126.525879,22.338867,,,,,,,,,,,0.0,1.0,1.0,10.0,0.0,0.0,0.0,5.0,0.0,0.13991210666666667,-0.2206022,1.0432226666666666,1.7399088266666665,0.018717453333333082,2.9874674133333334,-7.536436276124187,9.674154948727477,10.9332899633398,21.27774655168806,-2.2575562443243795,0.8196685067284151,21.4128679764081,-0.9997111676548048,22.350242408569237,-0.998172539725366,-0.007100106666666661,-0.11899780000000001,0.18968733333333332,0.31578523999999997,0.22403609607969238,0.5624351290807983,0.5555277011566515,0.5555277011566515
LBP03_S10,LBP03,-1586,65,10,64,-1586,1715756824.56,2024-05-15 07:07:04.560000+00:00,2024-05-15 16:07:04.560000+09:00,2024,5,15,7,7,4,560,,,,,,,,,-0.201416,0.045898,0.326416,30.456543,103.149414,-28.503418,,,,,,,,,,,0.0,1.0,1.0,10.0,0.0,0.0,0.0,5.0,0.0,0.14098632,-0.22235350666666667,1.0427050800000002,2.0808919066666665,-0.28483072000000026,2.8271484,-2.316858976426499,7.974132738114668,11.147062721995075,21.185072192631,-1.9385909347997927,1.2655510156082181,21.311195132900973,-0.9997300049051706,22.148323041499008,-0.9980384518288871,-0.34240232000000004,0.2682515066666667,-0.7162890800000001,1.326942906666667,0.8380144782147655,0.5749912663526813,0.5656165146230128,0.5656165146230128
LBP03_S10,LBP03,-1585,66,10,65,-1585,1715756824.6,2024-05-15 07:07:04.600000+00:00,2024-05-15 16:07:04.600000+09:00,2024,5,15,7,7,4,600,,,,,,,,,0.072754,-0.153076,0.460449,-67.871094,-140.197754,-37.231445,,,,,,,,,,,0.0,1.0,1.0,10.0,0.0,0.0,0.0,5.0,0.0,0.14181965333333332,-0.21866861333333332,1.0424121066666667,2.5594075333333333,0.06917318666666641,2.65543616,2.4765564889482743,4.706554183660655,11.369926860568112,21.284134452188933,-1.7503287674533665,1.7203480900309427,21.425163423505172,-0.9897766982240048,22.085815869926854,-0.9983078571894612,-0.06906565333333332,0.06559261333333333,-0.5819631066666667,0.7166213733333333,0.5897062937729038,0.5700866074893345,0.5664471966626642,0.5664471966626642
LBP03_S10,LBP03,-1584,67,10,66,-1584,1715756824.64,2024-05-15 07:07:04.640000+00:00,2024-05-15 16:07:04.640000+09:00,2024,5,15,7,7,4,640,,,,,,,,,0.357666,-0.316162,0.824707,63.232422,-96.313477,-38.696289,,,,,,,,,,,0.0,1.0,1.0,10.0,0.0,0.0,0.0,5.0,0.0,0.1423828,-0.22367512,1.0464908800000001,2.1223958266666667,-0.033365880000000236,2.6180012666666665,6.402328598391987,1.3026173133985774,11.898849830335319,21.540227596124613,-1.6982240749174233,2.1963020832443556,21.718404930895385,-0.997946824138115,22.155073055552375,-0.9976480105454646,0.21528319999999998,-0.09248688,-0.22178388000000016,0.5295539600000001,0.32262791045138806,0.5596920331398861,0.5583198871222883,0.5583198871222883
LBP03_S10,LBP03,-1583,68,10,67,-1583,1715756824.68,2024-05-15 07:07:04.680000+00:00,2024-05-15 16:07:04.680000+09:00,2024,5,15,7,7,4,680,,,,,,,,,0.37207,0.178955,0.890869,85.144043,-10.986328,13.61084,,,,,,,,,,,0.0,1.0,1.0,10.0,0.0,0.0,0.0,5.0,0.0,0.14083006666666667,-0.22048176000000003,1.0459244799999998,1.7944335866666665,0.6396484399999998,2.5716145466666664,9.209429950479358,-1.091371066727381,12.6211205961666,21.908604794143788,-1.7418789175865186,2.7011469070910197,22.143109555868616,-0.9965770549633223,22.339205130903345,-0.9977947760041698,0.23123993333333334,0.39943676000000006,-0.1550554799999998,0.7857321733333332,0.4868920146041958,0.5676330361115305,0.5560157622023498,0.5560157622023498
LBP03_S10,LBP03,-1582,69,10,68,-1582,1715756824.72,2024-05-15 07:07:04.720000+00:00,2024-05-15 16:07:04.720000+09:00,2024,5,15,7,7,4,720,,,,,,,,,0.202637,-0.108398,1.290039,-61.035156,-17.883301,61.645508,,,,,,,,,,,0.0,1.0,1.0,10.0,0.0,0.0,0.0,5.0,0.0,0.1413509066666667,-0.22162758666666665,1.0481380133333333,1.8627929600000002,0.893554693333333,2.6497395466666664,10.827428542897735,-2.120169971050597,13.097374188982432,22.341701935859696,-1.8266857164285424,3.225041874650317,22.64705987961018,-0.9972103851704762,22.612831496952996,-0.9983847804275054,0.06128609333333332,0.11322958666666666,0.2419009866666666,0.41641666666666655,0.27403104182386534,0.5669687077522336,0.5472037396905222,0.5472037396905222
LBP03_S10,LBP03,-1581,70,10,69,-1581,1715756824.76,2024-05-15 07:07:04.760000+00:00,2024-05-15 16:07:04.760000+09:00,2024,5,15,7,7,4,760,,,,,,,,,0.291504,-0.476562,1.673584,-103.271484,-41.442871,51.269531,,,,,,,,,,,0.0,1.0,1.0,10.0,0.0,0.0,0.0,5.0,0.0,0.13907877333333335,-0.22167966666666664,1.0473795466666667,1.4339192533333334,1.3940429733333333,2.891438773333333,11.29510126020278,-2.2914389060821008,12.835837191570135,22.793505986267807,-1.9183432726718264,3.7384753623131224,23.17757869347991,-1.0045363284835531,22.94562861404842,-0.9973702604555083,0.15242522666666664,-0.2548823333333333,0.6262044533333333,1.0335120133333333,0.6930587788523626,0.5689357775861111,0.5516235893620931,0.5516235893620931
LBP03_S10,LBP03,-1580,71,10,70,-1580,1715756824.8,2024-05-15 07:07:04.800000+00:00,2024-05-15 16:07:04.800000+09:00,2024,5,15,7,7,4,800,,,,,,,,,0.243652,-0.45166,1.612793,84.594727,55.969238,29.052734,,,,,,,,,,,0.0,1.0,1.0,10.0,0.0,0.0,0.0,5.0,0.0,0.14069010666666665,-0.22059569333333334,1.0476171733333333,1.1189778533333332,1.0335286533333332,2.9687499733333333,10.693697987554424,-2.6113633225769153,11.596128892253825,23.221253905769984,-2.022797805574903,4.202320518003275,23.684970796995035,-0.9972660973035133,23.307657056623736,-0.9957039365741327,0.10296189333333336,-0.23106430666666666,0.5651758266666667,0.8992020266666667,0.6192056042563585,0.559593556437733,0.5536112956825127,0.5536112956825127
LBP03_S10,LBP03,-1579,72,10,71,-1579,1715756824.84,2024-05-15 07:07:04.840000+00:00,2024-05-15 16:07:04.840000+09:00,2024,5,15,7,7,4,840,,,,,,,,,0.219482,-0.258057,0.974854,25.085449,92.956543,29.907227,,,,,,,,,,,0.0,1.0,1.0,10.0,0.0,0.0,0.0,5.0,0.0,0.13983398666666666,-0.22084309333333332,1.0468391733333333,1.0066731599999998,0.584309893333333,2.6228840933333335,9.154474993523667,-3.9852702293667623,9.551965567317206,23.58743290551093,-2.1822086147495736,4.584399140695964,24.127696553784013,-1.000475065520683,23.673765311122665,-0.9958297756291306,0.07964801333333335,-0.03721390666666666,-0.07198517333333332,0.18884709333333333,0.11362458385918194,0.537537141900842,0.5410402467732747,0.5410402467732747
LBP03_S10,LBP03,-1578,73,10,72,-1578,1715756824.88,2024-05-15 07:07:04.880000+00:00,2024-05-15 16:07:04.880000+09:00,2024,5,15,7,7,4,880,,,,,,,,,-0.162598,-0.04126,0.224609,53.283691,79.833984,7.263184,,,,,,,,,,,0.0,1.0,1.0,10.0,0.0,0.0,0.0,5.0,0.0,0.139847,-0.22094399999999997,1.0455501066666666,1.1800130133333335,0.41910806666666645,2.253417946666666,6.936653860515541,-6.6816088408125305,7.225457792413886,23.864899059931552,-2.449472968382075,4.873417452392519,24.480268026082566,-1.0006181779114123,24.025000261531623,-0.995054855193595,-0.30244499999999996,0.17968399999999998,-0.8209411066666665,1.3030701066666666,0.893142552169636,0.5595455375934846,0.550820866367618,0.550820866367618
LBP03_S10,LBP03,-1577,74,10,73,-1577,1715756824.92,2024-05-15 07:07:04.920000+00:00,2024-05-15 16:07:04.920000+09:00,2024,5,15,7,7,4,920,,,,,,,,,0.048584,0.043213,0.113281,3.173828,-72.32666,-50.415039,,,,,,,,,,,0.0,1.0,1.0,10.0,0.0,0.0,0.0,5.0,0.0,0.14107746666666665,-0.21739908,1.0409700266666668,1.47054036,0.3263346266666664,2.2420247066666663,4.4854676270943745,-10.123700847672016,5.227996845436585,24.04431776501533,-2.8544210022889556,5.082537326209982,24.740839147362358,-0.989565967934832,24.347100563302384,-0.9946070562265836,-0.09249346666666665,0.26061208,-0.9276890266666669,1.2807945733333335,0.968029249462893,0.5743100864352058,0.5620967686134363,0.5620967686134363
LBP03_S10,LBP03,-1576,75,10,74,-1576,1715756824.96,2024-05-15 07:07:04.960000+00:00,2024-05-15 16:07:04.960000+09:00,2024,5,15,7,7,4,960,,,,,,,,,0.092285,-0.051758,0.333984,9.338379,-36.682129,-45.593262,,,,,,,,,,,0.0,1.0,1.0,10.0,0.0,0.0,0.0,5.0,0.0,0.14122394666666668,-0.21445962666666665,1.0385481466666666,0.33365885333333345,0.4549153599999999,2.512207,2.3723219865095615,-13.110856415821246,3.943531317243992,24.13921064447571,-3.3788552589218055,5.2402785788997415,24.93147955865412,-0.9830667660914137,24.627629096264396,-0.9913209443042523,-0.04893894666666668,0.16270162666666665,-0.7045641466666666,0.9162047199999999,0.7247602890535257,0.5770222478649006,0.566377387572386,0.566377387572386
LBP03_S10,LBP03,-1575,76,10,75,-1575,1715756825.0,2024-05-15 07:07:05+00:00,2024-05-15 16:07:05+09:00,2024,5,15,7,7,5,0,7.0,7.0,5.0,40.53101,141.486176,69.579002,3.0,13.0,0.395996,0.051025,0.622559,-26.123047,-103.271484,-29.602051,-262.0,6.0,361.0,1687.0,0.0,1014.400024,28.57,0.013874,-9.564723,3.698437,0.0,1.0,1.0,10.0,0.0,0.0,0.0,4.0,0.0,0.14127277333333335,-0.21845052,1.0383756133333333,0.2335611999999999,0.4484049466666664,2.5366210666666666,1.0971796712958257,-14.350228096956082,3.325596833946132,24.183097831327544,-3.952864382800049,5.373302452257587,25.08624596849448,-0.9910350887739843,24.853309774936662,-0.9878722438870724,0.2547232266666667,0.26947552,-0.4158166133333333,0.94001536,0.5571395103623071,0.5869784490121784,0.5661405189259737,0.5661405189259737
LBP03_S10,LBP03,-1574,77,10,76,-1574,1715756825.04,2024-05-15 07:07:05.040000+00:00,2024-05-15 16:07:05.040000+09:00,2024,5,15,7,7,5,40,,,,,,,,,0.229492,-0.318848,1.210693,-2.258301,-2.197266,33.752441,,,,,,,,,,,0.0,1.0,1.0,10.0,0.0,0.0,0.0,4.0,0.0,0.14067056,-0.21710612,1.0337044,0.9700520799999999,0.804850253333333,2.7571614266666664,0.8299414712147728,-13.030578989908985,2.9275538808419888,24.216295490176133,-4.474087542396409,5.490404607491266,25.230754434984956,-0.9901976197827614,25.008463468726376,-0.9844915478941326,0.08882144,-0.10174188,0.17698860000000005,0.36755192000000003,0.22263338222191212,0.5745117642748023,0.5575528405083722,0.5575528405083722
LBP03_S10,LBP03,-1573,78,10,77,-1573,1715756825.08,2024-05-15 07:07:05.080000+00:00,2024-05-15 16:07:05.080000+09:00,2024,5,15,7,7,5,80,,,,,,,,,0.176514,0.016357,1.509033,-62.011719,-22.949219,65.856934,,,,,,,,,,,0.0,1.0,1.0,10.0,0.0,0.0,0.0,4.0,0.0,0.14146482666666665,-0.21931965333333334,1.0322623333333334,1.5039062533333332,0.538736973333333,2.7433267866666666,1.2236230787074254,-9.171074942893453,2.1621432455614333,24.26524041332443,-4.840930540112147,5.576890337313723,25.36411257357621,-0.9920990652932065,25.074875500503087,-0.9808070513452976,0.03504917333333335,0.23567665333333335,0.4767706666666667,0.7474964933333333,0.5329936191658659,0.5731841224097621,0.5569538351097745,0.5569538351097745
LBP03_S10,LBP03,-1572,79,10,78,-1572,1715756825.12,2024-05-15 07:07:05.120000+00:00,2024-05-15 16:07:05.120000+09:00,2024,5,15,7,7,5,120,,,,,,,,,0.230469,-1.141113,2.056885,-77.819824,-63.537598,7.324219,,,,,,,,,,,0.0,1.0,1.0,10.0,0.0,0.0,0.0,4.0,0.0,0.14567706666666666,-0.21231444,1.0311718266666665,3.34147136,0.15543619999999966,2.8019205333333335,1.426787616932826,-3.605193969967428,0.6567722828380627,24.322311918001745,-4.985138298910845,5.603161228627246,25.45234520923031,-0.9643492659471655,25.03307800409179,-0.9757502331609766,0.08479193333333335,-0.92879856,1.0257131733333333,2.039303666666667,1.3863419314750653,0.5824192669267767,0.5767011707375195,0.5767011707375195
LBP03_S10,LBP03,-1571,80,10,79,-1571,1715756825.16,2024-05-15 07:07:05.160000+00:00,2024-05-15 16:07:05.160000+09:00,2024,5,15,7,7,5,160,,,,,,,,,0.179688,-0.326416,1.640137,52.612305,40.466309,32.958984,,,,,,,,,,,0.0,1.0,1.0,10.0,0.0,0.0,0.0,4.0,0.0,0.14548825333333334,-0.21475583999999998,1.0294367999999998,3.1665039199999994,0.18961589333333298,3.0745442400000003,0.35298864388380524,2.3755023482185895,-1.4860738539239884,24.336431463757098,-4.890118204982101,5.543718274470287,25.434385480202575,-0.9700493243117511,24.864817964779952,-0.9724233957394693,0.03419974666666664,-0.11166016000000001,0.6107002000000001,0.7565601066666667,0.6217655090814622,0.5913297116409417,0.5777491786059833,0.5777491786059833
LBP03_S10,LBP03,-1570,81,10,80,-1570,1715756825.2,2024-05-15 07:07:05.200000+00:00,2024-05-15 16:07:05.200000+09:00,2024,5,15,7,7,5,200,,,,,,,,,0.163086,-0.136475,1.338135,150.20752,121.582031,13.061523,,,,,,,,,,,0.0,1.0,1.0,10.0,0.0,0.0,0.0,4.0,0.0,0.14601233333333333,-0.21241534666666667,1.0262011333333334,4.88606772,0.4760742266666661,2.8987629866666667,-2.8615389815830694,7.554673563280249,-3.6661634465507555,24.221969904493776,-4.587931262450891,5.397071736608257,25.236507734892164,-0.9634591373741158,24.55641422969995,-0.9695207723737939,0.01707366666666668,0.07594034666666666,0.31193386666666667,0.40494788000000004,0.32149834139372435,0.585673272124696,0.5719252959420683,0.5719252959420683
LBP03_S10,LBP03,-1569,82,10,81,-1569,1715756825.24,2024-05-15 07:07:05.240000+00:00,2024-05-15 16:07:05.240000+09:00,2024,5,15,7,7,5,240,,,,,,,,,0.039307,-0.038574,0.832031,41.931152,128.479004,-20.385742,,,,,,,,,,,0.0,1.0,1.0,10.0,0.0,0.0,0.0,4.0,0.0,0.14621416,-0.21282225333333335,1.020651,4.940592453333333,-0.30273436000000054,2.6912434533333327,-8.41304279672935,11.25619703109462,-5.025088588886856,23.8854481926246,-4.137683381207106,5.196068193052782,24.791816871551106,-0.9636301000323334,24.10256313675611,-0.9654480636531634,-0.10690716,0.17424825333333335,-0.18862,0.4697754133333334,0.27815301373341816,0.5517482665635214,0.5653970230040983,0.5653970230040983
LBP03_S10,LBP03,-1568,83,10,82,-1568,1715756825.28,2024-05-15 07:07:05.280000+00:00,2024-05-15 16:07:05.280000+09:00,2024,5,15,7,7,5,280,,,,,,,,,-0.271973,0.271729,-0.038086,-102.355957,-50.78125,-92.529297,,,,,,,,,,,0.0,1.0,1.0,10.0,0.0,0.0,0.0,4.0,0.0,0.14513343999999997,-0.20499348,1.0132747066666665,5.227050786666667,-0.03743488000000051,2.3966471066666664,-15.634451296284947,13.51059905233443,-4.844695031734749,23.260070140773202,-3.597259419113729,5.002280391783392,24.062293061969637,-0.9500499960682016,23.50965270086315,-0.9610803756691375,-0.41710643999999997,0.47672248,-1.0513607066666666,1.9451896266666666,1.2274369396223404,0.5751198827372979,0.5797891951044949,0.5797891951044949
LBP03_S10,LBP03,-1567,84,10,83,-1567,1715756825.32,2024-05-15 07:07:05.320000+00:00,2024-05-15 16:07:05.320000+09:00,2024,5,15,7,7,5,320,,,,,,,,,0.26001,-1.040283,0.852783,-148.010254,-136.962891,-60.119629,,,,,,,,,,,0.0,1.0,1.0,10.0,0.0,0.0,0.0,4.0,0.0,0.14211912000000002,-0.20345702666666665,1.0075097333333332,3.3146158933333325,-0.30517577333333384,2.862141893333333,-23.160873626301512,14.842320769807387,-2.9154394200745446,22.33363519572114,-3.0035665883214335,4.88566281498041,23.058238754243945,-0.9562975937197599,22.797226355471242,-0.9577244774558658,0.11789088,-0.8368259733333334,-0.1547267333333332,1.1094435866666665,0.8591369688474938,0.5914281759486425,0.5857327647586013,0.5857327647586013
LBP03_S10,LBP03,-1566,85,10,84,-1566,1715756825.36,2024-05-15 07:07:05.360000+00:00,2024-05-15 16:07:05.360000+09:00,2024,5,15,7,7,5,360,,,,,,,,,0.561035,0.473633,1.156982,218.933105,44.616699,13.85498,,,,,,,,,,,0.0,1.0,1.0,10.0,0.0,0.0,0.0,4.0,0.0,0.14084633333333335,-0.20060872000000002,1.0045409866666666,2.3315429733333333,-0.9244791600000006,2.860514293333333,-29.369329071877967,15.822283084312911,0.3155325449205272,21.15886203284602,-2.3706752649489173,4.898284116777232,21.847442207854115,-0.9540405324346581,21.996869870030682,-0.9578401261802837,0.4201886666666666,0.67424172,0.15244101333333338,1.2468714,0.8089491177631403,0.6131266528259797,0.5903831054461958,0.5903831054461958
LBP03_S10,LBP03,-1565,86,10,85,-1565,1715756825.4,2024-05-15 07:07:05.400000+00:00,2024-05-15 16:07:05.400000+09:00,2024,5,15,7,7,5,400,,,,,,,,,0.050293,-0.409668,1.957031,-283.081055,-57.495117,53.527832,,,,,,,,,,,0.0,1.0,1.0,10.0,0.0,0.0,0.0,4.0,0.0,0.14355141333333332,-0.20286131999999998,1.0053905866666666,1.8269856799999995,-1.3248697866666672,2.894693973333333,-32.88766398179223,16.671297879082566,3.904592169869995,19.84335547357433,-1.7038233497856146,5.054467803572032,20.54773503905609,-0.9503080015676809,21.149354290451715,-0.9591564409188817,-0.09325841333333332,-0.20680668,0.9516404133333334,1.2517055066666667,0.9783075236546588,0.6389370865662449,0.598299930307593,0.598299930307593
LBP03_S10,LBP03,-1564,87,10,86,-1564,1715756825.44,2024-05-15 07:07:05.440000+00:00,2024-05-15 16:07:05.440000+09:00,2024,5,15,7,7,5,440,,,,,,,,,0.058838,-0.780762,2.202148,-29.23584,45.410156,49.499512,,,,,,,,,,,0.0,1.0,1.0,10.0,0.0,0.0,0.0,4.0,0.0,0.14503905333333333,-0.20327473333333332,1.0134634933333333,1.0880533866666664,-1.8774414000000006,3.711751266666666,-32.98014301478945,17.147775850010625,6.805084985839891,18.52414975298275,-1.0179123157851895,5.326671203005628,19.30165007605535,-0.9465207399425013,20.301547678581574,-0.9582110020850644,-0.08620105333333333,-0.5774872666666666,1.188684506666667,1.8523728266666668,1.3243462618013806,0.6580999236092903,0.6128208569374687,0.6128208569374687
LBP03_S10,LBP03,-1563,88,10,87,-1563,1715756825.48,2024-05-15 07:07:05.480000+00:00,2024-05-15 16:07:05.480000+09:00,2024,5,15,7,7,5,480,,,,,,,,,0.252197,-0.406982,2.083008,13.977051,40.466309,40.283203,,,,,,,,,,,0.0,1.0,1.0,10.0,0.0,0.0,0.0,4.0,0.0,0.14435219999999999,-0.20772134666666667,1.0140234,1.6984049466666662,0.28483073333333275,4.3123372133333335,-29.691547021082496,16.760369803806647,8.293306252432965,17.33648787213945,-0.34749752363292363,5.658403453102946,18.23984911965712,-0.9585400831604891,19.503374902197073,-0.9549372606892051,0.10784480000000002,-0.19926065333333334,1.0689846,1.3760900533333333,1.0927320732416648,0.6783425233986081,0.6215529715243838,0.6222308807865706
LBP03_S10,LBP03,-1562,89,10,88,-1562,1715756825.52,2024-05-15 07:07:05.520000+00:00,2024-05-15 16:07:05.520000+09:00,2024,5,15,7,7,5,520,,,,,,,,,0.127197,-0.504639,1.715332,21.66748,108.703613,36.010742,,,,,,,,,,,0.0,1.0,1.0,10.0,0.0,0.0,0.0,4.0,0.0,0.13818033333333335,-0.2017936,1.00403316,0.9041341199999997,0.2986653733333329,3.9119465866666663,-23.725933416335213,15.151414870522107,8.215705019552761,16.387450535486042,0.2585590711879606,5.987031653885056,17.44878035482472,-0.9655057531913447,18.80365339870969,-0.9531624385248859,-0.010983333333333345,-0.30284539999999993,0.71129884,1.0251275733333332,0.7731636370766648,0.7003076250384871,0.6313713770596426,0.6251334337921494
LBP03_S10,LBP03,-1561,90,10,89,-1561,1715756825.56,2024-05-15 07:07:05.560000+00:00,2024-05-15 16:07:05.560000+09:00,2024,5,15,7,7,5,560,,,,,,,,,-0.217529,-0.085449,0.685303,38.879395,158.447266,-1.037598,,,,,,,,,,,0.0,1.0,1.0,10.0,0.0,0.0,0.0,4.0,0.0,0.13814453333333332,-0.20994138666666667,0.99823564,0.3344726666666663,-1.1222330666666671,2.86702472,-16.14759771302197,12.400968272273374,6.948287734066191,15.741546626965164,0.7545978020788956,6.264963163247704,16.95922968441289,-0.9832124716977343,18.243975393923584,-0.9490404379493848,-0.3556735333333333,0.12449238666666668,-0.31293264,0.79309856,0.48982532991787,0.6863800591066113,0.6306856627296462,0.6225804507001819
LBP03_S10,LBP03,-1560,91,10,90,-1560,1715756825.6,2024-05-15 07:07:05.600000+00:00,2024-05-15 16:07:05.600000+09:00,2024,5,15,7,7,5,600,,,,,,,,,-0.077637,0.154541,0.137695,-74.951172,-119.689941,-73.547363,,,,,,,,,,,0.0,1.0,1.0,10.0,0.0,0.0,0.0,4.0,0.0,0.14370117333333335,-0.20481117333333332,0.9884830400000001,3.8517252666666666,-1.8725585866666672,1.7854817466666664,-8.063395329975142,9.04543219004268,5.110828011731353,15.419010813766159,1.1164150896806029,6.469396283716958,16.75844161619078,-0.9540047490359419,17.8515230860008,-0.943766773836853,-0.22133817333333333,0.35935217333333336,-0.8507880400000001,1.4314783866666667,0.9497183058470383,0.7007805395895765,0.6354335735394555,0.6286385591288273
LBP03_S10,LBP03,-1559,92,10,91,-1559,1715756825.64,2024-05-15 07:07:05.640000+00:00,2024-05-15 16:07:05.640000+09:00,2024,5,15,7,7,5,640,,,,,,,,,0.34375,-0.781982,0.950439,-39.0625,-145.874023,-75.317383,,,,,,,,,,,0.0,1.0,1.0,10.0,0.0,0.0,0.0,4.0,0.0,0.14440430666666668,-0.19571937333333334,0.9763085600000001,3.81103516,-2.1150716133333343,1.7537434666666665,-0.4147648798869942,5.7821077792362265,3.2049560855484756,15.402420218570679,1.347699400850052,6.597594527138897,16.81008910770611,-0.9308926860737401,17.633148819875988,-0.9392529950643251,0.19934569333333332,-0.5862626266666666,-0.02586956000000007,0.81147788,0.6197675427216565,0.7126661248803872,0.6361790790101367,0.6284772679214242
LBP03_S10,LBP03,-1558,93,10,92,-1558,1715756825.68,2024-05-15 07:07:05.680000+00:00,2024-05-15 16:07:05.680000+09:00,2024,5,15,7,7,5,680,,,,,,,,,0.527588,0.412598,1.35376,189.453125,38.757324,7.629395,,,,,,,,,,,0.0,1.0,1.0,10.0,0.0,0.0,0.0,4.0,0.0,0.14500001333333332,-0.19715166666666667,0.9742968399999999,3.34228516,-3.0485026000000004,1.8001301866666661,6.0877267106332456,3.048222010579045,1.38432615532312,15.645929286996008,1.4696282812732138,6.652967573351821,17.06507802709581,-0.9323017744250098,17.573357737647587,-0.9374054973893668,0.3825879866666666,0.6097496666666666,0.37946316000000013,1.3718008133333335,0.8137324580837059,0.7257397426195676,0.6466863893655491,0.6317853963171792
LBP03_S10,LBP03,-1557,94,10,93,-1557,1715756825.72,2024-05-15 07:07:05.720000+00:00,2024-05-15 16:07:05.720000+09:00,2024,5,15,7,7,5,720,,,,,,,,,0.207764,0.03418,1.59082,-155.883789,-2.502441,61.157227,,,,,,,,,,,0.0,1.0,1.0,10.0,0.0,0.0,0.0,4.0,0.0,0.1502083466666667,-0.19686194666666665,0.9803905866666668,3.4619140666666666,-3.7255859333333334,2.2770182,10.927565444515889,0.7593833726052258,-0.5144073995985038,16.083031904776643,1.5000036161774228,6.632391277367882,17.461458706382878,-0.9150775879647466,17.63775972148985,-0.9348480420971462,0.05755565333333332,0.23104194666666666,0.6104294133333331,0.8990270133333331,0.6552229414578117,0.7409874186049256,0.6539780631785795,0.6321965813196464
LBP03_S10,LBP03,-1556,95,10,94,-1556,1715756825.76,2024-05-15 07:07:05.760000+00:00,2024-05-15 16:07:05.760000+09:00,2024,5,15,7,7,5,760,,,,,,,,,0.101318,-1.247559,2.229004,-42.297363,-34.545898,26.184082,,,,,,,,,,,0.0,1.0,1.0,10.0,0.0,0.0,0.0,4.0,0.0,0.15962566666666667,-0.20325192,0.9973827733333334,4.0576171866666675,-3.0289713466666672,3.4212239333333323,13.713721100528913,-1.6123534300392133,-2.7130613523874625,16.6315807487978,1.4355094789758542,6.523868823272383,17.922919128626244,-0.9013038913093417,17.781209736182475,-0.9317527530080033,-0.05830766666666666,-1.04430708,1.2316212266666668,2.3342359733333335,1.6158180303815597,0.7778977886660934,0.6734167831261023,0.6491555718207139
LBP03_S10,LBP03,-1555,96,10,95,-1555,1715756825.8,2024-05-15 07:07:05.800000+00:00,2024-05-15 16:07:05.800000+09:00,2024,5,15,7,7,5,800,,,,,,,,,0.233398,-0.033691,1.515869,48.034668,18.188477,35.827637,,,,,,,,,,,0.0,1.0,1.0,10.0,0.0,0.0,0.0,4.0,0.0,0.15702475999999999,-0.20153317333333334,1.00304032,4.541829426666666,0.1456705866666664,4.796549453333333,14.163695062536283,-4.653983313223369,-5.181168393407938,17.19812855129925,1.2493501464469194,6.316622087536065,18.363992377807985,-0.9051702138424014,17.957483064375385,-0.9261583719754141,0.07637324000000001,0.16784217333333334,0.5128286799999999,0.7570440933333333,0.544974423223601,0.7749285414247831,0.667261048931258,0.6473897896411018
LBP03_S10,LBP03,-1554,97,10,96,-1554,1715756825.84,2024-05-15 07:07:05.840000+00:00,2024-05-15 16:07:05.840000+09:00,2024,5,15,7,7,5,840,,,,,,,,,0.075684,-0.359375,1.108643,52.55127,123.596191,28.991699,,,,,,,,,,,0.0,1.0,1.0,10.0,0.0,0.0,0.0,4.0,0.0,0.14969402666666667,-0.20168615999999998,0.99895504,5.244954426666666,2.5968424666666663,5.208333306666666,12.196727668505245,-8.526136726949161,-7.477999683302712,17.685997658039458,0.9083046773689529,6.017502100203957,18.70373925377133,-0.9280457631929196,18.127059976824974,-0.9233081688579649,-0.07401002666666667,-0.15768884000000002,0.10968796000000003,0.34138682666666675,0.20585116680919718,0.7786176047427837,0.6580773733218127,0.6400308125939034
LBP03_S10,LBP03,-1553,98,10,97,-1553,1715756825.88,2024-05-15 07:07:05.880000+00:00,2024-05-15 16:07:05.880000+09:00,2024,5,15,7,7,5,880,,,,,,,,,-0.35083,0.142822,-0.057373,74.035645,101.68457,-41.381836,,,,,,,,,,,0.0,1.0,1.0,10.0,0.0,0.0,0.0,4.0,0.0,0.14567385333333335,-0.19831377333333333,0.9897623333333333,5.6241862,1.82454428,4.017740866666666,8.105615019511717,-12.646354779634143,-8.860641825764594,18.010222258819926,0.40245048618358725,5.6630764271733725,18.883868958079773,-0.9329655302382838,18.261788723013623,-0.9221850883263645,-0.49650385333333336,0.34113577333333334,-1.0471353333333333,1.88477496,1.2080488808561063,0.7912138578902426,0.6753796977418637,0.6493425842047593
LBP03_S10,LBP03,-1552,99,10,98,-1552,1715756825.92,2024-05-15 07:07:05.920000+00:00,2024-05-15 16:07:05.920000+09:00,2024,5,15,7,7,5,920,,,,,,,,,0.182373,-0.082275,0.43042,-41.625977,-121.032715,-51.574707,,,,,,,,,,,0.0,1.0,1.0,10.0,0.0,0.0,0.0,4.0,0.0,0.14719729333333334,-0.20114906666666665,0.9821679333333333,6.853027346666666,0.16845703999999975,2.2802734133333327,2.6812579831541004,-15.754787260300526,-8.621081729158176,18.11747257814609,-0.2277410042284338,5.318233158007045,18.88328050175096,-0.934552862299914,18.34725332670042,-0.920984367571647,0.03517570666666667,0.11887406666666665,-0.5517479333333333,0.7057977066666665,0.5655034535729865,0.7751128260546463,0.6747114562449259,0.6479903401623113
LBP03_S10,LBP03,-1551,100,10,99,-1551,1715756825.96,2024-05-15 07:07:05.960000+00:00,2024-05-15 16:07:05.960000+09:00,2024,5,15,7,7,5,960,,,,,,,,,0.114258,-0.067139,0.339355,34.545898,-67.626953,-81.237793,,,,,,,,,,,0.0,1.0,1.0,10.0,0.0,0.0,0.0,4.0,0.0,0.1427344,-0.1919238,0.9702245733333332,8.653971359999998,-0.23274738666666703,1.5673827866666663,-2.8400753241502827,-16.39654163793349,-6.484922426479911,18.00386956518008,-0.8836026697457734,5.0588362609478486,18.72196296634197,-0.9272686613718417,18.383392305012126,-0.9209331904195268,-0.028476400000000013,0.1247848,-0.6308695733333332,0.7841307733333331,0.6437224325948117,0.7718713117962978,0.6744467798305992,0.6479225955977478
LBP03_S10,LBP03,-1550,101,10,100,-1550,1715756826.0,2024-05-15 07:07:06+00:00,2024-05-15 16:07:06+09:00,2024,5,15,7,7,6,0,7.0,7.0,6.0,40.531082,141.486237,69.210999,3.0,13.0,0.424561,-0.034668,0.647461,1.953125,-100.769043,-18.859863,-266.0,12.0,364.0,1737.0,0.0,1014.599976,28.629999,0.015856,-11.226815,3.698437,0.0,1.0,1.0,10.0,0.0,0.0,0.0,7.0,0.0,0.14255210666666668,-0.19097002666666665,0.9623469600000001,6.46891276,-1.7244466000000003,1.536458306666666,-7.046856230708091,-13.617441749385776,-2.8567532517830796,17.721995315951755,-1.4283003397212044,4.944566130876526,18.454210740686662,-0.9255027178614498,18.382622709006874,-0.9229874171256647,0.28200889333333334,0.15630202666666665,-0.31488596000000013,0.7531968800000002,0.4506800497740281,0.7676129333727666,0.6772956911924726,0.6448406808192522
LBP03_S10,LBP03,-1549,102,10,101,-1549,1715756826.04,2024-05-15 07:07:06.040000+00:00,2024-05-15 16:07:06.040000+09:00,2024,5,15,7,7,6,40,,,,,,,,,0.34375,-0.119629,1.007812,-21.911621,-48.461914,12.207031,,,,,,,,,,,0.0,1.0,1.0,10.0,0.0,0.0,0.0,7.0,0.0,0.14251630666666665,-0.18853186666666666,0.96154944,5.431315106666667,-3.87858072,1.997884093333333,-8.769686280588877,-7.524396045839156,1.238422538279582,17.3712078647282,-1.7292761815547706,4.9941030324077085,18.15737656959263,-0.919661880757736,18.365134349073816,-0.927106280011382,0.20123369333333335,0.06890286666666666,0.04626255999999995,0.31639912,0.2176759720897373,0.7674146369674796,0.6709632006211409,0.6382689160695673
LBP03_S10,LBP03,-1548,103,10,102,-1548,1715756826.08,2024-05-15 07:07:06.080000+00:00,2024-05-15 16:07:06.080000+09:00,2024,5,15,7,7,6,80,,,,,,,,,0.128418,0.012451,1.232422,-103.027344,7.263184,63.781738,,,,,,,,,,,0.0,1.0,1.0,10.0,0.0,0.0,0.0,7.0,0.0,0.14713870666666667,-0.1949771733333333,0.9729752266666666,4.003906253333334,-5.837402333333333,2.7709960666666658,-7.498819107340957,0.5865288160345046,4.518390097018121,17.07125510043456,-1.7058150289133904,5.174838636288433,17.9197240639638,-0.9202945668778364,18.353123521028856,-0.9291443607902243,-0.01872070666666667,0.2074281733333333,0.2594467733333333,0.4855956533333333,0.3327003759294251,0.759402907238022,0.666293514823892,0.6336390897038076
LBP03_S10,LBP03,-1547,104,10,103,-1547,1715756826.12,2024-05-15 07:07:06.120000+00:00,2024-05-15 16:07:06.120000+09:00,2024,5,15,7,7,6,120,,,,,,,,,0.239502,-0.861572,1.815918,-55.664062,5.065918,39.855957,,,,,,,,,,,0.0,1.0,1.0,10.0,0.0,0.0,0.0,7.0,0.0,0.14914391999999999,-0.19522457333333332,0.98182288,5.34342448,-3.439127586666667,3.3854166399999994,-3.6233393191674765,8.620120797246804,5.9555352512699855,16.92632152766786,-1.3610101970235182,5.413060046339233,17.82284848949989,-0.9145658164435442,18.36684335384511,-0.9303184950777974,0.09035808000000001,-0.6663474266666667,0.83409512,1.5908006266666668,1.0714000862676787,0.7468052334297266,0.6646122501782515,0.6401728359211788
LBP03_S10,LBP03,-1546,105,10,104,-1546,1715756826.16,2024-05-15 07:07:06.160000+00:00,2024-05-15 16:07:06.160000+09:00,2024,5,15,7,7,6,160,,,,,,,,,0.098389,-0.242432,1.355713,19.897461,110.900879,37.658691,,,,,,,,,,,0.0,1.0,1.0,10.0,0.0,0.0,0.0,7.0,0.0,0.1461328533333333,-0.19423825333333333,0.9829752266666666,4.393717453333334,-2.063802053333333,4.029134093333332,1.653271398074591,14.43211542707095,5.2027604441872155,16.992452383590845,-0.7837255799406802,5.621170464106721,17.91522316857374,-0.9218461583707197,18.424155081061656,-0.9306194453180352,-0.04774385333333331,-0.048193746666666676,0.37273777333333336,0.4686753733333333,0.37886087211320346,0.7370890479509962,0.664209379795969,0.6363300129240027
LBP03_S10,LBP03,-1545,106,10,105,-1545,1715756826.2,2024-05-15 07:07:06.200000+00:00,2024-05-15 16:07:06.200000+09:00,2024,5,15,7,7,6,200,,,,,,,,,-0.038574,-0.290283,0.950439,56.335449,127.685547,35.644531,,,,,,,,,,,0.0,1.0,1.0,10.0,0.0,0.0,0.0,7.0,0.0,0.14344405333333335,-0.2010448933333333,0.9830403333333334,3.5921224,-1.957193986666667,3.857421853333333,6.748049084005086,16.616074893369145,2.7360722170271545,17.26237434695105,-0.11908258420591433,5.730613352787808,18.18910877847743,-0.9463588426995738,18.543163964892926,-0.9313603945629664,-0.18201805333333335,-0.0892381066666667,-0.03260133333333337,0.30385749333333345,0.20532135387196987,0.732441968450126,0.659057620287411,0.6300835106189008
LBP03_S10,LBP03,-1544,107,10,106,-1544,1715756826.24,2024-05-15 07:07:06.240000+00:00,2024-05-15 16:07:06.240000+09:00,2024,5,15,7,7,6,240,,,,,,,,,-0.376953,-0.203369,0.160156,44.311523,79.772949,-18.066406,,,,,,,,,,,0.0,1.0,1.0,10.0,0.0,0.0,0.0,7.0,0.0,0.14221358666666667,-0.20021808,0.9770800533333335,4.73388672,-1.4217122133333335,3.1249999733333325,10.342923326945018,14.978732468099627,-0.35654918264647456,17.67609128002885,0.4800667145180708,5.716351385481949,18.583630973321696,-0.9484265709813438,18.745881695552388,-0.9316070301033651,-0.5191665866666666,-0.0031509200000000015,-0.8169240533333335,1.33924156,0.9679404847006488,0.7600334672888153,0.6558908669261683,0.6349100388200686
LBP03_S10,LBP03,-1543,108,10,107,-1543,1715756826.28,2024-05-15 07:07:06.280000+00:00,2024-05-15 16:07:06.280000+09:00,2024,5,15,7,7,6,280,,,,,,,,,0.168213,0.103027,0.38916,67.810059,-87.95166,-73.425293,,,,,,,,,,,0.0,1.0,1.0,10.0,0.0,0.0,0.0,7.0,0.0,0.14045902666666668,-0.1961328,0.9665429466666666,6.247558586666667,-1.005859346666667,2.470703106666666,11.974515054766426,10.490761917461143,-2.853191604946376,18.155071882219506,0.8996971912165166,5.602223721284094,19.02106728624234,-0.9447068731140128,19.06012341533785,-0.9321888661248723,0.02775397333333332,0.2991598,-0.5773829466666667,0.9042967199999999,0.6508747468394439,0.7369709795774994,0.6560454311573986,0.635134893862595
LBP03_S10,LBP03,-1542,109,10,108,-1542,1715756826.32,2024-05-15 07:07:06.320000+00:00,2024-05-15 16:07:06.320000+09:00,2024,5,15,7,7,6,320,,,,,,,,,0.202881,-0.035645,0.547607,57.983398,-115.112305,-80.200195,,,,,,,,,,,0.0,1.0,1.0,10.0,0.0,0.0,0.0,7.0,0.0,0.13917973333333333,-0.19134113333333333,0.9558919066666668,5.273437493333334,-1.7333984000000002,2.039388013333333,12.301771336480142,4.754018417807438,-3.9313578895897936,18.647142735678713,1.089857927928814,5.444969405700502,19.456397773916404,-0.9375623647022936,19.517622465706832,-0.933224641716991,0.06370126666666667,0.15569613333333332,-0.40828490666666684,0.6276823066666668,0.44158317712713846,0.7202688279086851,0.6558485019286637,0.6324466755746025
LBP03_S10,LBP03,-1541,110,10,109,-1541,1715756826.36,2024-05-15 07:07:06.360000+00:00,2024-05-15 16:07:06.360000+09:00,2024,5,15,7,7,6,360,,,,,,,,,0.380371,-0.053955,0.842041,53.405762,-28.808594,-31.37207,,,,,,,,,,,0.0,1.0,1.0,10.0,0.0,0.0,0.0,7.0,0.0,0.13893560000000002,-0.18980792,0.9546549200000001,4.318847653333334,-3.300781213333334,1.8465169199999996,12.899629034876098,-0.728637066799377,-3.508188366201147,19.163127897073757,1.060712445256839,5.304641871052456,19.91205180465469,-0.9346781538211538,20.14864733534813,-0.936559539029257,0.2414354,0.13585292,-0.11261392000000003,0.48990224000000004,0.2990467575872589,0.6998727335016498,0.6564996931638147,0.6278795534103924
LBP03_S10,LBP03,-1540,111,10,110,-1540,1715756826.4,2024-05-15 07:07:06.400000+00:00,2024-05-15 16:07:06.400000+09:00,2024,5,15,7,7,6,400,,,,,,,,,0.06665,0.164551,1.019043,-40.283203,9.338379,45.471191,,,,,,,,,,,0.0,1.0,1.0,10.0,0.0,0.0,0.0,7.0,0.0,0.1434180266666667,-0.19317054666666666,0.9648307066666666,3.2609049466666673,-4.45231116,1.9392903466666662,15.61251795121009,-5.1125518864013415,-2.2226182226662337,19.78762861512216,0.8562103698007854,5.215737142145807,20.481388047281243,-0.927969073265437,20.97547473591529,-0.9390756102144001,-0.0767680266666667,0.35772154666666667,0.05421229333333333,0.4887018666666667,0.3698607949166086,0.675534864352128,0.6572359754591862,0.6243928134307466
LBP03_S10,LBP03,-1539,112,10,111,-1539,1715756826.44,2024-05-15 07:07:06.440000+00:00,2024-05-15 16:07:06.440000+09:00,2024,5,15,7,7,6,440,,,,,,,,,0.144287,-0.463135,1.603027,-168.518066,-32.531738,50.842285,,,,,,,,,,,0.0,1.0,1.0,10.0,0.0,0.0,0.0,7.0,0.0,0.14544276,-0.19485349333333332,0.9758691199999998,2.7978515600000002,-3.4472655866666666,2.8206379999999993,21.696960772579594,-8.359432480124575,-1.0708342066643122,20.655507046025342,0.5218330705958023,5.172903773879234,21.299793767447234,-0.9254802409728079,22.007001557081836,-0.9395952100159002,-0.0011557600000000057,-0.2682815066666667,0.6271578800000002,0.8965951466666668,0.682131445578203,0.6498462717032009,0.6539730976562456,0.6251626618593794
LBP03_S10,LBP03,-1538,113,10,112,-1538,1715756826.48,2024-05-15 07:07:06.480000+00:00,2024-05-15 16:07:06.480000+09:00,2024,5,15,7,7,6,480,,,,,,,,,0.230713,-0.660889,1.534912,28.503418,16.662598,27.282715,,,,,,,,,,,0.0,1.0,1.0,10.0,0.0,0.0,0.0,7.0,0.0,0.14633794666666666,-0.19825193333333332,0.9851432133333333,2.416178386666667,-3.1225585600000003,3.6002604,31.112273433373822,-10.969245501046391,-0.8815273516656773,21.899997983360294,0.08306325055394664,5.137642679812608,22.494714567653656,-0.9306523227990234,23.23516512726399,-0.936967280961651,0.08437505333333334,-0.4626370666666666,0.5497687866666667,1.0967809066666667,0.7234624550533908,0.6350754869756698,0.6567090051871389,0.6260604766748123
LBP03_S10,LBP03,-1537,114,10,113,-1537,1715756826.52,2024-05-15 07:07:06.520000+00:00,2024-05-15 16:07:06.520000+09:00,2024,5,15,7,7,6,520,,,,,,,,,0.048584,-0.175293,0.831055,41.809082,77.331543,50.109863,,,,,,,,,,,0.0,1.0,1.0,10.0,0.0,0.0,0.0,7.0,0.0,0.14342128,-0.20167314666666664,0.9897558399999998,3.0607096400000002,-1.7838541333333333,4.109700506666666,42.29571973409586,-13.486369955412114,-1.891185363319605,23.59182677272413,-0.4563915476625379,5.0619952652798235,24.13309718591288,-0.9479147895662053,24.633018348771596,-0.9343093683585094,-0.09483728000000001,0.026380146666666632,-0.15870083999999984,0.27991826666666647,0.1867511136048693,0.611618986036798,0.6559633055376425,0.6247872467186943
LBP03_S10,LBP03,-1536,115,10,114,-1536,1715756826.56,2024-05-15 07:07:06.560000+00:00,2024-05-15 16:07:06.560000+09:00,2024,5,15,7,7,6,560,,,,,,,,,-0.112793,-0.269775,0.373779,65.856934,71.533203,11.108398,,,,,,,,,,,0.0,1.0,1.0,10.0,0.0,0.0,0.0,7.0,0.0,0.14234706666666666,-0.19974605333333334,0.9867285066666667,3.132324226666667,-1.7757161066666667,3.784993479999999,52.558263058037994,-16.053713552964425,-3.6194774333479103,25.69415729504565,-1.0985400897811148,4.917216167945907,26.183497174245318,-0.9470068702221506,26.154870994928825,-0.9320078367476189,-0.25514006666666667,-0.07002894666666665,-0.6129495066666667,0.93811852,0.6676133646900907,0.6187305074276868,0.652555283267149,0.6267006109623263
LBP03_S10,LBP03,-1535,116,10,115,-1535,1715756826.6,2024-05-15 07:07:06.600000+00:00,2024-05-15 16:07:06.600000+09:00,2024,5,15,7,7,6,600,,,,,,,,,0.111084,0.255127,0.19873,182.739258,-52.856445,-65.124512,,,,,,,,,,,0.0,1.0,1.0,10.0,0.0,0.0,0.0,7.0,0.0,0.14315761333333335,-0.20295242666666666,0.98089192,4.007161466666666,-1.6105142800000003,2.967122386666666,58.95716154278312,-18.250166154779944,-5.094915845871339,28.052443756756972,-1.8285467359723127,4.713419534111053,28.504376990142894,-0.9515548407145752,27.739273962922447,-0.9297473668351819,-0.03207361333333335,0.4580794266666667,-0.7821619200000001,1.27231496,0.9069965528631323,0.6170216373083306,0.6589010884489536,0.6292962614624139
LBP03_S10,LBP03,-1534,117,10,116,-1534,1715756826.64,2024-05-15 07:07:06.640000+00:00,2024-05-15 16:07:06.640000+09:00,2024,5,15,7,7,6,640,,,,,,,,,0.038818,-0.120361,0.268311,44.73877,-79.101562,-54.80957,,,,,,,,,,,0.0,1.0,1.0,10.0,0.0,0.0,0.0,7.0,0.0,0.14262050666666667,-0.18966792000000002,0.9670442666666665,4.920247400000001,-0.9847004666666669,2.9475911333333324,59.29938521119008,-19.298643706496197,-5.316478217010878,30.424419165204576,-2.6004924842321606,4.5007604054306185,30.865266675143232,-0.9221472804388504,29.314961981536555,-0.9282487902800817,-0.10380250666666668,0.06930692000000002,-0.6987332666666666,0.8718426933333333,0.7097933414007495,0.6206226692554943,0.6666443970679407,0.6309936090919226
LBP03_S10,LBP03,-1533,118,10,117,-1533,1715756826.68,2024-05-15 07:07:06.680000+00:00,2024-05-15 16:07:06.680000+09:00,2024,5,15,7,7,6,680,,,,,,,,,0.378906,-0.044434,0.490479,115.966797,-82.824707,-51.879883,,,,,,,,,,,0.0,1.0,1.0,10.0,0.0,0.0,0.0,7.0,0.0,0.14262050666666667,-0.18805985333333333,0.9583235600000001,3.850911453333333,-1.5714517733333333,2.625325506666666,52.89667444323773,-18.529721231913307,-3.728756526276726,32.540286142934086,-3.341681333508693,4.351610144379549,32.99959950131843,-0.9181277470825979,30.808957932329967,-0.9245753320826104,0.23628549333333335,0.14362585333333333,-0.4678445600000001,0.8477559066666668,0.5434498619257333,0.6098113654091754,0.6677755540143715,0.6343947147134246
LBP03_S10,LBP03,-1532,119,10,118,-1532,1715756826.72,2024-05-15 07:07:06.720000+00:00,2024-05-15 16:07:06.720000+09:00,2024,5,15,7,7,6,720,,,,,,,,,0.324707,-0.057373,0.697021,91.186523,-48.095703,1.831055,,,,,,,,,,,0.0,1.0,1.0,10.0,0.0,0.0,0.0,7.0,0.0,0.14375332,-0.18813797333333332,0.9535742133333334,1.5983072800000004,-3.093261666666667,2.694498693333333,40.81265399910889,-15.841316502520565,-0.48698554044482384,34.17279230289844,-3.9753339936095156,4.3321307227617565,34.67492423548866,-0.9145470485933868,32.15560076723721,-0.9240246759432914,0.18095368000000003,0.1307649733333333,-0.25655321333333336,0.5682718666666667,0.340093022316055,0.5972061686435051,0.6690967936242153,0.6350540983335548
LBP03_S10,LBP03,-1531,120,10,119,-1531,1715756826.76,2024-05-15 07:07:06.760000+00:00,2024-05-15 16:07:06.760000+09:00,2024,5,15,7,7,6,760,,,,,,,,,0.094971,0.147217,0.999268,-25.939941,-0.488281,24.536133,,,,,,,,,,,0.0,1.0,1.0,10.0,0.0,0.0,0.0,7.0,0.0,0.14585944,-0.18991857333333334,0.9560481733333334,0.5818684800000005,-4.626464786666666,3.1648762933333328,25.54048481114203,-11.89816552020581,3.6035779398775474,35.19441169534412,-4.451260614417748,4.476273840356859,35.756081484590915,-0.9120734546967834,33.30526445232944,-0.9201871912652727,-0.05088844000000001,0.3371355733333333,0.04321982666666668,0.43124384000000004,0.3436829666269856,0.5463207660933221,0.6621092773797078,0.6310514441151756
LBP03_S10,LBP03,-1530,121,10,120,-1530,1715756826.8,2024-05-15 07:07:06.800000+00:00,2024-05-15 16:07:06.800000+09:00,2024,5,15,7,7,6,800,,,,,,,,,0.119385,-0.386475,1.281982,-104.431152,-22.094727,49.743652,,,,,,,,,,,0.0,1.0,1.0,10.0,0.0,0.0,0.0,7.0,0.0,0.15136725333333337,-0.19754878666666664,0.9699348933333333,1.3582356666666668,-3.8671874400000004,4.847005199999999,10.251521828189226,-7.953540187508084,7.430962658261505,35.60447256847169,-4.769402221918072,4.773512346687319,36.23826823342234,-0.9129833077144363,34.23167071465029,-0.9143297393686293,-0.03198225333333336,-0.18892621333333337,0.3120471066666667,0.5329555733333334,0.3661821614876778,0.5391690756238852,0.6570488085243342,0.6245637244954672
LBP03_S10,LBP03,-1529,122,10,121,-1529,1715756826.84,2024-05-15 07:07:06.840000+00:00,2024-05-15 16:07:06.840000+09:00,2024,5,15,7,7,6,840,,,,,,,,,0.215332,-0.144775,1.348145,-4.638672,7.995605,24.536133,,,,,,,,,,,0.0,1.0,1.0,10.0,0.0,0.0,0.0,7.0,0.0,0.15024094666666665,-0.18616206666666668,0.97301432,3.719075506666667,-1.7667642533333332,5.826009106666667,-2.100428646601899,-5.357233794154456,10.035155880689661,35.52045542260762,-4.98369157368425,5.1749185819149055,36.23975327538137,-0.8887456589980942,34.93659641402409,-0.9079647295151648,0.06509105333333334,0.041387066666666694,0.37513067999999994,0.48160879999999995,0.3829788004427612,0.5462541809692277,0.6624358928560057,0.6208029758709511
LBP03_S10,LBP03,-1528,123,10,122,-1528,1715756826.88,2024-05-15 07:07:06.880000+00:00,2024-05-15 16:07:06.880000+09:00,2024,5,15,7,7,6,880,,,,,,,,,0.189209,-0.446533,1.308105,-23.254395,64.025879,34.484863,,,,,,,,,,,0.0,1.0,1.0,10.0,0.0,0.0,0.0,7.0,0.0,0.14573248,-0.1951204,0.9720377599999999,0.444335933333334,-2.426757733333333,5.724283853333333,-9.505838892133118,-4.95177895050241,10.979141806544073,35.140221866922296,-5.181762731704346,5.614084254176668,35.96114291672608,-0.925145761405833,35.45055071680367,-0.9030189701054677,0.04347651999999999,-0.2514126,0.3360672400000002,0.6309563600000002,0.4219475003259151,0.5148101257480201,0.6530119918191314,0.6218565070772492
LBP03_S10,LBP03,-1527,124,10,123,-1527,1715756826.92,2024-05-15 07:07:06.920000+00:00,2024-05-15 16:07:06.920000+09:00,2024,5,15,7,7,6,920,,,,,,,,,-0.064941,-0.250488,1.047363,-2.624512,89.782715,51.025391,,,,,,,,,,,0.0,1.0,1.0,10.0,0.0,0.0,0.0,7.0,0.0,0.14708013333333333,-0.19048173333333332,0.9601464933333334,3.9982096400000007,-1.9376626799999996,5.1074218799999995,-11.249609951040451,-6.61723658207916,10.482095619132034,34.69023746888068,-5.446452194987512,6.033368078941949,35.6297340368352,-0.9095399427860197,35.828457338371955,-0.8971930507473612,-0.21202113333333333,-0.06000626666666667,0.0872165066666667,0.3592439066666667,0.23698192347594563,0.5016692645441385,0.6383910452993924,0.6170307256779969
LBP03_S10,LBP03,-1526,125,10,124,-1526,1715756826.96,2024-05-15 07:07:06.960000+00:00,2024-05-15 16:07:06.960000+09:00,2024,5,15,7,7,6,960,,,,,,,,,-0.045166,-0.208252,0.452393,37.963867,40.893555,-12.268066,,,,,,,,,,,0.0,1.0,1.0,10.0,0.0,0.0,0.0,7.0,0.0,0.14959314666666668,-0.18528966666666663,0.9471517066666667,2.814941413333334,-3.0183918399999996,4.713541666666666,-7.855040605469781,-9.193311181514815,9.269108709017546,34.37603584466189,-5.8141846422481045,6.404132427302651,35.44755979745379,-0.8884323512557151,36.14063359287796,-0.8922003350348765,-0.19475914666666666,-0.022962333333333362,-0.4947587066666667,0.7124801866666668,0.5322072639347494,0.497208657797736,0.6345399847970169,0.6153674058196449
LBP03_S10,LBP03,-1525,126,10,125,-1525,1715756827.0,2024-05-15 07:07:07+00:00,2024-05-15 16:07:07+09:00,2024,5,15,7,7,7,0,7.0,7.0,7.0,40.531147,141.486298,70.275002,3.0,14.0,-0.082031,0.047852,0.246582,-2.746582,-97.717285,-60.424805,-266.0,2.0,360.0,1668.0,0.0,1014.0,28.68,0.00991,-6.238727,3.698437,0.0,1.0,1.0,10.0,0.0,0.0,0.0,5.0,0.0,0.14954432,-0.18504878666666666,0.9364127733333334,2.832845053333334,-3.6539712666666664,4.324544266666666,-0.7381856781654553,-10.875039203529585,8.208009294405096,34.346508417535276,-6.249186210389288,6.732452799078855,35.55363398388083,-0.8879047421799308,36.460441928662796,-0.8861854025735336,-0.23157532000000003,0.23290078666666666,-0.6898307733333334,1.15430688,0.7640264400534313,0.5097425134089122,0.6386777233908394,0.6214446319312857
LBP03_S10,LBP03,-1524,127,10,126,-1524,1715756827.04,2024-05-15 07:07:07.040000+00:00,2024-05-15 16:07:07.040000+09:00,2024,5,15,7,7,7,40,,,,,,,,,0.364014,-0.351074,0.659668,-18.005371,-109.680176,-31.005859,,,,,,,,,,,0.0,1.0,1.0,10.0,0.0,0.0,0.0,5.0,0.0,0.15062830666666668,-0.18052078666666665,0.92926108,2.765299480000001,-4.910481679999999,3.9746093733333328,8.255041860826427,-9.965897734979817,7.896228112785605,34.67671009196833,-6.647822119788481,7.048301923590279,36.00480970293905,-0.8726896863418813,36.85055087576549,-0.884119991793605,0.21338569333333332,-0.17055321333333334,-0.26959307999999993,0.6535319866666666,0.3837997934881665,0.5163874662648493,0.6419010516161644,0.6194379558357104
LBP03_S10,LBP03,-1523,128,10,127,-1523,1715756827.08,2024-05-15 07:07:07.080000+00:00,2024-05-15 16:07:07.080000+09:00,2024,5,15,7,7,7,80,,,,,,,,,0.424316,-0.047607,0.786377,94.238281,-58.349609,1.647949,,,,,,,,,,,0.0,1.0,1.0,10.0,0.0,0.0,0.0,5.0,0.0,0.15550460000000002,-0.18145504,0.9354915466666667,2.0336914000000004,-6.991373613333334,4.09423828,17.27877477141756,-5.675643216137735,8.38849975830535,35.36786108282504,-6.8748478484339905,7.383841913922494,36.77866571700129,-0.8598685535015306,37.35033125076437,-0.8848737218290313,0.26881140000000003,0.13384804,-0.14911454666666668,0.5517739866666667,0.33527602748989843,0.5164904923272682,0.6379466997826451,0.616359173991684
LBP03_S10,LBP03,-1522,129,10,128,-1522,1715756827.12,2024-05-15 07:07:07.120000+00:00,2024-05-15 16:07:07.120000+09:00,2024,5,15,7,7,7,120,,,,,,,,,0.223389,-0.161377,1.060303,26.611328,-2.624512,26.855469,,,,,,,,,,,0.0,1.0,1.0,10.0,0.0,0.0,0.0,5.0,0.0,0.15911137333333333,-0.18754228,0.9494336133333333,2.630208333333334,-5.354817626666667,5.086263013333332,24.78938204273939,1.403600043959447,9.192168853185708,36.35943636453461,-6.8187038466756125,7.751528668049922,37.796686780548775,-0.8646198914685419,37.96747401456282,-0.8780360675387289,0.06427762666666667,0.026165280000000013,0.11086938666666668,0.20131229333333336,0.1307985323588175,0.4788664301709138,0.6128358318003201,0.6026969768424723
LBP03_S10,LBP03,-1521,130,10,129,-1521,1715756827.16,2024-05-15 07:07:07.160000+00:00,2024-05-15 16:07:07.160000+09:00,2024,5,15,7,7,7,160,,,,,,,,,0.168213,-0.446777,1.244385,-35.522461,-21.850586,29.23584,,,,,,,,,,,0.0,1.0,1.0,10.0,0.0,0.0,0.0,5.0,0.0,0.15644536,-0.17952470666666664,0.9506152533333333,2.67415364,-3.4448241466666665,6.2027994799999995,29.68543740894114,9.374776880101159,9.526947267623843,37.546853860892256,-6.443712771471566,8.132606558754876,38.954164842439226,-0.851924130083354,38.67651094966215,-0.8743397502548593,0.011767639999999996,-0.26725229333333334,0.2937697466666668,0.5727896800000001,0.3973196819938489,0.47960478256613953,0.6083469152585679,0.6026745140526925
LBP03_S10,LBP03,-1520,131,10,130,-1520,1715756827.2,2024-05-15 07:07:07.200000+00:00,2024-05-15 16:07:07.200000+09:00,2024,5,15,7,7,7,200,,,,,,,,,0.2771,0.013184,1.145508,43.457031,63.659668,36.499023,,,,,,,,,,,0.0,1.0,1.0,10.0,0.0,0.0,0.0,5.0,0.0,0.15207036,-0.18996416,0.94801108,0.02766926666666715,-3.96484368,6.12874348,31.312127757043474,15.655656320815392,8.72283812498288,38.799338971173995,-5.817486518638951,8.48152008375419,40.139357704449296,-0.8923291999151508,39.42511038235751,-0.8723869210875244,0.12502964000000003,0.20314816,0.19749691999999996,0.52567472,0.3096879384144652,0.4837794459478394,0.6081107071989826,0.6006315621742204
LBP03_S10,LBP03,-1519,132,10,131,-1519,1715756827.24,2024-05-15 07:07:07.240000+00:00,2024-05-15 16:07:07.240000+09:00,2024,5,15,7,7,7,240,,,,,,,,,0.356445,-0.424072,1.322998,24.780273,81.726074,30.517578,,,,,,,,,,,0.0,1.0,1.0,10.0,0.0,0.0,0.0,5.0,0.0,0.15295252,-0.19271806666666666,0.9419531466666666,2.277018226666667,-3.75732416,5.190429666666667,29.405950813825736,17.905737400098758,6.5748540994113895,39.975577003727025,-5.101257022635001,8.744514247730647,41.237557025370165,-0.8962829593523559,40.14658732672874,-0.86897345013468,0.20349248,-0.23135393333333334,0.38104485333333327,0.8158912666666667,0.49002960332736667,0.46466301069290816,0.6123482389908617,0.5921482481817483
LBP03_S10,LBP03,-1518,133,10,132,-1518,1715756827.28,2024-05-15 07:07:07.280000+00:00,2024-05-15 16:07:07.280000+09:00,2024,5,15,7,7,7,280,,,,,,,,,-0.022705,-0.060059,0.822998,-24.108887,124.084473,50.476074,,,,,,,,,,,0.0,1.0,1.0,10.0,0.0,0.0,0.0,5.0,0.0,0.15358404,-0.17804683999999998,0.9273991066666666,2.054036453333334,-2.8466796399999996,4.758300759999999,24.06187812824262,14.903256403531051,3.498070851774579,40.93805212885673,-4.505126766493759,8.88443708180163,42.13257055471054,-0.8567692185028085,40.77506005963797,-0.8676842891148461,-0.17628904,0.11798783999999998,-0.10440110666666658,0.39867798666666654,0.2364287357433776,0.4480851702490655,0.5925280749132824,0.5867253441879542
LBP03_S10,LBP03,-1517,134,10,133,-1517,1715756827.32,2024-05-15 07:07:07.320000+00:00,2024-05-15 16:07:07.320000+09:00,2024,5,15,7,7,7,320,,,,,,,,,-0.178955,-0.199951,0.349854,41.870117,62.805176,-6.469727,,,,,,,,,,,0.0,1.0,1.0,10.0,0.0,0.0,0.0,5.0,0.0,0.1517383466666667,-0.18183916,0.9219824400000001,0.9985351466666672,-2.4430338133333334,4.1837564799999996,15.761181987855887,7.027214051376839,0.4095659023308984,41.56849940837097,-4.224038204438686,8.900819717894866,42.72010338782856,-0.872576769947323,41.25872618135102,-0.8681048521136342,-0.3306933466666667,-0.01811183999999999,-0.5721284400000001,0.9209336266666668,0.661072673867722,0.45686475011868877,0.588566789013687,0.5895205846586722
LBP03_S10,LBP03,-1516,135,10,134,-1516,1715756827.36,2024-05-15 07:07:07.360000+00:00,2024-05-15 16:07:07.360000+09:00,2024,5,15,7,7,7,360,,,,,,,,,0.072266,0.092529,0.245117,40.100098,-89.355469,-69.641113,,,,,,,,,,,0.0,1.0,1.0,10.0,0.0,0.0,0.0,5.0,0.0,0.15231777333333332,-0.1811327733333333,0.9223079599999999,-0.05371095999999947,-3.9453124533333326,3.857421853333333,5.431540626279833,-3.850136633971196,-1.6232059612895031,41.78576103342216,-4.378043669797534,8.835891479443285,42.933554124407344,-0.868904059582366,41.56750600027624,-0.8697041365526091,-0.08005177333333333,0.2736617733333333,-0.6771909599999999,1.0309045066666664,0.7347697931348821,0.4742936715405937,0.5870832025211218,0.5957643526227411
LBP03_S10,LBP03,-1515,136,10,135,-1515,1715756827.4,2024-05-15 07:07:07.400000+00:00,2024-05-15 16:07:07.400000+09:00,2024,5,15,7,7,7,400,,,,,,,,,0.194092,-0.155518,0.652344,51.940918,-121.154785,-65.856934,,,,,,,,,,,0.0,1.0,1.0,10.0,0.0,0.0,0.0,5.0,0.0,0.15934902666666667,-0.18361974666666667,0.9357356933333333,-1.1466471599999994,-5.18961584,4.126790346666666,-5.5458079911435485,-15.007814068278478,-1.8194885280910973,41.56392871377642,-4.9783562325286725,8.763111938319641,42.76840342759319,-0.8537700326514883,41.69406349790449,-0.8741597013550301,0.034742973333333316,0.028101746666666677,-0.28339169333333325,0.3462364133333332,0.2868930710423175,0.4709749625856221,0.5732549134688749,0.5951489711679983
LBP03_S10,LBP03,-1514,137,10,136,-1514,1715756827.44,2024-05-15 07:07:07.440000+00:00,2024-05-15 16:07:07.440000+09:00,2024,5,15,7,7,7,440,,,,,,,,,0.182861,0.148682,0.82959,55.114746,-36.92627,-15.075684,,,,,,,,,,,0.0,1.0,1.0,10.0,0.0,0.0,0.0,5.0,0.0,0.15938809333333334,-0.18598954666666664,0.9430924666666668,-1.4021810133333328,-3.8696288533333334,4.834798159999999,-15.483099813026476,-23.775181951194217,-0.0074117053143716236,40.94460472125536,-5.929363510576441,8.762815470107066,42.28953703203134,-0.8597980761435416,41.65037279980443,-0.8760725356157254,0.023472906666666654,0.33467154666666665,-0.11350246666666675,0.4716469200000001,0.3541734482355484,0.45785664269191595,0.5538514571975584,0.588600946001469
LBP03_S10,LBP03,-1513,138,10,137,-1513,1715756827.48,2024-05-15 07:07:07.480000+00:00,2024-05-15 16:07:07.480000+09:00,2024,5,15,7,7,7,480,,,,,,,,,0.140381,-0.258789,1.026855,-156.25,-17.63916,40.527344,,,,,,,,,,,0.0,1.0,1.0,10.0,0.0,0.0,0.0,5.0,0.0,0.1608627066666667,-0.18940750666666667,0.9510970266666667,-2.0393880399999995,-2.94270828,5.988769519999999,-22.73155987522868,-28.32183135506476,3.3194912391537605,40.03534232624621,-7.062236764779032,8.895595119673217,41.61532693413175,-0.8640741834894117,41.46305247622876,-0.8767715405312936,-0.020481706666666682,-0.06938149333333332,0.07575797333333334,0.16562117333333334,0.10474999975521146,0.43310814447998874,0.5340918157278293,0.5821753849514223
LBP03_S10,LBP03,-1512,139,10,138,-1512,1715756827.52,2024-05-15 07:07:07.520000+00:00,2024-05-15 16:07:07.520000+09:00,2024,5,15,7,7,7,520,,,,,,,,,0.130127,-0.156738,1.173096,-68.54248,-35.03418,56.945801,,,,,,,,,,,0.0,1.0,1.0,10.0,0.0,0.0,0.0,5.0,0.0,0.15783210666666667,-0.19238602666666665,0.9577181199999999,-2.4609375199999994,-0.8463541066666668,6.502278626666667,-26.145023586089604,-28.07803386136268,7.2248624764423175,38.98954138280263,-8.18535811923354,9.18458961873091,40.884484969800965,-0.8806127358582913,41.169114230184384,-0.8806451404251587,-0.027705106666666673,0.035648026666666666,0.21537788000000002,0.2787310133333334,0.22005905101570616,0.4344404619764222,0.5230297240066101,0.5821223576839024
LBP03_S10,LBP03,-1511,140,10,139,-1511,1715756827.56,2024-05-15 07:07:07.560000+00:00,2024-05-15 16:07:07.560000+09:00,2024,5,15,7,7,7,560,,,,,,,,,0.145264,-0.4375,1.18335,-76.599121,-43.762207,29.47998,,,,,,,,,,,0.0,1.0,1.0,10.0,0.0,0.0,0.0,5.0,0.0,0.15360358666666668,-0.19359370666666667,0.9545019866666666,-1.8497721599999997,1.2027995333333332,6.47460936,-25.46548660234318,-23.718794126127403,10.703533325702443,37.9709219187089,-9.134109884278635,9.612730951759008,40.219739818721735,-0.8964797781075626,40.81167558863782,-0.8794550225730259,-0.008339586666666676,-0.24390629333333333,0.22884801333333327,0.4810938933333333,0.3345612676924667,0.42111837809651725,0.519924442762102,0.5754096482102717
LBP03_S10,LBP03,-1510,141,10,140,-1510,1715756827.6,2024-05-15 07:07:07.600000+00:00,2024-05-15 16:07:07.600000+09:00,2024,5,15,7,7,7,600,,,,,,,,,0.223145,-0.171631,1.124023,32.592773,39.672852,8.850098,,,,,,,,,,,0.0,1.0,1.0,10.0,0.0,0.0,0.0,5.0,0.0,0.14879889333333332,-0.19359695999999998,0.9427148799999999,-0.5135091333333328,1.6276042133333333,5.199381493333332,-21.429243543378977,-16.803258386348,13.02394232256757,37.11375217697375,-9.806240219732555,10.133688644661712,39.70245072344867,-0.9114575425221054,40.43473974293763,-0.8764354990730621,0.07434610666666669,0.02196595999999998,0.18130812000000007,0.27762018666666677,0.19718641269911932,0.3927259724899567,0.5048738048991436,0.5701760497959546
LBP03_S10,LBP03,-1509,142,10,141,-1509,1715756827.64,2024-05-15 07:07:07.640000+00:00,2024-05-15 16:07:07.640000+09:00,2024,5,15,7,7,7,640,,,,,,,,,0.131836,-0.242188,0.911133,-7.995605,6.835938,9.58252,,,,,,,,,,,0.0,1.0,1.0,10.0,0.0,0.0,0.0,5.0,0.0,0.14659837333333334,-0.18742834666666666,0.9237044666666666,0.09033200000000052,-0.06673172000000022,3.7760416533333316,-15.521578623197733,-9.238143159909432,13.906716035500493,36.49288903204584,-10.175765946128932,10.689957286081732,39.364353789613524,-0.9032730085080379,40.0772933451163,-0.8765845065679813,-0.014762373333333328,-0.054759653333333325,-0.012571466666666642,0.0820934933333333,0.058091213395578725,0.3666578873697499,0.49364027831262214,0.5666488938352104
LBP03_S10,LBP03,-1508,143,10,142,-1508,1715756827.68,2024-05-15 07:07:07.680000+00:00,2024-05-15 16:07:07.680000+09:00,2024,5,15,7,7,7,680,,,,,,,,,0.17041,-0.331543,0.895752,25.024414,-2.990723,0.732422,,,,,,,,,,,0.0,1.0,1.0,10.0,0.0,0.0,0.0,5.0,0.0,0.14815110666666667,-0.18636063999999997,0.9117090266666668,1.8400064800000007,-2.620442653333334,2.1948242133333324,-9.482295411464536,-2.745263210474067,13.51009010851711,36.113597215587255,-10.285576474547895,11.230360890422416,39.19318809426676,-0.8955052174414599,39.76812313755909,-0.8779829718454794,0.022258893333333335,-0.14518236,-0.015957026666666763,0.1833982800000001,0.1477430292353417,0.3508296140621343,0.4803204897356548,0.5621269073636258
LBP03_S10,LBP03,-1507,144,10,143,-1507,1715756827.72,2024-05-15 07:07:07.720000+00:00,2024-05-15 16:07:07.720000+09:00,2024,5,15,7,7,7,720,,,,,,,,,0.110352,-0.046387,0.843018,24.597168,22.277832,6.713867,,,,,,,,,,,0.0,1.0,1.0,10.0,0.0,0.0,0.0,5.0,0.0,0.15304693333333333,-0.17891924,0.9057975733333334,1.2792968533333342,-4.92919916,1.6235351599999994,-4.7687909297128614,1.5231523620756617,12.277715449384463,35.92284557839874,-10.224650380064869,11.721469508397794,39.14571697236291,-0.8606755914259933,39.52283532759699,-0.8808848187542255,-0.042694933333333324,0.13253224000000002,-0.0627795733333334,0.23800674666666674,0.15273809871695657,0.3433354171181703,0.4702707928808378,0.5605096681222003
LBP03_S10,LBP03,-1506,145,10,144,-1506,1715756827.76,2024-05-15 07:07:07.760000+00:00,2024-05-15 16:07:07.760000+09:00,2024,5,15,7,7,7,760,,,,,,,,,0.159912,-0.170166,0.883301,10.253906,-10.253906,2.197266,,,,,,,,,,,0.0,1.0,1.0,10.0,0.0,0.0,0.0,5.0,0.0,0.16177089333333336,-0.1806738,0.9209538266666667,0.560709613333334,-6.0148111333333345,2.2827148399999997,-2.1764215965288125,3.14857646185579,10.738034854669483,35.83578871453759,-10.098707321590638,12.150990902584573,39.164195667405465,-0.8387088245827279,39.343721390427675,-0.8834108267143328,-0.0018588933333333613,0.010507799999999984,-0.037652826666666694,0.05001952000000004,0.0391357215501996,0.3311535273150988,0.4387371467042105,0.5517906940248382
LBP03_S10,LBP03,-1505,146,10,145,-1505,1715756827.8,2024-05-15 07:07:07.800000+00:00,2024-05-15 16:07:07.800000+09:00,2024,5,15,7,7,7,800,,,,,,,,,0.147705,-0.092285,0.813965,11.535645,1.403809,-3.295898,,,,,,,,,,,0.0,1.0,1.0,10.0,0.0,0.0,0.0,5.0,0.0,0.15963548,-0.18453446666666665,0.9326921066666667,-1.684570346666666,-4.8291015066666665,4.216308586666666,-1.7306334960741812,2.3951625743284772,9.334442744623978,35.76656337469463,-10.0029008186175,12.524368612369532,39.19393944937984,-0.8552601076006802,39.222025307251535,-0.8846846349862997,-0.011930479999999993,0.09224946666666664,-0.11872710666666664,0.22290705333333327,0.15082581447070947,0.3225392734344201,0.43085417452915264,0.5455456301610294
LBP03_S10,LBP03,-1504,147,10,146,-1504,1715756827.84,2024-05-15 07:07:07.840000+00:00,2024-05-15 16:07:07.840000+09:00,2024,5,15,7,7,7,840,,,,,,,,,0.201172,-0.143066,0.88208,-46.508789,-24.597168,15.441895,,,,,,,,,,,0.0,1.0,1.0,10.0,0.0,0.0,0.0,5.0,0.0,0.16109706666666668,-0.19362625333333333,0.9460449733333334,-2.937011746666666,-3.0305988933333334,5.80240884,-2.852891672549351,0.006649049278812436,8.333366695634846,35.65244770779265,-10.002634856646347,12.857703280194926,39.19783495645928,-0.8737827289185244,39.141460668969195,-0.8830291756052597,0.04007493333333331,0.05056025333333333,-0.0639649733333334,0.15460016000000004,0.09085074194708598,0.31085415109459313,0.42855416603191043,0.5452419789355348
LBP03_S10,LBP03,-1503,148,10,147,-1503,1715756827.88,2024-05-15 07:07:07.880000+00:00,2024-05-15 16:07:07.880000+09:00,2024,5,15,7,7,7,880,,,,,,,,,0.173584,-0.293457,0.987793,-26.062012,-6.530762,14.221191,,,,,,,,,,,0.0,1.0,1.0,10.0,0.0,0.0,0.0,5.0,0.0,0.15687181333333336,-0.19636388,0.9500553866666667,-2.3030599333333326,-1.3419595733333338,6.861979146666666,-4.7027803861085955,-3.06039458200992,7.8194578396135554,35.46433649234831,-10.125050639926744,13.170481593779469,39.162448834510755,-0.8930926525768729,39.08186792123247,-0.880676805475661,0.01671218666666663,-0.09709312000000003,0.037737613333333364,0.15154292000000003,0.10550117816693848,0.29819629820823407,0.4065032119781271,0.5347400939488322
LBP03_S10,LBP03,-1502,149,10,148,-1502,1715756827.92,2024-05-15 07:07:07.920000+00:00,2024-05-15 16:07:07.920000+09:00,2024,5,15,7,7,7,920,,,,,,,,,0.200439,-0.083008,0.941162,-31.555176,3.051758,15.686035,,,,,,,,,,,0.0,1.0,1.0,10.0,0.0,0.0,0.0,5.0,0.0,0.15498705333333335,-0.19936518666666664,0.9461426266666666,-1.2190755599999992,-0.38248692000000023,6.308593733333332,-6.543501130222155,-5.88538056491419,7.753928382939192,35.20259644713942,-10.360465862523313,13.480638729097036,39.0933455981078,-0.9058728154593632,39.022486746434076,-0.87605226931785,0.04545194666666666,0.11635718666666664,-0.004980626666666543,0.16678975999999984,0.12501872254492016,0.293717770170993,0.39769351735756575,0.523499953589926
LBP03_S10,LBP03,-1501,150,10,149,-1501,1715756827.96,2024-05-15 07:07:07.960000+00:00,2024-05-15 16:07:07.960000+09:00,2024,5,15,7,7,7,960,,,,,,,,,0.159424,-0.306641,1.029541,-19.287109,-12.329102,12.878418,,,,,,,,,,,0.0,1.0,1.0,10.0,0.0,0.0,0.0,5.0,0.0,0.14991544,-0.19419265333333333,0.9267806533333334,1.953124960000001,0.2872721866666665,4.531249986666666,-7.987884917825346,-7.763814587081745,8.053581338348781,34.883081050426405,-10.671018446006583,13.802781982630988,39.002778986960315,-0.9092178608272322,38.94475638361062,-0.8763005856947224,0.00950856,-0.11244834666666667,0.10276034666666667,0.22471725333333334,0.15262611908973495,0.27853452437719245,0.3878715910874642,0.5158714979904088
LBP03_S10,LBP03,-1500,151,10,150,-1500,1715756828.0,2024-05-15 07:07:08+00:00,2024-05-15 16:07:08+09:00,2024,5,15,7,7,8,0,7.0,7.0,8.0,40.531212,141.486359,69.599998,3.0,12.0,0.177246,-0.205566,0.968506,22.216797,-2.868652,8.605957,-258.0,6.0,357.0,1560.0,0.0,1014.200012,28.73,0.011892,-7.901858,3.698437,1.0,1.0,1.0,10.0,0.0,0.0,0.0,4.0,0.0,0.14807950666666667,-0.18603509333333332,0.9100033066666666,1.718749960000001,-1.4225260000000002,3.0094400933333327,-9.050994498543263,-8.305010895445966,8.650212174579291,34.52104127048467,-11.003218881824422,14.148790469614159,38.89680434062531,-0.8949029487117054,38.83446989741653,-0.8798378975809584,0.02916649333333332,-0.01953090666666668,0.058502693333333355,0.10720009333333336,0.06822540418230931,0.2507024829423476,0.38022249817562986,0.509352643241342
LBP03_S10,LBP03,-1499,152,10,151,-1499,1715756828.04,2024-05-15 07:07:08.040000+00:00,2024-05-15 16:07:08.040000+09:00,2024,5,15,7,7,8,40,,,,,,,,,0.148926,-0.174316,0.983643,3.112793,-1.586914,9.399414,,,,,,,,,,,1.0,1.0,1.0,10.0,0.0,0.0,0.0,4.0,0.0,0.15303718666666666,-0.18625645333333332,0.90739588,1.6210937066666675,-3.9957681866666666,1.7057291599999997,-10.02781450953072,-7.458513647366533,9.50890195861646,34.11992869010344,-11.301559427719083,14.529146547958817,38.76842631224633,-0.879749307212051,38.68287722596037,-0.8845426159985665,-0.004111186666666655,0.011940453333333323,0.07624712,0.09229875999999998,0.07728583046010497,0.23844192442122514,0.37741469534303723,0.5074146758845179
LBP03_S10,LBP03,-1498,153,10,152,-1498,1715756828.08,2024-05-15 07:07:08.080000+00:00,2024-05-15 16:07:08.080000+09:00,2024,5,15,7,7,8,80,,,,,,,,,0.237305,-0.224121,1.071289,3.601074,-10.559082,4.516602,,,,,,,,,,,1.0,1.0,1.0,10.0,0.0,0.0,0.0,4.0,0.0,0.15760098666666666,-0.17991530666666666,0.9151725733333332,2.006835893333334,-5.00162756,1.8318684933333331,-11.28418364937829,-5.486758753409002,10.607617476033223,33.668561344128314,-11.521029777855443,14.953451247000146,38.59937634628277,-0.8492598558633487,38.4865041277261,-0.888865556607894,0.07970401333333332,-0.044205693333333324,0.1561164266666667,0.28002613333333337,0.18077392439090767,0.23226184029726546,0.37437616631226683,0.5027184132875187
LBP03_S10,LBP03,-1497,154,10,153,-1497,1715756828.12,2024-05-15 07:07:08.120000+00:00,2024-05-15 16:07:08.120000+09:00,2024,5,15,7,7,8,120,,,,,,,,,0.190186,-0.144775,1.018311,-9.338379,-16.601562,5.859375,,,,,,,,,,,1.0,1.0,1.0,10.0,0.0,0.0,0.0,4.0,0.0,0.15840827999999998,-0.18616855999999998,0.9318457600000001,-1.8131510933333326,-4.796549440000001,3.4375000133333327,-13.065817366618923,-2.895835328482061,11.898384418315064,33.145928649463556,-11.636863190994726,15.429386623732748,38.368413344128264,-0.8631587551947176,38.246016869040886,-0.8930435492485111,0.03177772000000001,0.041393559999999996,0.08646523999999989,0.1596365199999999,0.10099251470346493,0.2310695995910514,0.3549680148809826,0.48558042106389726
LBP03_S10,LBP03,-1496,155,10,154,-1496,1715756828.16,2024-05-15 07:07:08.160000+00:00,2024-05-15 16:07:08.160000+09:00,2024,5,15,7,7,8,160,,,,,,,,,0.179688,-0.205811,0.986084,-27.587891,-3.540039,8.789062,,,,,,,,,,,1.0,1.0,1.0,10.0,0.0,0.0,0.0,4.0,0.0,0.16072925333333335,-0.19328445333333333,0.9525912000000002,-3.257649799999999,-4.140624973333334,4.491373706666666,-15.396056715479313,-0.32871347699837844,13.276306551353175,32.53008638084438,-11.650011730074661,15.960438885786875,38.06133080546465,-0.8740819434450876,37.96489894234606,-0.8951859541162195,0.018958746666666637,-0.012526546666666666,0.03349279999999977,0.06497809333333307,0.04047364696198016,0.21679575818977662,0.3482002703779581,0.4778298629023041
LBP03_S10,LBP03,-1495,156,10,155,-1495,1715756828.2,2024-05-15 07:07:08.200000+00:00,2024-05-15 16:07:08.200000+09:00,2024,5,15,7,7,8,200,,,,,,,,,0.248047,-0.142334,0.981934,-18.737793,7.446289,18.249512,,,,,,,,,,,1.0,1.0,1.0,10.0,0.0,0.0,0.0,4.0,0.0,0.15553394666666667,-0.19849603999999998,0.9631315599999999,-4.232584693333332,-2.273763,5.490722666666667,-18.0768317406884,1.574090807259814,14.576138516156611,31.807013111216843,-11.587048097784269,16.54348442643314,37.678012734818196,-0.9023072917767619,37.64858827698278,-0.896719758215537,0.09251305333333332,0.056162039999999996,0.018802440000000087,0.1674775333333334,0.10984703693760417,0.2088021221307022,0.3462907840392708,0.4750078455095559
LBP03_S10,LBP03,-1494,157,10,156,-1494,1715756828.24,2024-05-15 07:07:08.240000+00:00,2024-05-15 16:07:08.240000+09:00,2024,5,15,7,7,8,240,,,,,,,,,0.197266,-0.172119,1.017578,-34.301758,13.48877,14.892578,,,,,,,,,,,1.0,1.0,1.0,10.0,0.0,0.0,0.0,4.0,0.0,0.15160816,-0.19961582666666666,0.96410488,-4.593912813333333,-0.3304036266666666,5.49560548,-20.76225374647657,2.328204368924789,15.6005877757356,30.97652296135778,-11.493919923027278,17.167507937462563,37.23410397411665,-0.9170121350117995,37.30412775244249,-0.8978008365637548,0.045657840000000005,0.02749682666666667,0.05347312000000004,0.12662778666666671,0.07549892974563756,0.192220895187433,0.32844195294017053,0.4723057910563854
LBP03_S10,LBP03,-1493,158,10,157,-1493,1715756828.28,2024-05-15 07:07:08.280000+00:00,2024-05-15 16:07:08.280000+09:00,2024,5,15,7,7,8,280,,,,,,,,,0.141113,-0.300537,1.003418,-44.128418,6.164551,33.630371,,,,,,,,,,,1.0,1.0,1.0,10.0,0.0,0.0,0.0,4.0,0.0,0.14826830666666668,-0.20289382666666667,0.9554557866666668,-3.988444066666666,0.3328450666666667,4.79329428,-23.057806793118594,1.7370637901560082,16.167540510431543,30.054210689633038,-11.424437371421037,17.814209557879824,36.75757624765854,-0.9348725789830443,36.939808269838075,-0.8986667555695492,-0.007155306666666694,-0.09764317333333333,0.04796221333333317,0.1527606933333332,0.10902184010522656,0.18712461936190697,0.31760489480548626,0.45739358972949057
LBP03_S10,LBP03,-1492,159,10,158,-1492,1715756828.32,2024-05-15 07:07:08.320000+00:00,2024-05-15 16:07:08.320000+09:00,2024,5,15,7,7,8,320,,,,,,,,,0.175537,-0.186279,1.08374,29.052734,20.568848,13.305664,,,,,,,,,,,1.0,1.0,1.0,10.0,0.0,0.0,0.0,4.0,0.0,0.14747077333333333,-0.19852533333333333,0.9430632133333334,-2.425130266666666,-0.9179687333333334,3.08837892,-24.609866749810347,-0.04207828482733883,16.153943329846875,29.069816019640623,-11.42612050281413,18.4603672910737,36.28216633115955,-0.9272968641364471,36.56420172888693,-0.9027145684775937,0.028066226666666666,0.012246333333333331,0.1406767866666665,0.1809893466666665,0.143970983417752,0.16644055174390818,0.3116526509312985,0.447858043257094
LBP03_S10,LBP03,-1491,160,10,159,-1491,1715756828.36,2024-05-15 07:07:08.360000+00:00,2024-05-15 16:07:08.360000+09:00,2024,5,15,7,7,8,360,,,,,,,,,0.2229,-0.198242,1.08374,-26.672363,-4.882812,6.225586,,,,,,,,,,,1.0,1.0,1.0,10.0,0.0,0.0,0.0,4.0,0.0,0.14894213333333334,-0.19939122666666664,0.9337956266666667,-1.9148763599999992,-2.280273413333333,2.2542317866666663,-25.17696025519776,-2.52776710041344,15.517947448092075,28.062737609432713,-11.527231186830669,19.08108518899738,35.83967233332758,-0.9245559018204059,36.18441586903352,-0.9056347747534221,0.07395786666666665,0.0011492266666666417,0.14994437333333321,0.2250514666666665,0.16719569928123698,0.14373758798976238,0.30901562976517805,0.4393013310106687
LBP03_S10,LBP03,-1490,161,10,160,-1490,1715756828.4,2024-05-15 07:07:08.400000+00:00,2024-05-15 16:07:08.400000+09:00,2024,5,15,7,7,8,400,,,,,,,,,0.151367,-0.061768,1.065186,-16.540527,-20.812988,7.263184,,,,,,,,,,,1.0,1.0,1.0,10.0,0.0,0.0,0.0,4.0,0.0,0.1503028133333333,-0.19323888,0.9273405600000001,-1.1173503066666657,-3.5872395599999995,1.9417317866666663,-24.692357949100806,-5.037509195963198,14.29589765298707,27.07504329146868,-11.728731554669197,19.652921095116863,35.45219909522237,-0.9057137321938847,35.80397257784275,-0.9078019041190343,0.0010641866666666888,0.13147088,0.13784543999999987,0.2703805066666666,0.19049170614499067,0.13988153339386933,0.30542824798974566,0.4287971201105397
LBP03_S10,LBP03,-1489,162,10,161,-1489,1715756828.44,2024-05-15 07:07:08.440000+00:00,2024-05-15 16:07:08.440000+09:00,2024,5,15,7,7,8,440,,,,,,,,,0.247314,-0.391357,1.227539,-117.980957,-35.644531,19.958496,,,,,,,,,,,1.0,1.0,1.0,10.0,0.0,0.0,0.0,4.0,0.0,0.15397142666666666,-0.19082026666666665,0.93184252,-1.1352539466666658,-4.746093733333333,1.9848632933333332,-23.316484655081272,-6.864767769493673,12.585387726440256,26.14238390526543,-12.003322265448944,20.156336604174474,35.12523148620215,-0.8884084972699935,35.42103532963496,-0.9098683332377236,0.09334257333333335,-0.20053673333333336,0.29569647999999993,0.5895757866666667,0.36927527089812484,0.14048560630037238,0.29917112449614414,0.4160628402318297
LBP03_S10,LBP03,-1488,163,10,162,-1488,1715756828.48,2024-05-15 07:07:08.480000+00:00,2024-05-15 16:07:08.480000+09:00,2024,5,15,7,7,8,480,,,,,,,,,0.248535,-0.388916,1.277588,15.319824,-7.202148,11.108398,,,,,,,,,,,1.0,1.0,1.0,10.0,0.0,0.0,0.0,4.0,0.0,0.15747728,-0.19572586666666666,0.9506022799999999,-3.1803385733333327,-5.87809244,2.76204428,-21.447337712186755,-7.446588483194604,10.527981722380995,25.284490396777958,-12.301185804776727,20.577455873069713,34.843310936771324,-0.8897379849437954,35.027680734255156,-0.9120740663263016,0.09105772000000001,-0.19319013333333332,0.32698572000000004,0.6112335733333334,0.3905554980702076,0.15191782623297223,0.29251298535648046,0.4067004858962102
LBP03_S10,LBP03,-1487,164,10,163,-1487,1715756828.52,2024-05-15 07:07:08.520000+00:00,2024-05-15 16:07:08.520000+09:00,2024,5,15,7,7,8,520,,,,,,,,,0.208496,-0.165039,1.178955,16.601562,14.465332,9.765625,,,,,,,,,,,1.0,1.0,1.0,10.0,0.0,0.0,0.0,4.0,0.0,0.1640886,-0.20514643999999999,0.9719238933333333,-2.7937825866666657,-4.192708333333333,3.7060547066666665,-19.65072527825494,-6.467302439290618,8.295676175379917,24.49846138564776,-12.559877902348353,20.90928292008491,34.57055474559422,-0.892360817953003,34.61061218934712,-0.9112897815778606,0.044407399999999986,0.040107439999999994,0.2070311066666667,0.29154594666666667,0.2155052274209104,0.1517356732891804,0.2930880676328013,0.3992650404341335
LBP03_S10,LBP03,-1486,165,10,164,-1486,1715756828.56,2024-05-15 07:07:08.560000+00:00,2024-05-15 16:07:08.560000+09:00,2024,5,15,7,7,8,560,,,,,,,,,0.148193,-0.155518,1.152588,-15.991211,2.380371,7.93457,,,,,,,,,,,1.0,1.0,1.0,10.0,0.0,0.0,0.0,4.0,0.0,0.16038742666666667,-0.20187496000000002,0.9820801466666668,-2.1704101866666656,-1.8538411466666662,4.468587253333333,-18.5131568979874,-3.8823507129639596,6.075533422476936,23.757935109728265,-12.71517193086691,21.152304256983985,34.25689789355697,-0.8957532371012085,34.15328290911104,-0.9108622949515863,-0.012194426666666675,0.04635696000000003,0.17050785333333318,0.2290592399999999,0.17711747466162614,0.14543792156794674,0.283278149832232,0.3950956023640503
LBP03_S10,LBP03,-1485,166,10,165,-1485,1715756828.6,2024-05-15 07:07:08.600000+00:00,2024-05-15 16:07:08.600000+09:00,2024,5,15,7,7,8,600,,,,,,,,,0.192871,-0.302002,1.18335,-30.212402,3.051758,0.854492,,,,,,,,,,,1.0,1.0,1.0,10.0,0.0,0.0,0.0,4.0,0.0,0.15640957333333333,-0.20863603999999997,0.9885189466666666,-3.5603841466666655,0.18961588000000043,4.7192382933333334,-18.47161457083747,0.11327248480523963,4.045823004090929,23.019070526894765,-12.710641031474701,21.31413717714762,33.84864025274028,-0.9229715829636546,33.638973415987905,-0.9088902247168775,0.03646142666666666,-0.09336596000000003,0.19483105333333328,0.32465844,0.21910220780326808,0.14631455337211272,0.2695202629310347,0.3853540543901333
LBP03_S10,LBP03,-1484,167,10,166,-1484,1715756828.64,2024-05-15 07:07:08.640000+00:00,2024-05-15 16:07:08.640000+09:00,2024,5,15,7,7,8,640,,,,,,,,,0.143799,-0.180664,1.039062,-35.766602,-2.624512,8.422852,,,,,,,,,,,1.0,1.0,1.0,10.0,0.0,0.0,0.0,4.0,0.0,0.14839850666666665,-0.20485349333333333,0.9776432933333332,-2.915852893333332,1.5934244800000004,3.923339853333333,-19.683249624343212,5.134784425679502,2.342567392364013,22.231740541921038,-12.505249654447521,21.40783987284218,33.300558020318626,-0.939069465897578,33.05410109931185,-0.9095863815793619,-0.004599506666666642,0.02418949333333334,0.06141870666666671,0.09020770666666669,0.06617057184206691,0.14663772770997224,0.25664780753986105,0.3779727614450722
LBP03_S10,LBP03,-1483,168,10,167,-1483,1715756828.68,2024-05-15 07:07:08.680000+00:00,2024-05-15 16:07:08.680000+09:00,2024,5,15,7,7,8,680,,,,,,,,,0.199463,-0.370361,1.158447,-9.033203,-0.244141,2.075195,,,,,,,,,,,1.0,1.0,1.0,10.0,0.0,0.0,0.0,4.0,0.0,0.14889329333333334,-0.20026690666666666,0.9664876933333333,-3.0159505466666654,-0.13427734666666613,2.7799479199999997,-21.965819763831707,10.65549805904925,1.0218238966162516,21.35310775136777,-12.079029732085552,21.44871282870683,32.586890798578224,-0.9270297314986348,32.39101962216835,-0.9115751336752513,0.05056970666666666,-0.17009409333333333,0.19195930666666672,0.4126231066666667,0.2614147494599125,0.15118459651895508,0.25100710529054465,0.3706085253300882
LBP03_S10,LBP03,-1482,169,10,168,-1482,1715756828.72,2024-05-15 07:07:08.720000+00:00,2024-05-15 16:07:08.720000+09:00,2024,5,15,7,7,8,720,,,,,,,,,0.273926,-0.172363,1.136475,12.817383,13.061523,-9.216309,,,,,,,,,,,1.0,1.0,1.0,10.0,0.0,0.0,0.0,4.0,0.0,0.15172206666666666,-0.20239255999999997,0.9621257066666665,-2.5032552266666657,-1.988932293333333,1.7952474000000003,-24.81096722273438,16.05594160195693,0.028160029252454297,20.360669062458395,-11.436792068007275,21.44983922987693,31.708873528798716,-0.9230219978737044,31.64980814970237,-0.914426518633714,0.12220393333333335,0.030029559999999983,0.17434929333333338,0.32658278666666674,0.2150191895663364,0.15367584015293026,0.24850562863555026,0.36473914197153523
LBP03_S10,LBP03,-1481,170,10,169,-1481,1715756828.76,2024-05-15 07:07:08.760000+00:00,2024-05-15 16:07:08.760000+09:00,2024,5,15,7,7,8,760,,,,,,,,,0.148682,-0.147217,1.137451,-59.020996,33.752441,-6.225586,,,,,,,,,,,1.0,1.0,1.0,10.0,0.0,0.0,0.0,4.0,0.0,0.15148769333333334,-0.19430662666666665,0.9614551333333332,-3.356119799999999,-2.9907226533333326,2.0402018266666664,-27.46743702585912,20.68422506012789,-0.8159799447855224,19.26197158142403,-10.60942306560216,21.417200032085507,30.696577402096175,-0.9048351994733193,30.839005740332198,-0.9177579737098112,-0.002805693333333331,0.04708962666666666,0.17599586666666678,0.22589118666666677,0.18220825979751276,0.15939874168282278,0.2452761344989608,0.3456243450304146
LBP03_S10,LBP03,-1480,171,10,170,-1480,1715756828.8,2024-05-15 07:07:08.800000+00:00,2024-05-15 16:07:08.800000+09:00,2024,5,15,7,7,8,800,,,,,,,,,0.094971,-0.318115,1.109619,-31.12793,48.461914,-7.263184,,,,,,,,,,,1.0,1.0,1.0,10.0,0.0,0.0,0.0,4.0,0.0,0.15414394666666667,-0.20108395999999998,0.9748275333333334,-4.796549479999999,-4.715169266666667,2.15413412,-29.0887386244855,23.926320073145234,-1.7841355799642533,18.09842203644461,-9.65237026267635,21.345834608886936,29.603475928461812,-0.9126753008187276,29.97571938808639,-0.9233782636136736,-0.05917294666666667,-0.11703104,0.13479146666666653,0.3109954533333332,0.18805967517479352,0.16088809611098615,0.24171368477270314,0.34086548172309716
LBP03_S10,LBP03,-1479,172,10,171,-1479,1715756828.84,2024-05-15 07:07:08.840000+00:00,2024-05-15 16:07:08.840000+09:00,2024,5,15,7,7,8,840,,,,,,,,,0.119141,-0.306396,1.133057,-26.367188,10.925293,4.516602,,,,,,,,,,,1.0,1.0,1.0,10.0,0.0,0.0,0.0,4.0,0.0,0.15960293333333334,-0.20629554666666663,0.9968555200000001,-4.706217439999999,-5.104166666666666,2.742513026666667,-28.92195798091991,25.272377879622354,-3.1739128132674574,16.941543717207814,-8.641475147491455,21.21887809635624,28.49441671476717,-0.9082960182288881,29.085607793382554,-0.9254827345686939,-0.04046193333333334,-0.10010045333333337,0.13620147999999987,0.2767638666666666,0.17380480994725184,0.16420625883099277,0.23753020496279298,0.3404381969649379
LBP03_S10,LBP03,-1478,173,10,172,-1478,1715756828.88,2024-05-15 07:07:08.880000+00:00,2024-05-15 16:07:08.880000+09:00,2024,5,15,7,7,8,880,,,,,,,,,0.176514,-0.043701,0.949707,-7.93457,8.361816,-21.179199,,,,,,,,,,,1.0,1.0,1.0,10.0,0.0,0.0,0.0,4.0,0.0,0.16135748,-0.21305986666666668,1.0161524,-5.091145826666665,-3.1217447866666665,4.20247396,-26.49494730521934,24.37050907637422,-5.196382116414697,15.88174582499904,-7.666654784436487,21.01102281169965,27.4311962121115,-0.9182518345284206,28.202591703480955,-0.9253219445402969,0.015156520000000007,0.1693588666666667,-0.06644539999999999,0.25096078666666666,0.1825572156839827,0.16728850033167453,0.23274239926995433,0.32676497476264293
LBP03_S10,LBP03,-1477,174,10,173,-1477,1715756828.92,2024-05-15 07:07:08.920000+00:00,2024-05-15 16:07:08.920000+09:00,2024,5,15,7,7,8,920,,,,,,,,,0.185303,-0.26001,0.982178,-60.791016,-22.033691,1.525879,,,,,,,,,,,1.0,1.0,1.0,10.0,0.0,0.0,0.0,4.0,0.0,0.15950526666666667,-0.2139648133333333,1.0214388533333332,-5.120442706666665,-0.0748697866666665,5.21402996,-21.75558903439332,21.081808598519586,-7.853366054363405,15.011522263623307,-6.8233824404957035,20.696888169525113,26.462530651892536,-0.9256753687139757,27.367152115818236,-0.9240245870721994,0.025797733333333323,-0.04604518666666671,-0.03926085333333318,0.11110377333333321,0.06578067242562559,0.16491897832690278,0.2293183742489479,0.32010200434734476
LBP03_S10,LBP03,-1476,175,10,174,-1476,1715756828.96,2024-05-15 07:07:08.960000+00:00,2024-05-15 16:07:08.960000+09:00,2024,5,15,7,7,8,960,,,,,,,,,0.224854,-0.323486,0.939697,-13.244629,1.89209,5.310059,,,,,,,,,,,1.0,1.0,1.0,10.0,0.0,0.0,0.0,4.0,0.0,0.15169928,-0.21537106666666664,1.0133333866666667,-5.082194013333332,1.5478515733333336,4.680989599999999,-15.124695633264878,15.562879428502232,-10.84536646337753,14.406534438292713,-6.200867263355614,20.26307351099001,25.624034371098833,-0.9519561361398332,26.621957494014776,-0.9243325715429652,0.07315472,-0.10811493333333336,-0.07363638666666672,0.25490604000000006,0.14987584631711798,0.1648089674159981,0.22167174589659527,0.31351738319697553
LBP03_S10,LBP03,-1475,176,10,175,-1475,1715756829.0,2024-05-15 07:07:09+00:00,2024-05-15 16:07:09+09:00,2024,5,15,7,7,9,0,7.0,7.0,9.0,40.531292,141.486404,68.875999,3.0,12.0,0.197266,-0.258057,1.144043,-29.663086,56.45752,19.65332,-258.0,23.0,361.0,1566.0,0.0,1014.599976,28.780001,0.015856,-11.226815,3.698437,1.0,1.0,1.0,10.0,0.0,0.0,0.0,4.0,0.0,0.15293950666666667,-0.21343748,1.0052214133333333,-3.7841796933333325,-0.1586913999999998,3.4269205866666668,-7.434791330217631,8.374452793671711,-13.561622926655563,14.109142785084007,-5.865889151608746,19.72060859392379,24.94752430570196,-0.9440162925138581,26.005189917734093,-0.9274508202497224,0.04432649333333333,-0.04461951999999997,0.13882158666666666,0.22776759999999996,0.15240463411888527,0.16817613661346112,0.20943930977790434,0.30954037765490694
LBP03_S10,LBP03,-1474,177,10,176,-1474,1715756829.04,2024-05-15 07:07:09.040000+00:00,2024-05-15 16:07:09.040000+09:00,2024,5,15,7,7,9,40,,,,,,,,,0.026611,-0.210205,0.766602,23.925781,105.224609,10.131836,,,,,,,,,,,1.0,1.0,1.0,10.0,0.0,0.0,0.0,4.0,0.0,0.15617193333333332,-0.21495115999999995,1.0004362533333333,-2.280273453333332,-0.33691405333333324,2.3453776133333335,0.25187913475423895,0.5496659623024023,-15.196719523739313,14.119217950474177,-5.84390251311665,19.112739812974215,24.470397121302565,-0.9374615656136087,25.54420359397541,-0.9298035019505069,-0.12956093333333332,0.004746159999999944,-0.2338342533333333,0.36814134666666654,0.26737056590602404,0.17577952603129787,0.2071107252262615,0.31020297223912413
LBP03_S10,LBP03,-1473,178,10,177,-1473,1715756829.08,2024-05-15 07:07:09.080000+00:00,2024-05-15 16:07:09.080000+09:00,2024,5,15,7,7,9,80,,,,,,,,,-0.231934,0.012207,0.348389,-2.807617,39.123535,-31.860352,,,,,,,,,,,1.0,1.0,1.0,10.0,0.0,0.0,0.0,4.0,0.0,0.15846685333333332,-0.20734048,1.00189784,-1.4078776266666655,0.51188152,2.58544924,6.914865294132969,-6.49436334947673,-15.001362619647496,14.395812562239495,-6.10367704709572,18.512685308188317,24.232494921951126,-0.9140561568176596,25.252514283837804,-0.9330144031022345,-0.3904008533333333,0.21954748,-0.65350884,1.2634571733333333,0.7922674587636999,0.20023926740620956,0.21625055385173755,0.3163305333435811
LBP03_S10,LBP03,-1472,179,10,178,-1472,1715756829.12,2024-05-15 07:07:09.120000+00:00,2024-05-15 16:07:09.120000+09:00,2024,5,15,7,7,9,120,,,,,,,,,0.074463,-0.398926,0.390137,-10.375977,-122.009277,-66.894531,,,,,,,,,,,1.0,1.0,1.0,10.0,0.0,0.0,0.0,4.0,0.0,0.15751958666666666,-0.21149411999999998,1.0094629466666667,-3.7076823066666655,-0.5216471333333333,3.2169596533333333,11.863781304870797,-11.280859454388489,-12.606113575273827,14.870363814434327,-6.554911425271259,18.008440765177365,24.256927310764063,-0.9261018425813606,25.130899777279087,-0.9363809399143911,-0.08305658666666665,-0.18743188000000002,-0.6193259466666667,0.8898144133333334,0.6523754551204505,0.22229458502288899,0.22668209230697017,0.31074353826161805
LBP03_S10,LBP03,-1471,180,10,179,-1471,1715756829.16,2024-05-15 07:07:09.160000+00:00,2024-05-15 16:07:09.160000+09:00,2024,5,15,7,7,9,160,,,,,,,,,0.214844,-0.162354,0.456055,151.123047,-80.627441,-80.932617,,,,,,,,,,,1.0,1.0,1.0,10.0,0.0,0.0,0.0,4.0,0.0,0.15824874666666666,-0.2170833066666667,1.0223372933333332,-3.1274414266666652,-0.10416666666666657,3.5742187599999995,14.944482791262718,-12.77235535721972,-8.284869667749756,15.468143126084836,-7.065805639560048,17.677045978467376,24.52890163928939,-0.9360176865408895,25.1708261881319,-0.9392271124963629,0.056595253333333345,0.0547293066666667,-0.5662822933333332,0.6776068533333333,0.571728917801905,0.243544795856486,0.23017027702313134,0.3133151122041341
LBP03_S10,LBP03,-1470,181,10,180,-1470,1715756829.2,2024-05-15 07:07:09.200000+00:00,2024-05-15 16:07:09.200000+09:00,2024,5,15,7,7,9,200,,,,,,,,,0.328613,0.267822,0.50708,14.282227,-45.471191,-7.202148,,,,,,,,,,,1.0,1.0,1.0,10.0,0.0,0.0,0.0,4.0,0.0,0.15771164000000001,-0.21638669333333335,1.0297884666666666,-2.7775065333333324,1.06201172,4.01041668,16.566025132345246,-10.82906457934665,-3.004207196635587,16.130784131378647,-7.498968222733914,17.556877690601954,24.99361269087498,-0.9362021178265746,25.357694775562052,-0.9388586705378044,0.17090135999999997,0.4842086933333334,-0.5227084666666666,1.17781852,0.732727421811441,0.2684600112514395,0.23863106669107081,0.3203471931099937
LBP03_S10,LBP03,-1469,182,10,181,-1469,1715756829.24,2024-05-15 07:07:09.240000+00:00,2024-05-15 16:07:09.240000+09:00,2024,5,15,7,7,9,240,,,,,,,,,0.277344,-0.334961,1.296875,-9.58252,-1.647949,31.37207,,,,,,,,,,,1.0,1.0,1.0,10.0,0.0,0.0,0.0,4.0,0.0,0.1567383333333333,-0.21701494666666665,1.0292220533333334,-2.2094726799999984,2.3966471333333335,4.060872413333334,17.498892993292003,-6.375991263010755,1.8240674725154742,16.830739851110327,-7.754007873254344,17.629840389502572,25.57752361339111,-0.9404050297461638,25.67250638123547,-0.9369863135747302,0.12060566666666667,-0.11794605333333336,0.2676529466666666,0.5062046666666666,0.31637809372390197,0.2780951778105701,0.23515803649900152,0.311659694563637
LBP03_S10,LBP03,-1468,183,10,182,-1468,1715756829.28,2024-05-15 07:07:09.280000+00:00,2024-05-15 16:07:09.280000+09:00,2024,5,15,7,7,9,280,,,,,,,,,0.008057,-0.186523,1.269531,-100.585938,0.976562,71.594238,,,,,,,,,,,1.0,1.0,1.0,10.0,0.0,0.0,0.0,4.0,0.0,0.15016606666666665,-0.21310544,1.0183529066666668,-1.981608093333332,2.5927734266666667,3.2267252666666666,18.50098630326553,-1.1532287423608916,4.825592052560891,17.570779303240947,-7.80013702294878,17.822864071605007,26.215051146524306,-0.9519172026499884,26.0921724972223,-0.9367210268983968,-0.14210906666666664,0.026582440000000013,0.2511780933333332,0.41986959999999984,0.28981381526040706,0.2853268568167773,0.23622573808934214,0.3068455488092499
